time,seconds_elapsed,z,y,x
1761914241322195000,0.00719482421875,-0.7463836669921875,-0.641876220703125,0.101898193359375
1761914241332251100,0.017251220703125,-0.7455902099609375,-0.64154052734375,0.0973663330078125
1761914241342307000,0.02730712890625,-0.7413177490234375,-0.63720703125,0.0870208740234375
1761914241352364000,0.037364013671875,-0.74371337890625,-0.6295013427734375,0.0745391845703125
1761914241362420000,0.047419921875,-0.7548675537109375,-0.6216278076171875,0.06939697265625
1761914241372476200,0.05747607421875,-0.7604522705078125,-0.6203155517578125,0.0691986083984375
1761914241382532000,0.067531982421875,-0.7668914794921875,-0.625274658203125,0.0664825439453125
1761914241392589000,0.077589111328125,-0.7728271484375,-0.6291961669921875,0.063079833984375
1761914241402645000,0.08764501953125,-0.77630615234375,-0.630615234375,0.0595703125
1761914241412701000,0.097700927734375,-0.7802734375,-0.63043212890625,0.0519866943359375
1761914241422758100,0.107758056640625,-0.7792510986328125,-0.6270294189453125,0.046142578125
1761914241432809500,0.1178095703125,-0.7757568359375,-0.625213623046875,0.04248046875
1761914241442865700,0.12786572265625,-0.7750701904296875,-0.629150390625,0.04071044921875
1761914241452922600,0.137922607421875,-0.77740478515625,-0.6373748779296875,0.0406341552734375
1761914241462978600,0.147978515625,-0.779388427734375,-0.64202880859375,0.039215087890625
1761914241473034500,0.158034423828125,-0.7838134765625,-0.638702392578125,0.0378570556640625
1761914241483090700,0.168090576171875,-0.7874298095703125,-0.634063720703125,0.03753662109375
1761914241493147600,0.178147705078125,-0.792510986328125,-0.634033203125,0.036895751953125
1761914241503203600,0.18820361328125,-0.7947235107421875,-0.6334228515625,0.0345001220703125
1761914241513259800,0.198259765625,-0.7955169677734375,-0.6307220458984375,0.0343475341796875
1761914241523316700,0.208316650390625,-0.7988739013671875,-0.6301727294921875,0.0347137451171875
1761914241533372700,0.21837255859375,-0.7972259521484375,-0.630950927734375,0.033660888671875
1761914241543428600,0.2284287109375,-0.7937469482421875,-0.6274261474609375,0.0306396484375
1761914241553485600,0.238485595703125,-0.7875213623046875,-0.6261138916015625,0.029327392578125
1761914241563541800,0.248541748046875,-0.7882232666015625,-0.6292572021484375,0.02978515625
1761914241573597700,0.25859765625,-0.789459228515625,-0.6314544677734375,0.0316162109375
1761914241583653400,0.2686533203125,-0.788330078125,-0.6334228515625,0.032928466796875
1761914241593710600,0.278710693359375,-0.79168701171875,-0.637298583984375,0.0347900390625
1761914241603766500,0.2887666015625,-0.7949981689453125,-0.6421051025390625,0.034027099609375
1761914241613822500,0.298822509765625,-0.7931671142578125,-0.6465301513671875,0.0317840576171875
1761914241623879400,0.30887939453125,-0.78839111328125,-0.64508056640625,0.028717041015625
1761914241633935400,0.318935302734375,-0.78533935546875,-0.6420745849609375,0.0235595703125
1761914241643991600,0.328991455078125,-0.783782958984375,-0.6406707763671875,0.0215301513671875
1761914241654048500,0.339048583984375,-0.7805938720703125,-0.6391754150390625,0.0210723876953125
1761914241664104400,0.3491044921875,-0.77978515625,-0.634613037109375,0.0176544189453125
1761914241674160400,0.359160400390625,-0.781707763671875,-0.6312408447265625,0.014190673828125
1761914241684216600,0.369216552734375,-0.7855224609375,-0.6271820068359375,0.009246826171875
1761914241694273500,0.3792734375,-0.7886810302734375,-0.623321533203125,0.0058135986328125
1761914241704329500,0.38932958984375,-0.7900543212890625,-0.6191558837890625,0.003997802734375
1761914241714385400,0.399385498046875,-0.7869110107421875,-0.6167449951171875,0.00360107421875
1761914241724442400,0.4094423828125,-0.77947998046875,-0.6147003173828125,0.0018157958984375
1761914241734498600,0.41949853515625,-0.7773590087890625,-0.614044189453125,0.0013275146484375
1761914241744554500,0.429554443359375,-0.7755279541015625,-0.614105224609375,0.0018310546875
1761914241754611500,0.439611572265625,-0.7698822021484375,-0.61700439453125,0.0034332275390625
1761914241764667400,0.44966748046875,-0.7646636962890625,-0.6233062744140625,0.0070953369140625
1761914241774723600,0.4597236328125,-0.76519775390625,-0.6305084228515625,0.010284423828125
1761914241784779500,0.469779541015625,-0.7689361572265625,-0.6335906982421875,0.0109405517578125
1761914241794836500,0.47983642578125,-0.7637481689453125,-0.6352081298828125,0.011627197265625
1761914241804892400,0.489892333984375,-0.7513885498046875,-0.635009765625,0.0073699951171875
1761914241814948600,0.499948486328125,-0.746124267578125,-0.6344757080078125,0.00225830078125
1761914241825005600,0.510005615234375,-0.74951171875,-0.633514404296875,-0.0014801025390625
1761914241835061500,0.5200615234375,-0.75030517578125,-0.6345672607421875,-0.0005340576171875
1761914241845117700,0.53011767578125,-0.7452392578125,-0.63519287109375,0.0015869140625
1761914241855174700,0.540174560546875,-0.7430419921875,-0.6383819580078125,-0.000946044921875
1761914241865230600,0.550230712890625,-0.739593505859375,-0.64105224609375,-0.0037078857421875
1761914241875286500,0.56028662109375,-0.734100341796875,-0.64190673828125,-0.0025634765625
1761914241885342700,0.5703427734375,-0.731048583984375,-0.6396942138671875,-0.0014801025390625
1761914241895399700,0.580399658203125,-0.7316131591796875,-0.637298583984375,0.0006256103515625
1761914241905455600,0.59045556640625,-0.7340850830078125,-0.6333465576171875,0.002197265625
1761914241915511600,0.600511474609375,-0.7349700927734375,-0.62615966796875,0.0037384033203125
1761914241925568500,0.610568603515625,-0.7361602783203125,-0.61859130859375,0.0071563720703125
1761914241935624700,0.620624755859375,-0.733856201171875,-0.6143341064453125,0.0100860595703125
1761914241945680600,0.6306806640625,-0.729949951171875,-0.6102447509765625,0.0125274658203125
1761914241955736600,0.640736572265625,-0.7292327880859375,-0.608184814453125,0.0152587890625
1761914241965793500,0.65079345703125,-0.726593017578125,-0.6112213134765625,0.0229949951171875
1761914241975849700,0.660849609375,-0.72149658203125,-0.61651611328125,0.032623291015625
1761914241985905700,0.67090576171875,-0.7216796875,-0.6236724853515625,0.0420379638671875
1761914241995962600,0.680962646484375,-0.7248077392578125,-0.63092041015625,0.047393798828125
1761914242006018600,0.6910185546875,-0.72479248046875,-0.63250732421875,0.04754638671875
1761914242016074800,0.70107470703125,-0.72247314453125,-0.629486083984375,0.0479583740234375
1761914242026131700,0.711131591796875,-0.7208099365234375,-0.62493896484375,0.052490234375
1761914242036187600,0.721187744140625,-0.72296142578125,-0.6200103759765625,0.0545501708984375
1761914242046243600,0.73124365234375,-0.730865478515625,-0.6147918701171875,0.055816650390625
1761914242056299500,0.741299560546875,-0.7348785400390625,-0.615020751953125,0.0601654052734375
1761914242066356700,0.751356689453125,-0.736785888671875,-0.6210174560546875,0.0655975341796875
1761914242076412400,0.761412353515625,-0.741058349609375,-0.62750244140625,0.073455810546875
1761914242086468400,0.77146826171875,-0.747589111328125,-0.6342926025390625,0.0817108154296875
1761914242096525600,0.781525634765625,-0.752655029296875,-0.6427001953125,0.0893096923828125
1761914242106581500,0.79158154296875,-0.751373291015625,-0.6516265869140625,0.0966339111328125
1761914242116637400,0.801637451171875,-0.7550048828125,-0.6636962890625,0.1018218994140625
1761914242126694400,0.8116943359375,-0.7619476318359375,-0.6709747314453125,0.102630615234375
1761914242136750300,0.821750244140625,-0.7637786865234375,-0.67376708984375,0.09747314453125
1761914242146806500,0.831806640625,-0.7611083984375,-0.6678314208984375,0.0872344970703125
1761914242156862500,0.841862548828125,-0.7581634521484375,-0.660003662109375,0.0761260986328125
1761914242166919400,0.85191943359375,-0.758087158203125,-0.6522064208984375,0.067596435546875
1761914242176975600,0.8619755859375,-0.7628631591796875,-0.64105224609375,0.0592498779296875
1761914242187031600,0.872031494140625,-0.7640228271484375,-0.6287384033203125,0.05230712890625
1761914242197088500,0.882088623046875,-0.7646331787109375,-0.6197967529296875,0.046600341796875
1761914242207144400,0.89214453125,-0.768341064453125,-0.612274169921875,0.0413970947265625
1761914242217200600,0.90220068359375,-0.7704925537109375,-0.6093597412109375,0.0388031005859375
1761914242227256600,0.912256591796875,-0.7741241455078125,-0.606689453125,0.0396728515625
1761914242237313500,0.9223134765625,-0.77679443359375,-0.6060333251953125,0.040252685546875
1761914242247369500,0.932369384765625,-0.778961181640625,-0.6084442138671875,0.03985595703125
1761914242257425700,0.94242578125,-0.7812347412109375,-0.6113433837890625,0.0392303466796875
1761914242267482600,0.952482666015625,-0.778717041015625,-0.612030029296875,0.0397491455078125
1761914242277538600,0.96253857421875,-0.772918701171875,-0.615234375,0.041290283203125
1761914242287594500,0.972594482421875,-0.764739990234375,-0.618804931640625,0.0428009033203125
1761914242297651500,0.9826513671875,-0.762237548828125,-0.61895751953125,0.04071044921875
1761914242307707600,0.992707763671875,-0.7598114013671875,-0.61883544921875,0.0382843017578125
1761914242317763600,1.002763671875,-0.7575836181640625,-0.6217041015625,0.0354461669921875
1761914242327819500,1.012819580078125,-0.7575531005859375,-0.630950927734375,0.039276123046875
1761914242337876500,1.02287646484375,-0.759429931640625,-0.6388397216796875,0.040802001953125
1761914242347932700,1.0329326171875,-0.764068603515625,-0.6385498046875,0.0336456298828125
1761914242357988600,1.042988525390625,-0.7642974853515625,-0.633453369140625,0.0234832763671875
1761914242368045600,1.053045654296875,-0.763671875,-0.6260223388671875,0.0128173828125
1761914242378101500,1.0631015625,-0.7682037353515625,-0.62078857421875,0.0008697509765625
1761914242388157700,1.07315771484375,-0.7711029052734375,-0.6178131103515625,-0.005645751953125
1761914242398214700,1.083214599609375,-0.76995849609375,-0.6168670654296875,-0.0102386474609375
1761914242408270600,1.0932705078125,-0.7703704833984375,-0.6145782470703125,-0.0147247314453125
1761914242418326500,1.103326416015625,-0.770660400390625,-0.6132659912109375,-0.0153961181640625
1761914242428382700,1.1133828125,-0.7769622802734375,-0.6187744140625,-0.013885498046875
1761914242438444000,1.123444091796875,-0.7806396484375,-0.6215057373046875,-0.01263427734375
1761914242448500200,1.133500244140625,-0.778961181640625,-0.622894287109375,-0.0135040283203125
1761914242458556000,1.143555908203125,-0.78057861328125,-0.625396728515625,-0.014923095703125
1761914242468613000,1.153613037109375,-0.7836151123046875,-0.626220703125,-0.0171051025390625
1761914242478669000,1.1636689453125,-0.784912109375,-0.625030517578125,-0.0188140869140625
1761914242488725000,1.17372509765625,-0.7906341552734375,-0.620819091796875,-0.0187225341796875
1761914242498781000,1.183781005859375,-0.8006439208984375,-0.6224822998046875,-0.01611328125
1761914242508838000,1.193837890625,-0.8039703369140625,-0.622589111328125,-0.013092041015625
1761914242518894000,1.20389404296875,-0.8084869384765625,-0.6259307861328125,-0.006500244140625
1761914242528950000,1.213949951171875,-0.807159423828125,-0.6428985595703125,0.0094451904296875
1761914242539007000,1.224007080078125,-0.819000244140625,-0.660675048828125,0.0210113525390625
1761914242549063000,1.23406298828125,-0.840484619140625,-0.6661224365234375,0.0229034423828125
1761914242559119000,1.244119140625,-0.849822998046875,-0.675811767578125,0.0289306640625
1761914242569175000,1.254175048828125,-0.8525390625,-0.6950836181640625,0.0371856689453125
1761914242579232000,1.26423193359375,-0.859100341796875,-0.7106781005859375,0.042388916015625
1761914242589288000,1.274287841796875,-0.8607177734375,-0.7146759033203125,0.04632568359375
1761914242599344000,1.28434423828125,-0.86627197265625,-0.70892333984375,0.0417633056640625
1761914242609401000,1.294401123046875,-0.868621826171875,-0.692596435546875,0.029083251953125
1761914242619457000,1.30445703125,-0.8566131591796875,-0.6722412109375,0.01422119140625
1761914242629513000,1.314512939453125,-0.84625244140625,-0.6571197509765625,0.000518798828125
1761914242639570000,1.32456982421875,-0.8433990478515625,-0.64471435546875,-0.0120697021484375
1761914242649626000,1.334626220703125,-0.841156005859375,-0.6269989013671875,-0.0243988037109375
1761914242659682000,1.34468212890625,-0.8372802734375,-0.6026763916015625,-0.039581298828125
1761914242669738000,1.354738037109375,-0.8323974609375,-0.576446533203125,-0.0587005615234375
1761914242679795000,1.364794921875,-0.834259033203125,-0.5393829345703125,-0.079986572265625
1761914242689851100,1.37485107421875,-0.839141845703125,-0.50311279296875,-0.098785400390625
1761914242699907000,1.384906982421875,-0.8313140869140625,-0.476959228515625,-0.1039581298828125
1761914242709964000,1.394964111328125,-0.8083648681640625,-0.4635467529296875,-0.0986785888671875
1761914242720020000,1.40502001953125,-0.788970947265625,-0.45709228515625,-0.090087890625
1761914242730076200,1.415076171875,-0.7912139892578125,-0.4555816650390625,-0.0763702392578125
1761914242740132000,1.425132080078125,-0.81439208984375,-0.465972900390625,-0.0580291748046875
1761914242750189000,1.43518896484375,-0.8284149169921875,-0.4933624267578125,-0.0442047119140625
1761914242760245000,1.445244873046875,-0.824462890625,-0.51983642578125,-0.0334320068359375
1761914242770301200,1.45530126953125,-0.814727783203125,-0.54937744140625,-0.01580810546875
1761914242780358100,1.465358154296875,-0.8087310791015625,-0.5836334228515625,0.003082275390625
1761914242790414000,1.4754140625,-0.807830810546875,-0.6032867431640625,0.01104736328125
1761914242800470000,1.485469970703125,-0.8068695068359375,-0.6048583984375,0.0039520263671875
1761914242810526200,1.495526123046875,-0.7975311279296875,-0.5948486328125,-0.0122222900390625
1761914242820583200,1.505583251953125,-0.787841796875,-0.579833984375,-0.034881591796875
1761914242830639000,1.51563916015625,-0.7782440185546875,-0.56634521484375,-0.0596466064453125
1761914242840695000,1.525695068359375,-0.759918212890625,-0.55267333984375,-0.0814208984375
1761914242850752000,1.535751953125,-0.7494659423828125,-0.532867431640625,-0.0977783203125
1761914242860808200,1.54580810546875,-0.74151611328125,-0.51190185546875,-0.1069793701171875
1761914242870864100,1.555864013671875,-0.72247314453125,-0.499969482421875,-0.1082305908203125
1761914242880919800,1.565919921875,-0.7098388671875,-0.499969482421875,-0.1068115234375
1761914242890977000,1.57597705078125,-0.7021484375,-0.5041961669921875,-0.1052398681640625
1761914242901033200,1.586033203125,-0.703582763671875,-0.5111083984375,-0.096527099609375
1761914242911089000,1.5960888671875,-0.709930419921875,-0.52362060546875,-0.0832977294921875
1761914242921146000,1.60614599609375,-0.718780517578125,-0.5390777587890625,-0.0647430419921875
1761914242931202000,1.6162021484375,-0.724853515625,-0.54937744140625,-0.047698974609375
1761914242941258000,1.626258056640625,-0.73150634765625,-0.5538482666015625,-0.0317535400390625
1761914242951314000,1.63631396484375,-0.74603271484375,-0.557403564453125,-0.0185546875
1761914242961371000,1.646370849609375,-0.768341064453125,-0.5666961669921875,-0.0074005126953125
1761914242971427000,1.656427001953125,-0.7852020263671875,-0.577850341796875,0.00311279296875
1761914242981483000,1.66648291015625,-0.79791259765625,-0.58160400390625,0.0111083984375
1761914242991540000,1.6765400390625,-0.8013763427734375,-0.581512451171875,0.0149383544921875
1761914243001596000,1.686595947265625,-0.7997283935546875,-0.57843017578125,0.0159454345703125
1761914243011652000,1.696652099609375,-0.80242919921875,-0.572052001953125,0.015106201171875
1761914243021708000,1.7067080078125,-0.7960968017578125,-0.5706024169921875,0.0128631591796875
1761914243031765000,1.716764892578125,-0.7872314453125,-0.571044921875,0.0086822509765625
1761914243041821000,1.726821044921875,-0.78558349609375,-0.5751190185546875,0.002410888671875
1761914243051877000,1.736877197265625,-0.7827911376953125,-0.5818634033203125,-0.0059967041015625
1761914243061934000,1.74693408203125,-0.77935791015625,-0.582977294921875,-0.016021728515625
1761914243071990000,1.756989990234375,-0.77484130859375,-0.587127685546875,-0.0247802734375
1761914243082046000,1.7670458984375,-0.7627410888671875,-0.595794677734375,-0.0329132080078125
1761914243092102100,1.77710205078125,-0.756256103515625,-0.6044769287109375,-0.0375823974609375
1761914243102159000,1.7871591796875,-0.754425048828125,-0.6114959716796875,-0.0411224365234375
1761914243112215000,1.797215087890625,-0.7592926025390625,-0.619049072265625,-0.043731689453125
1761914243122271000,1.80727099609375,-0.7720794677734375,-0.6269073486328125,-0.047332763671875
1761914243132328000,1.817327880859375,-0.7821044921875,-0.6370086669921875,-0.047149658203125
1761914243142384000,1.827384033203125,-0.79473876953125,-0.6395416259765625,-0.0440826416015625
1761914243152440000,1.837440185546875,-0.8155059814453125,-0.637725830078125,-0.035552978515625
1761914243162496000,1.84749609375,-0.824981689453125,-0.6335296630859375,-0.0270233154296875
1761914243172553000,1.857552978515625,-0.831146240234375,-0.62176513671875,-0.0233154296875
1761914243182609200,1.867609130859375,-0.8348541259765625,-0.6172027587890625,-0.016204833984375
1761914243192665000,1.8776650390625,-0.83306884765625,-0.6464385986328125,0.009918212890625
1761914243202722000,1.88772216796875,-0.8528900146484375,-0.68658447265625,0.0369110107421875
1761914243212778000,1.897778076171875,-0.8787078857421875,-0.70452880859375,0.045654296875
1761914243222834200,1.907834228515625,-0.89459228515625,-0.711639404296875,0.0498504638671875
1761914243232890000,1.91789013671875,-0.9371490478515625,-0.724334716796875,0.0549774169921875
1761914243242947000,1.927947021484375,-1.0011749267578125,-0.7320709228515625,0.0572509765625
1761914243253003000,1.9380029296875,-1.0302276611328125,-0.71331787109375,0.0509490966796875
1761914243263059200,1.94805908203125,-1.0179290771484375,-0.67059326171875,0.0297393798828125
1761914243273116200,1.9581162109375,-0.99810791015625,-0.621795654296875,-0.00042724609375
1761914243283172000,1.968172119140625,-0.9656982421875,-0.56817626953125,-0.034912109375
1761914243293228000,1.97822802734375,-0.943450927734375,-0.4970855712890625,-0.069305419921875
1761914243303284200,1.9882841796875,-0.93560791015625,-0.4348297119140625,-0.095245361328125
1761914243313341200,1.998341064453125,-0.91424560546875,-0.3970489501953125,-0.1035614013671875
1761914243323397000,2.008397216796875,-0.88690185546875,-0.3765411376953125,-0.1016845703125
1761914243333453000,2.018453125,-0.853363037109375,-0.3735809326171875,-0.08087158203125
1761914243343510300,2.02851025390625,-0.824462890625,-0.3885345458984375,-0.040771484375
1761914243353566200,2.038566162109375,-0.8119049072265625,-0.40557861328125,0.0122222900390625
1761914243363622000,2.048621826171875,-0.81878662109375,-0.4247589111328125,0.057037353515625
1761914243373678000,2.058677978515625,-0.8367156982421875,-0.4546356201171875,0.0899505615234375
1761914243383735000,2.068735107421875,-0.847991943359375,-0.48956298828125,0.12615966796875
1761914243393791000,2.078791015625,-0.859649658203125,-0.5216064453125,0.161285400390625
1761914243403847000,2.088846923828125,-0.8756866455078125,-0.557373046875,0.1917877197265625
1761914243413904000,2.09890380859375,-0.8898162841796875,-0.5811614990234375,0.2098846435546875
1761914243423960000,2.1089599609375,-0.8990631103515625,-0.582244873046875,0.2081298828125
1761914243434011600,2.11901171875,-0.900604248046875,-0.5577850341796875,0.17913818359375
1761914243444067800,2.12906787109375,-0.898193359375,-0.518829345703125,0.1377716064453125
1761914243454124800,2.139124755859375,-0.905792236328125,-0.4852142333984375,0.10174560546875
1761914243464180700,2.1491806640625,-0.89215087890625,-0.449951171875,0.0694122314453125
1761914243474236700,2.159236572265625,-0.8657989501953125,-0.40130615234375,0.0335693359375
1761914243484292900,2.16929296875,-0.8333740234375,-0.3629302978515625,-0.0027923583984375
1761914243494349800,2.179349853515625,-0.8003387451171875,-0.345062255859375,-0.019134521484375
1761914243504405800,2.18940576171875,-0.7751312255859375,-0.3469085693359375,-0.016204833984375
1761914243514461700,2.199461669921875,-0.7718353271484375,-0.35784912109375,0.0023651123046875
1761914243524518700,2.2095185546875,-0.78045654296875,-0.372711181640625,0.032989501953125
1761914243534574800,2.219574951171875,-0.7801666259765625,-0.396209716796875,0.0585784912109375
1761914243544630800,2.229630859375,-0.7852783203125,-0.425872802734375,0.071746826171875
1761914243554686700,2.239686767578125,-0.7807769775390625,-0.4566802978515625,0.08038330078125
1761914243564743700,2.24974365234375,-0.779510498046875,-0.4806060791015625,0.085906982421875
1761914243574800000,2.2597998046875,-0.788818359375,-0.499603271484375,0.088165283203125
1761914243584855800,2.269855712890625,-0.791534423828125,-0.511993408203125,0.0897979736328125
1761914243594912800,2.279912841796875,-0.8010406494140625,-0.51690673828125,0.0845794677734375
1761914243604968700,2.28996875,-0.814544677734375,-0.51568603515625,0.074188232421875
1761914243615024600,2.300024658203125,-0.822357177734375,-0.5086212158203125,0.0610198974609375
1761914243625080600,2.31008056640625,-0.826568603515625,-0.497161865234375,0.05059814453125
1761914243635137500,2.320137451171875,-0.8393707275390625,-0.48785400390625,0.042388916015625
1761914243645193500,2.330193359375,-0.8592681884765625,-0.482879638671875,0.0355224609375
1761914243655249700,2.340249755859375,-0.872528076171875,-0.4788818359375,0.0279388427734375
1761914243665305600,2.3503056640625,-0.88543701171875,-0.4754791259765625,0.01861572265625
1761914243675362600,2.360362548828125,-0.8903350830078125,-0.4735260009765625,0.0067596435546875
1761914243685418500,2.37041845703125,-0.8865966796875,-0.4758148193359375,-0.00714111328125
1761914243695474700,2.380474609375,-0.8817138671875,-0.480804443359375,-0.022857666015625
1761914243705531600,2.39053173828125,-0.8755340576171875,-0.4893341064453125,-0.0336151123046875
1761914243715587600,2.400587646484375,-0.865875244140625,-0.5050201416015625,-0.037994384765625
1761914243725643500,2.4106435546875,-0.856048583984375,-0.5189056396484375,-0.040985107421875
1761914243735699700,2.42069970703125,-0.8433685302734375,-0.531036376953125,-0.03924560546875
1761914243745756700,2.430756591796875,-0.82928466796875,-0.54803466796875,-0.0306396484375
1761914243755812600,2.4408125,-0.815948486328125,-0.56597900390625,-0.0217437744140625
1761914243765868500,2.45086865234375,-0.8126678466796875,-0.583831787109375,-0.0082855224609375
1761914243775925800,2.46092578125,-0.817840576171875,-0.5989532470703125,0.0069122314453125
1761914243785981700,2.470981689453125,-0.8273468017578125,-0.6114654541015625,0.0194854736328125
1761914243796037600,2.48103759765625,-0.828857421875,-0.6201171875,0.026214599609375
1761914243806093600,2.491093505859375,-0.8304443359375,-0.6206817626953125,0.0259857177734375
1761914243816150800,2.50115087890625,-0.834808349609375,-0.61785888671875,0.02197265625
1761914243826206700,2.511206787109375,-0.83441162109375,-0.61285400390625,0.018707275390625
1761914243836262700,2.5212626953125,-0.84112548828125,-0.5979461669921875,0.0128936767578125
1761914243846318800,2.53131884765625,-0.8515472412109375,-0.5860443115234375,0.0135955810546875
1761914243856375800,2.541375732421875,-0.8537445068359375,-0.5750885009765625,0.0172576904296875
1761914243866431700,2.551431640625,-0.850006103515625,-0.56304931640625,0.019439697265625
1761914243876487700,2.56148779296875,-0.8478851318359375,-0.5560302734375,0.0240936279296875
1761914243886544600,2.571544677734375,-0.8492584228515625,-0.556976318359375,0.0352783203125
1761914243896600800,2.581600830078125,-0.851318359375,-0.5732574462890625,0.0524139404296875
1761914243906656800,2.59165673828125,-0.8679962158203125,-0.59991455078125,0.0687255859375
1761914243916712700,2.601712646484375,-0.892913818359375,-0.6226043701171875,0.0776824951171875
1761914243926769700,2.611769775390625,-0.9060821533203125,-0.64288330078125,0.085693359375
1761914243936825900,2.621825927734375,-0.9074859619140625,-0.6700592041015625,0.0955963134765625
1761914243946881800,2.6318818359375,-0.9036102294921875,-0.6985015869140625,0.102996826171875
1761914243956937700,2.641937744140625,-0.900299072265625,-0.7096405029296875,0.10284423828125
1761914243966994700,2.65199462890625,-0.897735595703125,-0.7055511474609375,0.0936126708984375
1761914243977051000,2.66205078125,-0.8904266357421875,-0.690155029296875,0.0791015625
1761914243987106600,2.6721064453125,-0.8761444091796875,-0.6712646484375,0.0676422119140625
1761914243997163800,2.682163818359375,-0.8688201904296875,-0.64642333984375,0.0535125732421875
1761914244007219700,2.6922197265625,-0.8615875244140625,-0.6063385009765625,0.0379791259765625
1761914244017275600,2.702275634765625,-0.845428466796875,-0.554901123046875,0.0215301513671875
1761914244027331600,2.71233154296875,-0.828582763671875,-0.5067138671875,0.0058135986328125
1761914244037388500,2.722388427734375,-0.814483642578125,-0.473236083984375,-0.000946044921875
1761914244047444500,2.732444580078125,-0.7975616455078125,-0.458709716796875,-0.0017547607421875
1761914244057500700,2.742500732421875,-0.793060302734375,-0.452056884765625,-0.000213623046875
1761914244067557600,2.7525576171875,-0.8017730712890625,-0.44744873046875,0.001129150390625
1761914244077613600,2.762613525390625,-0.8002471923828125,-0.4449005126953125,-0.0000152587890625
1761914244087669500,2.77266943359375,-0.7890167236328125,-0.4524993896484375,-0.0015869140625
1761914244097725700,2.7827255859375,-0.7796478271484375,-0.47723388671875,0.0058441162109375
1761914244107782700,2.79278271484375,-0.76666259765625,-0.5131378173828125,0.0267486572265625
1761914244117838600,2.802838623046875,-0.7669677734375,-0.5468902587890625,0.0443878173828125
1761914244127894500,2.81289453125,-0.775482177734375,-0.57244873046875,0.056884765625
1761914244137950700,2.82295068359375,-0.781463623046875,-0.587066650390625,0.0563201904296875
1761914244148007700,2.833007568359375,-0.7862701416015625,-0.5958404541015625,0.046539306640625
1761914244158063600,2.843063720703125,-0.7770843505859375,-0.6030120849609375,0.029083251953125
1761914244168119600,2.85311962890625,-0.7605743408203125,-0.5990447998046875,0.006011962890625
1761914244178176800,2.8631767578125,-0.7462310791015625,-0.589263916015625,-0.0165863037109375
1761914244188232700,2.873232666015625,-0.724609375,-0.573822021484375,-0.038848876953125
1761914244198288600,2.88328857421875,-0.70208740234375,-0.5561370849609375,-0.05804443359375
1761914244208344600,2.893344482421875,-0.6815338134765625,-0.549468994140625,-0.0707550048828125
1761914244218401800,2.90340185546875,-0.666168212890625,-0.5506591796875,-0.0742950439453125
1761914244228457700,2.913457763671875,-0.6611175537109375,-0.557861328125,-0.0687408447265625
1761914244238513700,2.923513671875,-0.6628265380859375,-0.5681304931640625,-0.0552215576171875
1761914244248569600,2.933569580078125,-0.6732940673828125,-0.5809326171875,-0.0402374267578125
1761914244258626800,2.943626708984375,-0.681304931640625,-0.592132568359375,-0.0262451171875
1761914244268682800,2.953682861328125,-0.6904296875,-0.595001220703125,-0.0202178955078125
1761914244278738700,2.96373876953125,-0.6977081298828125,-0.5921783447265625,-0.015045166015625
1761914244288795000,2.973794921875,-0.697845458984375,-0.5876922607421875,-0.0084686279296875
1761914244298851800,2.983851806640625,-0.7058563232421875,-0.5765533447265625,-0.0017852783203125
1761914244308907800,2.99390771484375,-0.7157745361328125,-0.5693511962890625,0.005859375
1761914244318963700,3.003963623046875,-0.7213592529296875,-0.564971923828125,0.01336669921875
1761914244329020700,3.014020751953125,-0.7291412353515625,-0.559173583984375,0.024810791015625
1761914244339076900,3.024076904296875,-0.73992919921875,-0.55877685546875,0.0405426025390625
1761914244349132800,3.0341328125,-0.749603271484375,-0.55889892578125,0.051239013671875
1761914244359188700,3.044188720703125,-0.7576446533203125,-0.5592498779296875,0.0587615966796875
1761914244369245700,3.05424560546875,-0.7606048583984375,-0.5594635009765625,0.065185546875
1761914244379302000,3.064302001953125,-0.76104736328125,-0.56292724609375,0.0729522705078125
1761914244389357600,3.074357666015625,-0.7595977783203125,-0.564788818359375,0.074127197265625
1761914244399413500,3.08441357421875,-0.7591094970703125,-0.5638885498046875,0.0721435546875
1761914244409470500,3.094470458984375,-0.7621002197265625,-0.5684356689453125,0.0690765380859375
1761914244419526700,3.104526611328125,-0.76544189453125,-0.5751190185546875,0.064849853515625
1761914244429582600,3.11458251953125,-0.7668304443359375,-0.5835113525390625,0.0577850341796875
1761914244439643600,3.1246435546875,-0.769287109375,-0.592926025390625,0.0523681640625
1761914244449699600,3.134699462890625,-0.773529052734375,-0.5992584228515625,0.0482330322265625
1761914244459755800,3.144755859375,-0.7837982177734375,-0.603485107421875,0.046234130859375
1761914244469811700,3.154811767578125,-0.8012542724609375,-0.61187744140625,0.0473785400390625
1761914244479868700,3.16486865234375,-0.809844970703125,-0.622344970703125,0.0523834228515625
1761914244489924600,3.174924560546875,-0.8206939697265625,-0.6310882568359375,0.057464599609375
1761914244499980800,3.184980712890625,-0.834747314453125,-0.639984130859375,0.0563507080078125
1761914244510036700,3.19503662109375,-0.8417816162109375,-0.6441497802734375,0.0490264892578125
1761914244520093700,3.20509375,-0.851776123046875,-0.6427154541015625,0.0335845947265625
1761914244530149600,3.215149658203125,-0.8678131103515625,-0.635467529296875,0.01617431640625
1761914244540205800,3.225205810546875,-0.8861083984375,-0.6234588623046875,-0.002044677734375
1761914244550262800,3.2352626953125,-0.9000701904296875,-0.6124725341796875,-0.024871826171875
1761914244560318700,3.245318603515625,-0.9156036376953125,-0.5935211181640625,-0.0486297607421875
1761914244570374700,3.255374755859375,-0.9228668212890625,-0.574951171875,-0.07208251953125
1761914244580430800,3.265430908203125,-0.910888671875,-0.5556640625,-0.090423583984375
1761914244590487800,3.27548779296875,-0.8968658447265625,-0.5359954833984375,-0.104705810546875
1761914244600543700,3.285543701171875,-0.8786163330078125,-0.53692626953125,-0.1091461181640625
1761914244610599400,3.295599365234375,-0.860870361328125,-0.565643310546875,-0.0970458984375
1761914244620655600,3.305655517578125,-0.888671875,-0.5942840576171875,-0.0863037109375
1761914244630712800,3.315712890625,-0.93121337890625,-0.6038360595703125,-0.0740814208984375
1761914244640768500,3.3257685546875,-0.9347686767578125,-0.6261444091796875,-0.0508575439453125
1761914244650824400,3.335824462890625,-0.9432525634765625,-0.671112060546875,-0.0173492431640625
1761914244660881400,3.34588134765625,-0.951385498046875,-0.717071533203125,0.01220703125
1761914244670937600,3.3559375,-0.9673309326171875,-0.740081787109375,0.03424072265625
1761914244680993500,3.36599365234375,-0.98126220703125,-0.7438201904296875,0.0440521240234375
1761914244691049500,3.376049560546875,-0.9922027587890625,-0.731048583984375,0.0472869873046875
1761914244701106400,3.3861064453125,-1.0074462890625,-0.709136962890625,0.0430908203125
1761914244711162600,3.39616259765625,-1.00848388671875,-0.687164306640625,0.0334014892578125
1761914244721218600,3.406218505859375,-1.0022735595703125,-0.6473388671875,0.0126190185546875
1761914244731274500,3.4162744140625,-0.9915771484375,-0.5852203369140625,-0.012908935546875
1761914244741331500,3.42633154296875,-0.960662841796875,-0.51507568359375,-0.0305938720703125
1761914244751387600,3.4363876953125,-0.9146728515625,-0.4584197998046875,-0.039031982421875
1761914244761443600,3.446443603515625,-0.8689422607421875,-0.41607666015625,-0.026641845703125
1761914244771499500,3.45649951171875,-0.8448028564453125,-0.3939666748046875,0.0023956298828125
1761914244781556500,3.466556396484375,-0.8366851806640625,-0.38665771484375,0.0409698486328125
1761914244791612700,3.47661279296875,-0.83624267578125,-0.3878631591796875,0.084442138671875
1761914244801668600,3.486668701171875,-0.8278350830078125,-0.404083251953125,0.1267242431640625
1761914244811725600,3.4967255859375,-0.8298797607421875,-0.4317169189453125,0.1649932861328125
1761914244821781800,3.50678173828125,-0.83294677734375,-0.4630126953125,0.1984100341796875
1761914244831837700,3.516837646484375,-0.8330841064453125,-0.491973876953125,0.224822998046875
1761914244841893600,3.5268935546875,-0.840850830078125,-0.512481689453125,0.2388153076171875
1761914244851950600,3.53695068359375,-0.8524169921875,-0.52606201171875,0.240509033203125
1761914244862006800,3.5470068359375,-0.8569183349609375,-0.5267181396484375,0.228485107421875
1761914244872062700,3.557062744140625,-0.843017578125,-0.5118865966796875,0.2038116455078125
1761914244882118700,3.56711865234375,-0.817047119140625,-0.4902191162109375,0.1703643798828125
1761914244892175600,3.577175537109375,-0.7984466552734375,-0.4714813232421875,0.139404296875
1761914244902231800,3.587231689453125,-0.7904815673828125,-0.449981689453125,0.1144256591796875
1761914244912287700,3.597287841796875,-0.7789459228515625,-0.423828125,0.0896453857421875
1761914244922344700,3.6073447265625,-0.764129638671875,-0.4028167724609375,0.0702667236328125
1761914244932400600,3.617400634765625,-0.755950927734375,-0.3892364501953125,0.05523681640625
1761914244942456800,3.627456787109375,-0.7592620849609375,-0.3866729736328125,0.044189453125
1761914244952512800,3.6375126953125,-0.7573394775390625,-0.3915252685546875,0.043975830078125
1761914244962569700,3.64756982421875,-0.761383056640625,-0.3940277099609375,0.0533599853515625
1761914244972625700,3.657625732421875,-0.7668609619140625,-0.40301513671875,0.0621795654296875
1761914244982681900,3.667681884765625,-0.77001953125,-0.42230224609375,0.0697021484375
1761914244992737500,3.677737548828125,-0.76690673828125,-0.4458465576171875,0.0730743408203125
1761914245002794800,3.687794677734375,-0.7596282958984375,-0.4627227783203125,0.0701751708984375
1761914245012850400,3.697850341796875,-0.7568511962890625,-0.4773101806640625,0.06292724609375
1761914245022906600,3.70790673828125,-0.76153564453125,-0.4947662353515625,0.0561981201171875
1761914245032962600,3.717962646484375,-0.7673187255859375,-0.5116424560546875,0.0512237548828125
1761914245043019500,3.72801953125,-0.7757720947265625,-0.52276611328125,0.0438385009765625
1761914245053075500,3.738075439453125,-0.775238037109375,-0.529571533203125,0.0313262939453125
1761914245063131600,3.748131591796875,-0.765167236328125,-0.528472900390625,0.015228271484375
1761914245073188600,3.758188720703125,-0.76495361328125,-0.5211181640625,0.0009613037109375
1761914245083244500,3.76824462890625,-0.7752838134765625,-0.5150909423828125,-0.0106353759765625
1761914245093300500,3.778300537109375,-0.7887420654296875,-0.5135040283203125,-0.0201416015625
1761914245103356700,3.788356689453125,-0.7914581298828125,-0.512969970703125,-0.0291290283203125
1761914245113413600,3.79841357421875,-0.7865447998046875,-0.519775390625,-0.03985595703125
1761914245123469600,3.808469482421875,-0.7711029052734375,-0.5302734375,-0.048095703125
1761914245133525500,3.818525390625,-0.76220703125,-0.5359039306640625,-0.05767822265625
1761914245143581700,3.828581787109375,-0.7732086181640625,-0.5368499755859375,-0.0684967041015625
1761914245153638700,3.838638671875,-0.7918853759765625,-0.53717041015625,-0.08099365234375
1761914245163694600,3.848694580078125,-0.813323974609375,-0.539215087890625,-0.0911712646484375
1761914245173750500,3.85875048828125,-0.8207550048828125,-0.5451202392578125,-0.0955810546875
1761914245183806700,3.868806640625,-0.8230133056640625,-0.5520782470703125,-0.0959930419921875
1761914245193863700,3.87886376953125,-0.821044921875,-0.559661865234375,-0.089324951171875
1761914245203919600,3.888919677734375,-0.8187408447265625,-0.5700836181640625,-0.078643798828125
1761914245213975600,3.8989755859375,-0.82525634765625,-0.587615966796875,-0.06378173828125
1761914245224032800,3.90903271484375,-0.831878662109375,-0.6077117919921875,-0.043853759765625
1761914245234088700,3.919088623046875,-0.83306884765625,-0.623138427734375,-0.0281524658203125
1761914245244144600,3.92914453125,-0.837860107421875,-0.6247100830078125,-0.0160980224609375
1761914245254200600,3.93920068359375,-0.84429931640625,-0.61712646484375,-0.00341796875
1761914245264254500,3.94925439453125,-0.850250244140625,-0.607879638671875,0.0089263916015625
1761914245274310700,3.959310546875,-0.8464202880859375,-0.5975494384765625,0.016387939453125
1761914245284366600,3.96936669921875,-0.8369598388671875,-0.5820159912109375,0.02435302734375
1761914245294422500,3.979422607421875,-0.8316192626953125,-0.5702362060546875,0.031707763671875
1761914245304479500,3.9894794921875,-0.826080322265625,-0.56402587890625,0.0366363525390625
1761914245314535700,3.99953564453125,-0.81707763671875,-0.5723724365234375,0.045501708984375
1761914245324591600,4.009591552734375,-0.823028564453125,-0.589874267578125,0.050750732421875
1761914245334647600,4.0196474609375,-0.84722900390625,-0.5985870361328125,0.0489654541015625
1761914245344704500,4.02970458984375,-0.8587188720703125,-0.610595703125,0.0518951416015625
1761914245354760700,4.0397607421875,-0.860504150390625,-0.637603759765625,0.062530517578125
1761914245364816600,4.049816650390625,-0.8635711669921875,-0.6700439453125,0.073974609375
1761914245374872600,4.05987255859375,-0.8759002685546875,-0.686187744140625,0.0802154541015625
1761914245384929500,4.069929443359375,-0.8815765380859375,-0.69268798828125,0.0868377685546875
1761914245394985700,4.07998583984375,-0.88818359375,-0.694580078125,0.090057373046875
1761914245405041700,4.090041748046875,-0.8963775634765625,-0.685302734375,0.084014892578125
1761914245415097600,4.10009765625,-0.912078857421875,-0.6688079833984375,0.0729827880859375
1761914245425154600,4.110154541015625,-0.928070068359375,-0.6444854736328125,0.056365966796875
1761914245435210800,4.120210693359375,-0.9214935302734375,-0.604034423828125,0.036865234375
1761914245445262300,4.130262451171875,-0.9013519287109375,-0.5486602783203125,0.0131683349609375
1761914245455318500,4.140318603515625,-0.88128662109375,-0.4987030029296875,-0.0044708251953125
1761914245465375500,4.15037548828125,-0.8499755859375,-0.472808837890625,-0.0162200927734375
1761914245475431400,4.160431396484375,-0.822967529296875,-0.4564971923828125,-0.0210113525390625
1761914245485487400,4.1704873046875,-0.815185546875,-0.44671630859375,-0.0211029052734375
1761914245495544300,4.18054443359375,-0.8189849853515625,-0.44403076171875,-0.0117645263671875
1761914245505600500,4.1906005859375,-0.827239990234375,-0.4476318359375,0.0035858154296875
1761914245515656400,4.200656494140625,-0.8391571044921875,-0.4678955078125,0.021575927734375
1761914245525712400,4.21071240234375,-0.8330841064453125,-0.4932708740234375,0.0357666015625
1761914245535769300,4.220769287109375,-0.8330078125,-0.51617431640625,0.0463714599609375
1761914245545825500,4.230825439453125,-0.84014892578125,-0.53802490234375,0.052947998046875
1761914245555881500,4.240881591796875,-0.8429718017578125,-0.5594024658203125,0.053009033203125
1761914245565937400,4.2509375,-0.838714599609375,-0.5736541748046875,0.04644775390625
1761914245575994400,4.260994384765625,-0.8264617919921875,-0.5789337158203125,0.031768798828125
1761914245586050300,4.27105029296875,-0.8139190673828125,-0.5807342529296875,0.0162200927734375
1761914245596106200,4.281106201171875,-0.8045806884765625,-0.5797576904296875,0.003509521484375
1761914245606162400,4.291162353515625,-0.793975830078125,-0.573577880859375,-0.0057220458984375
1761914245616219400,4.301219482421875,-0.779815673828125,-0.56646728515625,-0.0136260986328125
1761914245626275300,4.311275390625,-0.75970458984375,-0.561309814453125,-0.023406982421875
1761914245636331300,4.321331298828125,-0.7416229248046875,-0.5591278076171875,-0.0306396484375
1761914245646387500,4.331387451171875,-0.7345123291015625,-0.5658111572265625,-0.031524658203125
1761914245656444400,4.3414443359375,-0.7320098876953125,-0.5726470947265625,-0.0288238525390625
1761914245666500400,4.351500244140625,-0.73431396484375,-0.5738067626953125,-0.0254364013671875
1761914245676556300,4.361556396484375,-0.735260009765625,-0.5743560791015625,-0.02105712890625
1761914245686613200,4.37161328125,-0.741058349609375,-0.57208251953125,-0.0166015625
1761914245696669400,4.38166943359375,-0.7401123046875,-0.566436767578125,-0.01275634765625
1761914245706725400,4.391725341796875,-0.733795166015625,-0.5557098388671875,-0.007354736328125
1761914245716781300,4.40178125,-0.73480224609375,-0.5453033447265625,0.002044677734375
1761914245726838300,4.41183837890625,-0.74383544921875,-0.5359954833984375,0.017852783203125
1761914245736894500,4.42189453125,-0.7470245361328125,-0.5308074951171875,0.03765869140625
1761914245746950400,4.431950439453125,-0.745758056640625,-0.5277862548828125,0.054656982421875
1761914245757006300,4.44200634765625,-0.7476959228515625,-0.519805908203125,0.06365966796875
1761914245767063300,4.452063232421875,-0.75335693359375,-0.5135955810546875,0.065765380859375
1761914245777119500,4.462119384765625,-0.7525787353515625,-0.5181732177734375,0.0706634521484375
1761914245787175400,4.472175537109375,-0.750030517578125,-0.5254669189453125,0.0747528076171875
1761914245797231400,4.4822314453125,-0.75360107421875,-0.5368499755859375,0.076019287109375
1761914245807288300,4.492288330078125,-0.756317138671875,-0.545562744140625,0.0755767822265625
1761914245817345300,4.50234521484375,-0.76708984375,-0.5560150146484375,0.074493408203125
1761914245827401500,4.5124013671875,-0.7768707275390625,-0.56640625,0.0744476318359375
1761914245837457400,4.52245751953125,-0.7891998291015625,-0.5760040283203125,0.0748291015625
1761914245847514400,4.532514404296875,-0.8024749755859375,-0.5805511474609375,0.0714569091796875
1761914245857570300,4.5425703125,-0.810760498046875,-0.583770751953125,0.0655517578125
1761914245867626500,4.55262646484375,-0.81048583984375,-0.59381103515625,0.0597686767578125
1761914245877682400,4.562682373046875,-0.8111724853515625,-0.6001434326171875,0.054351806640625
1761914245887739400,4.572739501953125,-0.8195343017578125,-0.601287841796875,0.04840087890625
1761914245897795300,4.58279541015625,-0.82843017578125,-0.602874755859375,0.0432281494140625
1761914245907851500,4.5928515625,-0.8390350341796875,-0.6040496826171875,0.0369720458984375
1761914245917908500,4.602908447265625,-0.8529205322265625,-0.6002655029296875,0.0300750732421875
1761914245927964400,4.61296435546875,-0.8660736083984375,-0.589935302734375,0.018768310546875
1761914245938020400,4.623020263671875,-0.8830108642578125,-0.5745391845703125,0.0023651123046875
1761914245948076500,4.63307666015625,-0.89996337890625,-0.557159423828125,-0.0177001953125
1761914245958133500,4.643133544921875,-0.91326904296875,-0.534210205078125,-0.0417938232421875
1761914245968189400,4.653189453125,-0.9140167236328125,-0.513702392578125,-0.067840576171875
1761914245978245400,4.663245361328125,-0.90899658203125,-0.494293212890625,-0.091705322265625
1761914245988301300,4.67330126953125,-0.902587890625,-0.4775390625,-0.1110992431640625
1761914245998358500,4.683358642578125,-0.8919525146484375,-0.469635009765625,-0.1203460693359375
1761914246008414200,4.693414306640625,-0.87664794921875,-0.472442626953125,-0.120330810546875
1761914246018470400,4.703470458984375,-0.8702239990234375,-0.4812774658203125,-0.1107177734375
1761914246028526300,4.7135263671875,-0.8721466064453125,-0.5073089599609375,-0.089691162109375
1761914246038583300,4.723583251953125,-0.8919525146484375,-0.55609130859375,-0.061431884765625
1761914246048639200,4.73363916015625,-0.9241943359375,-0.5956268310546875,-0.03662109375
1761914246058695400,4.7436953125,-0.9394683837890625,-0.635009765625,-0.0097503662109375
1761914246068751400,4.75375146484375,-0.9510498046875,-0.68914794921875,0.0163421630859375
1761914246078808300,4.763808349609375,-0.9764556884765625,-0.7385101318359375,0.0375518798828125
1761914246088864300,4.7738642578125,-1.0104217529296875,-0.7589263916015625,0.0469207763671875
1761914246098920400,4.78392041015625,-1.036834716796875,-0.758209228515625,0.0470123291015625
1761914246108976400,4.793976318359375,-1.0460052490234375,-0.7501220703125,0.041778564453125
1761914246119033300,4.804033447265625,-1.0448760986328125,-0.7274322509765625,0.0266571044921875
1761914246129089300,4.81408935546875,-1.0353546142578125,-0.679901123046875,0.001800537109375
1761914246139145500,4.8241455078125,-1.0140380859375,-0.611114501953125,-0.028350830078125
1761914246149202400,4.834202392578125,-0.9958038330078125,-0.5370635986328125,-0.05535888671875
1761914246159258400,4.84425830078125,-0.9645233154296875,-0.4734039306640625,-0.0695648193359375
1761914246169314300,4.854314208984375,-0.9184112548828125,-0.4227294921875,-0.0706024169921875
1761914246179370500,4.86437060546875,-0.8692779541015625,-0.385528564453125,-0.052947998046875
1761914246189427500,4.874427490234375,-0.8388671875,-0.3726959228515625,-0.017791748046875
1761914246199483400,4.8844833984375,-0.8332672119140625,-0.3780975341796875,0.0322265625
1761914246209539300,4.894539306640625,-0.827972412109375,-0.3887939453125,0.07891845703125
1761914246219595500,4.904595458984375,-0.8027191162109375,-0.401123046875,0.110748291015625
1761914246229652500,4.914652587890625,-0.7926788330078125,-0.421875,0.1371307373046875
1761914246239708400,4.92470849609375,-0.807861328125,-0.44873046875,0.1728363037109375
1761914246249764400,4.934764404296875,-0.8282318115234375,-0.4803314208984375,0.207000732421875
1761914246259820500,4.944820556640625,-0.85223388671875,-0.5125274658203125,0.2343597412109375
1761914246269877500,4.95487744140625,-0.8719024658203125,-0.53497314453125,0.2488861083984375
1761914246279933400,4.964933349609375,-0.8802337646484375,-0.5418701171875,0.24505615234375
1761914246289989400,4.9749892578125,-0.8767242431640625,-0.5341033935546875,0.2164306640625
1761914246300045600,4.985045654296875,-0.8712158203125,-0.5152435302734375,0.18017578125
1761914246310102500,4.9951025390625,-0.8725433349609375,-0.487701416015625,0.143463134765625
1761914246320158500,5.005158447265625,-0.863067626953125,-0.4547576904296875,0.10162353515625
1761914246330214400,5.01521435546875,-0.8465423583984375,-0.40997314453125,0.0537109375
1761914246340270300,5.025270263671875,-0.8292694091796875,-0.371795654296875,0.0124359130859375
1761914246350327600,5.03532763671875,-0.8146820068359375,-0.3526611328125,-0.009490966796875
1761914246360383200,5.04538330078125,-0.7982635498046875,-0.34808349609375,-0.0156402587890625
1761914246370439200,5.055439208984375,-0.7867279052734375,-0.351104736328125,-0.010894775390625
1761914246380495400,5.065495361328125,-0.7798004150390625,-0.360504150390625,0.0034332275390625
1761914246390552300,5.07555224609375,-0.783477783203125,-0.3790283203125,0.0225830078125
1761914246400608300,5.085608154296875,-0.793182373046875,-0.40509033203125,0.0465545654296875
1761914246410664200,5.095664306640625,-0.790252685546875,-0.431427001953125,0.06622314453125
1761914246420720400,5.105720458984375,-0.7859344482421875,-0.4477996826171875,0.0773773193359375
1761914246430777300,5.11577734375,-0.78778076171875,-0.4607696533203125,0.08416748046875
1761914246440833500,5.12583349609375,-0.8005828857421875,-0.4713134765625,0.08538818359375
1761914246450889500,5.135889404296875,-0.819122314453125,-0.475555419921875,0.07965087890625
1761914246460945700,5.145945556640625,-0.8326263427734375,-0.4747314453125,0.0720062255859375
1761914246471002600,5.156002685546875,-0.83245849609375,-0.4678802490234375,0.0656280517578125
1761914246481058600,5.16605859375,-0.8342437744140625,-0.4644317626953125,0.0613861083984375
1761914246491114500,5.176114501953125,-0.8369903564453125,-0.4704132080078125,0.064727783203125
1761914246501171700,5.186171630859375,-0.8373870849609375,-0.4734039306640625,0.0661163330078125
1761914246511227600,5.1962275390625,-0.8378143310546875,-0.47332763671875,0.0615692138671875
1761914246521283600,5.20628369140625,-0.8404083251953125,-0.470703125,0.052520751953125
1761914246531339500,5.216339599609375,-0.838287353515625,-0.46160888671875,0.039947509765625
1761914246541396700,5.226396728515625,-0.8387298583984375,-0.458160400390625,0.0235137939453125
1761914246551452700,5.23645263671875,-0.8330230712890625,-0.4654998779296875,0.006927490234375
1761914246561508600,5.246508544921875,-0.8150787353515625,-0.475006103515625,-0.011962890625
1761914246571564800,5.256564697265625,-0.80352783203125,-0.4878387451171875,-0.0324249267578125
1761914246581621800,5.266621826171875,-0.80810546875,-0.504913330078125,-0.0496978759765625
1761914246591677700,5.276677734375,-0.827056884765625,-0.5182037353515625,-0.0647430419921875
1761914246601733600,5.286733642578125,-0.83514404296875,-0.522369384765625,-0.067901611328125
1761914246611789800,5.296789794921875,-0.8407135009765625,-0.5272979736328125,-0.0633697509765625
1761914246621846800,5.3068466796875,-0.8496551513671875,-0.5376434326171875,-0.0542144775390625
1761914246631902700,5.31690283203125,-0.848785400390625,-0.559173583984375,-0.0416412353515625
1761914246641958700,5.326958740234375,-0.845794677734375,-0.57562255859375,-0.0317840576171875
1761914246652014800,5.337014892578125,-0.8475341796875,-0.584228515625,-0.0266571044921875
1761914246662071800,5.34707177734375,-0.8407135009765625,-0.5885467529296875,-0.0208587646484375
1761914246672127700,5.357127685546875,-0.82635498046875,-0.593963623046875,-0.01263427734375
1761914246682183700,5.36718359375,-0.8136138916015625,-0.599853515625,-0.0004425048828125
1761914246692239600,5.377239501953125,-0.8074493408203125,-0.606414794921875,0.0109710693359375
1761914246702296800,5.387296875,-0.7975921630859375,-0.61126708984375,0.0254364013671875
1761914246712352800,5.397352783203125,-0.7922515869140625,-0.6124725341796875,0.0389251708984375
1761914246722408400,5.407408447265625,-0.782958984375,-0.6139984130859375,0.04949951171875
1761914246732464600,5.417464599609375,-0.773712158203125,-0.6165924072265625,0.06011962890625
1761914246742521600,5.427521484375,-0.7690277099609375,-0.63507080078125,0.076934814453125
1761914246752577500,5.43757763671875,-0.773193359375,-0.6707763671875,0.0976715087890625
1761914246762633500,5.447633544921875,-0.795684814453125,-0.6902008056640625,0.1060028076171875
1761914246772689700,5.457689697265625,-0.8135528564453125,-0.70281982421875,0.112152099609375
1761914246782746600,5.46774658203125,-0.8133544921875,-0.7369537353515625,0.1307830810546875
1761914246792802600,5.477802490234375,-0.8171234130859375,-0.7826385498046875,0.149261474609375
1761914246802858500,5.4878583984375,-0.832550048828125,-0.795501708984375,0.1552734375
1761914246812914700,5.497914794921875,-0.85247802734375,-0.7826080322265625,0.1402740478515625
1761914246822971600,5.5079716796875,-0.8640594482421875,-0.768829345703125,0.1214752197265625
1761914246833027600,5.518027587890625,-0.86712646484375,-0.75396728515625,0.0947265625
1761914246843083500,5.52808349609375,-0.8542938232421875,-0.72882080078125,0.061798095703125
1761914246853139700,5.5381396484375,-0.8253173828125,-0.67852783203125,0.0316619873046875
1761914246863196700,5.54819677734375,-0.80804443359375,-0.6087493896484375,0.008453369140625
1761914246873252600,5.558252685546875,-0.800628662109375,-0.5397186279296875,-0.0077972412109375
1761914246883308500,5.56830859375,-0.794830322265625,-0.4851531982421875,-0.0205841064453125
1761914246893364700,5.57836474609375,-0.796661376953125,-0.454254150390625,-0.0181732177734375
1761914246903421700,5.588421630859375,-0.793426513671875,-0.445343017578125,0.0009765625
1761914246913477600,5.5984775390625,-0.799591064453125,-0.44757080078125,0.0301361083984375
1761914246923533600,5.608533447265625,-0.8293304443359375,-0.456756591796875,0.0611419677734375
1761914246933589800,5.61858984375,-0.8575592041015625,-0.4690399169921875,0.083526611328125
1761914246943646700,5.628646728515625,-0.881072998046875,-0.483734130859375,0.0993194580078125
1761914246953702700,5.63870263671875,-0.90185546875,-0.5035247802734375,0.1180267333984375
1761914246963758600,5.648758544921875,-0.9087371826171875,-0.5317840576171875,0.1387481689453125
1761914246973814800,5.658814697265625,-0.9088134765625,-0.5604400634765625,0.164306640625
1761914246983871700,5.668871826171875,-0.923736572265625,-0.5865631103515625,0.1699981689453125
1761914246993927700,5.678927734375,-0.93328857421875,-0.596038818359375,0.154541015625
1761914247003983600,5.688983642578125,-0.918212890625,-0.584991455078125,0.118988037109375
1761914247014039600,5.69903955078125,-0.89556884765625,-0.567230224609375,0.0706634521484375
1761914247024096800,5.7090966796875,-0.877197265625,-0.5417327880859375,0.0251617431640625
1761914247034152700,5.719152587890625,-0.846435546875,-0.509429931640625,-0.0089874267578125
1761914247044208600,5.729208740234375,-0.8032684326171875,-0.48681640625,-0.0270843505859375
1761914247054264600,5.7392646484375,-0.7663726806640625,-0.4801483154296875,-0.034423828125
1761914247064321500,5.749321533203125,-0.7396087646484375,-0.477996826171875,-0.0302581787109375
1761914247074377500,5.75937744140625,-0.726470947265625,-0.4840087890625,-0.012481689453125
1761914247084433700,5.76943359375,-0.72137451171875,-0.499420166015625,0.0131072998046875
1761914247094489600,5.779489501953125,-0.720001220703125,-0.5134429931640625,0.0379180908203125
1761914247104546600,5.789546630859375,-0.7118988037109375,-0.5303955078125,0.0636444091796875
1761914247114602500,5.7996025390625,-0.718536376953125,-0.5472869873046875,0.08990478515625
1761914247124658700,5.80965869140625,-0.718902587890625,-0.560821533203125,0.1089324951171875
1761914247134714600,5.819714599609375,-0.7135009765625,-0.5703582763671875,0.1206512451171875
1761914247144771600,5.829771484375,-0.7200164794921875,-0.5748443603515625,0.132354736328125
1761914247154827500,5.83982763671875,-0.73077392578125,-0.57843017578125,0.14154052734375
1761914247164883700,5.8498837890625,-0.7310791015625,-0.5776824951171875,0.1509552001953125
1761914247174939600,5.859939697265625,-0.730010986328125,-0.56939697265625,0.1583251953125
1761914247184996600,5.86999658203125,-0.7423095703125,-0.5626678466796875,0.165435791015625
1761914247195052500,5.880052490234375,-0.7416229248046875,-0.5670928955078125,0.16851806640625
1761914247205108700,5.890108642578125,-0.7279205322265625,-0.5693817138671875,0.170074462890625
1761914247215164700,5.90016455078125,-0.7177734375,-0.56292724609375,0.169281005859375
1761914247225221600,5.9102216796875,-0.715911865234375,-0.55780029296875,0.163665771484375
1761914247235277600,5.920277587890625,-0.712005615234375,-0.558197021484375,0.1545257568359375
1761914247245333800,5.930333740234375,-0.7042694091796875,-0.56097412109375,0.14678955078125
1761914247255389700,5.9403896484375,-0.6989593505859375,-0.569000244140625,0.143157958984375
1761914247265446700,5.95044677734375,-0.6956024169921875,-0.579010009765625,0.1434783935546875
1761914247275502600,5.960502685546875,-0.69989013671875,-0.588531494140625,0.14715576171875
1761914247285558800,5.970558837890625,-0.7044830322265625,-0.5955352783203125,0.1478118896484375
1761914247295614700,5.98061474609375,-0.7150115966796875,-0.6055755615234375,0.1466522216796875
1761914247305671700,5.990671630859375,-0.726898193359375,-0.6182098388671875,0.144195556640625
1761914247315727600,6.0007275390625,-0.744354248046875,-0.62921142578125,0.141571044921875
1761914247325783800,6.01078369140625,-0.76080322265625,-0.6345977783203125,0.1478729248046875
1761914247335839700,6.02083984375,-0.7860870361328125,-0.63592529296875,0.1544647216796875
1761914247345896700,6.030896728515625,-0.8089447021484375,-0.63665771484375,0.157318115234375
1761914247355952600,6.04095263671875,-0.8168487548828125,-0.6298370361328125,0.1545562744140625
1761914247366008600,6.051008544921875,-0.829071044921875,-0.611297607421875,0.1450347900390625
1761914247376064500,6.061064453125,-0.8483428955078125,-0.5897979736328125,0.1358184814453125
1761914247386121700,6.071121826171875,-0.86968994140625,-0.5692138671875,0.1279754638671875
1761914247396177400,6.081177490234375,-0.8874053955078125,-0.5521240234375,0.120758056640625
1761914247406233600,6.091233642578125,-0.892669677734375,-0.532989501953125,0.109771728515625
1761914247416289500,6.10128955078125,-0.88494873046875,-0.5075225830078125,0.096771240234375
1761914247426346500,6.111346435546875,-0.86669921875,-0.4931488037109375,0.0842437744140625
1761914247436402400,6.12140234375,-0.8503265380859375,-0.4848175048828125,0.0738525390625
1761914247446459400,6.13145947265625,-0.84844970703125,-0.476409912109375,0.070068359375
1761914247456515300,6.141515380859375,-0.845977783203125,-0.4717559814453125,0.071136474609375
1761914247466572300,6.151572265625,-0.8313751220703125,-0.469482421875,0.068389892578125
1761914247476628200,6.161628173828125,-0.8116607666015625,-0.469146728515625,0.06732177734375
1761914247486684400,6.171684326171875,-0.8094482421875,-0.470489501953125,0.06903076171875
1761914247496740400,6.181740234375,-0.82110595703125,-0.475982666015625,0.0740966796875
1761914247506797300,6.19179736328125,-0.82421875,-0.4741058349609375,0.0803985595703125
1761914247516853200,6.201853271484375,-0.8296356201171875,-0.4619598388671875,0.0899658203125
1761914247526909400,6.211909423828125,-0.8420562744140625,-0.460357666015625,0.109222412109375
1761914247536965400,6.22196533203125,-0.865081787109375,-0.4792938232421875,0.1324920654296875
1761914247547022300,6.232022216796875,-0.8902130126953125,-0.4972381591796875,0.156982421875
1761914247557078300,6.242078369140625,-0.91259765625,-0.5201568603515625,0.182525634765625
1761914247567134500,6.252134521484375,-0.936309814453125,-0.5624847412109375,0.21337890625
1761914247577190400,6.2621904296875,-0.9899444580078125,-0.60504150390625,0.24853515625
1761914247587247400,6.272247314453125,-1.0611419677734375,-0.6524505615234375,0.26617431640625
1761914247597303300,6.28230322265625,-1.11572265625,-0.69512939453125,0.2598114013671875
1761914247607359500,6.292359375,-1.138916015625,-0.7338409423828125,0.2399139404296875
1761914247617415400,6.30241552734375,-1.1382293701171875,-0.759613037109375,0.2195587158203125
1761914247627472400,6.312472412109375,-1.139984130859375,-0.7451171875,0.194976806640625
1761914247637528300,6.3225283203125,-1.1280364990234375,-0.6765289306640625,0.1628875732421875
1761914247647584500,6.33258447265625,-1.0716705322265625,-0.576904296875,0.124298095703125
1761914247657640400,6.342640380859375,-1.0112762451171875,-0.4777374267578125,0.092071533203125
1761914247667697400,6.352697509765625,-0.9582977294921875,-0.4105224609375,0.0823516845703125
1761914247677753300,6.36275341796875,-0.906036376953125,-0.379486083984375,0.0981597900390625
1761914247687809500,6.3728095703125,-0.86767578125,-0.378021240234375,0.127655029296875
1761914247697866500,6.382866455078125,-0.8573150634765625,-0.3995513916015625,0.1627349853515625
1761914247707922400,6.39292236328125,-0.833038330078125,-0.4244384765625,0.2012786865234375
1761914247717978400,6.402978271484375,-0.806976318359375,-0.4342803955078125,0.2343597412109375
1761914247728034600,6.41303466796875,-0.8022003173828125,-0.435546875,0.2679901123046875
1761914247738091500,6.423091552734375,-0.80230712890625,-0.4345703125,0.304168701171875
1761914247748147500,6.4331474609375,-0.80938720703125,-0.4419708251953125,0.330718994140625
1761914247758203400,6.443203369140625,-0.8169097900390625,-0.45928955078125,0.3486480712890625
1761914247768259300,6.45325927734375,-0.8278045654296875,-0.4781646728515625,0.3586883544921875
1761914247778315300,6.463315185546875,-0.8345947265625,-0.490478515625,0.3583831787109375
1761914247788372200,6.473372314453125,-0.8224639892578125,-0.4860992431640625,0.3471832275390625
1761914247798428400,6.483428466796875,-0.8135223388671875,-0.46990966796875,0.3295135498046875
1761914247808484400,6.493484375,-0.812774658203125,-0.4513092041015625,0.30908203125
1761914247818540300,6.503540283203125,-0.8014678955078125,-0.4206085205078125,0.2841033935546875
1761914247828597200,6.51359716796875,-0.7894134521484375,-0.3820037841796875,0.251129150390625
1761914247838653400,6.5236533203125,-0.7830810546875,-0.3635406494140625,0.2158203125
1761914247848709400,6.53370947265625,-0.765899658203125,-0.3563079833984375,0.1895904541015625
1761914247858765300,6.543765380859375,-0.748931884765625,-0.354705810546875,0.1681060791015625
1761914247868822300,6.553822265625,-0.7514495849609375,-0.3650360107421875,0.1568145751953125
1761914247878878500,6.56387841796875,-0.759063720703125,-0.3786773681640625,0.154083251953125
1761914247888934400,6.573934326171875,-0.7696075439453125,-0.383819580078125,0.152374267578125
1761914247898990300,6.583990234375,-0.783660888671875,-0.3856353759765625,0.15753173828125
1761914247909047300,6.59404736328125,-0.80303955078125,-0.3856658935546875,0.1664886474609375
1761914247919103500,6.604103515625,-0.8227996826171875,-0.3807830810546875,0.1717376708984375
1761914247929159400,6.614159423828125,-0.8430328369140625,-0.3829498291015625,0.1746063232421875
1761914247939215400,6.62421533203125,-0.8678436279296875,-0.394195556640625,0.1787567138671875
1761914247949272300,6.634272216796875,-0.88470458984375,-0.3978424072265625,0.176544189453125
1761914247959328500,6.64432861328125,-0.898223876953125,-0.4006195068359375,0.1683349609375
1761914247969384400,6.654384521484375,-0.916839599609375,-0.4037933349609375,0.161163330078125
1761914247979440400,6.6644404296875,-0.9372100830078125,-0.4072265625,0.1501617431640625
1761914247989497300,6.674497314453125,-0.947265625,-0.40728759765625,0.1386260986328125
1761914247999553500,6.684553466796875,-0.95172119140625,-0.40557861328125,0.1163482666015625
1761914248009609500,6.694609375,-0.951873779296875,-0.403594970703125,0.0899505615234375
1761914248019665400,6.70466552734375,-0.93707275390625,-0.41021728515625,0.0626373291015625
1761914248029722400,6.714722412109375,-0.9219512939453125,-0.4149932861328125,0.0440673828125
1761914248039778600,6.724778564453125,-0.9202728271484375,-0.421844482421875,0.02947998046875
1761914248049834500,6.73483447265625,-0.912109375,-0.4283599853515625,0.02032470703125
1761914248059890200,6.74489013671875,-0.905487060546875,-0.43096923828125,0.0135345458984375
1761914248069947400,6.754947509765625,-0.9060516357421875,-0.4347381591796875,0.006439208984375
1761914248080003600,6.765003662109375,-0.8986053466796875,-0.4440155029296875,-0.0041046142578125
1761914248090059300,6.775059326171875,-0.8937530517578125,-0.452362060546875,-0.014495849609375
1761914248100115200,6.785115234375,-0.888946533203125,-0.466522216796875,-0.0239410400390625
1761914248110172200,6.795172119140625,-0.88250732421875,-0.48583984375,-0.031982421875
1761914248120228400,6.805228271484375,-0.8774566650390625,-0.5048065185546875,-0.0373992919921875
1761914248130284300,6.8152841796875,-0.877838134765625,-0.521484375,-0.03961181640625
1761914248140340200,6.82534033203125,-0.882965087890625,-0.5335540771484375,-0.043670654296875
1761914248150397200,6.835397216796875,-0.88800048828125,-0.5389862060546875,-0.0458984375
1761914248160453400,6.845453369140625,-0.8927764892578125,-0.5395965576171875,-0.0487823486328125
1761914248170509300,6.85550927734375,-0.89404296875,-0.5348052978515625,-0.0528717041015625
1761914248180565200,6.865565185546875,-0.8919219970703125,-0.534149169921875,-0.0554656982421875
1761914248190622200,6.875622314453125,-0.8874969482421875,-0.5420684814453125,-0.0537567138671875
1761914248200678400,6.885678466796875,-0.8854522705078125,-0.55108642578125,-0.0479888916015625
1761914248210734300,6.895734375,-0.877288818359375,-0.5599822998046875,-0.0393218994140625
1761914248220790300,6.905790283203125,-0.87152099609375,-0.5633392333984375,-0.03240966796875
1761914248230847200,6.91584716796875,-0.86993408203125,-0.5672607421875,-0.024749755859375
1761914248240903400,6.9259033203125,-0.8619842529296875,-0.5755615234375,-0.0114593505859375
1761914248250959400,6.93595947265625,-0.8575286865234375,-0.591552734375,0.006378173828125
1761914248261015300,6.946015380859375,-0.8575286865234375,-0.61614990234375,0.02227783203125
1761914248271072500,6.956072509765625,-0.85321044921875,-0.6307220458984375,0.0294189453125
1761914248281128400,6.96612841796875,-0.8567657470703125,-0.63897705078125,0.0352325439453125
1761914248291184400,6.976184326171875,-0.8651580810546875,-0.6516876220703125,0.039947509765625
1761914248301240300,6.986240234375,-0.8646697998046875,-0.65179443359375,0.0470733642578125
1761914248311297500,6.996297607421875,-0.8707733154296875,-0.6389312744140625,0.0444488525390625
1761914248321353500,7.006353515625,-0.87615966796875,-0.6287384033203125,0.0393218994140625
1761914248331409400,7.016409423828125,-0.8803253173828125,-0.6126861572265625,0.033905029296875
1761914248341465600,7.026465576171875,-0.88568115234375,-0.5907745361328125,0.0233154296875
1761914248351522600,7.0365224609375,-0.8968658447265625,-0.5721893310546875,0.01202392578125
1761914248361578500,7.04657861328125,-0.910491943359375,-0.5589752197265625,0.005523681640625
1761914248371634400,7.056634521484375,-0.932281494140625,-0.5469207763671875,-0.0032958984375
1761914248381690600,7.066690673828125,-0.9573822021484375,-0.5348968505859375,-0.014373779296875
1761914248391747600,7.07674755859375,-0.979400634765625,-0.5203704833984375,-0.03021240234375
1761914248401803500,7.086803466796875,-0.9906005859375,-0.5019683837890625,-0.0503387451171875
1761914248411859200,7.096859130859375,-0.9975128173828125,-0.4846649169921875,-0.071380615234375
1761914248421915400,7.106915283203125,-1.0072479248046875,-0.46978759765625,-0.0950927734375
1761914248431972600,7.11697265625,-1.0166015625,-0.46295166015625,-0.1134796142578125
1761914248442031900,7.127031982421875,-1.0170440673828125,-0.4586029052734375,-0.1298980712890625
1761914248452087800,7.137087890625,-1.009063720703125,-0.4493560791015625,-0.142425537109375
1761914248462144000,7.14714404296875,-0.9917144775390625,-0.4366302490234375,-0.1512298583984375
1761914248472201000,7.157200927734375,-0.9708404541015625,-0.418243408203125,-0.1600494384765625
1761914248482257000,7.1672568359375,-0.957916259765625,-0.396942138671875,-0.1657867431640625
1761914248492312800,7.177312744140625,-0.949249267578125,-0.38043212890625,-0.1646881103515625
1761914248502368800,7.18736865234375,-0.92926025390625,-0.3690338134765625,-0.15716552734375
1761914248512424700,7.1974248046875,-0.90838623046875,-0.358978271484375,-0.14813232421875
1761914248522482000,7.20748193359375,-0.890472412109375,-0.3477020263671875,-0.1468048095703125
1761914248532537600,7.21753759765625,-0.864349365234375,-0.345733642578125,-0.1471099853515625
1761914248542593800,7.22759375,-0.85028076171875,-0.3470001220703125,-0.1402435302734375
1761914248552649700,7.237649658203125,-0.8480682373046875,-0.3538055419921875,-0.1389617919921875
1761914248562706700,7.247706787109375,-0.8380584716796875,-0.363677978515625,-0.1360931396484375
1761914248572762600,7.2577626953125,-0.829376220703125,-0.3740997314453125,-0.130645751953125
1761914248582818800,7.26781884765625,-0.8139801025390625,-0.3890380859375,-0.1226654052734375
1761914248592874800,7.277874755859375,-0.7965087890625,-0.4088897705078125,-0.11419677734375
1761914248602931700,7.287931640625,-0.7874908447265625,-0.4327239990234375,-0.1024169921875
1761914248612987600,7.297987548828125,-0.7828521728515625,-0.4547271728515625,-0.0916748046875
1761914248623043800,7.3080439453125,-0.7855072021484375,-0.4725341796875,-0.08465576171875
1761914248633099800,7.318099853515625,-0.79901123046875,-0.48394775390625,-0.08587646484375
1761914248643156700,7.32815673828125,-0.800933837890625,-0.4934844970703125,-0.09136962890625
1761914248653212700,7.338212646484375,-0.7989959716796875,-0.5007476806640625,-0.1004638671875
1761914248663268900,7.348268798828125,-0.7945404052734375,-0.504547119140625,-0.1079559326171875
1761914248673324800,7.35832470703125,-0.7838897705078125,-0.507568359375,-0.115936279296875
1761914248683381800,7.3683818359375,-0.77392578125,-0.51025390625,-0.1177520751953125
1761914248693437700,7.378437744140625,-0.7724609375,-0.5175628662109375,-0.1162261962890625
1761914248703494000,7.388493896484375,-0.768890380859375,-0.5282745361328125,-0.1106414794921875
1761914248713549800,7.3985498046875,-0.765899658203125,-0.5383148193359375,-0.1003265380859375
1761914248723606800,7.408606689453125,-0.7678985595703125,-0.543914794921875,-0.087432861328125
1761914248733662700,7.418662841796875,-0.766143798828125,-0.548492431640625,-0.0716094970703125
1761914248743719000,7.428718994140625,-0.764678955078125,-0.5549163818359375,-0.061798095703125
1761914248753774800,7.43877490234375,-0.764129638671875,-0.5611572265625,-0.0546722412109375
1761914248763831800,7.448831787109375,-0.7678375244140625,-0.56866455078125,-0.047210693359375
1761914248773888000,7.458887939453125,-0.76727294921875,-0.576934814453125,-0.0380401611328125
1761914248783944000,7.46894384765625,-0.774688720703125,-0.5788726806640625,-0.034454345703125
1761914248794000000,7.478999755859375,-0.7757720947265625,-0.5820159912109375,-0.032958984375
1761914248804056800,7.489056884765625,-0.7707977294921875,-0.5838470458984375,-0.0317840576171875
1761914248814113000,7.499113037109375,-0.7657012939453125,-0.5818023681640625,-0.029266357421875
1761914248824169000,7.5091689453125,-0.7571868896484375,-0.5814666748046875,-0.02349853515625
1761914248834224600,7.519224609375,-0.7565460205078125,-0.584716796875,-0.01580810546875
1761914248844281900,7.52928173828125,-0.756134033203125,-0.59002685546875,-0.00164794921875
1761914248854337800,7.539337890625,-0.7565460205078125,-0.59564208984375,0.00927734375
1761914248864393700,7.549393798828125,-0.75616455078125,-0.601226806640625,0.0143890380859375
1761914248874449700,7.55944970703125,-0.747955322265625,-0.6033782958984375,0.0177001953125
1761914248884505900,7.569505859375,-0.733367919921875,-0.6034393310546875,0.02117919921875
1761914248894562800,7.579562744140625,-0.7180023193359375,-0.6046142578125,0.0223388671875
1761914248904618800,7.58961865234375,-0.705108642578125,-0.6068267822265625,0.0272674560546875
1761914248914674700,7.5996748046875,-0.6937103271484375,-0.607391357421875,0.031463623046875
1761914248924731000,7.60973095703125,-0.683563232421875,-0.60491943359375,0.036773681640625
1761914248934787800,7.619787841796875,-0.6725006103515625,-0.605865478515625,0.0429229736328125
1761914248944843800,7.62984375,-0.66192626953125,-0.6063232421875,0.0485687255859375
1761914248954899700,7.639899658203125,-0.6674957275390625,-0.60760498046875,0.0475006103515625
1761914248964956000,7.649955810546875,-0.6717681884765625,-0.61090087890625,0.04132080078125
1761914248975012900,7.660012939453125,-0.673614501953125,-0.6258392333984375,0.0337066650390625
1761914248985068800,7.67006884765625,-0.68121337890625,-0.6334228515625,0.0326385498046875
1761914248995124700,7.680124755859375,-0.693145751953125,-0.638092041015625,0.023284912109375
1761914249005181000,7.690180908203125,-0.6869659423828125,-0.6469879150390625,0.010467529296875
1761914249015238000,7.70023779296875,-0.6801300048828125,-0.6480255126953125,0.0023345947265625
1761914249025293800,7.7102939453125,-0.6898040771484375,-0.643280029296875,-0.003631591796875
1761914249035349800,7.720349853515625,-0.703857421875,-0.64251708984375,-0.0079193115234375
1761914249045406000,7.730406005859375,-0.7150726318359375,-0.649169921875,-0.0082550048828125
1761914249055463000,7.740462890625,-0.73138427734375,-0.6588592529296875,-0.0069122314453125
1761914249065518800,7.750518798828125,-0.74981689453125,-0.6650848388671875,-0.0067596435546875
1761914249075574800,7.76057470703125,-0.7629547119140625,-0.6704864501953125,-0.0073699951171875
1761914249085631000,7.770630859375,-0.775115966796875,-0.6641998291015625,-0.001617431640625
1761914249095688000,7.78068798828125,-0.7870635986328125,-0.662841796875,-0.00238037109375
1761914249105744000,7.790743896484375,-0.7881317138671875,-0.650604248046875,0.0022735595703125
1761914249115799800,7.8007998046875,-0.7938232421875,-0.6407623291015625,0.00360107421875
1761914249125855700,7.810855712890625,-0.802978515625,-0.6424560546875,0.0069580078125
1761914249135911700,7.82091162109375,-0.8065338134765625,-0.64971923828125,0.012847900390625
1761914249145969000,7.830968994140625,-0.8050079345703125,-0.6529541015625,0.0150146484375
1761914249156024600,7.841024658203125,-0.80126953125,-0.650360107421875,0.0141754150390625
1761914249166080800,7.851080810546875,-0.8005828857421875,-0.6500396728515625,0.0149993896484375
1761914249176136700,7.86113671875,-0.812164306640625,-0.657928466796875,0.017791748046875
1761914249186193700,7.871193603515625,-0.8248291015625,-0.6789703369140625,0.0250244140625
1761914249196249600,7.88124951171875,-0.8285369873046875,-0.7120208740234375,0.037445068359375
1761914249206305800,7.891305908203125,-0.8398284912109375,-0.739532470703125,0.050872802734375
1761914249216361700,7.90136181640625,-0.872467041015625,-0.7572174072265625,0.054779052734375
1761914249226418700,7.911418701171875,-0.923248291015625,-0.7775726318359375,0.063385009765625
1761914249236475000,7.921474853515625,-0.970001220703125,-0.788482666015625,0.073394775390625
1761914249246530800,7.93153076171875,-0.993865966796875,-0.7844085693359375,0.076416015625
1761914249256586800,7.941586669921875,-0.9846954345703125,-0.767364501953125,0.07415771484375
1761914249266642700,7.951642578125,-0.9814910888671875,-0.74163818359375,0.064117431640625
1761914249276699000,7.961698974609375,-0.991180419921875,-0.715850830078125,0.056732177734375
1761914249286754800,7.9717548828125,-0.99017333984375,-0.6934356689453125,0.050933837890625
1761914249296810800,7.981810791015625,-0.976470947265625,-0.668365478515625,0.0427398681640625
1761914249306867700,7.99186767578125,-0.970458984375,-0.6452178955078125,0.03955078125
1761914249316924000,8.001923828125,-0.972412109375,-0.6294097900390625,0.0423126220703125
1761914249326979800,8.011979736328126,-0.975921630859375,-0.6249237060546875,0.0499725341796875
1761914249337035800,8.022035888671875,-0.9796600341796875,-0.617950439453125,0.0577850341796875
1761914249347092000,8.032092041015625,-0.9872589111328125,-0.60821533203125,0.0692291259765625
1761914249357149000,8.04214892578125,-0.9840545654296875,-0.5905914306640625,0.0749664306640625
1761914249367204900,8.052204833984375,-0.9727325439453125,-0.5638580322265625,0.07781982421875
1761914249377260800,8.0622607421875,-0.9593658447265625,-0.537200927734375,0.0773162841796875
1761914249387316700,8.072316650390626,-0.943817138671875,-0.5121002197265625,0.074951171875
1761914249397374000,8.0823740234375,-0.9219207763671875,-0.486114501953125,0.079345703125
1761914249407429600,8.0924296875,-0.901031494140625,-0.4663238525390625,0.08489990234375
1761914249417485800,8.10248583984375,-0.87689208984375,-0.4539031982421875,0.1028289794921875
1761914249427541800,8.112541748046874,-0.86395263671875,-0.4468536376953125,0.126007080078125
1761914249437598700,8.1225986328125,-0.85626220703125,-0.4489898681640625,0.14495849609375
1761914249447650800,8.13265087890625,-0.84375,-0.454925537109375,0.1620941162109375
1761914249457706800,8.142706787109375,-0.8314666748046875,-0.459320068359375,0.1692962646484375
1761914249467762700,8.1527626953125,-0.814422607421875,-0.46221923828125,0.16986083984375
1761914249477820000,8.16281982421875,-0.7923736572265625,-0.4681549072265625,0.1683807373046875
1761914249487875600,8.17287548828125,-0.77716064453125,-0.4741058349609375,0.165374755859375
1761914249497931800,8.182931884765624,-0.7585601806640625,-0.477935791015625,0.1626434326171875
1761914249507987700,8.19298779296875,-0.7377471923828125,-0.4814605712890625,0.163665771484375
1761914249518044700,8.203044677734376,-0.7253875732421875,-0.492645263671875,0.1715545654296875
1761914249528100600,8.2131005859375,-0.7141571044921875,-0.5032958984375,0.1816864013671875
1761914249538156800,8.22315673828125,-0.7074737548828125,-0.5068817138671875,0.187255859375
1761914249548212700,8.233212646484375,-0.6964263916015625,-0.511322021484375,0.1895904541015625
1761914249558268700,8.2432685546875,-0.6834259033203125,-0.5148162841796875,0.1919097900390625
1761914249568325600,8.25332568359375,-0.6723785400390625,-0.5167694091796875,0.1923828125
1761914249578381800,8.2633818359375,-0.67010498046875,-0.5309600830078125,0.1856842041015625
1761914249588437800,8.273437744140624,-0.66949462890625,-0.5406341552734375,0.183502197265625
1761914249598493700,8.28349365234375,-0.6724090576171875,-0.539459228515625,0.1762847900390625
1761914249608551000,8.293551025390625,-0.6772308349609375,-0.537872314453125,0.1681671142578125
1761914249618606800,8.30360693359375,-0.67669677734375,-0.5384521484375,0.161163330078125
1761914249628662800,8.313662841796875,-0.668792724609375,-0.5431976318359375,0.1580047607421875
1761914249638718700,8.32371875,-0.66363525390625,-0.5548095703125,0.1587371826171875
1761914249648776000,8.33377587890625,-0.6664581298828125,-0.57135009765625,0.158599853515625
1761914249658832000,8.343831787109375,-0.682586669921875,-0.58404541015625,0.1541748046875
1761914249668887800,8.3538876953125,-0.699615478515625,-0.5950469970703125,0.151458740234375
1761914249678944000,8.363944091796874,-0.708984375,-0.6052093505859375,0.1505126953125
1761914249689001000,8.3740009765625,-0.71405029296875,-0.6134490966796875,0.149932861328125
1761914249699057000,8.384056884765625,-0.711700439453125,-0.6174468994140625,0.1468353271484375
1761914249709112800,8.39411279296875,-0.709442138671875,-0.6168060302734375,0.1403045654296875
1761914249719169000,8.4041689453125,-0.70892333984375,-0.6162872314453125,0.1323394775390625
1761914249729226000,8.41422607421875,-0.7062835693359375,-0.61334228515625,0.1249542236328125
1761914249739282000,8.424281982421874,-0.7058563232421875,-0.6098785400390625,0.1197967529296875
1761914249749337900,8.434337890625,-0.71807861328125,-0.6098175048828125,0.115264892578125
1761914249759393800,8.444393798828125,-0.717864990234375,-0.607421875,0.1093902587890625
1761914249769451000,8.454450927734374,-0.7121734619140625,-0.6014862060546875,0.101531982421875
1761914249779506700,8.464506591796875,-0.7153167724609375,-0.6038818359375,0.0979156494140625
1761914249789565000,8.47456494140625,-0.7126617431640625,-0.6136932373046875,0.1011505126953125
1761914249799620900,8.484620849609374,-0.707275390625,-0.6240081787109375,0.1008758544921875
1761914249809677800,8.494677734375,-0.7058868408203125,-0.6313323974609375,0.098663330078125
1761914249819733800,8.504733642578126,-0.7148590087890625,-0.6390533447265625,0.0945281982421875
1761914249829790000,8.5147900390625,-0.7340087890625,-0.650238037109375,0.0892333984375
1761914249839846000,8.524845947265625,-0.7430267333984375,-0.65606689453125,0.08209228515625
1761914249849901800,8.53490185546875,-0.7408599853515625,-0.6543121337890625,0.0721588134765625
1761914249859958800,8.544958740234375,-0.7352142333984375,-0.6549530029296875,0.0643157958984375
1761914249870015000,8.555014892578125,-0.73370361328125,-0.6546783447265625,0.0572662353515625
1761914249880070700,8.565070556640626,-0.7351226806640625,-0.6611480712890625,0.05206298828125
1761914249890126600,8.575126708984374,-0.7342681884765625,-0.6708221435546875,0.0514373779296875
1761914249900183800,8.585183837890625,-0.731842041015625,-0.6750335693359375,0.0498809814453125
1761914249910239700,8.59523974609375,-0.7331695556640625,-0.680511474609375,0.056915283203125
1761914249920295700,8.605295654296874,-0.7321014404296875,-0.68792724609375,0.0638885498046875
1761914249930351600,8.6153515625,-0.7368927001953125,-0.693939208984375,0.066925048828125
1761914249940408800,8.625408935546876,-0.74871826171875,-0.7028350830078125,0.0731048583984375
1761914249950464800,8.63546484375,-0.7573394775390625,-0.712310791015625,0.078338623046875
1761914249960520700,8.645520751953125,-0.7580413818359375,-0.7194671630859375,0.0787200927734375
1761914249970576600,8.65557666015625,-0.759124755859375,-0.7263336181640625,0.07861328125
1761914249980633900,8.6656337890625,-0.767181396484375,-0.734710693359375,0.07440185546875
1761914249990689800,8.675689697265625,-0.7779083251953125,-0.739501953125,0.0683746337890625
1761914250000745700,8.685745849609376,-0.780059814453125,-0.745330810546875,0.0614166259765625
1761914250010802000,8.695802001953124,-0.7916412353515625,-0.74169921875,0.0596923828125
1761914250020857900,8.70585791015625,-0.811676025390625,-0.744232177734375,0.0566558837890625
1761914250030914800,8.715914794921876,-0.811737060546875,-0.749542236328125,0.0613555908203125
1761914250040970800,8.725970703125,-0.80169677734375,-0.743072509765625,0.0604705810546875
1761914250051027000,8.73602685546875,-0.7964324951171875,-0.730377197265625,0.0588531494140625
1761914250061083000,8.746082763671875,-0.7832794189453125,-0.72479248046875,0.0581512451171875
1761914250071139800,8.756139892578124,-0.7751312255859375,-0.7292938232421875,0.0571441650390625
1761914250081195800,8.76619580078125,-0.7769317626953125,-0.738494873046875,0.0617218017578125
1761914250091252000,8.776251953125,-0.7874908447265625,-0.7493743896484375,0.0644073486328125
1761914250101308000,8.786307861328124,-0.797027587890625,-0.7471160888671875,0.0570220947265625
1761914250111364900,8.79636474609375,-0.8170166015625,-0.736968994140625,0.0487518310546875
1761914250121420800,8.8064208984375,-0.8234405517578125,-0.7259521484375,0.0423736572265625
1761914250131477000,8.81647705078125,-0.8192138671875,-0.7053680419921875,0.0353851318359375
1761914250141533000,8.826532958984375,-0.8292694091796875,-0.67926025390625,0.024383544921875
1761914250151590000,8.83658984375,-0.840972900390625,-0.6600189208984375,0.006439208984375
1761914250161645800,8.846645751953124,-0.8481597900390625,-0.641937255859375,-0.018951416015625
1761914250171702000,8.856701904296875,-0.8661041259765625,-0.6186370849609375,-0.04693603515625
1761914250181757700,8.8667578125,-0.872772216796875,-0.59100341796875,-0.075836181640625
1761914250191815000,8.87681494140625,-0.87310791015625,-0.556732177734375,-0.1057586669921875
1761914250201870800,8.886870849609375,-0.864837646484375,-0.5225830078125,-0.137603759765625
1761914250211926800,8.8969267578125,-0.8527679443359375,-0.491455078125,-0.1646270751953125
1761914250221982700,8.906982666015624,-0.8449249267578125,-0.4674072265625,-0.1825408935546875
1761914250232038700,8.91703857421875,-0.8406982421875,-0.4500885009765625,-0.190338134765625
1761914250242095600,8.927095703125,-0.8392181396484375,-0.4438018798828125,-0.1875457763671875
1761914250252151800,8.93715185546875,-0.84027099609375,-0.44830322265625,-0.1750335693359375
1761914250262207700,8.947207763671875,-0.8405609130859375,-0.457061767578125,-0.1585693359375
1761914250272263700,8.957263671875,-0.8377685546875,-0.4691162109375,-0.1436614990234375
1761914250282320600,8.967320556640624,-0.829498291015625,-0.482025146484375,-0.13214111328125
1761914250292376800,8.977376953125,-0.816619873046875,-0.49676513671875,-0.124481201171875
1761914250302432800,8.987432861328125,-0.8004150390625,-0.5138397216796875,-0.1180877685546875
1761914250312488700,8.99748876953125,-0.779144287109375,-0.5322265625,-0.1153411865234375
1761914250322545700,9.007545654296875,-0.7654266357421875,-0.5503692626953125,-0.115997314453125
1761914250332601900,9.017601806640625,-0.771026611328125,-0.5640106201171875,-0.1270599365234375
1761914250342657800,9.02765771484375,-0.776336669921875,-0.556610107421875,-0.1407318115234375
1761914250352713700,9.037713623046875,-0.7826690673828125,-0.5370635986328125,-0.1604766845703125
1761914250362770700,9.047770751953125,-0.779541015625,-0.5221405029296875,-0.1815948486328125
1761914250372827000,9.057826904296874,-0.754425048828125,-0.511444091796875,-0.2016448974609375
1761914250382882800,9.0678828125,-0.74237060546875,-0.503631591796875,-0.205322265625
1761914250392938800,9.077938720703125,-0.7366180419921875,-0.5068359375,-0.1996307373046875
1761914250402995700,9.08799560546875,-0.733245849609375,-0.513824462890625,-0.1905059814453125
1761914250413052000,9.098052001953125,-0.7259521484375,-0.5263214111328125,-0.179443359375
1761914250423107800,9.10810791015625,-0.7167816162109375,-0.5442962646484375,-0.166229248046875
1761914250433163800,9.118163818359376,-0.714141845703125,-0.5595855712890625,-0.150421142578125
1761914250443219700,9.1282197265625,-0.724853515625,-0.570159912109375,-0.129425048828125
1761914250453277000,9.13827685546875,-0.7213287353515625,-0.580413818359375,-0.1130523681640625
1761914250463332600,9.14833251953125,-0.6968841552734375,-0.582061767578125,-0.0998077392578125
1761914250473388500,9.158388427734375,-0.6906280517578125,-0.5797119140625,-0.0836944580078125
1761914250483444700,9.16844482421875,-0.6919403076171875,-0.58319091796875,-0.071136474609375
1761914250493501700,9.178501708984374,-0.6912384033203125,-0.5878448486328125,-0.06121826171875
1761914250503557600,9.1885576171875,-0.6920013427734375,-0.5962066650390625,-0.0486602783203125
1761914250513613800,9.19861376953125,-0.698394775390625,-0.604736328125,-0.03582763671875
1761914250523669800,9.208669677734376,-0.7121429443359375,-0.6133270263671875,-0.02496337890625
1761914250533726700,9.218726806640625,-0.71221923828125,-0.61846923828125,-0.020111083984375
1761914250543782700,9.22878271484375,-0.7082366943359375,-0.6128387451171875,-0.021697998046875
1761914250553838800,9.2388388671875,-0.7122650146484375,-0.612823486328125,-0.0270538330078125
1761914250563894800,9.248894775390625,-0.7072296142578125,-0.6258087158203125,-0.0311126708984375
1761914250573951700,9.25895166015625,-0.699493408203125,-0.6349639892578125,-0.03271484375
1761914250584007700,9.269007568359376,-0.697357177734375,-0.6437225341796875,-0.0303497314453125
1761914250594064000,9.27906396484375,-0.7096099853515625,-0.65777587890625,-0.0259246826171875
1761914250604119800,9.289119873046875,-0.712738037109375,-0.6658782958984375,-0.0222625732421875
1761914250614176800,9.2991767578125,-0.7144927978515625,-0.6694488525390625,-0.020263671875
1761914250624232700,9.309232666015625,-0.71783447265625,-0.6754608154296875,-0.0202178955078125
1761914250634289000,9.319288818359375,-0.7171478271484375,-0.687042236328125,-0.0209808349609375
1761914250644344800,9.3293447265625,-0.7177581787109375,-0.6989898681640625,-0.0184478759765625
1761914250654400800,9.33940087890625,-0.7238006591796875,-0.7078704833984375,-0.012359619140625
1761914250664457700,9.349457763671875,-0.7350616455078125,-0.7081756591796875,-0.0086822509765625
1761914250674514000,9.359513916015626,-0.7558441162109375,-0.7043304443359375,-0.0063018798828125
1761914250684569900,9.36956982421875,-0.75921630859375,-0.701904296875,-0.0040435791015625
1761914250694625800,9.379625732421875,-0.7615203857421875,-0.7007293701171875,-0.00360107421875
1761914250704682800,9.389682861328126,-0.7642059326171875,-0.6979827880859375,-0.00030517578125
1761914250714739000,9.399739013671875,-0.7624664306640625,-0.6912384033203125,0.004150390625
1761914250724795000,9.409794921875,-0.768829345703125,-0.686492919921875,0.0057220458984375
1761914250734850600,9.4198505859375,-0.7856292724609375,-0.6844940185546875,0.0079345703125
1761914250744907800,9.42990771484375,-0.811279296875,-0.683837890625,0.0093994140625
1761914250754964000,9.4399638671875,-0.8215179443359375,-0.6810760498046875,0.006011962890625
1761914250765019600,9.45001953125,-0.8245697021484375,-0.6712188720703125,0.00146484375
1761914250775075600,9.46007568359375,-0.8429718017578125,-0.6652069091796875,0.00103759765625
1761914250785132500,9.470132568359375,-0.8588104248046875,-0.6734619140625,0.0120849609375
1761914250795188700,9.480188720703126,-0.8707427978515625,-0.6823272705078125,0.0244903564453125
1761914250805244700,9.49024462890625,-0.8886566162109375,-0.6847991943359375,0.0341033935546875
1761914250815300600,9.500300537109375,-0.90380859375,-0.6879425048828125,0.0484466552734375
1761914250825357600,9.510357666015626,-0.9143524169921875,-0.6876983642578125,0.060302734375
1761914250835413800,9.520413818359375,-0.929718017578125,-0.6787109375,0.0691375732421875
1761914250845469700,9.5304697265625,-0.9400177001953125,-0.6766357421875,0.0786285400390625
1761914250855525600,9.540525634765626,-0.95794677734375,-0.6837310791015625,0.0903167724609375
1761914250865581800,9.550581787109374,-0.99029541015625,-0.688323974609375,0.0933074951171875
1761914250875638800,9.560638671875,-1.025390625,-0.6882781982421875,0.0858306884765625
1761914250885694700,9.57069482421875,-1.0420074462890625,-0.674774169921875,0.0703125
1761914250895750700,9.580750732421874,-1.0401763916015625,-0.6469879150390625,0.046630859375
1761914250905806800,9.590806884765625,-1.0361480712890625,-0.611358642578125,0.0250396728515625
1761914250915863800,9.60086376953125,-1.0246429443359375,-0.5713958740234375,0.0040130615234375
1761914250925919700,9.610919677734374,-0.995697021484375,-0.5238037109375,-0.011138916015625
1761914250935975700,9.6209755859375,-0.9664306640625,-0.48956298828125,-0.0345001220703125
1761914250946031900,9.631031982421876,-0.937042236328125,-0.4710845947265625,-0.04473876953125
1761914250956088800,9.6410888671875,-0.906951904296875,-0.450225830078125,-0.0401458740234375
1761914250966144800,9.651144775390625,-0.8848724365234375,-0.437103271484375,-0.02349853515625
1761914250976200700,9.66120068359375,-0.8750457763671875,-0.4338226318359375,0.00677490234375
1761914250986257000,9.6712568359375,-0.871795654296875,-0.433074951171875,0.0413665771484375
1761914250996313900,9.68131396484375,-0.8552398681640625,-0.43853759765625,0.0639495849609375
1761914251006369800,9.691369873046876,-0.8329010009765625,-0.44464111328125,0.08251953125
1761914251016425700,9.70142578125,-0.814788818359375,-0.453399658203125,0.0980224609375
1761914251026482000,9.71148193359375,-0.803863525390625,-0.4624786376953125,0.113037109375
1761914251036539000,9.721538818359376,-0.7947998046875,-0.4615325927734375,0.1252593994140625
1761914251046594800,9.7315947265625,-0.784088134765625,-0.4561309814453125,0.13323974609375
1761914251056650800,9.741650634765625,-0.778656005859375,-0.4520263671875,0.14068603515625
1761914251066706700,9.751706787109375,-0.7738800048828125,-0.44842529296875,0.1452484130859375
1761914251076764000,9.761763916015624,-0.758148193359375,-0.440887451171875,0.144744873046875
1761914251086819600,9.771819580078125,-0.74432373046875,-0.4307708740234375,0.1322784423828125
1761914251096875800,9.781875732421875,-0.7248687744140625,-0.4242095947265625,0.124725341796875
1761914251106931700,9.791931640625,-0.7096405029296875,-0.4211578369140625,0.1181640625
1761914251116988700,9.80198876953125,-0.71075439453125,-0.416473388671875,0.1123809814453125
1761914251127044600,9.812044677734375,-0.7222900390625,-0.4189910888671875,0.116302490234375
1761914251137100800,9.822100830078124,-0.7130889892578125,-0.426025390625,0.118927001953125
1761914251147156700,9.83215673828125,-0.6949310302734375,-0.4301910400390625,0.1219024658203125
1761914251157212700,9.842212646484375,-0.689727783203125,-0.4424591064453125,0.1190948486328125
1761914251167269600,9.85226953125,-0.6893157958984375,-0.466552734375,0.1201629638671875
1761914251177325800,9.862325927734375,-0.6971435546875,-0.483978271484375,0.123291015625
1761914251187381800,9.8723818359375,-0.7069854736328125,-0.49981689453125,0.12713623046875
1761914251197437700,9.882437744140624,-0.7136077880859375,-0.5139923095703125,0.1290740966796875
1761914251207494700,9.89249462890625,-0.7193756103515625,-0.5223388671875,0.127471923828125
1761914251217550800,9.90255078125,-0.728546142578125,-0.5236358642578125,0.12786865234375
1761914251227606800,9.912606689453124,-0.7400054931640625,-0.52093505859375,0.1307373046875
1761914251237662700,9.922662841796875,-0.7548370361328125,-0.517791748046875,0.1327972412109375
1761914251247719700,9.9327197265625,-0.765960693359375,-0.5147705078125,0.1313934326171875
1761914251257775900,9.94277587890625,-0.7711944580078125,-0.512420654296875,0.128936767578125
1761914251267831800,9.952831787109375,-0.7913055419921875,-0.5142974853515625,0.12677001953125
1761914251277887700,9.9628876953125,-0.8001861572265625,-0.5209197998046875,0.12408447265625
1761914251287944700,9.97294482421875,-0.8052825927734375,-0.5252685546875,0.1177978515625
1761914251298001000,9.9830009765625,-0.811767578125,-0.5218658447265625,0.111328125
1761914251308056800,9.993056884765625,-0.8131561279296875,-0.5152435302734375,0.1040802001953125
1761914251318112800,10.00311279296875,-0.816070556640625,-0.513671875,0.09747314453125
1761914251328169700,10.013169677734375,-0.8205718994140625,-0.5201416015625,0.0968017578125
1761914251338226000,10.023225830078125,-0.8165130615234375,-0.5355377197265625,0.097259521484375
1761914251348281900,10.03328173828125,-0.813751220703125,-0.5513763427734375,0.0985565185546875
1761914251358337800,10.043337890625,-0.8125762939453125,-0.5688018798828125,0.1008453369140625
1761914251368393700,10.053393798828125,-0.8147735595703125,-0.5814971923828125,0.0989227294921875
1761914251378451000,10.063450927734374,-0.8268585205078125,-0.586669921875,0.093231201171875
1761914251388506600,10.073506591796875,-0.8397064208984375,-0.5900421142578125,0.0951080322265625
1761914251398562600,10.0835625,-0.84735107421875,-0.5935516357421875,0.096038818359375
1761914251408618800,10.09361865234375,-0.8466644287109375,-0.599029541015625,0.0963592529296875
1761914251418675700,10.10367578125,-0.846466064453125,-0.60418701171875,0.093505859375
1761914251428731600,10.113731689453125,-0.8499298095703125,-0.6063385009765625,0.08489990234375
1761914251438787600,10.12378759765625,-0.8497161865234375,-0.6102447509765625,0.07586669921875
1761914251448843800,10.13384375,-0.8540496826171875,-0.6129913330078125,0.0709228515625
1761914251458900700,10.143900634765625,-0.8525848388671875,-0.613311767578125,0.070556640625
1761914251468956700,10.153956787109376,-0.8509368896484375,-0.6178436279296875,0.0695953369140625
1761914251479012600,10.1640126953125,-0.858612060546875,-0.621337890625,0.0735321044921875
1761914251489068800,10.17406884765625,-0.868408203125,-0.623138427734375,0.0744476318359375
1761914251499125800,10.184125732421874,-0.8593902587890625,-0.6279754638671875,0.0729217529296875
1761914251509181700,10.194181640625,-0.8574066162109375,-0.624542236328125,0.07330322265625
1761914251519237600,10.204237548828125,-0.8594512939453125,-0.6302490234375,0.066802978515625
1761914251529293800,10.2142939453125,-0.8629913330078125,-0.62799072265625,0.064697265625
1761914251539350800,10.224350830078125,-0.875213623046875,-0.6285247802734375,0.0606536865234375
1761914251549406700,10.23440673828125,-0.8716278076171875,-0.6325225830078125,0.0683135986328125
1761914251559463000,10.244462890625,-0.8658447265625,-0.6470184326171875,0.0818023681640625
1761914251569518800,10.254518798828125,-0.862030029296875,-0.66802978515625,0.0897064208984375
1761914251579575800,10.264575927734375,-0.86334228515625,-0.6733245849609375,0.08465576171875
1761914251589631700,10.2746318359375,-0.862060546875,-0.6744842529296875,0.0869903564453125
1761914251599688000,10.28468798828125,-0.8507232666015625,-0.6807403564453125,0.095001220703125
1761914251609744000,10.294743896484375,-0.8280029296875,-0.688995361328125,0.09649658203125
1761914251619800800,10.30480078125,-0.81793212890625,-0.68707275390625,0.094268798828125
1761914251629856800,10.314856689453125,-0.8282623291015625,-0.6686859130859375,0.0921783447265625
1761914251639913000,10.324912841796875,-0.8385009765625,-0.644500732421875,0.09375
1761914251649969000,10.334968994140626,-0.8387451171875,-0.62811279296875,0.0959320068359375
1761914251660024800,10.34502490234375,-0.8433990478515625,-0.617889404296875,0.0864410400390625
1761914251670081800,10.355081787109375,-0.845672607421875,-0.606842041015625,0.0670013427734375
1761914251680138000,10.365137939453126,-0.85150146484375,-0.58880615234375,0.048065185546875
1761914251690194000,10.37519384765625,-0.864837646484375,-0.5625762939453125,0.0230560302734375
1761914251700249900,10.385249755859375,-0.8723907470703125,-0.5320892333984375,-0.0121307373046875
1761914251710306800,10.395306884765626,-0.8817901611328125,-0.502105712890625,-0.0427093505859375
1761914251720363000,10.405363037109375,-0.865234375,-0.483917236328125,-0.0670013427734375
1761914251730419000,10.4154189453125,-0.84356689453125,-0.4636383056640625,-0.0844573974609375
1761914251740474600,10.425474609375,-0.842376708984375,-0.451080322265625,-0.0979461669921875
1761914251750531800,10.43553173828125,-0.8395843505859375,-0.4409637451171875,-0.092437744140625
1761914251760587800,10.445587890625,-0.8376312255859375,-0.4412078857421875,-0.076690673828125
1761914251770643700,10.455643798828126,-0.829620361328125,-0.4437408447265625,-0.0554351806640625
1761914251780699600,10.46569970703125,-0.82080078125,-0.45721435546875,-0.0391082763671875
1761914251790756600,10.475756591796875,-0.81390380859375,-0.472381591796875,-0.0224151611328125
1761914251800812800,10.485812744140626,-0.8011474609375,-0.4889068603515625,-0.00677490234375
1761914251810868700,10.49586865234375,-0.79486083984375,-0.494873046875,0.0070953369140625
1761914251820924700,10.505924560546875,-0.7880859375,-0.4972381591796875,0.0066680908203125
1761914251830981600,10.515981689453126,-0.770233154296875,-0.49981689453125,-0.0015411376953125
1761914251841037800,10.526037841796875,-0.7689208984375,-0.5027923583984375,-0.0113067626953125
1761914251851093800,10.53609375,-0.7677154541015625,-0.506103515625,-0.0235443115234375
1761914251861149700,10.546149658203126,-0.7587432861328125,-0.5099334716796875,-0.037200927734375
1761914251871206700,10.55620654296875,-0.745208740234375,-0.5189056396484375,-0.053466796875
1761914251881262800,10.566262939453125,-0.7133331298828125,-0.534332275390625,-0.0648193359375
1761914251891318800,10.57631884765625,-0.695343017578125,-0.5537109375,-0.0754241943359375
1761914251901374700,10.586374755859374,-0.6885833740234375,-0.5679473876953125,-0.07830810546875
1761914251911431700,10.596431640625,-0.6870574951171875,-0.5789642333984375,-0.0858154296875
1761914251921488000,10.60648779296875,-0.673858642578125,-0.5865631103515625,-0.0842132568359375
1761914251931543800,10.616543701171874,-0.6757049560546875,-0.5927734375,-0.06524658203125
1761914251941599700,10.626599853515625,-0.680633544921875,-0.6061553955078125,-0.03375244140625
1761914251951656000,10.636656005859376,-0.6806488037109375,-0.62628173828125,-0.000274658203125
1761914251961713000,10.646712890625,-0.6886749267578125,-0.64666748046875,0.0316314697265625
1761914251971768800,10.656768798828125,-0.6829376220703125,-0.6674041748046875,0.0611114501953125
1761914251981824800,10.66682470703125,-0.69439697265625,-0.6582489013671875,0.0895538330078125
1761914251991881000,10.676880859375,-0.77606201171875,-0.647186279296875,0.091278076171875
1761914252001938000,10.68693798828125,-0.6770172119140625,-0.6477813720703125,0.045989990234375
1761914252011993900,10.696993896484376,-0.6907958984375,-0.61505126953125,0.0209197998046875
1761914252022049800,10.7070498046875,-0.684417724609375,-0.6077880859375,0.0228424072265625
