time,seconds_elapsed,z,y,x
1761914241364932000,0.04993212890625,0.058115165680646896,-0.18002662062644958,-0.20371387898921967
1761914241374988000,0.059988037109375,0.051868986338377,-0.17274527251720428,-0.16775216162204742
1761914241385044200,0.070044189453125,0.04009470343589783,-0.1837681382894516,-0.14976374804973602
1761914241395101200,0.08010107421875,0.02369416132569313,-0.19559364020824432,-0.1409955620765686
1761914241405157000,0.0901572265625,0.005531861446797848,-0.21087516844272614,-0.14390252530574799
1761914241415213000,0.100213134765625,-0.023830819875001907,-0.21635594964027405,-0.15156149864196777
1761914241425270000,0.11027001953125,-0.047429561614990234,-0.20420274138450623,-0.15894949436187744
1761914241435321600,0.120321533203125,-0.06729487329721451,-0.176535964012146,-0.16652911901474
1761914241445377500,0.13037744140625,-0.06911581754684448,-0.14380483329296112,-0.18007369339466095
1761914241455434500,0.1404345703125,-0.057455431669950485,-0.10707505792379379,-0.18936066329479218
1761914241465490700,0.15049072265625,-0.04424939677119255,-0.07814871519804001,-0.19723714888095856
1761914241475546600,0.160546630859375,-0.03679068014025688,-0.05978754907846451,-0.1992504894733429
1761914241485602600,0.1706025390625,-0.03486482799053192,-0.05439235270023346,-0.19838573038578033
1761914241495659500,0.180659423828125,-0.028625043109059334,-0.06076875701546669,-0.1968916952610016
1761914241505715700,0.1907158203125,-0.021570054814219475,-0.06979171931743622,-0.19314275681972504
1761914241515771600,0.200771728515625,-0.012353920377790928,-0.07754258066415787,-0.1844715029001236
1761914241525828600,0.21082861328125,-0.0011469312012195587,-0.08131574839353561,-0.17542904615402222
1761914241535884500,0.220884521484375,0.011466332711279392,-0.071779765188694,-0.16217955946922302
1761914241545940700,0.230940673828125,0.02850470505654812,-0.05617630109190941,-0.14293396472930908
1761914241555997700,0.240997802734375,0.05069975182414055,-0.029124444350600243,-0.11560405790805817
1761914241566053600,0.2510537109375,0.0720168873667717,-0.012751337140798569,-0.08483732491731644
1761914241576109600,0.261109619140625,0.0927373468875885,0.0011239988962188363,-0.040482375770807266
1761914241586165800,0.271165771484375,0.1033274233341217,-0.009985455311834812,-0.009745536372065544
1761914241596222700,0.28122265625,0.10516180843114853,-0.03877449408173561,0.012529674917459488
1761914241606278700,0.291278564453125,0.1091824546456337,-0.0713706687092781,0.024310778826475143
1761914241616334300,0.301334228515625,0.10435228049755096,-0.09376199543476105,0.029791828244924545
1761914241626391600,0.3113916015625,0.09538329392671585,-0.10112684965133667,0.0325775071978569
1761914241636447700,0.32144775390625,0.08593306690454483,-0.1037929356098175,0.024635160341858864
1761914241646503400,0.33150341796875,0.07720725238323212,-0.09832873195409775,0.019135408103466034
1761914241656560600,0.341560546875,0.06899965554475784,-0.08985402435064316,0.007703789509832859
1761914241666616300,0.3516162109375,0.06959874927997589,-0.08178027719259262,-0.009728758595883846
1761914241676672500,0.361672607421875,0.06890685856342316,-0.0757354348897934,-0.021889550611376762
1761914241686728400,0.371728515625,0.06930636614561081,-0.07408161461353302,-0.027194399386644363
1761914241696785400,0.381785400390625,0.05943110212683678,-0.06968367099761963,-0.01742885448038578
1761914241706841300,0.39184130859375,0.048955440521240234,-0.05545535683631897,0.004753117449581623
1761914241716897500,0.4018974609375,0.039996568113565445,-0.03457804024219513,0.03550037741661072
1761914241726954500,0.41195458984375,0.03461356833577156,-0.02294805832207203,0.06894160807132721
1761914241737010400,0.422010498046875,0.027608655393123627,-0.025348631665110588,0.09822093695402145
1761914241747066600,0.432066650390625,0.018117262050509453,-0.04866109788417816,0.11329871416091919
1761914241757123600,0.44212353515625,0.004105040803551674,-0.06773864477872849,0.1257290095090866
1761914241767179500,0.452179443359375,-0.004439768847078085,-0.10224790871143341,0.13286720216274261
1761914241777235500,0.4622353515625,-0.010905656963586807,-0.14823776483535767,0.12832172214984894
1761914241787291600,0.472291748046875,-0.011695031076669693,-0.19200754165649414,0.1274373084306717
1761914241797348600,0.4823486328125,0.001985094975680113,-0.1982651799917221,0.12819631397724152
1761914241807404500,0.492404541015625,0.007867430336773396,-0.17847098410129547,0.12760496139526367
1761914241817460500,0.50246044921875,0.011653379537165165,-0.16298070549964905,0.12340887635946274
1761914241827517400,0.512517333984375,0.01688004843890667,-0.16413886845111847,0.1259474903345108
1761914241837573600,0.52257373046875,0.011876235716044903,-0.16365523636341095,0.13004209101200104
1761914241847629600,0.532629638671875,0.006549561396241188,-0.16488026082515717,0.11524920910596848
1761914241857686500,0.5426865234375,0.004601459018886089,-0.14950929582118988,0.09430637955665588
1761914241867742500,0.552742431640625,0.0027215422596782446,-0.11812438070774078,0.06405208259820938
1761914241877798700,0.562798583984375,-0.00026332857669331133,-0.0808129757642746,0.03371255844831467
1761914241887854600,0.5728544921875,0.0008366223191842437,-0.04919249191880226,0.004449849016964436
1761914241897911600,0.58291162109375,0.01038991380482912,-0.0335453562438488,-0.0191327091306448
1761914241907967500,0.592967529296875,0.024781661108136177,-0.0268239825963974,-0.025539007037878036
1761914241918023700,0.603023681640625,0.03551153838634491,-0.03007889725267887,-0.01961320824921131
1761914241928080600,0.61308056640625,0.03756269812583923,-0.03593979403376579,-0.0016093980520963669
1761914241938136600,0.623136474609375,0.040029317140579224,-0.03184704855084419,0.023151341825723648
1761914241948192500,0.633192626953125,0.03899547830224037,-0.032647594809532166,0.03569616377353668
1761914241958248700,0.643248779296875,0.033961571753025055,-0.029774311929941177,0.04501296579837799
1761914241968305700,0.6533056640625,0.03199699893593788,-0.02455546148121357,0.049561817198991776
1761914241978361600,0.663361572265625,0.0346234105527401,-0.035008903592824936,0.03396261855959892
1761914241988417500,0.67341748046875,0.039255544543266296,-0.05283541977405548,-0.0037269159220159054
1761914241998474500,0.683474609375,0.053809452801942825,-0.07395029067993164,-0.05653686821460724
1761914242008530700,0.69353076171875,0.06319397687911987,-0.07301334291696548,-0.11200585961341858
1761914242018586600,0.703586669921875,0.07560057938098907,-0.053026847541332245,-0.1492224782705307
1761914242028643600,0.7136435546875,0.08826208114624023,-0.015424145385622978,-0.1800536811351776
1761914242038699500,0.723699462890625,0.09804653376340866,0.012570737861096859,-0.19667579233646393
1761914242048755700,0.733755615234375,0.1054248958826065,0.025335317477583885,-0.2031482309103012
1761914242058811600,0.743811767578125,0.11531320959329605,0.03431070223450661,-0.19095973670482635
1761914242068868600,0.75386865234375,0.11996791511774063,0.03999435156583786,-0.1684182733297348
1761914242078924500,0.763924560546875,0.11712285876274109,0.019284283742308617,-0.1494685560464859
1761914242088980500,0.77398046875,0.11098659038543701,-0.018650207668542862,-0.12860573828220367
1761914242099037700,0.78403759765625,0.10649649798870087,-0.06788859516382217,-0.11513892561197281
1761914242109093600,0.79409375,0.0988561138510704,-0.11979690939188004,-0.11269832402467728
1761914242119149600,0.804149658203125,0.09950032830238342,-0.18505048751831055,-0.1256258338689804
1761914242129206800,0.814206787109375,0.0946272686123848,-0.23350074887275696,-0.1629960834980011
1761914242139262500,0.824262451171875,0.08481857925653458,-0.2606141269207001,-0.21087652444839478
1761914242149318400,0.834318359375,0.07194730639457703,-0.2538769245147705,-0.2732941806316376
1761914242159374600,0.84437451171875,0.06022966280579567,-0.2158738672733307,-0.33897653222084045
1761914242169431600,0.854431640625,0.05557634308934212,-0.1686181128025055,-0.4010862708091736
1761914242179487500,0.864487548828125,0.05558912456035614,-0.11147625744342804,-0.453695148229599
1761914242189543400,0.87454345703125,0.06374553591012955,-0.0374569296836853,-0.4961370527744293
1761914242199600400,0.884600341796875,0.08424921333789825,0.03328382223844528,-0.5155085921287537
1761914242209656600,0.894656494140625,0.12397460639476776,0.09543291479349136,-0.5130264759063721
1761914242219712500,0.90471240234375,0.16135846078395844,0.1400986611843109,-0.48915308713912964
1761914242229768400,0.9147685546875,0.2017858922481537,0.16157162189483643,-0.4423101842403412
1761914242239825400,0.924825439453125,0.23366260528564453,0.16062912344932556,-0.3848561942577362
1761914242249881600,0.934881591796875,0.25796374678611755,0.13602936267852783,-0.31506654620170593
1761914242259937500,0.9449375,0.2632770240306854,0.1034676805138588,-0.24508802592754364
1761914242269994500,0.954994384765625,0.2657882273197174,0.07289192825555801,-0.16247166693210602
1761914242280050400,0.965050537109375,0.2579726576805115,0.048582594841718674,-0.07975734770298004
1761914242290106600,0.975106689453125,0.24266788363456726,0.0234401635825634,-0.010344277136027813
1761914242300163600,0.98516357421875,0.21787066757678986,-0.009254399687051773,0.03453105315566063
1761914242310219500,0.995219482421875,0.1965452879667282,-0.048853371292352676,0.061083003878593445
1761914242320275500,1.005275390625,0.17988933622837067,-0.09025035053491592,0.07887878268957138
1761914242330331600,1.01533154296875,0.16597361862659454,-0.126543328166008,0.08872298896312714
1761914242340388600,1.025388671875,0.15206526219844818,-0.15960434079170227,0.08736157417297363
1761914242350444500,1.035444580078125,0.13452546298503876,-0.1846238076686859,0.08608104288578033
1761914242360500500,1.04550048828125,0.11135223507881165,-0.19130514562129974,0.09266464412212372
1761914242370557400,1.055557373046875,0.0845523253083229,-0.19308075308799744,0.09104619920253754
1761914242380613600,1.065613525390625,0.04664089158177376,-0.19083170592784882,0.09003420174121857
1761914242390669600,1.075669677734375,0.0020480933599174023,-0.17421336472034454,0.09233314543962479
1761914242400726500,1.0857265625,-0.04940817505121231,-0.1525120735168457,0.09953220188617706
1761914242410782500,1.095782470703125,-0.09693115949630737,-0.12071333825588226,0.11206944286823273
1761914242420838700,1.105838623046875,-0.13546524941921234,-0.10478497296571732,0.11518826335668564
1761914242430894600,1.11589453125,-0.16645263135433197,-0.09432536363601685,0.11333960294723511
1761914242440956200,1.1259560546875,-0.18843862414360046,-0.08428552001714706,0.11002236604690552
1761914242451012000,1.13601220703125,-0.20861315727233887,-0.08001160621643066,0.09466078132390976
1761914242461068000,1.146068115234375,-0.22744064033031464,-0.07480672001838684,0.07246120274066925
1761914242471125200,1.156125244140625,-0.2505384683609009,-0.062182486057281494,0.05498088523745537
1761914242481181200,1.16618115234375,-0.2775455713272095,-0.05074501037597656,0.04324832558631897
1761914242491237000,1.176237060546875,-0.30023643374443054,-0.045087266713380814,0.04271267354488373
1761914242501293000,1.18629296875,-0.32191750407218933,-0.03358187898993492,0.0578458197414875
1761914242511350300,1.196350341796875,-0.3356355130672455,-0.011833122931420803,0.0840119868516922
1761914242521406000,1.206406005859375,-0.34435418248176575,0.029532959684729576,0.12248881161212921
1761914242531462000,1.2164619140625,-0.34041160345077515,0.05487987771630287,0.16215896606445312
1761914242541519000,1.22651904296875,-0.35002321004867554,0.015572418458759785,0.17801222205162048
1761914242551575000,1.236574951171875,-0.3637746274471283,-0.045336347073316574,0.17966221272945404
1761914242561631000,1.246630859375,-0.37645527720451355,-0.08753200620412827,0.17684751749038696
1761914242571687000,1.25668701171875,-0.38252684473991394,-0.10667026042938232,0.17303457856178284
1761914242581743900,1.266743896484375,-0.39233338832855225,-0.10546678304672241,0.18162646889686584
1761914242591800000,1.276800048828125,-0.41079118847846985,-0.11101275682449341,0.18347644805908203
1761914242601856000,1.28685595703125,-0.42564335465431213,-0.15087415277957916,0.17694345116615295
1761914242611913000,1.296912841796875,-0.4309348464012146,-0.18433253467082977,0.16343382000923157
1761914242621969000,1.306968994140625,-0.4348965585231781,-0.20102976262569427,0.13539284467697144
1761914242632025000,1.317025146484375,-0.42601582407951355,-0.2110617607831955,0.07583493739366531
1761914242642082000,1.32708203125,-0.4104975759983063,-0.21998362243175507,0.0017303479835391045
1761914242652138000,1.337137939453125,-0.392643004655838,-0.21270838379859924,-0.09216216206550598
1761914242662194000,1.34719384765625,-0.3696407675743103,-0.18024177849292755,-0.1860969066619873
1761914242672250000,1.35725,-0.3393092453479767,-0.14146208763122559,-0.272960364818573
1761914242682307000,1.36730712890625,-0.3063608705997467,-0.097658671438694,-0.33487382531166077
1761914242692363000,1.377363037109375,-0.26079103350639343,-0.02076009288430214,-0.3522897958755493
1761914242702419000,1.3874189453125,-0.2097443789243698,0.11975307762622833,-0.30193206667900085
1761914242712476000,1.397475830078125,-0.14909727871418,0.3141252100467682,-0.184431254863739
1761914242722532000,1.407531982421875,-0.08041354268789291,0.48265376687049866,-0.02598409913480282
1761914242732588000,1.417588134765625,-0.029581962153315544,0.5287411212921143,0.13175183534622192
1761914242742644000,1.42764404296875,0.005234075244516134,0.4650537967681885,0.2587164342403412
1761914242752701000,1.437700927734375,0.016169080510735512,0.36061882972717285,0.3319665789604187
1761914242762757000,1.447757080078125,0.004878075327724218,0.25424498319625854,0.3733433187007904
1761914242772813000,1.45781298828125,-0.0182954091578722,0.1530611664056778,0.39770743250846863
1761914242782870000,1.4678701171875,-0.05048903450369835,0.038322340697050095,0.391890287399292
1761914242792926000,1.477926025390625,-0.09547198563814163,-0.09971785545349121,0.3491077721118927
1761914242802982100,1.487982177734375,-0.14856930077075958,-0.24001850187778473,0.27981817722320557
1761914242813038000,1.4980380859375,-0.19563327729701996,-0.3689126968383789,0.1766974925994873
1761914242823095000,1.508094970703125,-0.2199026644229889,-0.47242894768714905,0.05626828223466873
1761914242833151000,1.51815087890625,-0.21005086600780487,-0.5077235102653503,-0.04856273531913757
1761914242843207200,1.528207275390625,-0.19100792706012726,-0.4942961037158966,-0.13722656667232513
1761914242853264100,1.53826416015625,-0.18531601130962372,-0.44640690088272095,-0.21789410710334778
1761914242863320000,1.548320068359375,-0.19861316680908203,-0.34339532256126404,-0.2855660915374756
1761914242873376300,1.558376220703125,-0.2123109996318817,-0.204209104180336,-0.33936864137649536
1761914242883432200,1.56843212890625,-0.21361540257930756,-0.057257477194070816,-0.39869800209999084
1761914242893489200,1.5784892578125,-0.1953095942735672,0.07266149669885635,-0.4624254107475281
1761914242903545000,1.588545166015625,-0.17289137840270996,0.17216944694519043,-0.5200602412223816
1761914242913601300,1.598601318359375,-0.1431828886270523,0.24800904095172882,-0.572344958782196
1761914242923658200,1.608658203125,-0.11345507204532623,0.28797805309295654,-0.5954004526138306
1761914242933714200,1.618714111328125,-0.08617668598890305,0.30785509943962097,-0.5931512117385864
1761914242943770000,1.62877001953125,-0.07686920464038849,0.28790855407714844,-0.5802562236785889
1761914242953826000,1.638825927734375,-0.07817286998033524,0.2172851264476776,-0.5628227591514587
1761914242963883300,1.64888330078125,-0.0887027382850647,0.11381599307060242,-0.5358303189277649
1761914242973939000,1.65893896484375,-0.11190525442361832,0.006785345263779163,-0.5073925852775574
1761914242983995000,1.668994873046875,-0.13352133333683014,-0.08686338365077972,-0.4629817306995392
1761914242994051800,1.6790517578125,-0.15390224754810333,-0.14749467372894287,-0.3977771997451782
1761914243004108000,1.68910791015625,-0.1616821438074112,-0.1910024732351303,-0.32192182540893555
1761914243014164000,1.6991640625,-0.15176598727703094,-0.20746834576129913,-0.23336002230644226
1761914243024220000,1.709219970703125,-0.12136359512805939,-0.18611538410186768,-0.1376904845237732
1761914243034276900,1.71927685546875,-0.0664323940873146,-0.15868401527404785,-0.04600480943918228
1761914243044333000,1.7293330078125,-0.0035016355104744434,-0.13724450767040253,0.03145615756511688
1761914243054389000,1.739388916015625,0.055488720536231995,-0.12927481532096863,0.09204542636871338
1761914243064446000,1.749446044921875,0.08997506648302078,-0.12688861787319183,0.12173008918762207
1761914243074502000,1.759501953125,0.11612847447395325,-0.08930264413356781,0.1438533067703247
1761914243084558000,1.76955810546875,0.1328246295452118,-0.03165905922651291,0.15369021892547607
1761914243094614000,1.779614013671875,0.14055460691452026,0.03189517930150032,0.15032577514648438
1761914243104671000,1.7896708984375,0.1344226747751236,0.08767961710691452,0.13032864034175873
1761914243114727000,1.799726806640625,0.12392380833625793,0.11450646817684174,0.09748584032058716
1761914243124783000,1.809783203125,0.10820795595645905,0.15137580037117004,0.05748782306909561
1761914243134840000,1.819840087890625,0.09848534315824509,0.2017975002527237,0.025658924132585526
1761914243144896000,1.82989599609375,0.08162487298250198,0.24068443477153778,0.011482653208076954
1761914243154952000,1.839951904296875,0.07485190778970718,0.28899437189102173,0.028674675151705742
1761914243165008100,1.850008056640625,0.07232856750488281,0.3330928683280945,0.0759204849600792
1761914243175065000,1.860065185546875,0.08047103136777878,0.36851081252098083,0.15867190062999725
1761914243185121000,1.87012109375,0.09763962775468826,0.42900851368904114,0.264766663312912
1761914243195177000,1.880177001953125,0.11110218614339828,0.46168890595436096,0.37273168563842773
1761914243205234200,1.890234130859375,0.11759603768587112,0.4013528525829315,0.4450277090072632
1761914243215290000,1.9002900390625,0.1011413112282753,0.2830209732055664,0.46605440974235535
1761914243225346000,1.910345947265625,0.05824710801243782,0.0851297378540039,0.41971832513809204
1761914243235402000,1.920402099609375,-0.007155800703912973,-0.22726906836032867,0.30081743001937866
1761914243245459200,1.930459228515625,-0.0967988669872284,-0.573456346988678,0.1425156593322754
1761914243255515100,1.94051513671875,-0.1913711279630661,-0.8108147382736206,0.00608445331454277
1761914243265571000,1.950571044921875,-0.25803616642951965,-0.9142564535140991,-0.09423495829105377
1761914243275628000,1.9606279296875,-0.2840084135532379,-0.8566398024559021,-0.1482323855161667
1761914243285684200,1.970684326171875,-0.3063153028488159,-0.7039117217063904,-0.17934823036193848
1761914243295740200,1.980740234375,-0.3125680983066559,-0.5120403170585632,-0.20281927287578583
1761914243305796000,1.990796142578125,-0.3023833632469177,-0.2767394483089447,-0.21659395098686218
1761914243315853000,2.00085302734375,-0.26038774847984314,0.005685412324965,-0.21372221410274506
1761914243325909200,2.0109091796875,-0.18389670550823212,0.3302789628505707,-0.1688266396522522
1761914243335965200,2.020965087890625,-0.0871061459183693,0.6523065567016602,-0.08562538772821426
1761914243346022100,2.031022216796875,-0.009419072419404984,0.8902807831764221,0.015583515167236328
1761914243356078000,2.041078125,0.03397084027528763,0.9886528253555298,0.09960709512233734
1761914243366134300,2.05113427734375,0.055487584322690964,0.9238482713699341,0.14338599145412445
1761914243376190000,2.06118994140625,0.047760047018527985,0.7485044002532959,0.15855717658996582
1761914243386247200,2.0712470703125,0.019619490951299667,0.5059029459953308,0.14949071407318115
1761914243396302800,2.081302734375,-0.010299578309059143,0.21848149597644806,0.13940463960170746
1761914243406359000,2.091359130859375,-0.04384954646229744,-0.08258913457393646,0.1149110198020935
1761914243416416300,2.101416259765625,-0.07458416372537613,-0.3757338225841522,0.07436543703079224
1761914243426472000,2.111471923828125,-0.11062818020582199,-0.6152675747871399,0.005063332617282867
1761914243436523800,2.121523681640625,-0.1369340568780899,-0.7750536799430847,-0.09246064722537994
1761914243446579700,2.131579833984375,-0.1492234766483307,-0.8748779892921448,-0.20810629427433014
1761914243456636700,2.14163671875,-0.14599467813968658,-0.8762171864509583,-0.3170803487300873
1761914243466692600,2.151692626953125,-0.13824568688869476,-0.764022171497345,-0.39941784739494324
1761914243476748800,2.161748779296875,-0.11169780790805817,-0.5492141842842102,-0.4492248296737671
1761914243486804700,2.1718046875,-0.056146927177906036,-0.2319730967283249,-0.4525436758995056
1761914243496861700,2.18186181640625,0.03528664633631706,0.1307535320520401,-0.41822338104248047
1761914243506917600,2.191917724609375,0.14757777750492096,0.44420334696769714,-0.37359118461608887
1761914243516973800,2.201973876953125,0.25917112827301025,0.6213849782943726,-0.338753879070282
1761914243527030800,2.21203076171875,0.3525000214576721,0.6878702640533447,-0.30924472212791443
1761914243537086700,2.222086669921875,0.42628493905067444,0.6560713648796082,-0.2983274459838867
1761914243547142700,2.232142578125,0.48720261454582214,0.5783126354217529,-0.28996431827545166
1761914243557198800,2.24219873046875,0.523131787776947,0.47191545367240906,-0.2855370044708252
1761914243567255800,2.252255859375,0.537627100944519,0.32884910702705383,-0.28055715560913086
1761914243577311700,2.262311767578125,0.5268338322639465,0.18683409690856934,-0.26723963022232056
1761914243587367700,2.27236767578125,0.4872448742389679,0.05334395170211792,-0.25827091932296753
1761914243597424600,2.282424560546875,0.42557889223098755,-0.07229380309581757,-0.25643637776374817
1761914243607480800,2.292480712890625,0.35737642645835876,-0.1742023378610611,-0.24737417697906494
1761914243617536800,2.302536865234375,0.28140467405319214,-0.22889406979084015,-0.23460006713867188
1761914243627592400,2.312592529296875,0.21855726838111877,-0.25648707151412964,-0.22067946195602417
1761914243637649700,2.322649658203125,0.1788278967142105,-0.2770736813545227,-0.21103204786777496
1761914243647705900,2.332705810546875,0.16351206600666046,-0.2917748689651489,-0.20014263689517975
1761914243657761500,2.342761474609375,0.17496812343597412,-0.295958548784256,-0.18095019459724426
1761914243667817500,2.3528173828125,0.19886839389801025,-0.2881765365600586,-0.14519380033016205
1761914243677874700,2.362874755859375,0.2371203601360321,-0.2555958330631256,-0.08183269202709198
1761914243687930600,2.3729306640625,0.2711030840873718,-0.2015639990568161,-0.00023024249821901321
1761914243697986600,2.382986572265625,0.2862781286239624,-0.13633015751838684,0.09331577271223068
1761914243708043500,2.39304345703125,0.27909770607948303,-0.07332482188940048,0.18693441152572632
1761914243718099700,2.403099609375,0.24001182615756989,-0.02873365394771099,0.271577924489975
1761914243728155600,2.41315576171875,0.163362056016922,-0.005087713245302439,0.33677583932876587
1761914243738211600,2.423211669921875,0.06510544568300247,0.0160320233553648,0.37630775570869446
1761914243748268500,2.4332685546875,-0.03881482779979706,0.03492821753025055,0.39395785331726074
1761914243758324700,2.44332470703125,-0.13429933786392212,0.02412121184170246,0.3959329426288605
1761914243768380700,2.453380615234375,-0.2149270623922348,-0.011612284928560257,0.38425230979919434
1761914243778437600,2.463437744140625,-0.2809477746486664,-0.07989449799060822,0.35943031311035156
1761914243788493600,2.47349365234375,-0.3254888951778412,-0.13681158423423767,0.3344978094100952
1761914243798549800,2.4835498046875,-0.3562960624694824,-0.17655766010284424,0.2928081452846527
1761914243808605700,2.493605712890625,-0.3885520398616791,-0.18481890857219696,0.24565590918064117
1761914243818662700,2.50366259765625,-0.42307284474372864,-0.1569799929857254,0.19302144646644592
1761914243828718600,2.513718505859375,-0.4532887935638428,-0.1125214472413063,0.1497964859008789
1761914243838774800,2.52377490234375,-0.4739815592765808,-0.07205957174301147,0.12115573137998581
1761914243848830700,2.533830810546875,-0.4768010675907135,-0.020384395495057106,0.1242082491517067
1761914243858887700,2.5438876953125,-0.4510393440723419,0.05490938574075699,0.1537160575389862
1761914243868943600,2.553943603515625,-0.4105542302131653,0.1335384100675583,0.21215538680553436
1761914243878999800,2.563999755859375,-0.3615456819534302,0.20238059759140015,0.29428139328956604
1761914243889056800,2.574056884765625,-0.3116130232810974,0.2517111301422119,0.3906942307949066
1761914243899112700,2.58411279296875,-0.27022120356559753,0.2640121281147003,0.48194000124931335
1761914243909168600,2.594168701171875,-0.24386414885520935,0.19698064029216766,0.5613197684288025
1761914243919224800,2.604224853515625,-0.22551432251930237,0.08394202589988708,0.6246038675308228
1761914243929281800,2.61428173828125,-0.21719114482402802,-0.02464250661432743,0.6833246946334839
1761914243939337700,2.624337646484375,-0.21893619000911713,-0.1032593846321106,0.734495222568512
1761914243949393700,2.6343935546875,-0.22412270307540894,-0.16164731979370117,0.7643418312072754
1761914243959449900,2.644449951171875,-0.25916096568107605,-0.20691759884357452,0.7455011606216431
1761914243969506800,2.6545068359375,-0.3079173266887665,-0.24911431968212128,0.6820441484451294
1761914243979562800,2.664562744140625,-0.35747843980789185,-0.2598383128643036,0.5760560631752014
1761914243989618700,2.67461865234375,-0.39365750551223755,-0.24241085350513458,0.4456343650817871
1761914243999675600,2.684675537109375,-0.4050293266773224,-0.20462754368782043,0.2981509864330292
1761914244009731800,2.69473193359375,-0.3965442180633545,-0.14825348556041718,0.16341526806354523
1761914244019787800,2.704787841796875,-0.3634016513824463,-0.05327741429209709,0.07061059027910233
1761914244029843500,2.714843505859375,-0.3010597229003906,0.06078391149640083,0.022877421230077744
1761914244039900700,2.724900634765625,-0.20643745362758636,0.19738951325416565,0.04247639328241348
1761914244049956600,2.73495654296875,-0.09604036808013916,0.33526375889778137,0.10519224405288696
1761914244060012500,2.745012451171875,0.0036044353619217873,0.39659613370895386,0.17869390547275543
1761914244070069800,2.75506982421875,0.07645919919013977,0.39272308349609375,0.24664020538330078
1761914244080125700,2.765125732421875,0.12023450434207916,0.34633809328079224,0.30508193373680115
1761914244090181600,2.775181640625,0.1541687697172165,0.2898079752922058,0.3467697203159332
1761914244100237600,2.785237548828125,0.17434640228748322,0.2425517439842224,0.37960878014564514
1761914244110294500,2.79529443359375,0.1949070692062378,0.17226773500442505,0.3935304284095764
1761914244120350700,2.805350830078125,0.21119002997875214,0.05068180710077286,0.37154367566108704
1761914244130406700,2.81540673828125,0.2169581800699234,-0.11187754571437836,0.3159339427947998
1761914244140462600,2.825462646484375,0.22851988673210144,-0.2995385527610779,0.23472252488136292
1761914244150519600,2.83551953125,0.2446700930595398,-0.4626118838787079,0.1405305117368698
1761914244160575700,2.84557568359375,0.2721874415874481,-0.5531936883926392,0.05569230765104294
1761914244170631700,2.855631591796875,0.29447993636131287,-0.5850538611412048,-0.015101701021194458
1761914244180688600,2.865688720703125,0.2997114956378937,-0.5490362644195557,-0.07199910283088684
1761914244190744600,2.87574462890625,0.2803143858909607,-0.4575819969177246,-0.12027262896299362
1761914244200800800,2.88580078125,0.24967947602272034,-0.32382625341415405,-0.16855143010616302
1761914244210856700,2.895856689453125,0.20756025612354279,-0.16805876791477203,-0.22711114585399628
1761914244220913700,2.90591357421875,0.16642272472381592,-0.027429083362221718,-0.2964026927947998
1761914244230969600,2.915969482421875,0.12444783002138138,0.07406184822320938,-0.36923670768737793
1761914244241025800,2.92602587890625,0.09356158971786499,0.11101952195167542,-0.44958803057670593
1761914244251081700,2.936081787109375,0.056040044873952866,0.10583274811506271,-0.525977373123169
1761914244261138700,2.946138671875,0.019393842667341232,0.08397632092237473,-0.6000586748123169
1761914244271194600,2.956194580078125,-0.01326822955161333,0.05782647803425789,-0.6540122032165527
1761914244281250800,2.966250732421875,-0.05674150586128235,0.06423908472061157,-0.6731455326080322
1761914244291306800,2.976306640625,-0.10493007302284241,0.09093248099088669,-0.6659927368164062
1761914244301363700,2.98636376953125,-0.1581704020500183,0.12128432095050812,-0.6509522795677185
1761914244311419600,2.996419677734375,-0.20179137587547302,0.165211021900177,-0.6205648183822632
1761914244321475800,3.006475830078125,-0.23101386427879333,0.20285019278526306,-0.5859554409980774
1761914244331532800,3.01653271484375,-0.2449033111333847,0.22633154690265656,-0.5577418804168701
1761914244341588700,3.026588623046875,-0.2334962785243988,0.22346413135528564,-0.5389730930328369
1761914244351644700,3.036644775390625,-0.19552119076251984,0.2028651237487793,-0.5285649299621582
1761914244361700900,3.046700927734375,-0.12429248541593552,0.18223045766353607,-0.5146018266677856
1761914244371757800,3.0567578125,-0.02508866973221302,0.17908845841884613,-0.48736435174942017
1761914244381813800,3.066813720703125,0.08490259200334549,0.186886265873909,-0.43972691893577576
1761914244391869700,3.07686962890625,0.18910916149616241,0.20246203243732452,-0.38168519735336304
1761914244401925600,3.086925537109375,0.2713676393032074,0.2070416659116745,-0.3178032636642456
1761914244411982800,3.09698291015625,0.3264591097831726,0.1930084079504013,-0.25964435935020447
1761914244422038800,3.107038818359375,0.3546351492404938,0.17875872552394867,-0.22203345596790314
1761914244432094500,3.117094482421875,0.36346033215522766,0.17533788084983826,-0.20611602067947388
1761914244442155500,3.127155517578125,0.35628384351730347,0.17979194223880768,-0.2078477442264557
1761914244452211700,3.137211669921875,0.349477082490921,0.18296056985855103,-0.22187381982803345
1761914244462267600,3.147267578125,0.35151779651641846,0.1704561859369278,-0.2297116219997406
1761914244472323600,3.157323486328125,0.3652125895023346,0.17210787534713745,-0.22177699208259583
1761914244482380500,3.167380615234375,0.3869081735610962,0.17655517160892487,-0.1955653876066208
1761914244492436700,3.177436767578125,0.4122809171676636,0.1732022613286972,-0.15378066897392273
1761914244502492700,3.18749267578125,0.43311619758605957,0.16455507278442383,-0.10397325456142426
1761914244512548600,3.197548583984375,0.4357657730579376,0.145060732960701,-0.05479159951210022
1761914244522605600,3.20760546875,0.42359328269958496,0.09788449108600616,-0.01738099940121174
1761914244532661800,3.217661865234375,0.3774665296077728,0.012456407770514488,-0.003513387404382229
1761914244542717700,3.2277177734375,0.3192504048347473,-0.08650881052017212,-0.008238649927079678
1761914244552774700,3.237774658203125,0.2538016140460968,-0.1775156855583191,-0.025387011468410492
1761914244562830600,3.24783056640625,0.20386876165866852,-0.23577041923999786,-0.03982122242450714
1761914244572886800,3.25788671875,0.17994239926338196,-0.22022421658039093,-0.022634249180555344
1761914244582942700,3.267942626953125,0.17406028509140015,-0.12549589574337006,0.02694820612668991
1761914244592999700,3.277999755859375,0.19973821938037872,0.05140911415219307,0.11780726909637451
1761914244603055600,3.2880556640625,0.24835853278636932,0.30591610074043274,0.24403060972690582
1761914244613111800,3.29811181640625,0.3101990222930908,0.48696738481521606,0.36456024646759033
1761914244623167700,3.308167724609375,0.33263686299324036,0.48906323313713074,0.4380391240119934
1761914244633224700,3.318224609375,0.31640756130218506,0.4208676517009735,0.5000860095024109
1761914244643280600,3.32828076171875,0.27440953254699707,0.3349422812461853,0.5602062344551086
1761914244653336600,3.338336669921875,0.22421319782733917,0.234830841422081,0.6203166842460632
1761914244663393800,3.348393798828125,0.1484534740447998,0.10413192957639694,0.6555537581443787
1761914244673449500,3.358449462890625,0.05529237166047096,-0.05599142611026764,0.6411572694778442
1761914244683505400,3.36850537109375,-0.06648116558790207,-0.24000954627990723,0.5716883540153503
1761914244693561600,3.3785615234375,-0.19851776957511902,-0.4391727149486542,0.45454153418540955
1761914244703618600,3.38861865234375,-0.31294846534729004,-0.5981355309486389,0.31030526757240295
1761914244713674500,3.398674560546875,-0.3813419044017792,-0.6843886375427246,0.16463379561901093
1761914244723730700,3.408730712890625,-0.42427700757980347,-0.6807233691215515,0.006262872368097305
1761914244733786600,3.41878662109375,-0.4609964191913605,-0.5550224184989929,-0.1387593001127243
1761914244743843600,3.428843505859375,-0.4605967402458191,-0.27879229187965393,-0.2222282886505127
1761914244753899500,3.4388994140625,-0.411250501871109,0.11970555782318115,-0.21109147369861603
1761914244763955700,3.448955810546875,-0.30655014514923096,0.5373300313949585,-0.13552094995975494
1761914244774011600,3.45901171875,-0.17597906291484833,0.8882598280906677,-0.023721452802419662
1761914244784068600,3.469068603515625,-0.04175232723355293,1.1048636436462402,0.07906174659729004
1761914244794124500,3.47912451171875,0.07523979991674423,1.2050446271896362,0.16144290566444397
1761914244804180700,3.4891806640625,0.16935814917087555,1.1797330379486084,0.23551617562770844
1761914244814237700,3.49923779296875,0.2529110908508301,1.0463694334030151,0.2904220223426819
1761914244824293600,3.509293701171875,0.31783124804496765,0.8438187837600708,0.346938818693161
1761914244834349600,3.519349609375,0.36215636134147644,0.5788630247116089,0.3873155415058136
1761914244844405800,3.52940576171875,0.377231240272522,0.2742389738559723,0.3995712995529175
1761914244854462700,3.539462646484375,0.3674452006816864,-0.043436452746391296,0.3715287446975708
1761914244864518700,3.5495185546875,0.32374730706214905,-0.29162463545799255,0.3163500428199768
1761914244874574600,3.55957470703125,0.28823962807655334,-0.4221307039260864,0.2559165060520172
1761914244884630800,3.569630859375,0.2794874310493469,-0.4397231936454773,0.1850900650024414
1761914244894687700,3.579687744140625,0.29717162251472473,-0.381573349237442,0.100453220307827
1761914244904743700,3.58974365234375,0.3318345844745636,-0.2613113522529602,-0.0025603920221328735
1761914244914799600,3.599799560546875,0.38342854380607605,-0.08798215538263321,-0.10750092566013336
1761914244924856600,3.609856689453125,0.44896602630615234,0.10440369695425034,-0.21166175603866577
1761914244934912800,3.619912841796875,0.5379036068916321,0.2926923632621765,-0.3085302412509918
1761914244944968700,3.62996875,0.6330732107162476,0.45881104469299316,-0.3768201768398285
1761914244955024600,3.640024658203125,0.7152223587036133,0.5819970965385437,-0.40286964178085327
1761914244965081600,3.65008154296875,0.7825943827629089,0.6385766863822937,-0.3841297924518585
1761914244975137800,3.6601376953125,0.8385945558547974,0.6406416893005371,-0.3317773640155792
1761914244985193700,3.67019384765625,0.8757866621017456,0.6028279066085815,-0.25542163848876953
1761914244995249700,3.680249755859375,0.8800908327102661,0.5460841655731201,-0.17367883026599884
1761914245005306600,3.690306640625,0.8555324077606201,0.46900686621665955,-0.1102101057767868
1761914245015362800,3.70036279296875,0.8092527985572815,0.3637462258338928,-0.06475154310464859
1761914245025418500,3.71041845703125,0.7414674162864685,0.23541316390037537,-0.04507779702544212
1761914245035474400,3.720474365234375,0.6561762094497681,0.09580627083778381,-0.04705439507961273
1761914245045531600,3.73053173828125,0.5608986616134644,-0.023140892386436462,-0.057604216039180756
1761914245055587600,3.740587646484375,0.47745388746261597,-0.08561892062425613,-0.07374057918787003
1761914245065643500,3.7506435546875,0.4034677743911743,-0.11006071418523788,-0.0868506208062172
1761914245075700500,3.760700439453125,0.34880319237709045,-0.14016082882881165,-0.10257498919963837
1761914245085756400,3.77075634765625,0.3112446069717407,-0.18759091198444366,-0.11618353426456451
1761914245095812600,3.7808125,0.2852683961391449,-0.2334665209054947,-0.12365716695785522
1761914245105868500,3.79086865234375,0.26759910583496094,-0.24283774197101593,-0.12525726854801178
1761914245115925500,3.800925537109375,0.24188150465488434,-0.1817333698272705,-0.11837592720985413
1761914245125981700,3.810981689453125,0.20367354154586792,-0.07721056044101715,-0.11027058959007263
1761914245136037600,3.82103759765625,0.14996343851089478,0.007296067662537098,-0.12092509865760803
1761914245146093600,3.831093505859375,0.09520070254802704,0.047857604920864105,-0.15171246230602264
1761914245156150500,3.841150634765625,0.04630133509635925,0.03321181610226631,-0.19790951907634735
1761914245166206700,3.851206787109375,0.013066321611404419,0.025720566511154175,-0.23100103437900543
1761914245176262700,3.8612626953125,-0.006565169896930456,0.04482847824692726,-0.23985178768634796
1761914245186318600,3.871318603515625,-0.027463635429739952,0.09089986979961395,-0.21588793396949768
1761914245196375600,3.88137548828125,-0.047877829521894455,0.15342850983142853,-0.16646897792816162
1761914245206431700,3.891431640625,-0.07373297959566116,0.20173513889312744,-0.1115889847278595
1761914245216487700,3.90148779296875,-0.11163534969091415,0.21054114401340485,-0.06537115573883057
1761914245226544600,3.911544677734375,-0.15989480912685394,0.19499538838863373,-0.04093758016824722
1761914245236600600,3.9216005859375,-0.22316007316112518,0.14440438151359558,-0.04165343940258026
1761914245246656800,3.93165673828125,-0.3005984425544739,0.052713438868522644,-0.05925395339727402
1761914245256712700,3.941712646484375,-0.37957075238227844,-0.06199157238006592,-0.08683311939239502
1761914245266768600,3.9517685546875,-0.43005895614624023,-0.15793035924434662,-0.10042615979909897
1761914245276824800,3.961824951171875,-0.4488358497619629,-0.20071136951446533,-0.08381389081478119
1761914245286880800,3.971880859375,-0.43743959069252014,-0.20265381038188934,-0.03532291576266289
1761914245296936700,3.981936767578125,-0.40108823776245117,-0.17000159621238708,0.04054761305451393
1761914245306993700,3.99199365234375,-0.3501441180706024,-0.10229199379682541,0.13430556654930115
1761914245317049900,4.0020498046875,-0.29569604992866516,-0.031631939113140106,0.23954463005065918
1761914245327105500,4.01210546875,-0.268934041261673,-0.04625185579061508,0.3140752613544464
1761914245337161500,4.022161376953125,-0.28072598576545715,-0.09841998666524887,0.36080870032310486
1761914245347218700,4.03221875,-0.315822035074234,-0.13861839473247528,0.4115525484085083
1761914245357274600,4.042274658203125,-0.36048537492752075,-0.12841582298278809,0.4680240750312805
1761914245367330600,4.05233056640625,-0.4128371477127075,-0.09883836656808853,0.5199034810066223
1761914245377386500,4.062386474609375,-0.4829787015914917,-0.06656138598918915,0.5416703224182129
1761914245387443500,4.072443359375,-0.5530704259872437,-0.05706948786973953,0.536296546459198
1761914245397499600,4.082499755859375,-0.6069467067718506,-0.0836222693324089,0.4915221035480499
1761914245407555600,4.0925556640625,-0.6389492154121399,-0.14947301149368286,0.40505915880203247
1761914245417612500,4.102612548828125,-0.6463011503219604,-0.26043254137039185,0.27963757514953613
1761914245427668500,4.11266845703125,-0.6372582316398621,-0.34695345163345337,0.14222462475299835
1761914245437724700,4.122724609375,-0.6334206461906433,-0.36988595128059387,0.006227374076843262
1761914245447776300,4.1327763671875,-0.626412570476532,-0.3200867176055908,-0.10805481672286987
1761914245457833200,4.142833251953125,-0.5814771056175232,-0.1817043423652649,-0.16977064311504364
1761914245467889400,4.152889404296875,-0.4975072145462036,0.029335275292396545,-0.17567066848278046
1761914245477945300,4.1629453125,-0.37921571731567383,0.23277734220027924,-0.13919362425804138
1761914245488001300,4.173001220703125,-0.24490362405776978,0.37856626510620117,-0.08653055131435394
1761914245498058200,4.183058349609375,-0.12644942104816437,0.4385339915752411,-0.03621624782681465
1761914245508114400,4.193114501953125,-0.022815661504864693,0.41341760754585266,0.004442404955625534
1761914245518170400,4.20317041015625,0.07400835305452347,0.3449815511703491,0.04824528098106384
1761914245528226300,4.213226318359375,0.15711870789527893,0.24686752259731293,0.09205856919288635
1761914245538283300,4.223283203125,0.23003339767456055,0.10557536035776138,0.12249930202960968
1761914245548339500,4.23333935546875,0.2774870693683624,-0.06941398978233337,0.1396012306213379
1761914245558395400,4.2433955078125,0.3036766052246094,-0.23080742359161377,0.14007526636123657
1761914245568451300,4.253451416015625,0.29878899455070496,-0.3533937931060791,0.12507671117782593
1761914245578508300,4.26350830078125,0.2789894640445709,-0.4371829628944397,0.09225991368293762
1761914245588564500,4.273564453125,0.25325459241867065,-0.48525020480155945,0.05457502603530884
1761914245598620400,4.283620361328125,0.21419265866279602,-0.5072721242904663,0.007915645837783813
1761914245608676400,4.29367626953125,0.1719561666250229,-0.48856687545776367,-0.03945324569940567
1761914245618733300,4.3037333984375,0.12889525294303894,-0.4257114827632904,-0.08981441706418991
1761914245628789500,4.31378955078125,0.09080597758293152,-0.316743940114975,-0.14566905796527863
1761914245638845400,4.323845458984375,0.06993851065635681,-0.19901809096336365,-0.22192734479904175
1761914245648902400,4.33390234375,0.05867951735854149,-0.100843146443367,-0.3052084147930145
1761914245658958300,4.343958251953125,0.03894922137260437,-0.02673216536641121,-0.395468533039093
1761914245669014500,4.3540146484375,0.009546483866870403,0.02832394279539585,-0.48293402791023254
1761914245679070500,4.364070556640625,-0.03286675363779068,0.0728922113776207,-0.5577094554901123
1761914245689127400,4.37412744140625,-0.08900310099124908,0.11994045972824097,-0.6066802740097046
1761914245699183400,4.384183349609375,-0.14877136051654816,0.20007896423339844,-0.6266771554946899
1761914245709239600,4.394239501953125,-0.20221875607967377,0.2776415944099426,-0.6255066394805908
1761914245719295500,4.40429541015625,-0.24507355690002441,0.322863906621933,-0.6087892055511475
1761914245729352400,4.4143525390625,-0.2622966468334198,0.3415534496307373,-0.5755043625831604
1761914245739408400,4.424408447265625,-0.2589495778083801,0.34449464082717896,-0.5226978659629822
1761914245749464300,4.43446435546875,-0.2394111007452011,0.32365456223487854,-0.4717567563056946
1761914245759520300,4.444520263671875,-0.204080268740654,0.27860957384109497,-0.43329671025276184
1761914245769577500,4.454577392578125,-0.15684054791927338,0.23347118496894836,-0.4010433852672577
1761914245779633400,4.46463330078125,-0.0994558110833168,0.2052677869796753,-0.3787252902984619
1761914245789689300,4.474689453125,-0.01097941305488348,0.18753419816493988,-0.3630465269088745
1761914245799745300,4.484745361328125,0.0984669178724289,0.17672228813171387,-0.34952405095100403
1761914245809805300,4.494805419921875,0.20342715084552765,0.1727416217327118,-0.329229474067688
1761914245819861500,4.504861572265625,0.2986066937446594,0.1663135439157486,-0.2983778119087219
1761914245829917400,4.51491748046875,0.3774641752243042,0.15607191622257233,-0.24673986434936523
1761914245839974400,4.524974365234375,0.4319183826446533,0.12410546094179153,-0.18879561126232147
1761914245850030300,4.5350302734375,0.4585125148296356,0.08587471395730972,-0.13372398912906647
1761914245860086500,4.54508642578125,0.4595455527305603,0.0658607929944992,-0.09487752616405487
1761914245870142500,4.555142578125,0.4511732757091522,0.06341340392827988,-0.07083111256361008
1761914245880199400,4.565199462890625,0.43319401144981384,0.05445931851863861,-0.06669841706752777
1761914245890255400,4.57525537109375,0.40828144550323486,0.03550293669104576,-0.07381013035774231
1761914245900311600,4.5853115234375,0.3909868896007538,0.007375429850071669,-0.09244772791862488
1761914245910367500,4.595367431640625,0.37819111347198486,-0.02853165939450264,-0.10919401049613953
1761914245920424400,4.605424560546875,0.3583553433418274,-0.0685214176774025,-0.12178623676300049
1761914245930480400,4.61548046875,0.34265393018722534,-0.12131655961275101,-0.138384148478508
1761914245940536600,4.62553662109375,0.31523269414901733,-0.1885257065296173,-0.16045057773590088
1761914245950592300,4.63559228515625,0.2763340473175049,-0.24992653727531433,-0.19076141715049744
1761914245960649500,4.6456494140625,0.24123278260231018,-0.2724691331386566,-0.21930864453315735
1761914245970705200,4.655705078125,0.2079792618751526,-0.23649479448795319,-0.2302921861410141
1761914245980761300,4.66576123046875,0.18630805611610413,-0.14789196848869324,-0.2117491215467453
1761914245990818600,4.675818603515625,0.17978069186210632,-0.027157645672559738,-0.15632453560829163
1761914246000874200,4.685874267578125,0.19893014430999756,0.11622215062379837,-0.056495144963264465
1761914246010930200,4.69593017578125,0.22569769620895386,0.25268322229385376,0.07381601631641388
1761914246020986400,4.705986328125,0.2544614374637604,0.3549360930919647,0.21379974484443665
1761914246031043300,4.716043212890625,0.2829214334487915,0.3757703900337219,0.3555542230606079
1761914246041099300,4.726099365234375,0.29304492473602295,0.26856058835983276,0.47241613268852234
1761914246051155500,4.736155517578125,0.2841629981994629,0.10102756321430206,0.5593995451927185
1761914246061211400,4.74621142578125,0.2505062520503998,-0.06689778715372086,0.620106041431427
1761914246071268400,4.756268310546875,0.1998734027147293,-0.24506431818008423,0.6464366912841797
1761914246081324300,4.76632421875,0.12377597391605377,-0.4466714859008789,0.6178178191184998
1761914246091380500,4.77638037109375,0.02613813988864422,-0.6772747039794922,0.5399951338768005
1761914246101436400,4.7864365234375,-0.06756491959095001,-0.87252277135849,0.42760011553764343
1761914246111493400,4.796493408203125,-0.12427884340286255,-0.9809665083885193,0.2948075830936432
1761914246121549300,4.80654931640625,-0.15698114037513733,-1.0070884227752686,0.14986318349838257
1761914246131605500,4.81660546875,-0.1655646115541458,-0.9272755980491638,-0.0024337461218237877
1761914246141661400,4.826661376953125,-0.1676487922668457,-0.7734929323196411,-0.14247794449329376
1761914246151718400,4.836718505859375,-0.1525850147008896,-0.541321337223053,-0.23798100650310516
1761914246161774300,4.8467744140625,-0.10459831357002258,-0.22476574778556824,-0.2600620687007904
1761914246171830500,4.85683056640625,-0.02287374809384346,0.15971603989601135,-0.1935730129480362
1761914246181886500,4.866886474609375,0.07807017117738724,0.5413052439689636,-0.049582548439502716
1761914246191943400,4.876943359375,0.17707855999469757,0.8310132026672363,0.1293925791978836
1761914246201999400,4.886999267578125,0.24957646429538727,0.996472179889679,0.3026983141899109
1761914246212055600,4.8970556640625,0.3063175678253174,1.078702688217163,0.4505321979522705
1761914246222111500,4.907111572265625,0.3594074249267578,1.0674830675125122,0.5595446825027466
1761914246232168400,4.91716845703125,0.39867815375328064,0.9413533210754395,0.605103075504303
1761914246242224400,4.927224365234375,0.4237595498561859,0.7072566747665405,0.60338294506073
1761914246252280600,4.937280517578125,0.42316484451293945,0.40939968824386597,0.5538257360458374
1761914246262336500,4.94733642578125,0.4006345272064209,0.0856192335486412,0.47758930921554565
1761914246272393500,4.9573935546875,0.3604891896247864,-0.21066218614578247,0.3917710781097412
1761914246282449400,4.967449462890625,0.33637773990631104,-0.4249100387096405,0.3112107217311859
1761914246292505600,4.977505615234375,0.32543957233428955,-0.5344537496566772,0.23630943894386292
1761914246302562600,4.9875625,0.31346333026885986,-0.5782390236854553,0.1646384298801422
1761914246312618500,4.997618408203125,0.2991236448287964,-0.5570492744445801,0.08345931768417358
1761914246322674200,5.007674072265625,0.27606600522994995,-0.4556363821029663,-0.007896430790424347
1761914246332730400,5.01773046875,0.2647339105606079,-0.2903430759906769,-0.10884424299001694
1761914246342787600,5.02778759765625,0.2718741297721863,-0.06192323565483093,-0.20469620823860168
1761914246352843300,5.03784326171875,0.3021967113018036,0.2153596431016922,-0.28711599111557007
1761914246362899200,5.047899169921875,0.3628363609313965,0.5208378434181213,-0.3556649684906006
1761914246372955400,5.057955322265625,0.45208120346069336,0.8224937915802002,-0.41435179114341736
1761914246383012400,5.068012451171875,0.5594697594642639,1.071214199066162,-0.4660125970840454
1761914246393068300,5.078068359375,0.6781884431838989,1.2337068319320679,-0.5119388699531555
1761914246403124200,5.088124267578125,0.811636745929718,1.3320081233978271,-0.5309077501296997
1761914246413180400,5.098180419921875,0.9293549656867981,1.380218505859375,-0.5252014398574829
1761914246423237400,5.1082373046875,1.0151201486587524,1.3733875751495361,-0.5109308958053589
1761914246433293300,5.118293212890625,1.0486897230148315,1.3062587976455688,-0.4857653081417084
1761914246443349500,5.128349609375,1.0336450338363647,1.1765910387039185,-0.4510424733161926
1761914246453405700,5.13840576171875,0.9743913412094116,1.006113886833191,-0.40399739146232605
1761914246463462700,5.148462646484375,0.8816829919815063,0.8407776951789856,-0.32202237844467163
1761914246473518600,5.1585185546875,0.7768591642379761,0.6850647330284119,-0.2170158326625824
1761914246483574500,5.168574462890625,0.670548677444458,0.53944331407547,-0.10224930197000504
1761914246493630700,5.178630615234375,0.5833316445350647,0.40695396065711975,0.010411531664431095
1761914246503687700,5.188687744140625,0.5120111107826233,0.2775490880012512,0.10018082708120346
1761914246513743600,5.19874365234375,0.4708200991153717,0.15693148970603943,0.16793407499790192
1761914246523799600,5.208799560546875,0.45450422167778015,0.041746579110622406,0.21935492753982544
1761914246533855700,5.218855712890625,0.46928006410598755,-0.06565377861261368,0.2618887722492218
1761914246543912700,5.22891259765625,0.5268930196762085,-0.16345304250717163,0.29866623878479004
1761914246553968600,5.23896875,0.5912839770317078,-0.1900598406791687,0.3317274749279022
1761914246564024600,5.249024658203125,0.6509259939193726,-0.15672053396701813,0.3591543138027191
1761914246574080800,5.259080810546875,0.6812257766723633,-0.09855803102254868,0.36307087540626526
1761914246584137700,5.2691376953125,0.6936259865760803,-0.07200445234775543,0.35278546810150146
1761914246594193700,5.279193603515625,0.6753125190734863,-0.07253831624984741,0.34711891412734985
1761914246604249600,5.28924951171875,0.6174657344818115,-0.08320827037096024,0.3593052923679352
1761914246614305800,5.299305908203125,0.5340155959129333,-0.1101575568318367,0.3793943226337433
1761914246624362800,5.30936279296875,0.45525315403938293,-0.1272430717945099,0.41240420937538147
1761914246634418700,5.319418701171875,0.38883310556411743,-0.1295757293701172,0.45036810636520386
1761914246644474600,5.329474609375,0.3245992660522461,-0.13993142545223236,0.48051828145980835
1761914246654530600,5.339530517578125,0.2614692747592926,-0.13844405114650726,0.5052233338356018
1761914246664587800,5.349587890625,0.18613110482692719,-0.116433285176754,0.5319705009460449
1761914246674643500,5.3596435546875,0.1071358397603035,-0.07275030761957169,0.5501369833946228
1761914246684699600,5.36969970703125,0.03333751857280731,-0.03214216232299805,0.5572132468223572
1761914246694755600,5.379755615234375,-0.016552424058318138,0.010164196603000164,0.5570896863937378
1761914246704812500,5.3898125,-0.05172932147979736,0.04924235865473747,0.5472953915596008
1761914246714868500,5.399868408203125,-0.06309748440980911,0.09258721023797989,0.5334481000900269
1761914246724924700,5.409924560546875,-0.057263296097517014,0.15001961588859558,0.5217291116714478
1761914246734980600,5.419980712890625,-0.03644727170467377,0.21447120606899261,0.5110002160072327
1761914246745037600,5.43003759765625,0.005921223200857639,0.28122252225875854,0.5189604163169861
1761914246755093500,5.440093505859375,0.05101097375154495,0.2879277467727661,0.525626003742218
1761914246765149700,5.450149658203125,0.09304497390985489,0.23859986662864685,0.5307349562644958
1761914246775205600,5.46020556640625,0.12193917483091354,0.2068401426076889,0.5525369644165039
1761914246785262600,5.4702626953125,0.1635550558567047,0.21040239930152893,0.591911256313324
1761914246795318500,5.480318603515625,0.19488616287708282,0.19692546129226685,0.6017354130744934
1761914246805374700,5.490374755859375,0.20180852711200714,0.12022004276514053,0.5407575964927673
1761914246815430700,5.5004306640625,0.18236558139324188,0.010315443389117718,0.3950071334838867
1761914246825487600,5.510487548828125,0.15244868397712708,-0.08709846436977386,0.1737205535173416
1761914246835543600,5.52054345703125,0.14403609931468964,-0.10655763745307922,-0.08103735744953156
1761914246845599700,5.530599853515625,0.17136412858963013,0.004264486487954855,-0.3118974566459656
1761914246855655700,5.54065576171875,0.21714819967746735,0.1954910010099411,-0.499911367893219
1761914246865712600,5.550712646484375,0.2844787836074829,0.40934205055236816,-0.6199222207069397
1761914246875768600,5.5607685546875,0.3816574215888977,0.6282600164413452,-0.6606655120849609
1761914246885824800,5.57082470703125,0.5157931447029114,0.8366795182228088,-0.6180197596549988
1761914246895880700,5.580880615234375,0.6545243859291077,1.0521990060806274,-0.4952263832092285
1761914246905937700,5.590937744140625,0.7789358496665955,1.2516926527023315,-0.3138158917427063
1761914246915993600,5.60099365234375,0.8481442332267761,1.3511579036712646,-0.1293656975030899
1761914246926049800,5.6110498046875,0.8750394582748413,1.3351001739501953,0.0315701924264431
1761914246936105700,5.621105712890625,0.8768102526664734,1.217314600944519,0.16423816978931427
1761914246946162700,5.63116259765625,0.8647224307060242,1.0291122198104858,0.28359973430633545
1761914246956218600,5.641218505859375,0.8506911396980286,0.8177281618118286,0.396251380443573
1761914246966274800,5.65127490234375,0.8418684005737305,0.6238023638725281,0.4995596408843994
1761914246976330500,5.66133056640625,0.8445832133293152,0.4075618386268616,0.5640671849250793
1761914246986387700,5.6713876953125,0.867670476436615,0.18455219268798828,0.5729230046272278
1761914246996443600,5.681443603515625,0.8852213621139526,0.006117726676166058,0.5296199917793274
1761914247006499600,5.69149951171875,0.9049221277236938,-0.07760780304670334,0.45635080337524414
1761914247016555500,5.701555419921875,0.9104719161987305,-0.07857099920511246,0.3711167573928833
1761914247026612500,5.711612548828125,0.8929483294487,0.01509158220142126,0.2749590575695038
1761914247036668400,5.72166845703125,0.8495548963546753,0.22129283845424652,0.1971667855978012
1761914247046724600,5.731724609375,0.7976304888725281,0.5113955140113831,0.14721333980560303
1761914247056780500,5.741780517578125,0.7570112347602844,0.8333920836448669,0.10640521347522736
1761914247066837500,5.75183740234375,0.7267739772796631,1.1339833736419678,0.06708896905183792
1761914247076893700,5.761893798828125,0.7155031561851501,1.372362494468689,0.024806279689073563
1761914247086949600,5.77194970703125,0.733305037021637,1.5303696393966675,-0.012121113017201424
1761914247097005600,5.782005615234375,0.7688279151916504,1.6357383728027344,-0.03132864087820053
1761914247107062500,5.7920625,0.7983384132385254,1.6746490001678467,-0.0411413237452507
1761914247117118700,5.80211865234375,0.815993070602417,1.6743314266204834,-0.04134967923164368
1761914247127174700,5.812174560546875,0.8193351030349731,1.6610947847366333,-0.020320557057857513
1761914247137230600,5.822230712890625,0.8046577572822571,1.6198089122772217,-0.007343343924731016
1761914247147287600,5.83228759765625,0.775006115436554,1.5365086793899536,0.004632624797523022
1761914247157343700,5.84234375,0.7274703979492188,1.4444411993026733,0.012144440785050392
1761914247167399700,5.852399658203125,0.6692731380462646,1.355678915977478,0.007598157972097397
1761914247177455600,5.86245556640625,0.6240600943565369,1.2391587495803833,-0.018895406275987625
1761914247187512600,5.8725126953125,0.6258074045181274,1.1222257614135742,-0.055173519998788834
1761914247197568800,5.88256884765625,0.6806146502494812,1.0392543077468872,-0.0832856148481369
1761914247207624700,5.892624755859375,0.7669407725334167,0.985284686088562,-0.11087676137685776
1761914247217680600,5.9026806640625,0.8725067973136902,0.9511474370956421,-0.1510307937860489
1761914247227737600,5.912737548828125,0.9945147633552551,0.9439481496810913,-0.1968989372253418
1761914247237793800,5.922793701171875,1.1255607604980469,0.967572808265686,-0.24596983194351196
1761914247247849700,5.932849609375,1.255494236946106,1.0162980556488037,-0.2964093089103699
1761914247257906700,5.94290673828125,1.3618055582046509,1.0794715881347656,-0.3608015477657318
1761914247267962600,5.952962646484375,1.4386190176010132,1.1341673135757446,-0.43053215742111206
1761914247278018800,5.963018798828125,1.4697335958480835,1.175552248954773,-0.511981725692749
1761914247288074800,5.97307470703125,1.4671109914779663,1.1988922357559204,-0.6035478711128235
1761914247298131700,5.983131591796875,1.4478602409362793,1.225829839706421,-0.7031276226043701
1761914247308187600,5.993187744140625,1.4336479902267456,1.263784646987915,-0.7933903932571411
1761914247318243800,6.003243896484375,1.409134030342102,1.2996289730072021,-0.8643324375152588
1761914247328299500,6.013299560546875,1.380623459815979,1.3145123720169067,-0.9124975800514221
1761914247338356700,6.023356689453125,1.345643162727356,1.3113629817962646,-0.9309691190719604
1761914247348412700,6.03341259765625,1.317906379699707,1.3025015592575073,-0.9173923134803772
1761914247358468600,6.043468505859375,1.276009202003479,1.2784637212753296,-0.8781682252883911
1761914247368524500,6.053524658203125,1.2309114933013916,1.2127307653427124,-0.8225446939468384
1761914247378581500,6.06358154296875,1.1763018369674683,1.094389796257019,-0.7652727961540222
1761914247388637400,6.073637451171875,1.1099443435668945,0.947364091873169,-0.7094510793685913
1761914247398693600,6.083693603515625,1.0560295581817627,0.8079985976219177,-0.652410089969635
1761914247408749600,6.09374951171875,0.997868001461029,0.7129700779914856,-0.5939483642578125
1761914247418806500,6.103806640625,0.9672583341598511,0.6780174374580383,-0.5310904383659363
1761914247428862500,6.113862548828125,0.9737146496772766,0.712334394454956,-0.46366432309150696
1761914247438919400,6.12391943359375,1.0119943618774414,0.7613543272018433,-0.39688536524772644
1761914247448975400,6.133975341796875,1.0727429389953613,0.8066429495811462,-0.3368246853351593
1761914247459032300,6.1440322265625,1.137290596961975,0.8649724721908569,-0.2780492603778839
1761914247469088300,6.154088134765625,1.193807601928711,0.953868567943573,-0.22495250403881073
1761914247479144400,6.16414453125,1.239772081375122,1.0237404108047485,-0.1932610273361206
1761914247489200400,6.174200439453125,1.2630970478057861,1.0438523292541504,-0.1939374804496765
1761914247499257300,6.18425732421875,1.2686386108398438,1.0460158586502075,-0.2127895951271057
1761914247509313300,6.194313232421875,1.2674270868301392,1.045446753501892,-0.23903824388980865
1761914247519369500,6.204369384765625,1.2729718685150146,1.0349714756011963,-0.2616008520126343
1761914247529425400,6.21442529296875,1.3146668672561646,1.0166285037994385,-0.27502161264419556
1761914247539482400,6.224482421875,1.3814796209335327,1.0025990009307861,-0.2729202210903168
1761914247549538300,6.234538330078125,1.4595458507537842,0.9903588891029358,-0.23757153749465942
1761914247559594500,6.244594482421875,1.561205506324768,1.0015616416931152,-0.16015315055847168
1761914247569650400,6.254650390625,1.6556396484375,0.9528754353523254,-0.06831643730401993
1761914247579707400,6.264707275390625,1.7344160079956055,0.7740499973297119,0.014671994373202324
1761914247589763300,6.274763427734375,1.7944897413253784,0.4848610758781433,0.06196361035108566
1761914247599819500,6.284819580078125,1.8290581703186035,0.18771708011627197,0.08499749004840851
1761914247609875500,6.29487548828125,1.8407620191574097,-0.04343624413013458,0.09505651146173477
1761914247619932400,6.304932373046875,1.7854641675949097,-0.2174968421459198,0.0988275334239006
1761914247629988400,6.31498828125,1.6390950679779053,-0.34791797399520874,0.06877030432224274
1761914247640044500,6.32504443359375,1.4184967279434204,-0.3425295948982239,0.025738563388586044
1761914247650100500,6.3351005859375,1.1625049114227295,-0.18936079740524292,-0.036472346633672714
1761914247660157400,6.345157470703125,0.9401246905326843,0.08781496435403824,-0.10697218030691147
1761914247670213400,6.35521337890625,0.8025465607643127,0.4653814136981964,-0.14219914376735687
1761914247680269600,6.36526953125,0.8029819130897522,0.8787164688110352,-0.12067689001560211
1761914247690325500,6.375325439453125,0.9377202987670898,1.2150108814239502,-0.05778501555323601
1761914247700382500,6.385382568359375,1.1491354703903198,1.4877632856369019,0.02246290259063244
1761914247710438400,6.3954384765625,1.3702489137649536,1.7029871940612793,0.11417844146490097
1761914247720494300,6.405494384765625,1.5489624738693237,1.7940953969955444,0.19717134535312653
1761914247730550300,6.41555029296875,1.6405930519104004,1.7607017755508423,0.274519681930542
1761914247740607500,6.425607421875,1.6634458303451538,1.6167434453964233,0.35842087864875793
1761914247750663200,6.4356630859375,1.640547752380371,1.3842324018478394,0.45029088854789734
1761914247760719400,6.44571923828125,1.6037583351135254,1.1058050394058228,0.5282949209213257
1761914247770775300,6.455775390625,1.5628999471664429,0.8067546486854553,0.5836892127990723
1761914247780832300,6.465832275390625,1.524442195892334,0.5547298192977905,0.6241083741188049
1761914247790888200,6.47588818359375,1.4991179704666138,0.3632378578186035,0.6350685954093933
1761914247800944400,6.4859443359375,1.481707215309143,0.20271505415439606,0.6129584908485413
1761914247811000300,6.496000244140625,1.4742435216903687,0.09995671361684799,0.5485022664070129
1761914247821057300,6.506057373046875,1.4601320028305054,0.054106272757053375,0.455171138048172
1761914247831113200,6.51611328125,1.4672596454620361,0.06724657863378525,0.33729374408721924
1761914247841169400,6.52616943359375,1.4944558143615723,0.1647222936153412,0.20163477957248688
1761914247851225300,6.536225341796875,1.5446090698242188,0.3785531222820282,0.05147111043334007
1761914247861282300,6.5462822265625,1.621949315071106,0.6452541351318359,-0.10628433525562286
1761914247871338200,6.556338134765625,1.7289061546325684,0.9318858981132507,-0.26670172810554504
1761914247881394400,6.56639453125,1.8506741523742676,1.22035813331604,-0.42430999875068665
1761914247891450400,6.576450439453125,1.9672542810440063,1.4849090576171875,-0.5601983070373535
1761914247901507300,6.58650732421875,2.056666612625122,1.6928026676177979,-0.6562455296516418
1761914247911563500,6.5965634765625,2.1048851013183594,1.8415993452072144,-0.7073619961738586
1761914247921619500,6.606619384765625,2.120408058166504,1.9185675382614136,-0.725098192691803
1761914247931675400,6.61667529296875,2.118997812271118,1.9237275123596191,-0.7156426310539246
1761914247941732400,6.626732421875,2.1052324771881104,1.8798555135726929,-0.6816400289535522
1761914247951788500,6.63678857421875,2.079315423965454,1.790551781654358,-0.6275517344474792
1761914247961844500,6.646844482421875,2.034454345703125,1.6526068449020386,-0.559177041053772
1761914247971900400,6.656900390625,1.9787756204605103,1.4700323343276978,-0.4828985035419464
1761914247981957400,6.666957275390625,1.9041789770126343,1.270772933959961,-0.40202072262763977
1761914247992013600,6.677013671875,1.8155784606933594,1.0908393859863281,-0.3264087736606598
1761914248002069500,6.687069580078125,1.7112250328063965,0.9498766660690308,-0.26806849241256714
1761914248012125400,6.69712548828125,1.616137146949768,0.8821649551391602,-0.2350362241268158
1761914248022182400,6.707182373046875,1.5250554084777832,0.8904236555099487,-0.2156013548374176
1761914248032238600,6.717238525390625,1.4563684463500977,0.9128080606460571,-0.2217162400484085
1761914248042294500,6.72729443359375,1.4085440635681152,0.9466730356216431,-0.24080970883369446
1761914248052350200,6.73735009765625,1.3752039670944214,0.971187949180603,-0.26591983437538147
1761914248062407400,6.747407470703125,1.3634989261627197,0.9733396172523499,-0.2897477149963379
1761914248072463400,6.75746337890625,1.3751707077026367,0.9754680395126343,-0.3037244975566864
1761914248082519300,6.767519287109375,1.3957560062408447,0.9749135971069336,-0.3109652101993561
1761914248092575200,6.7775751953125,1.4128457307815552,0.9628569483757019,-0.3172595798969269
1761914248102632200,6.787632080078125,1.428503394126892,0.9499673247337341,-0.32128438353538513
1761914248112688400,6.7976884765625,1.4391658306121826,0.9318764805793762,-0.331006795167923
1761914248122744300,6.807744384765625,1.4337637424468994,0.8976394534111023,-0.341532826423645
1761914248132800300,6.81780029296875,1.4189448356628418,0.8305594325065613,-0.35543614625930786
1761914248142857200,6.827857177734375,1.3894609212875366,0.7419498562812805,-0.3519584536552429
1761914248152913400,6.837913330078125,1.3431241512298584,0.6324145793914795,-0.33813828229904175
1761914248162969300,6.84796923828125,1.2819135189056396,0.5228166580200195,-0.31336119771003723
1761914248173025300,6.858025390625,1.2159202098846436,0.430203378200531,-0.2675332725048065
1761914248183082200,6.868082275390625,1.159026026725769,0.357448011636734,-0.21377238631248474
1761914248193138400,6.878138427734375,1.1081711053848267,0.3104133903980255,-0.1471259891986847
1761914248203194400,6.8881943359375,1.0659373998641968,0.2908228635787964,-0.07637893408536911
1761914248213250300,6.898250244140625,1.028658151626587,0.2923310399055481,-0.009281661361455917
1761914248223307300,6.908307373046875,0.9990842938423157,0.2870332896709442,0.05552028864622116
1761914248233363500,6.918363525390625,0.973217248916626,0.2951953411102295,0.12151794135570526
1761914248243419400,6.92841943359375,0.9557300209999084,0.3006958067417145,0.1856791377067566
1761914248253475300,6.938475341796875,0.9447082281112671,0.2905547618865967,0.24646073579788208
1761914248263531500,6.948531494140625,0.927564799785614,0.2720281183719635,0.285631388425827
1761914248273588500,6.95858837890625,0.9037827849388123,0.22747370600700378,0.2976020276546478
1761914248283644400,6.96864453125,0.8792684674263,0.15523751080036163,0.2854267954826355
1761914248293700400,6.978700439453125,0.8459265232086182,0.0882672592997551,0.258192777633667
1761914248303756500,6.988756591796875,0.7935251593589783,0.006358560640364885,0.21140466630458832
1761914248313813500,6.9988134765625,0.7377311587333679,-0.0702483281493187,0.15380768477916718
1761914248323869400,7.008869384765625,0.6879082322120667,-0.1388826072216034,0.0866437703371048
1761914248333925400,7.01892529296875,0.6456422805786133,-0.18906961381435394,0.012857436202466488
1761914248343981300,7.028981201171875,0.6261727809906006,-0.216233029961586,-0.05868426710367203
1761914248354038500,7.03903857421875,0.6160154938697815,-0.21560212969779968,-0.12753817439079285
1761914248364094500,7.049094482421875,0.6259371638298035,-0.20839381217956543,-0.181998148560524
1761914248374150400,7.059150390625,0.6549246311187744,-0.20143629610538483,-0.22112531960010529
1761914248384206300,7.069206298828125,0.7014036774635315,-0.20725756883621216,-0.23037223517894745
1761914248394263300,7.07926318359375,0.7591026425361633,-0.195462167263031,-0.2106800228357315
1761914248404319200,7.0893193359375,0.8067380785942078,-0.15604136884212494,-0.1532122641801834
1761914248414375400,7.09937548828125,0.829802930355072,-0.10755745321512222,-0.08454132080078125
1761914248424431400,7.109431396484375,0.8198838829994202,-0.05634671449661255,-0.022692490369081497
1761914248434488300,7.11948828125,0.7910562753677368,-0.00369895133189857,0.031891658902168274
1761914248444547800,7.1295478515625,0.7396541237831116,0.058466486632823944,0.08005562424659729
1761914248454604000,7.13960400390625,0.6867176294326782,0.13561773300170898,0.10717245936393738
1761914248464659700,7.14965966796875,0.6238878965377808,0.241860494017601,0.1272810399532318
1761914248474717000,7.159717041015625,0.5653766393661499,0.3431921601295471,0.13215729594230652
1761914248484772900,7.16977294921875,0.5317525863647461,0.41449645161628723,0.13446608185768127
1761914248494828800,7.179828857421875,0.5289796590805054,0.49512606859207153,0.16798995435237885
1761914248504884700,7.189884765625,0.5462851524353027,0.5788188576698303,0.2275744378566742
1761914248514941700,7.199941650390625,0.5756507515907288,0.6589624285697937,0.30141347646713257
1761914248524997600,7.20999755859375,0.5965017676353455,0.7292181253433228,0.38778045773506165
1761914248535053800,7.2200537109375,0.600779116153717,0.7769321203231812,0.45578160881996155
1761914248545109800,7.23010986328125,0.5882079601287842,0.7663211822509766,0.49854007363319397
1761914248555166700,7.240166748046875,0.5635921359062195,0.7270238399505615,0.5300337672233582
1761914248565222700,7.25022265625,0.5288408994674683,0.6806134581565857,0.5516905188560486
1761914248575278800,7.26027880859375,0.49484196305274963,0.6519506573677063,0.5661443471908569
1761914248585334800,7.270334716796875,0.4690358340740204,0.6500688791275024,0.580140233039856
1761914248595391700,7.280391845703125,0.4629816710948944,0.6553142070770264,0.5791988372802734
1761914248605447700,7.29044775390625,0.45486980676651,0.6590654850006104,0.5663328766822815
1761914248615504000,7.30050390625,0.44410690665245056,0.6463763117790222,0.5225523710250854
1761914248625559800,7.310559814453125,0.4329739809036255,0.5740494728088379,0.45989108085632324
1761914248635616800,7.32061669921875,0.42208537459373474,0.4831331670284271,0.3803294003009796
1761914248645672700,7.330672607421875,0.4058009088039398,0.39206644892692566,0.30095842480659485
1761914248655729000,7.34072900390625,0.38780301809310913,0.3337213695049286,0.22843655943870544
1761914248665784800,7.350784912109375,0.36954814195632935,0.3308376371860504,0.1763746738433838
1761914248675841800,7.360841796875,0.35399875044822693,0.3738064169883728,0.13404293358325958
1761914248685897700,7.370897705078125,0.33469757437705994,0.4321002960205078,0.08783981949090958
1761914248695954000,7.380953857421875,0.3251330852508545,0.4928286075592041,0.029898490756750107
1761914248706009900,7.391009765625,0.3168267011642456,0.5462982654571533,-0.03051150217652321
1761914248716065800,7.401065673828125,0.3082824945449829,0.5773065090179443,-0.08774816244840622
1761914248726122800,7.411122802734375,0.29347845911979675,0.5928863286972046,-0.13591177761554718
1761914248736179000,7.421178955078125,0.2809208631515503,0.6007034778594971,-0.16752669215202332
1761914248746235000,7.43123486328125,0.2741200923919678,0.6147025227546692,-0.1869533658027649
1761914248756290800,7.441290771484375,0.2743895947933197,0.6190668940544128,-0.1944589465856552
1761914248766347800,7.45134765625,0.27673792839050293,0.6286848783493042,-0.19153545796871185
1761914248776404000,7.461404052734375,0.27833181619644165,0.6284435987472534,-0.18705229461193085
1761914248786459600,7.471459716796875,0.27677449584007263,0.6237404942512512,-0.17501606047153473
1761914248796515600,7.481515625,0.2707613408565521,0.634294331073761,-0.15599310398101807
1761914248806572800,7.49157275390625,0.26517796516418457,0.654136061668396,-0.12903529405593872
1761914248816628700,7.501628662109375,0.2605914771556854,0.6897052526473999,-0.09398196637630463
1761914248826684700,7.5116845703125,0.2607281506061554,0.708358108997345,-0.054076239466667175
1761914248836740600,7.52174072265625,0.26902657747268677,0.7061953544616699,-0.015734711661934853
1761914248846797800,7.5317978515625,0.28444942831993103,0.6778862476348877,0.02285582944750786
1761914248856853800,7.541853759765625,0.3032580018043518,0.6264870166778564,0.06333774328231812
1761914248866909700,7.55190966796875,0.3270527124404907,0.5769008994102478,0.1048487201333046
1761914248876966000,7.5619658203125,0.34569936990737915,0.5439474582672119,0.1445481926202774
1761914248887022800,7.57202294921875,0.3690735697746277,0.5295253992080688,0.18460682034492493
1761914248897078800,7.582078857421875,0.3995973765850067,0.5270081758499146,0.22906190156936646
1761914248907134700,7.592134765625,0.4314190149307251,0.5262234210968018,0.27404120564460754
1761914248917191000,7.60219091796875,0.4521477520465851,0.5267190337181091,0.3196321427822113
1761914248927248000,7.612247802734375,0.47433415055274963,0.5233867168426514,0.3648906648159027
1761914248937303800,7.6223037109375,0.49758434295654297,0.51773601770401,0.40271127223968506
1761914248947359700,7.63235986328125,0.515921413898468,0.4895953834056854,0.42437511682510376
1761914248957416000,7.642416015625,0.5298614501953125,0.4362107217311859,0.41566017270088196
1761914248967473000,7.652472900390625,0.5559183359146118,0.3747764825820923,0.3782414197921753
1761914248977528800,7.66252880859375,0.5649722814559937,0.325858473777771,0.29412841796875
1761914248987584800,7.672584716796875,0.5618135333061218,0.2755979895591736,0.1805097907781601
1761914248997641000,7.682640869140625,0.5602348446846008,0.2913929522037506,0.04995391517877579
1761914249007697000,7.69269677734375,0.5511044263839722,0.3918472230434418,-0.0650109276175499
1761914249017753900,7.70275390625,0.5228391885757446,0.5224241614341736,-0.17300210893154144
1761914249027809800,7.712809814453125,0.48862922191619873,0.6457685232162476,-0.2620609998703003
1761914249037866000,7.722865966796875,0.4673452377319336,0.7548121809959412,-0.32977426052093506
1761914249047922000,7.732921875,0.457334965467453,0.8270873427391052,-0.3765234053134918
1761914249057979000,7.742978759765625,0.4443110525608063,0.8593264818191528,-0.4164372682571411
1761914249068034800,7.753034912109375,0.439537912607193,0.872255265712738,-0.4516463875770569
1761914249078091000,7.763091064453125,0.4202379882335663,0.8602691888809204,-0.46289050579071045
1761914249088146700,7.773146728515625,0.405678391456604,0.8302907347679138,-0.44414442777633667
1761914249098204000,7.783203857421875,0.38496512174606323,0.7976012229919434,-0.39517849683761597
1761914249108259800,7.793259765625,0.3547177314758301,0.7623622417449951,-0.324325293302536
1761914249118315800,7.803315673828125,0.34695595502853394,0.7135169506072998,-0.24498680233955383
1761914249128371700,7.813371826171875,0.3504662811756134,0.6614998579025269,-0.1635957509279251
1761914249138428700,7.8234287109375,0.37078672647476196,0.6167963147163391,-0.07931683212518692
1761914249148484600,7.833484619140625,0.38421955704689026,0.6002015471458435,0.007615959271788597
1761914249158540800,7.843540771484375,0.40458154678344727,0.5982289910316467,0.09487655758857727
1761914249168596700,7.8535966796875,0.4165230691432953,0.5942173600196838,0.16990935802459717
1761914249178653700,7.86365380859375,0.42614907026290894,0.5901669263839722,0.2357131391763687
1761914249188709600,7.873709716796875,0.4464893639087677,0.6027966737747192,0.29400452971458435
1761914249198765800,7.883765869140625,0.47334519028663635,0.6283411979675293,0.35013917088508606
1761914249208821800,7.89382177734375,0.4873795211315155,0.5872984528541565,0.37472206354141235
1761914249218878700,7.903878662109375,0.4839320778846741,0.4623492956161499,0.361301064491272
1761914249228934700,7.9139345703125,0.452019065618515,0.27348265051841736,0.31426042318344116
1761914249238990800,7.923990966796875,0.39674752950668335,0.07298312336206436,0.2574344277381897
1761914249249046800,7.934046875,0.328273743391037,-0.04389888793230057,0.22834749519824982
1761914249259099600,7.944099609375,0.26918697357177734,-0.08345082402229309,0.20692609250545502
1761914249269156600,7.954156494140625,0.22265344858169556,-0.10758855938911438,0.17934828996658325
1761914249279212800,7.964212890625,0.19123613834381104,-0.11499427258968353,0.1440318375825882
1761914249289268700,7.974268798828125,0.18260148167610168,-0.06897198408842087,0.10583098977804184
1761914249299324700,7.98432470703125,0.184356227517128,-0.003203629981726408,0.06207365542650223
1761914249309381600,7.994381591796875,0.19660986959934235,0.05989605560898781,0.017600703984498978
1761914249319437800,8.004437744140626,0.221365287899971,0.10466033220291138,-0.021359212696552277
1761914249329493800,8.01449365234375,0.24820445477962494,0.1279812902212143,-0.04913009703159332
1761914249339549700,8.0245498046875,0.2690546214580536,0.12582571804523468,-0.0717504546046257
1761914249349606700,8.034606689453126,0.2750997245311737,0.11328195780515671,-0.07336650788784027
1761914249359662800,8.044662841796875,0.26382976770401,0.10515212267637253,-0.05842510610818863
1761914249369718800,8.05471875,0.23804788291454315,0.117546446621418,-0.01831131987273693
1761914249379774700,8.064774658203126,0.2126927226781845,0.14037694036960602,0.03061734139919281
1761914249389831700,8.074831787109375,0.17112572491168976,0.18734771013259888,0.08965960144996643
1761914249399888000,8.084887939453125,0.13542844355106354,0.2538905143737793,0.1556980013847351
1761914249409943800,8.09494384765625,0.09814385324716568,0.33234238624572754,0.21822592616081238
1761914249419999700,8.104999755859374,0.06282394379377365,0.39728543162345886,0.2774546444416046
1761914249430056000,8.115055908203125,0.06345256417989731,0.41641512513160706,0.32785287499427795
1761914249440113000,8.12511279296875,0.08615201711654663,0.407259464263916,0.3812740445137024
1761914249450164700,8.135164794921875,0.13221196830272675,0.37255141139030457,0.42412230372428894
1761914249460221000,8.145220947265624,0.17171676456928253,0.3311472535133362,0.44689205288887024
1761914249470276900,8.15527685546875,0.1977008432149887,0.30920714139938354,0.4632691442966461
1761914249480333800,8.165333740234376,0.20401625335216522,0.3024163246154785,0.4582970142364502
1761914249490389800,8.1753896484375,0.1919449269771576,0.3031435012817383,0.43276700377464294
1761914249500446000,8.185446044921875,0.17434169352054596,0.3288155794143677,0.39249706268310547
1761914249510502000,8.195501953125,0.15747742354869843,0.3634195923805237,0.3348813056945801
1761914249520558800,8.205558837890624,0.15047170221805573,0.386113703250885,0.27243202924728394
1761914249530614800,8.21561474609375,0.15426978468894958,0.39854809641838074,0.20214833319187164
1761914249540671000,8.2256708984375,0.1718117594718933,0.4085536003112793,0.13502468168735504
1761914249550727000,8.235726806640624,0.20791597664356232,0.42356398701667786,0.07497382164001465
1761914249560784000,8.245783935546875,0.23522216081619263,0.4455052316188812,0.02515353076159954
1761914249570839800,8.25583984375,0.2828156352043152,0.45974183082580566,-0.02097727730870247
1761914249580896000,8.26589599609375,0.3230980932712555,0.4661422073841095,-0.06627365201711655
1761914249590952000,8.275951904296875,0.3514118194580078,0.45779138803482056,-0.11380927264690399
1761914249601007600,8.286007568359375,0.3788903057575226,0.43983182311058044,-0.15154972672462463
1761914249611064800,8.29606494140625,0.41423583030700684,0.4173022210597992,-0.1748986840248108
1761914249621120800,8.306120849609375,0.4514116942882538,0.4144265353679657,-0.18470817804336548
1761914249631176700,8.3161767578125,0.4961349368095398,0.43334877490997314,-0.18098574876785278
1761914249641232600,8.326232666015626,0.5325419306755066,0.4527110159397125,-0.17145588994026184
1761914249651289600,8.33628955078125,0.5630782246589661,0.42914411425590515,-0.17016713321208954
1761914249661345800,8.346345703125,0.574670135974884,0.35977649688720703,-0.18328985571861267
1761914249671401700,8.356401611328126,0.5608980655670166,0.2697507441043854,-0.19512829184532166
1761914249681457700,8.366457763671875,0.5421424508094788,0.18689581751823425,-0.20133425295352936
1761914249691514600,8.3765146484375,0.5158383846282959,0.11953162401914597,-0.19377273321151733
1761914249701570800,8.38657080078125,0.4976775050163269,0.07844757288694382,-0.1848575323820114
1761914249711626800,8.396626708984375,0.4791654944419861,0.044934045523405075,-0.17911134660243988
1761914249721682700,8.4066826171875,0.47010916471481323,0.026171809062361717,-0.17909617722034454
1761914249731739600,8.41673974609375,0.46224895119667053,0.014888754114508629,-0.1807660460472107
1761914249741795800,8.4267958984375,0.4578872323036194,-0.006818671245127916,-0.19155637919902802
1761914249751851800,8.436851806640625,0.45882055163383484,-0.015026227571070194,-0.18058514595031738
1761914249761907700,8.44690771484375,0.4633481800556183,0.001193754724226892,-0.15436898171901703
1761914249771964700,8.456964599609375,0.4639435112476349,0.017014220356941223,-0.11772532761096954
1761914249782020900,8.467020751953125,0.47157320380210876,0.03028341941535473,-0.0802764892578125
1761914249792076800,8.477076904296876,0.47968751192092896,0.03103077970445156,-0.042943794280290604
1761914249802132700,8.4871328125,0.4791548550128937,0.009670098312199116,-0.016309255734086037
1761914249812189700,8.497189697265625,0.4769654870033264,-0.0463845394551754,-0.010176225565373898
1761914249822246000,8.507245849609374,0.46391546726226807,-0.1453060507774353,-0.02502361498773098
1761914249832301800,8.5173017578125,0.44805991649627686,-0.2370339334011078,-0.03704190254211426
1761914249842357800,8.527357666015625,0.42688459157943726,-0.2942705750465393,-0.03893354535102844
1761914249852414000,8.5374140625,0.40097901225090027,-0.3001658618450165,-0.02213118225336075
1761914249862471000,8.547470947265625,0.372341513633728,-0.26757460832595825,-0.0008234959095716476
1761914249872526800,8.55752685546875,0.3531602621078491,-0.22177864611148834,0.01552704069763422
1761914249882582800,8.567582763671876,0.33436769247055054,-0.16522322595119476,0.01771083101630211
1761914249892638700,8.577638671875,0.32536399364471436,-0.09868235141038895,0.01637446880340576
1761914249902696000,8.587696044921875,0.3173055350780487,-0.04707641154527664,0.005359634757041931
1761914249912751900,8.597751953125,0.30973896384239197,-0.018605906516313553,-0.0033598653972148895
1761914249922807800,8.607807861328125,0.30655568838119507,-0.02136334218084812,-0.01368600595742464
1761914249932863700,8.61786376953125,0.29717880487442017,-0.06352178007364273,-0.018926238641142845
1761914249942920700,8.627920654296876,0.29553884267807007,-0.12275048345327377,-0.01714271865785122
1761914249952976600,8.6379765625,0.3034730553627014,-0.16495871543884277,0.0028417110443115234
1761914249963032800,8.64803271484375,0.30714714527130127,-0.18161837756633759,0.03418978303670883
1761914249973088800,8.6580888671875,0.2985242009162903,-0.20039480924606323,0.06604503095149994
1761914249983145700,8.668145751953125,0.27756190299987793,-0.2310376763343811,0.10373115539550781
1761914249993201700,8.67820166015625,0.2632133960723877,-0.2615613639354706,0.143027201294899
1761914250003257900,8.6882578125,0.22493872046470642,-0.2984781265258789,0.1700231432914734
1761914250013313800,8.698313720703124,0.18699079751968384,-0.3600783348083496,0.18879318237304688
1761914250023369700,8.70836962890625,0.15958446264266968,-0.3825026750564575,0.22828014194965363
1761914250033426700,8.7184267578125,0.14987458288669586,-0.3506866991519928,0.2901940643787384
1761914250043483000,8.72848291015625,0.1444270759820938,-0.29825544357299805,0.3459460139274597
1761914250053538800,8.738538818359375,0.14529748260974884,-0.213077113032341,0.38414767384529114
1761914250063594800,8.7485947265625,0.1673348844051361,-0.10356340557336807,0.38911765813827515
1761914250073651700,8.758651611328125,0.1814497411251068,0.004022104199975729,0.3578071892261505
1761914250083708000,8.7687080078125,0.18822374939918518,0.08309774845838547,0.29556912183761597
1761914250093763800,8.778763916015626,0.18212059140205383,0.1367252916097641,0.20230719447135925
1761914250103819800,8.78881982421875,0.16276873648166656,0.12653204798698425,0.08365962654352188
1761914250113876700,8.798876708984375,0.1419544517993927,0.08304761350154877,-0.03243669494986534
1761914250123933000,8.808932861328126,0.1167023628950119,0.04093637317419052,-0.13604004681110382
1761914250133988900,8.81898876953125,0.09879264235496521,-0.0028743462171405554,-0.2355044186115265
1761914250144044800,8.829044921875,0.10129468888044357,-0.055614788085222244,-0.3225730061531067
1761914250154101800,8.839101806640626,0.13305862247943878,-0.08527112007141113,-0.4002329111099243
1761914250164158000,8.849157958984375,0.18124692142009735,-0.1206783801317215,-0.45358267426490784
1761914250174214000,8.8592138671875,0.2249310314655304,-0.13566266000270844,-0.4874871075153351
1761914250184269800,8.869269775390626,0.2592066824436188,-0.12992674112319946,-0.49876534938812256
1761914250194326800,8.879326904296875,0.2840091288089752,-0.0884854644536972,-0.4881627559661865
1761914250204383000,8.889383056640625,0.3016461730003357,0.002307288581505418,-0.4370476305484772
1761914250214439000,8.89943896484375,0.29821690917015076,0.12965886294841766,-0.3521609306335449
1761914250224494600,8.90949462890625,0.26865822076797485,0.26225313544273376,-0.24627870321273804
1761914250234550800,8.91955078125,0.22436733543872833,0.37633079290390015,-0.1294572651386261
1761914250244607700,8.929607666015626,0.17182610929012299,0.4369502067565918,-0.011008108034729958
1761914250254663700,8.93966357421875,0.12971064448356628,0.4309087097644806,0.09030088782310486
1761914250264719600,8.9497197265625,0.09803767502307892,0.3688858151435852,0.16535702347755432
1761914250274775800,8.95977587890625,0.08064175397157669,0.26976078748703003,0.2168506383895874
1761914250284832800,8.969832763671874,0.06535041332244873,0.16113680601119995,0.23794260621070862
1761914250294888700,8.979888671875,0.04844500869512558,0.06852619349956512,0.23728346824645996
1761914250304944600,8.989944580078125,0.033375781029462814,0.021842308342456818,0.21531319618225098
1761914250315000800,9.000000732421874,0.024660924449563026,0.008550543338060379,0.18040551245212555
1761914250325057800,9.010057861328125,0.018874941393733025,-0.015014170669019222,0.11556021124124527
1761914250335113700,9.02011376953125,-0.0015018514823168516,-0.05808265879750252,0.01974676176905632
1761914250345169700,9.030169677734374,-0.03964364528656006,-0.1273653209209442,-0.09328045696020126
1761914250355225900,9.040225830078125,-0.08757141977548599,-0.18333184719085693,-0.19362598657608032
1761914250365282800,9.05028271484375,-0.1225975751876831,-0.1656966507434845,-0.2445397675037384
1761914250375338800,9.0603388671875,-0.14863385260105133,-0.09670809656381607,-0.24992816150188446
1761914250385394700,9.070394775390625,-0.1853194385766983,-0.018440453335642815,-0.22470057010650635
1761914250395451000,9.080450927734375,-0.23172584176063538,0.04201793670654297,-0.19647687673568726
1761914250405507800,9.0905078125,-0.27993014454841614,0.09168829023838043,-0.17031210660934448
1761914250415563800,9.100563720703125,-0.31989824771881104,0.12260255217552185,-0.15810942649841309
1761914250425620000,9.110619873046875,-0.34888729453086853,0.12254556268453598,-0.15855205059051514
1761914250435676000,9.120676025390624,-0.38568368554115295,0.06321046501398087,-0.17773012816905975
1761914250445731800,9.13073193359375,-0.4235551655292511,-0.01404889952391386,-0.19036363065242767
1761914250455788800,9.140788818359376,-0.4613116383552551,-0.03399885818362236,-0.17917338013648987
1761914250465845000,9.150844970703124,-0.5028510689735413,-0.041660770773887634,-0.1659337282180786
1761914250475900700,9.160900634765625,-0.5410418510437012,-0.0692223533987999,-0.15824492275714874
1761914250485956600,9.17095654296875,-0.5566807389259338,-0.10396622121334076,-0.17271654307842255
1761914250496013600,9.181013671875,-0.5586336851119995,-0.13461478054523468,-0.18761542439460754
1761914250506069800,9.19106982421875,-0.5371984839439392,-0.16897034645080566,-0.20199888944625854
1761914250516125700,9.201125732421875,-0.4977101683616638,-0.21837946772575378,-0.2097894698381424
1761914250526181600,9.211181640625,-0.44967925548553467,-0.25819212198257446,-0.19825318455696106
1761914250536238600,9.221238525390625,-0.4102948307991028,-0.2791394889354706,-0.17621207237243652
1761914250546294800,9.231294677734375,-0.37306785583496094,-0.29483696818351746,-0.1513751596212387
1761914250556350700,9.241350830078124,-0.33964964747428894,-0.2982672452926636,-0.1244661882519722
1761914250566406700,9.25140673828125,-0.30321601033210754,-0.26987582445144653,-0.0997091755270958
1761914250576463600,9.261463623046875,-0.27553656697273254,-0.22875088453292847,-0.08284725993871689
1761914250586519800,9.271519775390624,-0.2556062638759613,-0.21563881635665894,-0.07901417464017868
1761914250596575700,9.28157568359375,-0.2515398859977722,-0.2220434546470642,-0.0780320018529892
1761914250606631700,9.291631591796875,-0.25602465867996216,-0.22436971962451935,-0.08291464298963547
1761914250616688600,9.301688720703124,-0.26107966899871826,-0.22085067629814148,-0.09397917985916138
1761914250626744800,9.311744873046875,-0.2631247043609619,-0.20001597702503204,-0.10445898026227951
1761914250636800800,9.32180078125,-0.2643675208091736,-0.14811092615127563,-0.12110814452171326
1761914250646856700,9.331856689453126,-0.26930928230285645,-0.08408426493406296,-0.1381228268146515
1761914250656913000,9.341912841796875,-0.27973389625549316,-0.04012073948979378,-0.16512835025787354
1761914250666969900,9.351969970703125,-0.29435837268829346,-0.033496659249067307,-0.19769161939620972
1761914250677025800,9.36202587890625,-0.2910589277744293,-0.03279111534357071,-0.22807034850120544
1761914250687081700,9.372081787109375,-0.2871249318122864,-0.010363035835325718,-0.24150386452674866
1761914250697138000,9.382137939453125,-0.27873727679252625,0.02935193106532097,-0.234147846698761
1761914250707195000,9.39219482421875,-0.2678372263908386,0.09343930333852768,-0.20539183914661407
1761914250717250800,9.402250732421875,-0.25197768211364746,0.15983344614505768,-0.1625577211380005
1761914250727306800,9.412306640625,-0.23414701223373413,0.19418103992938995,-0.1187489926815033
1761914250737363000,9.422363037109376,-0.2099788933992386,0.17630325257778168,-0.08580487221479416
1761914250747420000,9.432419921875,-0.18657264113426208,0.13963551819324493,-0.05390766263008118
1761914250757475800,9.442475830078125,-0.1735188513994217,0.12428838014602661,-0.02869885414838791
1761914250767531800,9.45253173828125,-0.16076551377773285,0.11327407509088516,-0.012364620342850685
1761914250777587700,9.462587646484375,-0.1396043300628662,0.11205738037824631,0.002430620603263378
1761914250787645000,9.47264501953125,-0.11125258356332779,0.14920741319656372,0.01937205344438553
1761914250797700600,9.48270068359375,-0.07317771762609482,0.20454922318458557,0.029790308326482773
1761914250807756500,9.492756591796875,-0.030301887542009354,0.2726132273674011,0.04074176028370857
1761914250817812700,9.502812744140625,0.018965186551213264,0.35001739859580994,0.06436250358819962
1761914250827869700,9.51286962890625,0.0629638060927391,0.397453635931015,0.09686611592769623
1761914250837925600,9.522925537109375,0.09446188062429428,0.40988028049468994,0.13074861466884613
1761914250847981600,9.532981689453125,0.1169288381934166,0.3716902732849121,0.14245186746120453
1761914250858037800,9.543037841796876,0.14150914549827576,0.24044185876846313,0.10898227244615555
1761914250868093700,9.55309375,0.16479742527008057,0.025977499783039093,0.03413652256131172
1761914250878150700,9.563150634765625,0.17946793138980865,-0.20081639289855957,-0.07104283571243286
1761914250888206800,9.573206787109376,0.1891397386789322,-0.37411680817604065,-0.16723674535751343
1761914250898262800,9.5832626953125,0.18922129273414612,-0.4738609492778778,-0.24255162477493286
1761914250908318700,9.593318603515625,0.19240351021289825,-0.5132387280464172,-0.29492855072021484
1761914250918375700,9.603375732421876,0.17495182156562805,-0.45199263095855713,-0.3298768401145935
1761914250928431900,9.613431884765625,0.15078629553318024,-0.3142819106578827,-0.33335864543914795
1761914250938487800,9.62348779296875,0.15071554481983185,-0.09917756915092468,-0.3082256019115448
1761914250948543700,9.633543701171876,0.16280922293663025,0.14705829322338104,-0.2651937007904053
1761914250958600700,9.6436005859375,0.1919127255678177,0.3678518235683441,-0.18694478273391724
1761914250968657000,9.653656982421875,0.2225249707698822,0.518308162689209,-0.1099671795964241
1761914250978712800,9.663712890625,0.22782862186431885,0.5653602480888367,-0.04675966501235962
1761914250988768800,9.673768798828124,0.2160547822713852,0.5568650364875793,0.004659852012991905
1761914250998825700,9.68382568359375,0.18738383054733276,0.5302519798278809,0.049772005528211594
1761914251008882000,9.6938818359375,0.13975240290164948,0.5042485594749451,0.07565739750862122
1761914251018937900,9.703937744140624,0.08671185374259949,0.4618157744407654,0.0786202922463417
1761914251028993800,9.713993896484375,0.028998760506510735,0.41326501965522766,0.06157499551773071
1761914251039050800,9.72405078125,-0.02622930333018303,0.3668143153190613,0.035700473934412
1761914251049107000,9.73410693359375,-0.059131063520908356,0.3180784583091736,0.010814563371241093
1761914251059163000,9.744162841796875,-0.07005953043699265,0.27245214581489563,-0.006799241527915001
1761914251069218800,9.75421875,-0.07104729861021042,0.25042781233787537,-0.00905547197908163
1761914251079275800,9.76427587890625,-0.06416899710893631,0.2526386082172394,-0.00027980469167232513
1761914251089332000,9.77433203125,-0.053635936230421066,0.28924402594566345,-0.0009991247206926346
1761914251099387600,9.7843876953125,-0.040550101548433304,0.3344598412513733,-0.008973000571131706
1761914251109443600,9.794443603515624,-0.02326245792210102,0.3489069640636444,-0.032678328454494476
1761914251119500800,9.804500732421875,0.005009917542338371,0.30673158168792725,-0.0720951110124588
1761914251129556700,9.814556640625,0.04116819053888321,0.25985807180404663,-0.10284983366727829
1761914251139612700,9.82461279296875,0.08536635339260101,0.24500350654125214,-0.11180520802736282
1761914251149668600,9.834668701171875,0.1195717304944992,0.24483412504196167,-0.11212185770273209
1761914251159724800,9.844724853515626,0.16269412636756897,0.24459058046340942,-0.12498563528060913
1761914251169781800,9.85478173828125,0.2039739191532135,0.22235505282878876,-0.15511716902256012
1761914251179837700,9.864837646484375,0.22051773965358734,0.16597701609134674,-0.20777709782123566
1761914251189893600,9.8748935546875,0.21886365115642548,0.10430966317653656,-0.26831287145614624
1761914251199949800,9.88494970703125,0.21974731981754303,0.0688604936003685,-0.32198891043663025
1761914251210006800,9.8950068359375,0.21451528370380402,0.05560913309454918,-0.36079728603363037
1761914251220062700,9.905062744140626,0.20013946294784546,0.0554916150867939,-0.38049399852752686
1761914251230118700,9.91511865234375,0.1842222809791565,0.040720123797655106,-0.3922822177410126
1761914251240174800,9.9251748046875,0.1797647923231125,0.011500135995447636,-0.3967684805393219
1761914251250231800,9.935231689453126,0.1746363490819931,-0.005842634942382574,-0.40079304575920105
1761914251260287700,9.945287841796874,0.18002289533615112,-0.05320309102535248,-0.40766599774360657
1761914251270343700,9.95534375,0.19996917247772217,-0.10280793160200119,-0.40964818000793457
1761914251280400000,9.96539990234375,0.2335326075553894,-0.1273728907108307,-0.4011309742927551
1761914251290456800,9.975456787109374,0.26219144463539124,-0.13493067026138306,-0.37117812037467957
1761914251300512800,9.9855126953125,0.2798182964324951,-0.12220954895019531,-0.32198667526245117
1761914251310568700,9.995568603515625,0.29518792033195496,-0.10258924216032028,-0.25370320677757263
1761914251320625000,10.005625,0.3025423586368561,-0.08782663941383362,-0.179737389087677
1761914251330681900,10.015681884765625,0.305126428604126,-0.07086124271154404,-0.09901484847068787
1761914251340737800,10.02573779296875,0.3050421476364136,-0.05310910940170288,-0.034039951860904694
1761914251350793700,10.035793701171874,0.28592783212661743,-0.04274195805191994,0.009945615194737911
1761914251360850000,10.045849853515625,0.2678547501564026,-0.045332640409469604,0.029253050684928894
1761914251370905900,10.05590576171875,0.2540433406829834,-0.06714446097612381,0.03414767608046532
1761914251380962800,10.065962890625,0.22952741384506226,-0.11744221299886703,0.03904774785041809
1761914251391018800,10.076018798828125,0.2082335650920868,-0.1688891500234604,0.05822517350316048
1761914251401074700,10.08607470703125,0.1861993372440338,-0.19374674558639526,0.09790894389152527
1761914251411130600,10.096130615234374,0.16877295076847076,-0.18723824620246887,0.15763990581035614
1761914251421187800,10.106187744140625,0.15020683407783508,-0.17124098539352417,0.20388945937156677
1761914251431243800,10.116243896484375,0.1283300369977951,-0.14449697732925415,0.23152774572372437
1761914251441299700,10.1262998046875,0.11506075412034988,-0.12368661165237427,0.24848416447639465
1761914251451355600,10.136355712890625,0.09791852533817291,-0.10999583452939987,0.2673446536064148
1761914251461412900,10.146412841796876,0.0851120576262474,-0.09745138138532639,0.29334017634391785
1761914251471468800,10.15646875,0.07233926653862,-0.09344705194234848,0.32143306732177734
1761914251481524700,10.166524658203125,0.04592958092689514,-0.11735770106315613,0.33839717507362366
1761914251491580700,10.17658056640625,0.03827032819390297,-0.11151472479104996,0.3703268766403198
1761914251501637600,10.1866376953125,0.018551252782344818,-0.09662321954965591,0.39749085903167725
1761914251511693800,10.19669384765625,0.01807880774140358,-0.08441901952028275,0.4178810715675354
1761914251521749800,10.206749755859375,0.027912531048059464,-0.06449830532073975,0.4420660436153412
1761914251531805700,10.2168056640625,0.06316757947206497,-0.06939146667718887,0.4674642086029053
1761914251541862700,10.226862548828125,0.10276687890291214,-0.057186853140592575,0.5034370422363281
1761914251551918800,10.2369189453125,0.13782420754432678,-0.019035473465919495,0.5558006167411804
1761914251561974800,10.246974853515624,0.16257531940937042,0.03140493854880333,0.6105105876922607
1761914251572030700,10.25703076171875,0.1745627373456955,0.06580924242734909,0.6342031359672546
1761914251582087700,10.267087646484375,0.1522996574640274,0.07551335543394089,0.6254847049713135
1761914251592144000,10.277143798828124,0.1188407689332962,0.08144128322601318,0.6046132445335388
1761914251602199800,10.28719970703125,0.08902492374181747,0.127408966422081,0.5736516714096069
1761914251612255700,10.297255859375,0.06593132019042969,0.19309663772583008,0.5262473821640015
1761914251622312700,10.307312744140624,0.032562606036663055,0.2155151665210724,0.44636788964271545
1761914251632369000,10.317368896484375,-0.011174222454428673,0.1700320988893509,0.3357468545436859
1761914251642424800,10.3274248046875,-0.04666004702448845,0.08912661671638489,0.22178570926189423
1761914251652480800,10.337480712890626,-0.05478082224726677,0.0019176829373463988,0.11107117682695389
1761914251662537000,10.347536865234375,-0.02084416337311268,-0.07516352087259293,0.009082493372261524
1761914251672594000,10.357593994140625,0.020713666453957558,-0.1416354924440384,-0.06915052235126495
1761914251682649900,10.36764990234375,0.04456562176346779,-0.20176959037780762,-0.12890394032001495
1761914251692705800,10.377705810546875,0.04293816536664963,-0.2387092411518097,-0.1704133003950119
1761914251702762000,10.387761962890625,0.02021215297281742,-0.2522793114185333,-0.20323362946510315
1761914251712819000,10.39781884765625,0.006174630951136351,-0.185709610581398,-0.19807109236717224
1761914251722875000,10.407875,-0.012569379061460495,-0.027866005897521973,-0.1457114964723587
1761914251732930800,10.417930908203125,-0.03593116253614426,0.1532212197780609,-0.06285548955202103
1761914251742987000,10.427987060546876,-0.06549046188592911,0.29682523012161255,0.03921784833073616
1761914251753044000,10.4380439453125,-0.0859571248292923,0.3755677044391632,0.14812488853931427
1761914251763100000,10.448099853515625,-0.11171867698431015,0.3846970200538635,0.25344163179397583
1761914251773155600,10.458155517578126,-0.11614591628313065,0.3377439081668854,0.33601561188697815
1761914251783211800,10.468211669921875,-0.109817273914814,0.228579580783844,0.3901079297065735
1761914251793269000,10.47826904296875,-0.09111203253269196,0.10046234726905823,0.4185158610343933
1761914251803324700,10.48832470703125,-0.0822499617934227,-0.0441516637802124,0.42276081442832947
1761914251813380600,10.498380615234375,-0.07694894075393677,-0.18044212460517883,0.41286689043045044
1761914251823436800,10.508436767578125,-0.053833119571208954,-0.25077736377716064,0.4017822742462158
1761914251833493800,10.51849365234375,-0.021818194538354874,-0.2869795560836792,0.39790475368499756
1761914251843549700,10.5285498046875,0.016461284831166267,-0.29304996132850647,0.4074138402938843
1761914251853605600,10.538605712890625,0.05758342146873474,-0.2799421548843384,0.41861772537231445
1761914251863661800,10.548661865234376,0.07808759808540344,-0.25029921531677246,0.42083215713500977
1761914251873718800,10.55871875,0.056676581501960754,-0.14868846535682678,0.42321115732192993
1761914251883774700,10.568774658203125,0.026037972420454025,0.0016883036587387323,0.4241745173931122
1761914251893830700,10.57883056640625,-0.01907278038561344,0.1789533644914627,0.40932872891426086
1761914251903886800,10.588886962890625,-0.06556069105863571,0.3576768636703491,0.378752738237381
1761914251913943800,10.59894384765625,-0.1210138350725174,0.5514636635780334,0.3196510672569275
1761914251923999700,10.608999755859376,-0.18907520174980164,0.7117506265640259,0.24542002379894257
1761914251934055700,10.6190556640625,-0.23835593461990356,0.7869513630867004,0.1588403880596161
1761914251944111900,10.62911181640625,-0.24143710732460022,0.7802393436431885,0.09145767986774445
1761914251954167800,10.639167724609376,-0.19376039505004883,0.6651729345321655,0.041079193353652954
1761914251964224800,10.649224853515625,-0.1277061253786087,0.4487145245075226,0.004121772944927216
1761914251974281000,10.659281005859375,-0.13325294852256775,0.1577945202589035,-0.00012330617755651474
1761914251984337000,10.6693369140625,-0.22622555494308472,-0.38599061965942383,-0.1299225240945816
1761914251994392800,10.679392822265624,-0.27610069513320923,-0.6133913397789001,-0.22826747596263885
1761914252004449800,10.68944970703125,-0.31810107827186584,-0.7322877645492554,-0.3592698276042938
1761914252014506000,10.699506103515626,-0.4084323048591614,-0.7558298110961914,-0.46478506922721863
1761914252024562000,10.70956201171875,-0.46670785546302795,-0.6768370866775513,-0.5755140781402588
