time,seconds_elapsed,z,y,x
1761914319650619600,0.06661962890625,-0.6596221923828125,-0.7205657958984375,-0.0225830078125
1761914319660675800,0.07667578125,-0.6676177978515625,-0.7238616943359375,-0.017791748046875
1761914319670730800,0.086730712890625,-0.6743011474609375,-0.7390594482421875,-0.007568359375
1761914319680787000,0.096786865234375,-0.6880035400390625,-0.7430419921875,-0.00091552734375
1761914319690842600,0.106842529296875,-0.7061767578125,-0.7401580810546875,0.0042724609375
1761914319700898600,0.116898681640625,-0.7179718017578125,-0.7422332763671875,0.0080413818359375
1761914319710953700,0.12695361328125,-0.731842041015625,-0.742767333984375,0.009979248046875
1761914319721009400,0.137009521484375,-0.7451629638671875,-0.7400665283203125,0.0111846923828125
1761914319731065600,0.147065673828125,-0.7515411376953125,-0.7293548583984375,0.0141143798828125
1761914319741121500,0.15712158203125,-0.7569427490234375,-0.713958740234375,0.0167236328125
1761914319751177500,0.167177490234375,-0.757720947265625,-0.6962738037109375,0.0133056640625
1761914319761233700,0.177233642578125,-0.7527313232421875,-0.68353271484375,0.00823974609375
1761914319771289600,0.18728955078125,-0.7473297119140625,-0.686614990234375,0.004852294921875
1761914319781345500,0.197345458984375,-0.7370452880859375,-0.694580078125,-0.002166748046875
1761914319791401700,0.207401611328125,-0.7361297607421875,-0.689178466796875,-0.0132293701171875
1761914319801457700,0.217457763671875,-0.7427215576171875,-0.6844940185546875,-0.0202789306640625
1761914319811513600,0.227513671875,-0.7439117431640625,-0.6902008056640625,-0.0227813720703125
1761914319821568500,0.237568603515625,-0.740692138671875,-0.703704833984375,-0.0240020751953125
1761914319831624400,0.24762451171875,-0.7464752197265625,-0.7161102294921875,-0.02349853515625
1761914319841680600,0.2576806640625,-0.751861572265625,-0.7187957763671875,-0.0229339599609375
1761914319851736600,0.267736572265625,-0.753662109375,-0.7104644775390625,-0.017333984375
1761914319861792500,0.27779248046875,-0.753753662109375,-0.7068328857421875,-0.0038299560546875
1761914319871848700,0.2878486328125,-0.7613677978515625,-0.704193115234375,0.0087127685546875
1761914319881904600,0.297904541015625,-0.778228759765625,-0.701263427734375,0.0179595947265625
1761914319891960600,0.307960693359375,-0.7964935302734375,-0.6967620849609375,0.0215606689453125
1761914319902016500,0.3180166015625,-0.8162841796875,-0.6793365478515625,0.0266876220703125
1761914319912072700,0.32807275390625,-0.8379058837890625,-0.6539306640625,0.0313720703125
1761914319922128600,0.338128662109375,-0.85247802734375,-0.627655029296875,0.026214599609375
1761914319932184600,0.3481845703125,-0.8589630126953125,-0.595062255859375,0.016937255859375
1761914319942240800,0.35824072265625,-0.8516845703125,-0.565643310546875,0.009124755859375
1761914319952296400,0.36829638671875,-0.8282928466796875,-0.5401763916015625,0.005645751953125
1761914319962352600,0.3783525390625,-0.8008270263671875,-0.519195556640625,0.0036163330078125
1761914319972407600,0.388407470703125,-0.7763671875,-0.5007781982421875,0.0005035400390625
1761914319982463500,0.39846337890625,-0.7552490234375,-0.4773712158203125,-0.002288818359375
1761914319992519700,0.408519775390625,-0.7273712158203125,-0.471771240234375,0.00689697265625
1761914320002575600,0.41857568359375,-0.690521240234375,-0.4990234375,0.025787353515625
1761914320012631600,0.428631591796875,-0.6551513671875,-0.542266845703125,0.0491943359375
1761914320022687700,0.438687744140625,-0.628082275390625,-0.5789642333984375,0.0713958740234375
1761914320032743700,0.44874365234375,-0.61859130859375,-0.5930328369140625,0.0925140380859375
1761914320042799600,0.458799560546875,-0.6195068359375,-0.5999908447265625,0.116363525390625
1761914320052855600,0.46885546875,-0.635406494140625,-0.6244354248046875,0.1400146484375
1761914320062911500,0.478911376953125,-0.6591949462890625,-0.6769561767578125,0.15863037109375
1761914320072967400,0.488967529296875,-0.6829833984375,-0.7243804931640625,0.1678924560546875
1761914320083023600,0.499023681640625,-0.709228515625,-0.73126220703125,0.17431640625
1761914320093079600,0.50907958984375,-0.7531585693359375,-0.7053375244140625,0.1799163818359375
1761914320103135500,0.519135498046875,-0.8110198974609375,-0.6724853515625,0.1863861083984375
1761914320113191700,0.529191650390625,-0.8580474853515625,-0.63275146484375,0.1963043212890625
1761914320123246600,0.53924658203125,-0.8902587890625,-0.5833892822265625,0.1966094970703125
1761914320133302800,0.549302734375,-0.9074249267578125,-0.5322265625,0.1861114501953125
1761914320143358700,0.559358642578125,-0.914581298828125,-0.4922943115234375,0.1678619384765625
1761914320153414400,0.569414306640625,-0.919281005859375,-0.459625244140625,0.14483642578125
1761914320163470600,0.579470703125,-0.9112701416015625,-0.4368743896484375,0.128204345703125
1761914320173526500,0.589526611328125,-0.8900146484375,-0.4395599365234375,0.1086578369140625
1761914320183582500,0.59958251953125,-0.8773956298828125,-0.4570770263671875,0.08984375
1761914320193638700,0.609638671875,-0.86846923828125,-0.48675537109375,0.0765838623046875
1761914320203694600,0.619694580078125,-0.8464508056640625,-0.5304107666015625,0.0607757568359375
1761914320213750500,0.62975048828125,-0.84033203125,-0.580657958984375,0.0537261962890625
1761914320223806700,0.639806640625,-0.844696044921875,-0.6257476806640625,0.057037353515625
1761914320233862700,0.649862548828125,-0.845703125,-0.663421630859375,0.07098388671875
1761914320243918600,0.659918701171875,-0.8395233154296875,-0.68145751953125,0.0966949462890625
1761914320253974800,0.669974853515625,-0.83648681640625,-0.67974853515625,0.124755859375
1761914320264030700,0.68003076171875,-0.835662841796875,-0.66619873046875,0.1418914794921875
1761914320274085600,0.690085693359375,-0.838043212890625,-0.653106689453125,0.1529388427734375
1761914320284141600,0.7001416015625,-0.8423919677734375,-0.6418304443359375,0.1617279052734375
1761914320294197500,0.710197509765625,-0.842041015625,-0.6294097900390625,0.1578826904296875
1761914320304253700,0.720253662109375,-0.8392181396484375,-0.620574951171875,0.1478271484375
1761914320314309600,0.7303095703125,-0.8366546630859375,-0.6164093017578125,0.1378936767578125
1761914320324365600,0.740365478515625,-0.8310394287109375,-0.608367919921875,0.121856689453125
1761914320334421800,0.750421875,-0.82464599609375,-0.5972900390625,0.1048583984375
1761914320344477700,0.760477783203125,-0.807098388671875,-0.59063720703125,0.09124755859375
1761914320354533600,0.77053369140625,-0.782073974609375,-0.588592529296875,0.0792999267578125
1761914320364589600,0.780589599609375,-0.7656097412109375,-0.5899200439453125,0.068572998046875
1761914320374645800,0.790645751953125,-0.7511444091796875,-0.5942230224609375,0.06146240234375
1761914320384701400,0.800701416015625,-0.7357635498046875,-0.5962066650390625,0.0567169189453125
1761914320394757600,0.810757568359375,-0.727142333984375,-0.5942535400390625,0.0523529052734375
1761914320404813600,0.8208134765625,-0.72918701171875,-0.5956268310546875,0.045196533203125
1761914320414869500,0.830869384765625,-0.7385101318359375,-0.5954742431640625,0.0352783203125
1761914320424925400,0.840925537109375,-0.75433349609375,-0.59320068359375,0.02447509765625
1761914320434980600,0.850980712890625,-0.770721435546875,-0.590545654296875,0.012664794921875
1761914320445036500,0.86103662109375,-0.783111572265625,-0.58642578125,0.0024871826171875
1761914320455092700,0.8710927734375,-0.7934417724609375,-0.5830230712890625,-0.0046539306640625
1761914320465148700,0.881148681640625,-0.806793212890625,-0.5856781005859375,-0.0068511962890625
1761914320475204600,0.89120458984375,-0.8134307861328125,-0.5940093994140625,-0.00958251953125
1761914320485260800,0.9012607421875,-0.816925048828125,-0.5923614501953125,-0.01409912109375
1761914320495316500,0.91131640625,-0.81982421875,-0.58514404296875,-0.007415771484375
1761914320505372400,0.921372314453125,-0.8245391845703125,-0.5851593017578125,0.008270263671875
1761914320515428600,0.9314287109375,-0.820037841796875,-0.5932464599609375,0.023162841796875
1761914320525484500,0.941484619140625,-0.80889892578125,-0.6088714599609375,0.029266357421875
1761914320535540500,0.95154052734375,-0.7987518310546875,-0.6236419677734375,0.02899169921875
1761914320545596700,0.9615966796875,-0.78619384765625,-0.636566162109375,0.02960205078125
1761914320555652600,0.971652587890625,-0.772918701171875,-0.65765380859375,0.0350799560546875
1761914320565708500,0.98170849609375,-0.7693939208984375,-0.6902923583984375,0.041412353515625
1761914320575764700,0.9917646484375,-0.7703857421875,-0.7059783935546875,0.04302978515625
1761914320585819600,1.001819580078125,-0.7818756103515625,-0.695281982421875,0.0442352294921875
1761914320595875600,1.01187548828125,-0.790771484375,-0.6964111328125,0.056976318359375
1761914320605931500,1.021931640625,-0.7939910888671875,-0.7283477783203125,0.0748748779296875
1761914320615987500,1.031987548828125,-0.80462646484375,-0.7599334716796875,0.086669921875
1761914320626043600,1.042043701171875,-0.81048583984375,-0.76715087890625,0.092254638671875
1761914320636099600,1.052099609375,-0.812713623046875,-0.7509765625,0.0955352783203125
1761914320646155500,1.062155517578125,-0.8213043212890625,-0.720245361328125,0.07940673828125
1761914320656211700,1.072211669921875,-0.81805419921875,-0.6923675537109375,0.05438232421875
1761914320666267600,1.082267578125,-0.8176727294921875,-0.6765899658203125,0.021881103515625
1761914320676323600,1.092323486328125,-0.8116607666015625,-0.646697998046875,-0.028167724609375
1761914320686379800,1.1023798828125,-0.7639007568359375,-0.6348724365234375,0.0245208740234375
1761914320696435700,1.112435791015625,-0.7951812744140625,-0.60247802734375,0.0452728271484375
1761914320706491600,1.12249169921875,-0.7954254150390625,-0.583648681640625,0.0496368408203125
1761914320716547800,1.1325478515625,-0.7677459716796875,-0.577880859375,0.06182861328125
1761914320726604000,1.14260400390625,-0.7472381591796875,-0.53033447265625,0.0516510009765625
1761914320736659000,1.152658935546875,-0.8096771240234375,-0.5174102783203125,0.0379638671875
1761914320746715000,1.16271484375,-0.8368072509765625,-0.5311431884765625,0.037078857421875
1761914320756770800,1.172770751953125,-0.8230133056640625,-0.5274658203125,0.0316619873046875
1761914320766826800,1.18282666015625,-0.7983856201171875,-0.51751708984375,0.02947998046875
1761914320776883000,1.192883056640625,-0.7670440673828125,-0.5198974609375,0.0322113037109375
1761914320786939000,1.20293896484375,-0.746551513671875,-0.536285400390625,0.0410308837890625
1761914320796994800,1.212994873046875,-0.732574462890625,-0.5553131103515625,0.048736572265625
1761914320807051000,1.223051025390625,-0.7117919921875,-0.5700531005859375,0.054046630859375
1761914320817107000,1.23310693359375,-0.6861572265625,-0.58270263671875,0.0557098388671875
1761914320827163000,1.243162841796875,-0.667449951171875,-0.6006011962890625,0.0576629638671875
1761914320837219000,1.253218994140625,-0.6606597900390625,-0.6243743896484375,0.063385009765625
1761914320847275000,1.26327490234375,-0.656219482421875,-0.6407318115234375,0.066650390625
1761914320857331000,1.2733310546875,-0.6460723876953125,-0.6409912109375,0.056854248046875
1761914320867387100,1.28338720703125,-0.63604736328125,-0.6418914794921875,0.033538818359375
1761914320877442800,1.29344287109375,-0.6143035888671875,-0.6413116455078125,0.011505126953125
1761914320887498000,1.303498046875,-0.577392578125,-0.6352081298828125,-0.0085601806640625
1761914320897554000,1.313553955078125,-0.534210205078125,-0.6313323974609375,-0.1399993896484375
1761914320907609900,1.32360986328125,-0.4879302978515625,-0.672454833984375,-0.5031585693359375
1761914320917666000,1.333666015625,-0.5288848876953125,-0.6968231201171875,-0.363372802734375
1761914320927722000,1.343721923828125,-0.5727996826171875,-0.721343994140625,-0.2603759765625
1761914320937778000,1.35377783203125,-0.6936492919921875,-0.7076568603515625,-0.22259521484375
1761914320947834000,1.363834228515625,-1.163238525390625,-0.63641357421875,-0.1707305908203125
1761914320957890000,1.37389013671875,-0.7024383544921875,-0.65362548828125,-0.122955322265625
1761914320967946000,1.383946044921875,-0.7819671630859375,-0.6789398193359375,-0.0426177978515625
1761914320978002000,1.394001953125,-0.9244232177734375,-0.56884765625,-0.07879638671875
1761914320988057900,1.404057861328125,-0.8373870849609375,-0.3979644775390625,-0.09344482421875
1761914320998113800,1.41411376953125,-0.62139892578125,-0.4763641357421875,-0.057891845703125
1761914321008170000,1.424169921875,-0.6433258056640625,-0.5860748291015625,-0.05133056640625
1761914321018226000,1.434225830078125,-0.9163970947265625,-0.572845458984375,-0.0031890869140625
1761914321028281900,1.44428173828125,-0.8452911376953125,-0.5247039794921875,-0.046295166015625
1761914321038337000,1.4543369140625,-0.9055633544921875,-0.4958038330078125,-0.114410400390625
1761914321048393000,1.46439306640625,-0.692718505859375,-0.46856689453125,-0.069061279296875
1761914321058449200,1.47444921875,-0.5841217041015625,-0.45355224609375,-0.0767974853515625
1761914321068505000,1.484505126953125,-0.6269683837890625,-0.45379638671875,-0.15435791015625
1761914321078560800,1.494560791015625,-0.4518280029296875,-0.5786590576171875,-0.3552398681640625
1761914321088617000,1.504616943359375,-0.5660858154296875,-0.8101043701171875,-0.476776123046875
1761914321098673000,1.5146728515625,-0.9239654541015625,-0.8165435791015625,-0.337554931640625
1761914321108728800,1.524728759765625,-0.9434967041015625,-0.66424560546875,-0.160552978515625
1761914321118785000,1.534784912109375,-0.86627197265625,-0.54302978515625,-0.0047454833984375
1761914321128841000,1.544841064453125,-0.83953857421875,-0.4726409912109375,0.0175018310546875
1761914321138897000,1.55489697265625,-0.9113006591796875,-0.453704833984375,-0.0563812255859375
1761914321148953000,1.564953125,-0.9807586669921875,-0.4635162353515625,-0.137420654296875
1761914321159009000,1.575009033203125,-1.0343475341796875,-0.4752655029296875,-0.1725311279296875
1761914321169065000,1.58506494140625,-1.0552825927734375,-0.4636688232421875,-0.163238525390625
1761914321179121000,1.595120849609375,-1.0060272216796875,-0.4167327880859375,-0.126190185546875
1761914321189177000,1.605177001953125,-0.9234466552734375,-0.374847412109375,-0.128173828125
1761914321199231700,1.615231689453125,-0.86529541015625,-0.370697021484375,-0.168243408203125
1761914321209288000,1.625287841796875,-0.8222808837890625,-0.383056640625,-0.212005615234375
1761914321219344000,1.63534375,-0.8215179443359375,-0.412567138671875,-0.24395751953125
1761914321229399800,1.64539990234375,-0.8450164794921875,-0.442138671875,-0.26287841796875
1761914321239456000,1.6554560546875,-0.8780059814453125,-0.469512939453125,-0.2728424072265625
1761914321249512000,1.665511962890625,-0.9010467529296875,-0.483795166015625,-0.2830047607421875
1761914321259567900,1.67556787109375,-0.9014434814453125,-0.4817657470703125,-0.291168212890625
1761914321269624000,1.6856240234375,-0.854766845703125,-0.46240234375,-0.30023193359375
1761914321279680000,1.695679931640625,-0.812042236328125,-0.434356689453125,-0.306610107421875
1761914321289736000,1.70573583984375,-0.8015289306640625,-0.4225006103515625,-0.311431884765625
1761914321299792100,1.715792236328125,-0.7959442138671875,-0.4232635498046875,-0.3065643310546875
1761914321309847800,1.725847900390625,-0.80157470703125,-0.426483154296875,-0.2912445068359375
1761914321319903700,1.73590380859375,-0.833099365234375,-0.438323974609375,-0.2749481201171875
1761914321329960000,1.7459599609375,-0.985595703125,-0.447906494140625,-0.24627685546875
1761914321340014800,1.756014892578125,-1.14202880859375,-0.4619903564453125,-0.2173309326171875
1761914321350071000,1.766071044921875,-1.0146026611328125,-0.4742584228515625,-0.2025909423828125
1761914321360127000,1.776126953125,-1.0162200927734375,-0.52862548828125,-0.2100830078125
1761914321370183000,1.786182861328125,-0.949981689453125,-0.5701904296875,-0.2168426513671875
1761914321380239000,1.796239013671875,-0.9022064208984375,-0.59405517578125,-0.2187957763671875
1761914321390295000,1.806294921875,-0.8982696533203125,-0.6101837158203125,-0.2142333984375
1761914321400351000,1.81635107421875,-0.891387939453125,-0.6153106689453125,-0.2236480712890625
1761914321410407000,1.826406982421875,-0.8829803466796875,-0.60107421875,-0.229156494140625
1761914321420462800,1.836462890625,-0.8716278076171875,-0.5594024658203125,-0.2248687744140625
1761914321430518800,1.846518798828125,-0.851226806640625,-0.4955596923828125,-0.2159271240234375
1761914321440575000,1.856574951171875,-0.823455810546875,-0.430633544921875,-0.1951904296875
1761914321450631000,1.866630859375,-0.8068084716796875,-0.3870697021484375,-0.1667633056640625
1761914321460686800,1.876686767578125,-0.81402587890625,-0.3675689697265625,-0.1352081298828125
1761914321470743000,1.886742919921875,-0.8406524658203125,-0.377166748046875,-0.1109771728515625
1761914321480799000,1.896799072265625,-0.864044189453125,-0.399322509765625,-0.092071533203125
1761914321490854100,1.906854248046875,-0.866424560546875,-0.411834716796875,-0.07806396484375
1761914321500910000,1.91691015625,-0.85760498046875,-0.4188385009765625,-0.0717315673828125
1761914321510965800,1.9269658203125,-0.838958740234375,-0.4259033203125,-0.0716094970703125
1761914321521022000,1.93702197265625,-0.82049560546875,-0.4386444091796875,-0.0739898681640625
1761914321531078000,1.947077880859375,-0.81170654296875,-0.449188232421875,-0.0702362060546875
1761914321541133800,1.9571337890625,-0.81488037109375,-0.449371337890625,-0.0599365234375
1761914321551190000,1.96718994140625,-0.8352813720703125,-0.4471893310546875,-0.0498199462890625
1761914321561246000,1.977245849609375,-0.857666015625,-0.4507904052734375,-0.04632568359375
1761914321571302000,1.987302001953125,-0.869354248046875,-0.4580841064453125,-0.0474853515625
1761914321581358000,1.997358154296875,-0.863250732421875,-0.4738616943359375,-0.0527801513671875
1761914321591414000,2.0074140625,-0.836212158203125,-0.4787139892578125,-0.047210693359375
1761914321601470000,2.017469970703125,-0.8120574951171875,-0.4684600830078125,-0.0322418212890625
1761914321611526000,2.02752587890625,-0.8035125732421875,-0.45050048828125,-0.0081634521484375
1761914321621582000,2.03758203125,-0.8125152587890625,-0.4315948486328125,0.0175628662109375
1761914321631636700,2.04763671875,-0.8316192626953125,-0.4201507568359375,0.0364837646484375
1761914321641693000,2.05769287109375,-0.850189208984375,-0.4147796630859375,0.0553436279296875
1761914321651748900,2.067748779296875,-0.86224365234375,-0.41571044921875,0.0692138671875
1761914321661804800,2.0778046875,-0.8673095703125,-0.4171142578125,0.0840606689453125
1761914321671861000,2.087861083984375,-0.8687286376953125,-0.423431396484375,0.0947723388671875
1761914321681917000,2.0979169921875,-0.876800537109375,-0.4425048828125,0.098175048828125
1761914321691972900,2.107972900390625,-0.8840789794921875,-0.466796875,0.096435546875
1761914321702029000,2.118029052734375,-0.8829803466796875,-0.488372802734375,0.0872802734375
1761914321712085000,2.1280849609375,-0.8659515380859375,-0.51043701171875,0.0704345703125
1761914321722141000,2.138140869140625,-0.8413543701171875,-0.5350341796875,0.048858642578125
1761914321732197000,2.148197021484375,-0.8120880126953125,-0.560455322265625,0.025543212890625
1761914321742253000,2.158253173828125,-0.79534912109375,-0.584197998046875,0.0042266845703125
1761914321752309000,2.16830908203125,-0.7894744873046875,-0.6022796630859375,-0.0152130126953125
1761914321762365200,2.178365234375,-0.7893829345703125,-0.61004638671875,-0.0315093994140625
1761914321772421000,2.188421142578125,-0.7931365966796875,-0.6097869873046875,-0.046051025390625
1761914321782476000,2.19847607421875,-0.79571533203125,-0.59814453125,-0.05712890625
1761914321792532000,2.208531982421875,-0.802703857421875,-0.5760955810546875,-0.064788818359375
1761914321802588000,2.218587890625,-0.81402587890625,-0.5531005859375,-0.0672760009765625
1761914321812644000,2.22864404296875,-0.825103759765625,-0.528076171875,-0.0650482177734375
1761914321822700000,2.238699951171875,-0.836822509765625,-0.5061798095703125,-0.0581207275390625
1761914321832756000,2.248755859375,-0.84381103515625,-0.486846923828125,-0.0483551025390625
1761914321842812200,2.258812255859375,-0.8533477783203125,-0.4803924560546875,-0.0443267822265625
1761914321852868000,2.2688681640625,-0.862396240234375,-0.4828643798828125,-0.045989990234375
1761914321862924000,2.278924072265625,-0.8660736083984375,-0.4874114990234375,-0.044586181640625
1761914321872980200,2.288980224609375,-0.8685302734375,-0.4924163818359375,-0.0432586669921875
1761914321883036200,2.2990361328125,-0.875091552734375,-0.4976654052734375,-0.0446929931640625
1761914321893092000,2.309092041015625,-0.8820037841796875,-0.504547119140625,-0.0518035888671875
1761914321903148300,2.319148193359375,-0.880828857421875,-0.506866455078125,-0.062255859375
1761914321913204000,2.329203857421875,-0.8739166259765625,-0.50787353515625,-0.075897216796875
1761914321923259100,2.339259033203125,-0.8719940185546875,-0.5062408447265625,-0.0904541015625
1761914321933315000,2.349315185546875,-0.879119873046875,-0.502044677734375,-0.096588134765625
1761914321943371000,2.35937109375,-0.8822479248046875,-0.4951629638671875,-0.0961456298828125
1761914321953427200,2.36942724609375,-0.878936767578125,-0.49346923828125,-0.0963592529296875
1761914321963483100,2.379483154296875,-0.8682098388671875,-0.49456787109375,-0.0989837646484375
1761914321973539000,2.3895390625,-0.853912353515625,-0.5006103515625,-0.1082611083984375
1761914321983595000,2.399594970703125,-0.844146728515625,-0.510498046875,-0.1134185791015625
1761914321993651200,2.409651123046875,-0.84185791015625,-0.5191497802734375,-0.1134033203125
1761914322003707100,2.41970703125,-0.8511962890625,-0.52459716796875,-0.1069793701171875
1761914322013763000,2.42976318359375,-0.8599700927734375,-0.525390625,-0.095306396484375
1761914322023819000,2.439819091796875,-0.8677825927734375,-0.5241851806640625,-0.0812225341796875
1761914322033875000,2.449875,-0.8809967041015625,-0.524200439453125,-0.0694427490234375
1761914322043931000,2.459930908203125,-0.89019775390625,-0.5291900634765625,-0.0546112060546875
1761914322053987000,2.469987060546875,-0.8887176513671875,-0.538970947265625,-0.034027099609375
1761914322064043000,2.48004296875,-0.8899078369140625,-0.54840087890625,-0.0103607177734375
1761914322074098200,2.49009814453125,-0.895111083984375,-0.561370849609375,0.010711669921875
1761914322084154000,2.500154052734375,-0.9007720947265625,-0.586517333984375,0.023193359375
1761914322094210000,2.5102099609375,-0.89447021484375,-0.6234588623046875,0.0289154052734375
1761914322104266200,2.520266357421875,-0.878082275390625,-0.665252685546875,0.034210205078125
1761914322114322000,2.530322021484375,-0.8597412109375,-0.6973114013671875,0.04290771484375
1761914322124377900,2.5403779296875,-0.8527679443359375,-0.7158660888671875,0.0516357421875
1761914322134434000,2.55043408203125,-0.8603057861328125,-0.7240753173828125,0.057037353515625
1761914322144490000,2.560489990234375,-0.8674163818359375,-0.7288970947265625,0.058074951171875
1761914322154546000,2.5705458984375,-0.8661346435546875,-0.7276153564453125,0.06591796875
1761914322164602000,2.58060205078125,-0.8638916015625,-0.71551513671875,0.0719757080078125
1761914322174658000,2.590657958984375,-0.863433837890625,-0.6964111328125,0.0792388916015625
1761914322184714000,2.6007138671875,-0.862701416015625,-0.6763153076171875,0.0872344970703125
1761914322194770200,2.610770263671875,-0.8593902587890625,-0.660675048828125,0.0846405029296875
1761914322204826000,2.620826171875,-0.84906005859375,-0.6427459716796875,0.07147216796875
1761914322214881300,2.63088134765625,-0.8332366943359375,-0.6225128173828125,0.058807373046875
1761914322224937000,2.64093701171875,-0.8141021728515625,-0.6008148193359375,0.053955078125
1761914322234993000,2.650992919921875,-0.799560546875,-0.5796966552734375,0.0513458251953125
1761914322245049000,2.661049072265625,-0.7889556884765625,-0.5673828125,0.0425262451171875
1761914322255105000,2.67110498046875,-0.7718658447265625,-0.5641632080078125,0.0233154296875
1761914322265161000,2.681160888671875,-0.75189208984375,-0.5697479248046875,-0.002838134765625
1761914322275217200,2.691217041015625,-0.7213287353515625,-0.578582763671875,-0.029144287109375
1761914322285273000,2.701273193359375,-0.68658447265625,-0.589691162109375,-0.0532684326171875
1761914322295329000,2.7113291015625,-0.6641998291015625,-0.6056671142578125,-0.071441650390625
1761914322305385200,2.72138525390625,-0.657470703125,-0.624755859375,-0.08551025390625
1761914322315441200,2.731441162109375,-0.6575775146484375,-0.64202880859375,-0.092681884765625
1761914322325497000,2.7414970703125,-0.6641693115234375,-0.6514739990234375,-0.097625732421875
1761914322335553300,2.75155322265625,-0.67010498046875,-0.6529998779296875,-0.1018218994140625
1761914322345609000,2.76160888671875,-0.6724853515625,-0.651397705078125,-0.107574462890625
1761914322355664100,2.7716640625,-0.6727752685546875,-0.6521148681640625,-0.1131134033203125
1761914322365720000,2.781719970703125,-0.6681976318359375,-0.646881103515625,-0.1161651611328125
1761914322375776000,2.79177587890625,-0.6685791015625,-0.635162353515625,-0.1143798828125
1761914322385832200,2.801832275390625,-0.6810302734375,-0.6181488037109375,-0.1083221435546875
1761914322395888000,2.81188818359375,-0.6981048583984375,-0.593505859375,-0.099090576171875
1761914322405944000,2.821944091796875,-0.711822509765625,-0.56719970703125,-0.091217041015625
1761914322416000000,2.832,-0.7248992919921875,-0.54449462890625,-0.085357666015625
1761914322426056200,2.84205615234375,-0.7358245849609375,-0.5254364013671875,-0.0734405517578125
1761914322436112100,2.852112060546875,-0.75250244140625,-0.5150604248046875,-0.064483642578125
1761914322446168000,2.86216796875,-0.770965576171875,-0.5110015869140625,-0.060211181640625
1761914322456224000,2.87222412109375,-0.78033447265625,-0.511474609375,-0.0590362548828125
1761914322466280000,2.882280029296875,-0.7808685302734375,-0.5164031982421875,-0.063140869140625
1761914322476336000,2.892336181640625,-0.7762298583984375,-0.5272216796875,-0.072418212890625
1761914322486392000,2.90239208984375,-0.7678985595703125,-0.5419769287109375,-0.081878662109375
1761914322496447000,2.912447021484375,-0.76068115234375,-0.5599822998046875,-0.08966064453125
1761914322506503200,2.922503173828125,-0.760101318359375,-0.5760650634765625,-0.099456787109375
1761914322516559000,2.93255908203125,-0.7633056640625,-0.587158203125,-0.107696533203125
1761914322526615000,2.942614990234375,-0.7622222900390625,-0.595703125,-0.1161651611328125
1761914322536671200,2.952671142578125,-0.7601318359375,-0.59478759765625,-0.1209259033203125
1761914322546727200,2.96272705078125,-0.76611328125,-0.5848236083984375,-0.12091064453125
1761914322556782800,2.972782958984375,-0.7758941650390625,-0.57098388671875,-0.1090545654296875
1761914322566839000,2.982839111328125,-0.7845001220703125,-0.55804443359375,-0.090484619140625
1761914322576895000,2.99289501953125,-0.7941741943359375,-0.5497283935546875,-0.07293701171875
1761914322586951000,3.002950927734375,-0.8058013916015625,-0.544525146484375,-0.0553741455078125
1761914322597007000,3.013007080078125,-0.8131103515625,-0.540863037109375,-0.03790283203125
1761914322607063000,3.02306298828125,-0.818603515625,-0.5474395751953125,-0.0224609375
1761914322617119000,3.033118896484375,-0.8221588134765625,-0.5649871826171875,-0.009490966796875
1761914322627175200,3.043175048828125,-0.8245086669921875,-0.5843963623046875,0.0047760009765625
1761914322637231000,3.053231201171875,-0.826690673828125,-0.6011505126953125,0.0157470703125
1761914322647286300,3.063286376953125,-0.830230712890625,-0.6142425537109375,0.0203399658203125
1761914322657342000,3.073342041015625,-0.8358917236328125,-0.623687744140625,0.01904296875
1761914322667398000,3.08339794921875,-0.83990478515625,-0.6292266845703125,0.014251708984375
1761914322677454000,3.0934541015625,-0.8471221923828125,-0.6299285888671875,0.0073394775390625
1761914322687510000,3.103510009765625,-0.8472900390625,-0.6268310546875,0.0033721923828125
1761914322697566000,3.11356591796875,-0.8383941650390625,-0.6304931640625,-0.0035552978515625
1761914322707622100,3.1236220703125,-0.8313140869140625,-0.63818359375,-0.0159149169921875
1761914322717677600,3.133677490234375,-0.8228607177734375,-0.64593505859375,-0.031036376953125
1761914322727733500,3.1437333984375,-0.811187744140625,-0.654937744140625,-0.0497894287109375
1761914322737789700,3.153789794921875,-0.7951812744140625,-0.66644287109375,-0.0666656494140625
1761914322747845600,3.163845703125,-0.7803192138671875,-0.6742706298828125,-0.0784912109375
1761914322757901600,3.173901611328125,-0.7706298828125,-0.6775665283203125,-0.0880279541015625
1761914322767957800,3.183957763671875,-0.7692718505859375,-0.67156982421875,-0.0934295654296875
1761914322778013700,3.194013671875,-0.7739410400390625,-0.655975341796875,-0.0964813232421875
1761914322788068600,3.204068603515625,-0.781524658203125,-0.636077880859375,-0.0965118408203125
1761914322798124500,3.21412451171875,-0.7942962646484375,-0.6207122802734375,-0.1004638671875
1761914322808180500,3.224180419921875,-0.815521240234375,-0.6187896728515625,-0.10809326171875
1761914322818236700,3.234236572265625,-0.8289031982421875,-0.6256866455078125,-0.1097869873046875
1761914322828292600,3.244292724609375,-0.8309326171875,-0.6294403076171875,-0.102783203125
1761914322838348500,3.2543486328125,-0.8412933349609375,-0.636322021484375,-0.0994720458984375
1761914322848404700,3.26440478515625,-0.850616455078125,-0.65716552734375,-0.106353759765625
1761914322858460700,3.274460693359375,-0.8391571044921875,-0.68096923828125,-0.11859130859375
1761914322868516600,3.2845166015625,-0.8076171875,-0.692474365234375,-0.118408203125
1761914322878572800,3.29457275390625,-0.78570556640625,-0.6925811767578125,-0.1080169677734375
1761914322888628700,3.304628662109375,-0.78912353515625,-0.694183349609375,-0.095001220703125
1761914322898684400,3.314684326171875,-0.8007965087890625,-0.692901611328125,-0.0848846435546875
1761914322908740600,3.32474072265625,-0.8122711181640625,-0.688385009765625,-0.0830078125
1761914322918796500,3.334796630859375,-0.8166656494140625,-0.6744384765625,-0.0772552490234375
1761914322928852500,3.3448525390625,-0.8199615478515625,-0.64202880859375,-0.05865478515625
1761914322938907600,3.35490771484375,-0.840789794921875,-0.5855712890625,-0.02630615234375
1761914322948963600,3.364963623046875,-0.8719940185546875,-0.518310546875,0.01043701171875
1761914322959019800,3.375019775390625,-0.89923095703125,-0.4560394287109375,0.0391998291015625
1761914322969075700,3.38507568359375,-0.919403076171875,-0.41082763671875,0.0595550537109375
1761914322979131600,3.395131591796875,-0.926239013671875,-0.38446044921875,0.0693206787109375
1761914322989187800,3.405187744140625,-0.90869140625,-0.3745269775390625,0.0697479248046875
1761914322999243500,3.415243408203125,-0.8690948486328125,-0.3854522705078125,0.061553955078125
1761914323009299500,3.425299560546875,-0.8271026611328125,-0.4180755615234375,0.0458221435546875
1761914323019355600,3.435355712890625,-0.7945556640625,-0.4670257568359375,0.0262603759765625
1761914323029411600,3.44541162109375,-0.7748565673828125,-0.5212249755859375,0.000396728515625
1761914323039467500,3.455467529296875,-0.7662353515625,-0.5790252685546875,-0.023834228515625
1761914323049523700,3.465523681640625,-0.7647857666015625,-0.62646484375,-0.046722412109375
1761914323059579600,3.47557958984375,-0.7634735107421875,-0.658233642578125,-0.0630035400390625
1761914323069635600,3.485635498046875,-0.76788330078125,-0.6722412109375,-0.0665130615234375
1761914323079690800,3.495690673828125,-0.7794952392578125,-0.6698760986328125,-0.064208984375
1761914323089746700,3.50574658203125,-0.78790283203125,-0.6519622802734375,-0.057861328125
1761914323099802400,3.51580224609375,-0.7931671142578125,-0.6178436279296875,-0.041656494140625
1761914323109858600,3.525858642578125,-0.80047607421875,-0.5761871337890625,-0.0184173583984375
1761914323119914500,3.53591455078125,-0.8103790283203125,-0.53741455078125,0.0047149658203125
1761914323129970400,3.545970458984375,-0.82763671875,-0.5059356689453125,0.0200347900390625
1761914323140026600,3.556026611328125,-0.8542938232421875,-0.4803619384765625,0.0351104736328125
1761914323150082600,3.56608251953125,-0.87841796875,-0.458648681640625,0.05255126953125
1761914323160138500,3.576138427734375,-0.89349365234375,-0.4420013427734375,0.0695037841796875
1761914323170194700,3.586194580078125,-0.896484375,-0.440277099609375,0.0823974609375
1761914323180250600,3.596250732421875,-0.8816375732421875,-0.4576568603515625,0.0897064208984375
1761914323190306600,3.606306640625,-0.85369873046875,-0.4912261962890625,0.08251953125
1761914323200362800,3.61636279296875,-0.813385009765625,-0.53070068359375,0.0653839111328125
1761914323210418700,3.626418701171875,-0.77374267578125,-0.5727996826171875,0.0444183349609375
1761914323220473600,3.6364736328125,-0.7421875,-0.6097869873046875,0.0245208740234375
1761914323230529500,3.646529541015625,-0.71820068359375,-0.6370391845703125,0.0040283203125
1761914323240585500,3.65658544921875,-0.699798583984375,-0.649078369140625,-0.0178680419921875
1761914323250641700,3.6666416015625,-0.6904296875,-0.650054931640625,-0.0362396240234375
1761914323260697600,3.676697509765625,-0.68743896484375,-0.6405181884765625,-0.050506591796875
1761914323270753500,3.68675341796875,-0.691497802734375,-0.625213623046875,-0.0607452392578125
1761914323280809700,3.696809814453125,-0.6998443603515625,-0.605865478515625,-0.067779541015625
1761914323290865700,3.70686572265625,-0.7110748291015625,-0.588165283203125,-0.07073974609375
1761914323300921600,3.716921630859375,-0.716705322265625,-0.5749664306640625,-0.0721588134765625
1761914323310977800,3.726977783203125,-0.7223358154296875,-0.567657470703125,-0.07489013671875
1761914323321033700,3.73703369140625,-0.727752685546875,-0.5654754638671875,-0.07757568359375
1761914323331089400,3.74708935546875,-0.7276763916015625,-0.562713623046875,-0.0796966552734375
1761914323341145600,3.7571455078125,-0.7271728515625,-0.56298828125,-0.0849456787109375
1761914323351201500,3.767201416015625,-0.723388671875,-0.56805419921875,-0.089508056640625
1761914323361256700,3.777256591796875,-0.7272186279296875,-0.576019287109375,-0.09295654296875
1761914323371312600,3.787312744140625,-0.7361602783203125,-0.589111328125,-0.0896148681640625
1761914323381368600,3.79736865234375,-0.7501678466796875,-0.60552978515625,-0.087738037109375
1761914323391424800,3.8074248046875,-0.7578887939453125,-0.62225341796875,-0.089874267578125
1761914323401480700,3.817480712890625,-0.7586212158203125,-0.6364288330078125,-0.0958251953125
1761914323411536600,3.82753662109375,-0.7565460205078125,-0.6424713134765625,-0.098724365234375
1761914323421592800,3.8375927734375,-0.7586669921875,-0.64532470703125,-0.0976715087890625
1761914323431648500,3.8476484375,-0.7656097412109375,-0.64874267578125,-0.099029541015625
1761914323441704400,3.857704345703125,-0.769805908203125,-0.6591949462890625,-0.1052093505859375
1761914323451760600,3.8677607421875,-0.7645721435546875,-0.6721343994140625,-0.111785888671875
1761914323461816600,3.877816650390625,-0.758941650390625,-0.6796875,-0.1159210205078125
1761914323471872500,3.88787255859375,-0.7573394775390625,-0.681793212890625,-0.1139373779296875
1761914323481928700,3.8979287109375,-0.7638397216796875,-0.67864990234375,-0.1063385009765625
1761914323491984600,3.907984619140625,-0.7773895263671875,-0.67572021484375,-0.0915985107421875
1761914323502040600,3.91804052734375,-0.7882537841796875,-0.664154052734375,-0.0692901611328125
1761914323512095700,3.928095703125,-0.80950927734375,-0.6461334228515625,-0.048828125
1761914323522151700,3.938151611328125,-0.832794189453125,-0.633514404296875,-0.0318603515625
1761914323532207600,3.94820751953125,-0.85418701171875,-0.62359619140625,-0.0178070068359375
1761914323542263600,3.958263671875,-0.8774261474609375,-0.6145477294921875,-0.0092315673828125
1761914323552319500,3.968319580078125,-0.8976898193359375,-0.6190643310546875,-0.01629638671875
1761914323562375400,3.97837548828125,-0.8860321044921875,-0.63934326171875,-0.030487060546875
1761914323572431600,3.988431640625,-0.8559417724609375,-0.6713104248046875,-0.0447540283203125
1761914323582484700,3.998484619140625,-0.8455657958984375,-0.710845947265625,-0.05718994140625
1761914323592540400,4.00854052734375,-0.8487548828125,-0.7523345947265625,-0.0618133544921875
1761914323602596600,4.0185966796875,-0.8547515869140625,-0.7816619873046875,-0.066864013671875
1761914323612652500,4.028652587890625,-0.8625946044921875,-0.791839599609375,-0.0703125
1761914323622708500,4.03870849609375,-0.87799072265625,-0.7790374755859375,-0.0727691650390625
1761914323632764700,4.0487646484375,-0.8948822021484375,-0.7413330078125,-0.0773162841796875
1761914323642820600,4.058820556640625,-0.904266357421875,-0.6848297119140625,-0.082000732421875
1761914323652876500,4.06887646484375,-0.9119873046875,-0.6150054931640625,-0.0877685546875
1761914323662931700,4.078931640625,-0.913848876953125,-0.544647216796875,-0.090576171875
1761914323672987600,4.088987548828125,-0.9162139892578125,-0.4850921630859375,-0.0957489013671875
1761914323683043800,4.0990439453125,-0.910247802734375,-0.4467010498046875,-0.1010589599609375
1761914323693099500,4.109099609375,-0.8881683349609375,-0.433990478515625,-0.1106414794921875
1761914323703155500,4.119155517578125,-0.85260009765625,-0.4448089599609375,-0.1219024658203125
1761914323713211600,4.129211669921875,-0.8092041015625,-0.4755401611328125,-0.13690185546875
1761914323723268400,4.139268310546875,-0.7743072509765625,-0.508514404296875,-0.155426025390625
1761914323733324300,4.14932421875,-0.7497406005859375,-0.53680419921875,-0.172882080078125
1761914323743380200,4.159380126953125,-0.7293243408203125,-0.557769775390625,-0.1923065185546875
1761914323753436400,4.1694365234375,-0.717926025390625,-0.5697479248046875,-0.210784912109375
1761914323763492400,4.179492431640625,-0.7158966064453125,-0.56939697265625,-0.22314453125
1761914323773548300,4.18954833984375,-0.721405029296875,-0.5611724853515625,-0.22991943359375
1761914323783604500,4.1996044921875,-0.7297821044921875,-0.5430755615234375,-0.22894287109375
1761914323793660400,4.209660400390625,-0.7369537353515625,-0.52581787109375,-0.2234039306640625
1761914323803715300,4.21971533203125,-0.7415924072265625,-0.512176513671875,-0.2165374755859375
1761914323813771300,4.229771240234375,-0.7452239990234375,-0.501068115234375,-0.20733642578125
1761914323823827200,4.2398271484375,-0.7527008056640625,-0.4864959716796875,-0.1952667236328125
1761914323833883400,4.24988330078125,-0.763671875,-0.4720306396484375,-0.1837005615234375
1761914323843939300,4.259939208984375,-0.7734222412109375,-0.461761474609375,-0.17486572265625
1761914323853995300,4.269995361328125,-0.7825469970703125,-0.4542388916015625,-0.1718597412109375
1761914323864051500,4.280051513671875,-0.7904052734375,-0.448150634765625,-0.1704559326171875
1761914323874107400,4.290107421875,-0.7943115234375,-0.4458160400390625,-0.16937255859375
1761914323884163300,4.300163330078125,-0.7914581298828125,-0.44818115234375,-0.1714630126953125
1761914323894219500,4.310219482421875,-0.7834014892578125,-0.4550018310546875,-0.175750732421875
1761914323904275500,4.320275390625,-0.774139404296875,-0.4697418212890625,-0.181182861328125
1761914323914331100,4.3303310546875,-0.77532958984375,-0.4893798828125,-0.1841583251953125
1761914323924387300,4.34038720703125,-0.789794921875,-0.5123443603515625,-0.1852264404296875
1761914323934443300,4.350443359375,-0.802001953125,-0.5371551513671875,-0.183746337890625
1761914323944498200,4.360498291015625,-0.8066864013671875,-0.557220458984375,-0.1827392578125
1761914323954554400,4.370554443359375,-0.8022003173828125,-0.5685272216796875,-0.18035888671875
1761914323964610300,4.3806103515625,-0.795166015625,-0.5689544677734375,-0.1756744384765625
1761914323974666200,4.390666259765625,-0.7918853759765625,-0.562255859375,-0.1718292236328125
1761914323984722400,4.400722412109375,-0.791015625,-0.554473876953125,-0.1650543212890625
1761914323994778400,4.4107783203125,-0.7917022705078125,-0.546783447265625,-0.1529388427734375
1761914324004834300,4.420834228515625,-0.79718017578125,-0.533905029296875,-0.1347503662109375
1761914324014890500,4.430890380859375,-0.8079833984375,-0.5201568603515625,-0.11309814453125
1761914324024946200,4.4409462890625,-0.8184967041015625,-0.508331298828125,-0.0945281982421875
1761914324035002000,4.451002197265625,-0.8201904296875,-0.4985504150390625,-0.0778656005859375
1761914324045058300,4.461058349609375,-0.81683349609375,-0.495208740234375,-0.0654449462890625
1761914324055114200,4.4711142578125,-0.80877685546875,-0.503570556640625,-0.0609283447265625
1761914324065170200,4.481170166015625,-0.7979278564453125,-0.5239105224609375,-0.0623779296875
1761914324075226400,4.491226318359375,-0.781219482421875,-0.5526123046875,-0.0698089599609375
1761914324085282300,4.5012822265625,-0.76776123046875,-0.5813140869140625,-0.075439453125
1761914324095337500,4.51133740234375,-0.7629852294921875,-0.602874755859375,-0.07940673828125
1761914324105393400,4.521393310546875,-0.754852294921875,-0.61883544921875,-0.0813140869140625
1761914324115449300,4.531449462890625,-0.74786376953125,-0.6346435546875,-0.083251953125
1761914324125505300,4.54150537109375,-0.744873046875,-0.6484222412109375,-0.090576171875
1761914324135561200,4.551561279296875,-0.7479248046875,-0.658782958984375,-0.09820556640625
1761914324145619500,4.561619384765625,-0.7638092041015625,-0.66925048828125,-0.1089935302734375
1761914324155675400,4.57167529296875,-0.7785186767578125,-0.679473876953125,-0.119598388671875
1761914324165731300,4.5817314453125,-0.78509521484375,-0.6888885498046875,-0.1284637451171875
1761914324175787300,4.591787353515625,-0.7914276123046875,-0.69561767578125,-0.134246826171875
1761914324185843200,4.60184326171875,-0.8040618896484375,-0.7039031982421875,-0.142852783203125
1761914324195899100,4.611899169921875,-0.8152313232421875,-0.7195892333984375,-0.155242919921875
1761914324205955300,4.621955322265625,-0.82513427734375,-0.734222412109375,-0.1689605712890625
1761914324216011300,4.63201123046875,-0.830657958984375,-0.7366790771484375,-0.173370361328125
1761914324226067200,4.642067138671875,-0.83270263671875,-0.7241973876953125,-0.16314697265625
1761914324236122400,4.652122314453125,-0.8426361083984375,-0.69488525390625,-0.1438751220703125
1761914324246178300,4.66217822265625,-0.86639404296875,-0.65625,-0.1218109130859375
1761914324256234500,4.672234375,-0.8902435302734375,-0.61962890625,-0.1009674072265625
1761914324266290400,4.68229052734375,-0.90460205078125,-0.5883636474609375,-0.08990478515625
1761914324276346000,4.69234619140625,-0.9096832275390625,-0.557586669921875,-0.0794830322265625
1761914324286402300,4.70240234375,-0.9066009521484375,-0.5258636474609375,-0.069061279296875
1761914324296458200,4.712458251953125,-0.89776611328125,-0.5002593994140625,-0.064208984375
1761914324306514200,4.72251416015625,-0.8817138671875,-0.4887847900390625,-0.0622711181640625
1761914324316570400,4.7325703125,-0.865447998046875,-0.49090576171875,-0.0629730224609375
1761914324326626300,4.742626220703125,-0.855804443359375,-0.499237060546875,-0.0633697509765625
1761914324336682200,4.75268212890625,-0.8530426025390625,-0.50848388671875,-0.0611419677734375
1761914324346738400,4.762738525390625,-0.8502960205078125,-0.5081787109375,-0.060699462890625
1761914324356794400,4.77279443359375,-0.8426055908203125,-0.498779296875,-0.0599517822265625
1761914324366850300,4.782850341796875,-0.83245849609375,-0.49298095703125,-0.0529937744140625
1761914324376905200,4.7929052734375,-0.8247222900390625,-0.4982757568359375,-0.0452117919921875
1761914324386961200,4.802961181640625,-0.8231048583984375,-0.514190673828125,-0.038848876953125
1761914324397017300,4.813017333984375,-0.8294830322265625,-0.5331573486328125,-0.03582763671875
1761914324407073300,4.8230732421875,-0.8351287841796875,-0.5579986572265625,-0.0336761474609375
1761914324417129200,4.833129150390625,-0.8344268798828125,-0.58355712890625,-0.0318603515625
1761914324427185400,4.843185302734375,-0.8274078369140625,-0.6012115478515625,-0.0272674560546875
1761914324437241300,4.853241455078125,-0.8313140869140625,-0.60736083984375,-0.0191497802734375
1761914324447297300,4.86329736328125,-0.8387603759765625,-0.603363037109375,-0.0131988525390625
1761914324457353500,4.873353515625,-0.83941650390625,-0.585418701171875,-0.0122222900390625
1761914324467409400,4.883409423828125,-0.839874267578125,-0.55499267578125,-0.0105133056640625
1761914324477465300,4.89346533203125,-0.8454132080078125,-0.5158538818359375,-0.000518798828125
1761914324487521500,4.903521484375,-0.854156494140625,-0.4779052734375,0.014068603515625
1761914324497577500,4.913577392578125,-0.8636627197265625,-0.4459075927734375,0.0311126708984375
1761914324507633200,4.923633056640625,-0.873626708984375,-0.428863525390625,0.0467529296875
1761914324517689300,4.933689453125,-0.8839569091796875,-0.427978515625,0.0613555908203125
1761914324527744300,4.943744140625,-0.894378662109375,-0.4374542236328125,0.0741119384765625
1761914324537800200,4.95380029296875,-0.8966064453125,-0.446868896484375,0.08563232421875
1761914324547856400,4.9638564453125,-0.8867340087890625,-0.455291748046875,0.09271240234375
1761914324557912300,4.973912353515625,-0.874786376953125,-0.465057373046875,0.090667724609375
1761914324567968300,4.98396826171875,-0.860198974609375,-0.4838409423828125,0.0784149169921875
1761914324578024400,4.9940244140625,-0.8375244140625,-0.5081939697265625,0.05841064453125
1761914324588080400,5.004080322265625,-0.810699462890625,-0.534759521484375,0.034423828125
1761914324598136300,5.01413623046875,-0.7850341796875,-0.5587158203125,0.016693115234375
1761914324608192300,5.024192138671875,-0.7677154541015625,-0.580108642578125,-0.000274658203125
1761914324618248200,5.034248291015625,-0.7571258544921875,-0.5965118408203125,-0.0159759521484375
1761914324628304100,5.04430419921875,-0.753662109375,-0.608612060546875,-0.0309600830078125
1761914324638360300,5.0543603515625,-0.749542236328125,-0.6161956787109375,-0.0429534912109375
1761914324648416300,5.064416259765625,-0.7520904541015625,-0.6202239990234375,-0.054931640625
1761914324658472200,5.07447216796875,-0.760406494140625,-0.6190338134765625,-0.05926513671875
1761914324668528400,5.0845283203125,-0.77056884765625,-0.6119537353515625,-0.0594482421875
1761914324678583300,5.094583251953125,-0.7789764404296875,-0.599761962890625,-0.0615692138671875
1761914324688639500,5.104639404296875,-0.7822265625,-0.587249755859375,-0.06805419921875
1761914324698695400,5.1146953125,-0.7847900390625,-0.5768280029296875,-0.0799102783203125
1761914324708751000,5.124751220703125,-0.78033447265625,-0.5696563720703125,-0.09002685546875
1761914324718807800,5.134807861328125,-0.773406982421875,-0.5647125244140625,-0.100616455078125
1761914324728864000,5.144864013671875,-0.766143798828125,-0.56414794921875,-0.1099395751953125
1761914324738920000,5.154919921875,-0.7567901611328125,-0.568695068359375,-0.1201629638671875
1761914324748975900,5.164975830078125,-0.7467041015625,-0.5764312744140625,-0.130340576171875
1761914324759032000,5.175031982421875,-0.7402191162109375,-0.584991455078125,-0.1398162841796875
1761914324769088000,5.185087890625,-0.74322509765625,-0.5931854248046875,-0.1497344970703125
1761914324779144000,5.19514404296875,-0.75201416015625,-0.597503662109375,-0.1529541015625
1761914324789200100,5.2052001953125,-0.7683868408203125,-0.597808837890625,-0.1504058837890625
1761914324799256000,5.215256103515625,-0.782318115234375,-0.596160888671875,-0.1432037353515625
1761914324809311700,5.225311767578125,-0.7939605712890625,-0.5962982177734375,-0.1419830322265625
1761914324819367000,5.235366943359375,-0.804290771484375,-0.599609375,-0.1463165283203125
1761914324829422800,5.2454228515625,-0.8105316162109375,-0.6006011962890625,-0.14990234375
1761914324839479000,5.25547900390625,-0.8116455078125,-0.59600830078125,-0.1462249755859375
1761914324849535000,5.265534912109375,-0.816253662109375,-0.592620849609375,-0.1363677978515625
1761914324859591000,5.2755908203125,-0.823455810546875,-0.5921630859375,-0.1171417236328125
1761914324869647000,5.285647216796875,-0.8339996337890625,-0.5977020263671875,-0.10406494140625
1761914324879703000,5.295703125,-0.84210205078125,-0.5996856689453125,-0.0915679931640625
1761914324889759000,5.305759033203125,-0.8503570556640625,-0.595245361328125,-0.0809478759765625
1761914324899815200,5.315815185546875,-0.85504150390625,-0.5872344970703125,-0.0693359375
1761914324909870800,5.325870849609375,-0.854248046875,-0.58111572265625,-0.0640869140625
1761914324919926800,5.3359267578125,-0.852447509765625,-0.5774688720703125,-0.062957763671875
1761914324929983000,5.34598291015625,-0.8497314453125,-0.581298828125,-0.06414794921875
1761914324940039000,5.356038818359375,-0.8412933349609375,-0.58331298828125,-0.0665283203125
1761914324950094800,5.3660947265625,-0.8314666748046875,-0.58306884765625,-0.0712738037109375
1761914324960150000,5.37614990234375,-0.8224029541015625,-0.582763671875,-0.076171875
1761914324970206000,5.3862060546875,-0.811492919921875,-0.5856781005859375,-0.084930419921875
1761914324980262100,5.39626220703125,-0.797149658203125,-0.5922393798828125,-0.0955352783203125
1761914324990318000,5.406318115234375,-0.7913055419921875,-0.5994873046875,-0.10858154296875
1761914325000374000,5.4163740234375,-0.7880859375,-0.60101318359375,-0.115325927734375
1761914325010430200,5.42643017578125,-0.801116943359375,-0.6024322509765625,-0.12493896484375
1761914325020486000,5.43648583984375,-0.820892333984375,-0.6209869384765625,-0.1510772705078125
1761914325030541800,5.446541748046875,-0.8306121826171875,-0.6493682861328125,-0.1881256103515625
1761914325040598000,5.456597900390625,-0.824859619140625,-0.67572021484375,-0.2137298583984375
1761914325050654000,5.466654052734375,-0.80841064453125,-0.6962738037109375,-0.2191009521484375
1761914325060710000,5.4767099609375,-0.7989501953125,-0.7184600830078125,-0.2073822021484375
1761914325070766000,5.48676611328125,-0.8167572021484375,-0.7454376220703125,-0.1937713623046875
1761914325080822000,5.496822021484375,-0.8680419921875,-0.7604217529296875,-0.18994140625
1761914325090878000,5.5068779296875,-0.9263458251953125,-0.741790771484375,-0.1800079345703125
1761914325100934100,5.51693408203125,-0.9737396240234375,-0.6927947998046875,-0.16436767578125
1761914325110989000,5.526989013671875,-1.0050811767578125,-0.61517333984375,-0.1393280029296875
1761914325121045000,5.537044921875,-1.0253448486328125,-0.528839111328125,-0.1058502197265625
1761914325131101000,5.547100830078125,-1.02825927734375,-0.460205078125,-0.0738983154296875
1761914325141156900,5.557156982421875,-1.0143585205078125,-0.431182861328125,-0.057098388671875
1761914325151213000,5.567213134765625,-0.98956298828125,-0.44580078125,-0.0579681396484375
1761914325161269000,5.57726904296875,-0.9570465087890625,-0.485504150390625,-0.07159423828125
1761914325171325000,5.587324951171875,-0.917449951171875,-0.52215576171875,-0.087158203125
1761914325181380900,5.597380859375,-0.87493896484375,-0.5426025390625,-0.1067047119140625
1761914325191437000,5.60743701171875,-0.8341827392578125,-0.5510711669921875,-0.1359100341796875
1761914325201493000,5.617492919921875,-0.79766845703125,-0.549163818359375,-0.1739959716796875
1761914325211549000,5.627548828125,-0.7669219970703125,-0.5434722900390625,-0.2170257568359375
1761914325221605000,5.637605224609375,-0.748016357421875,-0.5363006591796875,-0.2573394775390625
1761914325231661000,5.6476611328125,-0.737548828125,-0.5286102294921875,-0.2898406982421875
1761914325241716000,5.657716064453125,-0.730224609375,-0.5190582275390625,-0.316253662109375
1761914325251772000,5.66777197265625,-0.7294158935546875,-0.5079193115234375,-0.3388671875
1761914325261827800,5.677827880859375,-0.7261810302734375,-0.4986724853515625,-0.3605499267578125
1761914325271884000,5.687884033203125,-0.7490234375,-0.485107421875,-0.3789215087890625
1761914325281940000,5.69793994140625,-0.770538330078125,-0.4560394287109375,-0.388336181640625
1761914325291996000,5.707995849609375,-0.7952117919921875,-0.414337158203125,-0.38916015625
1761914325302052000,5.718052001953125,-0.82177734375,-0.3672637939453125,-0.385040283203125
1761914325312108000,5.72810791015625,-0.848052978515625,-0.32476806640625,-0.3830413818359375
1761914325322164000,5.7381640625,-0.87335205078125,-0.2884521484375,-0.3815765380859375
1761914325332220200,5.74822021484375,-0.8968963623046875,-0.2588348388671875,-0.3801727294921875
1761914325342276000,5.758276123046875,-0.919464111328125,-0.2394256591796875,-0.3810577392578125
1761914325352331800,5.768331787109375,-0.9334869384765625,-0.2252044677734375,-0.3837127685546875
1761914325362388000,5.778387939453125,-0.93572998046875,-0.222686767578125,-0.3929290771484375
1761914325372444000,5.78844384765625,-0.93011474609375,-0.233734130859375,-0.4060516357421875
1761914325382499800,5.798499755859375,-0.919891357421875,-0.2526397705078125,-0.4222564697265625
1761914325392555000,5.808554931640625,-0.9114532470703125,-0.272705078125,-0.439300537109375
1761914325402611000,5.81861083984375,-0.9098052978515625,-0.2872314453125,-0.4487152099609375
1761914325412667100,5.828667236328125,-0.90814208984375,-0.2916259765625,-0.454132080078125
1761914325422723000,5.83872314453125,-0.9043426513671875,-0.288543701171875,-0.450408935546875
1761914325432779000,5.848779052734375,-0.9004974365234375,-0.28076171875,-0.446136474609375
1761914325442835200,5.858835205078125,-0.901031494140625,-0.271087646484375,-0.4422607421875
1761914325452891000,5.868890869140625,-0.9065093994140625,-0.2601318359375,-0.4350433349609375
1761914325462946800,5.87894677734375,-0.91015625,-0.2462921142578125,-0.4223175048828125
1761914325473003000,5.8890029296875,-0.9105987548828125,-0.2321319580078125,-0.401824951171875
1761914325483059000,5.899058837890625,-0.922607421875,-0.223541259765625,-0.3816680908203125
1761914325493115000,5.909114990234375,-0.93609619140625,-0.217437744140625,-0.3639068603515625
1761914325503171000,5.919171142578125,-0.9383087158203125,-0.2106170654296875,-0.347869873046875
1761914325513227000,5.92922705078125,-0.925537109375,-0.2041015625,-0.33441162109375
1761914325523283000,5.939282958984375,-0.9002227783203125,-0.2001953125,-0.3233795166015625
1761914325533338000,5.949338134765625,-0.871734619140625,-0.201171875,-0.31390380859375
1761914325543394000,5.95939404296875,-0.853271484375,-0.2098846435546875,-0.303375244140625
1761914325553450000,5.969449951171875,-0.84661865234375,-0.224609375,-0.2950439453125
1761914325563506000,5.979505859375,-0.8334808349609375,-0.236907958984375,-0.28765869140625
1761914325573561900,5.989561767578125,-0.8157806396484375,-0.247406005859375,-0.280364990234375
1761914325583618000,5.9996181640625,-0.794921875,-0.2544403076171875,-0.2747344970703125
1761914325593674000,6.009674072265625,-0.778289794921875,-0.2631683349609375,-0.274749755859375
1761914325603730000,6.01972998046875,-0.768310546875,-0.2771148681640625,-0.2697601318359375
1761914325613785900,6.029785888671875,-0.7642364501953125,-0.2906494140625,-0.2599945068359375
1761914325623842000,6.039842041015625,-0.759368896484375,-0.3032989501953125,-0.2446136474609375
1761914325633898000,6.04989794921875,-0.7558441162109375,-0.3175048828125,-0.2280120849609375
1761914325643954000,6.059953857421875,-0.7551422119140625,-0.3312530517578125,-0.212738037109375
1761914325654010000,6.070010009765625,-0.748931884765625,-0.34100341796875,-0.1983642578125
1761914325664066000,6.080066162109375,-0.7476959228515625,-0.3554534912109375,-0.186676025390625
1761914325674122000,6.0901220703125,-0.7551422119140625,-0.37225341796875,-0.1768646240234375
1761914325684177000,6.100177001953125,-0.7730255126953125,-0.386474609375,-0.166290283203125
1761914325694232800,6.11023291015625,-0.7977142333984375,-0.400787353515625,-0.1561126708984375
1761914325704289000,6.1202890625,-0.8266143798828125,-0.4178314208984375,-0.147979736328125
1761914325714344400,6.130344482421875,-0.8521881103515625,-0.4356231689453125,-0.1432037353515625
1761914325724400600,6.140400634765625,-0.878143310546875,-0.4604949951171875,-0.14239501953125
1761914325734456600,6.15045654296875,-0.92376708984375,-0.487548828125,-0.1421966552734375
1761914325744512500,6.160512451171875,-0.9949798583984375,-0.502105712890625,-0.1363677978515625
1761914325754568700,6.170568603515625,-1.08087158203125,-0.495391845703125,-0.1211090087890625
1761914325764624600,6.180624755859375,-1.161651611328125,-0.4682464599609375,-0.098297119140625
1761914325774680600,6.1906806640625,-1.2160186767578125,-0.4330291748046875,-0.0739288330078125
1761914325784736500,6.200736572265625,-1.224639892578125,-0.4130096435546875,-0.0569000244140625
1761914325794792700,6.210792724609375,-1.195648193359375,-0.42303466796875,-0.047637939453125
1761914325804848600,6.2208486328125,-1.15789794921875,-0.45928955078125,-0.04693603515625
1761914325814903600,6.230903564453125,-1.1221771240234375,-0.4996185302734375,-0.036468505859375
1761914325824959500,6.24095947265625,-1.091583251953125,-0.5345306396484375,-0.0245819091796875
1761914325835015400,6.251015380859375,-1.086822509765625,-0.562591552734375,-0.0141754150390625
1761914325845071600,6.261071533203125,-1.105865478515625,-0.5751495361328125,0.00250244140625
1761914325855127600,6.27112744140625,-1.1376800537109375,-0.56646728515625,0.0180816650390625
1761914325865183500,6.28118359375,-1.16302490234375,-0.540496826171875,0.027435302734375
1761914325875239700,6.29123974609375,-1.1728973388671875,-0.50140380859375,0.03363037109375
1761914325885295600,6.301295654296875,-1.17279052734375,-0.464080810546875,0.0421600341796875
1761914325895351600,6.3113515625,-1.1661834716796875,-0.4338531494140625,0.0546112060546875
1761914325905407700,6.32140771484375,-1.1520843505859375,-0.41229248046875,0.0719146728515625
1761914325915463400,6.33146337890625,-1.141265869140625,-0.399444580078125,0.0873565673828125
1761914325925519400,6.341519287109375,-1.1377105712890625,-0.394500732421875,0.0962066650390625
1761914325935575600,6.351575439453125,-1.1256561279296875,-0.38531494140625,0.1008453369140625
1761914325945631500,6.361631591796875,-1.0968017578125,-0.37518310546875,0.0957794189453125
1761914325955686700,6.371686767578125,-1.0542144775390625,-0.3685302734375,0.07745361328125
1761914325965742600,6.38174267578125,-1.0007781982421875,-0.365478515625,0.0553131103515625
1761914325975798500,6.391798583984375,-0.948822021484375,-0.365447998046875,0.034515380859375
1761914325985854700,6.401854736328125,-0.9010009765625,-0.369842529296875,0.0186767578125
1761914325995910700,6.41191064453125,-0.8579254150390625,-0.3775482177734375,0.0068511962890625
1761914326005966600,6.421966552734375,-0.8201141357421875,-0.3953704833984375,-0.0047454833984375
1761914326016022800,6.432022705078125,-0.79156494140625,-0.420166015625,-0.0164337158203125
1761914326026078500,6.442078369140625,-0.7750091552734375,-0.4464569091796875,-0.02825927734375
1761914326036134400,6.452134521484375,-0.7584228515625,-0.4647979736328125,-0.036376953125
1761914326046190600,6.462190673828125,-0.7479705810546875,-0.4714813232421875,-0.0419464111328125
1761914326056246500,6.47224658203125,-0.7472991943359375,-0.465484619140625,-0.0428314208984375
1761914326066302500,6.482302490234375,-0.751220703125,-0.4500885009765625,-0.043426513671875
1761914326076358700,6.492358642578125,-0.7487030029296875,-0.43035888671875,-0.045562744140625
1761914326086414600,6.50241455078125,-0.74517822265625,-0.4100799560546875,-0.0487060546875
1761914326096469800,6.5124697265625,-0.741058349609375,-0.3878936767578125,-0.0541839599609375
1761914326106525700,6.522525634765625,-0.73480224609375,-0.3633270263671875,-0.0569305419921875
1761914326116581600,6.53258154296875,-0.72320556640625,-0.3431243896484375,-0.0578765869140625
1761914326126637600,6.542637451171875,-0.7123565673828125,-0.3287506103515625,-0.06396484375
1761914326136693500,6.552693603515625,-0.7040863037109375,-0.322662353515625,-0.0719146728515625
1761914326146749400,6.56274951171875,-0.695281982421875,-0.3218536376953125,-0.0801239013671875
1761914326156805600,6.5728056640625,-0.6902008056640625,-0.3272552490234375,-0.0845947265625
1761914326166861600,6.582861572265625,-0.6843109130859375,-0.3347930908203125,-0.08856201171875
1761914326176917500,6.59291748046875,-0.676544189453125,-0.34210205078125,-0.0958404541015625
1761914326186973700,6.6029736328125,-0.6677703857421875,-0.34967041015625,-0.1045989990234375
1761914326197029600,6.613029541015625,-0.6573944091796875,-0.3555145263671875,-0.115509033203125
1761914326207085600,6.62308544921875,-0.6521148681640625,-0.3604583740234375,-0.1267547607421875
1761914326217141500,6.6331416015625,-0.6551666259765625,-0.3648223876953125,-0.13629150390625
1761914326227197700,6.64319775390625,-0.659759521484375,-0.3700714111328125,-0.141998291015625
1761914326237252400,6.65325244140625,-0.66363525390625,-0.3815765380859375,-0.147613525390625
1761914326247308500,6.66330859375,-0.670196533203125,-0.394500732421875,-0.1516571044921875
1761914326257364500,6.673364501953125,-0.6854095458984375,-0.413177490234375,-0.1544952392578125
1761914326267420400,6.68342041015625,-0.7110443115234375,-0.433929443359375,-0.1515045166015625
1761914326277476600,6.6934765625,-0.7358551025390625,-0.45452880859375,-0.1411590576171875
1761914326287532500,6.703532470703125,-0.7578887939453125,-0.4752197265625,-0.1238861083984375
1761914326297588500,6.71358837890625,-0.7919464111328125,-0.4980316162109375,-0.103424072265625
1761914326307644700,6.723644775390625,-0.8359832763671875,-0.5205078125,-0.0856170654296875
1761914326317700600,6.73370068359375,-0.891571044921875,-0.5399322509765625,-0.074676513671875
1761914326327756500,6.743756591796875,-0.9492340087890625,-0.5497894287109375,-0.063385009765625
1761914326337812700,6.753812744140625,-0.9981536865234375,-0.5552978515625,-0.0522918701171875
1761914326347868700,6.76386865234375,-1.0421142578125,-0.55780029296875,-0.049224853515625
1761914326357924400,6.77392431640625,-1.0775604248046875,-0.563446044921875,-0.05126953125
1761914326367980500,6.78398046875,-1.10638427734375,-0.5715179443359375,-0.059783935546875
1761914326378035500,6.794035400390625,-1.1346282958984375,-0.577972412109375,-0.0733184814453125
1761914326388091600,6.804091552734375,-1.1673431396484375,-0.576385498046875,-0.0896148681640625
1761914326398147600,6.814147705078125,-1.195556640625,-0.5662994384765625,-0.1034698486328125
1761914326408203500,6.82420361328125,-1.2218017578125,-0.5459442138671875,-0.1198577880859375
1761914326418259700,6.834259765625,-1.2459869384765625,-0.5170135498046875,-0.13739013671875
1761914326428315600,6.844315673828125,-1.2569732666015625,-0.483978271484375,-0.155853271484375
1761914326438371600,6.85437158203125,-1.261260986328125,-0.4486846923828125,-0.1743316650390625
1761914326448427800,6.864427734375,-1.26800537109375,-0.41888427734375,-0.194000244140625
1761914326458483500,6.8744833984375,-1.2545166015625,-0.4003753662109375,-0.21185302734375
1761914326468539400,6.884539306640625,-1.2181854248046875,-0.3900146484375,-0.2288970947265625
1761914326478595600,6.894595703125,-1.1782684326171875,-0.3961029052734375,-0.2497711181640625
1761914326488651500,6.904651611328125,-1.141845703125,-0.4244842529296875,-0.2731170654296875
1761914326498707500,6.91470751953125,-1.1142120361328125,-0.4585113525390625,-0.293243408203125
1761914326508762600,6.9247626953125,-1.094085693359375,-0.475494384765625,-0.3004302978515625
1761914326518818600,6.934818603515625,-1.061981201171875,-0.4587860107421875,-0.2980499267578125
1761914326528874800,6.944874755859375,-1.02978515625,-0.4223480224609375,-0.2890472412109375
1761914326538930700,6.9549306640625,-1.0201873779296875,-0.3891448974609375,-0.2769012451171875
1761914326548986600,6.964986572265625,-1.024017333984375,-0.3640289306640625,-0.2613525390625
1761914326559042600,6.97504248046875,-1.0289154052734375,-0.3458099365234375,-0.2437744140625
1761914326569098500,6.985098388671875,-1.030487060546875,-0.33154296875,-0.2320556640625
1761914326579154400,6.995154541015625,-1.0252227783203125,-0.3231353759765625,-0.2263946533203125
1761914326589210600,7.005210693359375,-1.017242431640625,-0.319580078125,-0.2127838134765625
1761914326599266600,7.0152666015625,-1.0010528564453125,-0.3035888671875,-0.1966094970703125
1761914326609322500,7.025322509765625,-0.9770660400390625,-0.2814483642578125,-0.18310546875
1761914326619378700,7.035378662109375,-0.931304931640625,-0.2262725830078125,-0.176849365234375
1761914326629434600,7.0454345703125,-0.900543212890625,-0.1851348876953125,-0.18695068359375
1761914326639490600,7.055490478515625,-0.954193115234375,-0.250152587890625,-0.1978302001953125
1761914326649545700,7.065545654296875,-0.928192138671875,-0.2147369384765625,-0.1994171142578125
1761914326659601400,7.075601318359375,-1.0288543701171875,-0.3714599609375,-0.3057098388671875
1761914326669657300,7.0856572265625,-0.6313629150390625,-0.330657958984375,-0.3248138427734375
1761914326679713500,7.095713623046875,-0.3766937255859375,-0.2236175537109375,-0.2914581298828125
1761914326689769500,7.10576953125,-0.4052276611328125,-0.2433319091796875,-0.2467803955078125
1761914326699825400,7.115825439453125,-0.367218017578125,-0.24566650390625,-0.232513427734375
1761914326709881600,7.125881591796875,-0.327545166015625,-0.2194366455078125,-0.25408935546875
1761914326719937800,7.135937744140625,-0.3975830078125,-0.2277984619140625,-0.272003173828125
1761914326729993700,7.14599365234375,-0.507537841796875,-0.2726287841796875,-0.2678680419921875
1761914326740050000,7.1560498046875,-0.6001739501953125,-0.30596923828125,-0.2475738525390625
1761914326750105600,7.166105712890625,-0.6499481201171875,-0.310577392578125,-0.2328643798828125
1761914326760161500,7.17616162109375,-0.6922149658203125,-0.3042449951171875,-0.2348175048828125
1761914326770217700,7.1862177734375,-0.7530670166015625,-0.2839202880859375,-0.2272491455078125
1761914326780272600,7.196272705078125,-0.91082763671875,-0.2406005859375,-0.190887451171875
1761914326790328800,7.206328857421875,-0.998870849609375,-0.163665771484375,-0.13055419921875
1761914326800384800,7.216384765625,-0.99957275390625,-0.132110595703125,-0.0868377685546875
1761914326810440700,7.226440673828125,-1.0160369873046875,-0.173614501953125,-0.10302734375
1761914326820497000,7.236496826171875,-0.970001220703125,-0.2039947509765625,-0.1375579833984375
1761914326830552800,7.246552734375,-0.9139251708984375,-0.234893798828125,-0.12890625
1761914326840608800,7.25660888671875,-0.9026031494140625,-0.2431488037109375,-0.13818359375
1761914326850664700,7.266664794921875,-0.9073333740234375,-0.2529449462890625,-0.1405792236328125
1761914326860720600,7.276720703125,-0.866607666015625,-0.308502197265625,-0.108001708984375
1761914326870776600,7.286776611328125,-0.863800048828125,-0.3438568115234375,-0.1265106201171875
1761914326880832800,7.296832763671875,-0.9051513671875,-0.33953857421875,-0.139129638671875
1761914326890888700,7.306888671875,-0.9282989501953125,-0.3355865478515625,-0.138336181640625
1761914326900944600,7.316944580078125,-0.93475341796875,-0.33544921875,-0.1516876220703125
1761914326911000800,7.327000732421875,-0.9183349609375,-0.3416900634765625,-0.177520751953125
1761914326921056800,7.337056884765625,-0.903411865234375,-0.3306732177734375,-0.20916748046875
1761914326931112000,7.34711181640625,-0.919097900390625,-0.289459228515625,-0.2509002685546875
1761914326941167900,7.35716796875,-0.95086669921875,-0.25604248046875,-0.2747039794921875
1761914326951223800,7.367223876953125,-0.8631591796875,-0.3232574462890625,-0.2486572265625
1761914326961279700,7.37727978515625,-0.7790985107421875,-0.3592681884765625,-0.217987060546875
1761914326971335700,7.387335693359375,-0.821258544921875,-0.3227691650390625,-0.2400970458984375
1761914326981391600,7.3973916015625,-0.8310089111328125,-0.31951904296875,-0.232666015625
1761914326991447800,7.40744775390625,-0.80731201171875,-0.3180999755859375,-0.208343505859375
1761914327001503700,7.417503662109375,-0.832000732421875,-0.305206298828125,-0.19915771484375
1761914327011559700,7.4275595703125,-0.86871337890625,-0.303436279296875,-0.183685302734375
1761914327021615600,7.43761572265625,-0.89947509765625,-0.2298126220703125,-0.1409759521484375
1761914327031671800,7.447671875,-0.931365966796875,-0.20263671875,-0.1271820068359375
1761914327041727700,7.457727783203125,-0.8857879638671875,-0.191375732421875,-0.088104248046875
1761914327051783700,7.46778369140625,-0.89697265625,-0.158782958984375,-0.0592498779296875
1761914327061838600,7.477838623046875,-1.039947509765625,-0.1332855224609375,-0.056121826171875
1761914327071894500,7.48789453125,-1.10357666015625,-0.1177520751953125,-0.022705078125
1761914327081950700,7.49795068359375,-1.114349365234375,-0.08746337890625,0.0166473388671875
1761914327092006700,7.508006591796875,-1.14508056640625,-0.090179443359375,0.0163421630859375
1761914327102062600,7.5180625,-1.1607666015625,-0.1100921630859375,-0.0143585205078125
1761914327112118800,7.528118896484375,-1.1493682861328125,-0.136962890625,-0.035430908203125
1761914327122174700,7.5381748046875,-1.1373748779296875,-0.1337127685546875,-0.06915283203125
1761914327132230700,7.548230712890625,-1.0871429443359375,-0.105926513671875,-0.0838775634765625
1761914327142286800,7.558286865234375,-1.0175933837890625,-0.0778350830078125,-0.0746917724609375
1761914327152342800,7.5683427734375,-1.0324859619140625,-0.03125,-0.0626220703125
1761914327162398700,7.578398681640625,-1.0218963623046875,-0.0049896240234375,-0.0489044189453125
1761914327172455000,7.588454833984375,-1.015838623046875,0.01397705078125,-0.0408782958984375
1761914327182510600,7.598510498046875,-1.0226593017578125,0.0161285400390625,-0.05291748046875
1761914327192566500,7.60856640625,-1.02191162109375,-0.004974365234375,-0.062713623046875
1761914327202621700,7.61862158203125,-1.0405731201171875,-0.0283203125,-0.058319091796875
1761914327212677600,7.628677734375,-1.0718231201171875,-0.0446624755859375,-0.0491943359375
1761914327222733800,7.63873388671875,-1.0913238525390625,-0.061767578125,-0.044830322265625
1761914327232789800,7.648789794921875,-1.0556182861328125,-0.0823516845703125,-0.0279541015625
1761914327242845700,7.658845703125,-1.060516357421875,-0.1454925537109375,-0.0035858154296875
1761914327252902000,7.66890185546875,-1.145477294921875,-0.2177886962890625,0.0095062255859375
1761914327262957800,7.678957763671875,-1.2190704345703125,-0.25146484375,0.02203369140625
1761914327273013800,7.689013671875,-1.2650299072265625,-0.2692413330078125,0.0358428955078125
1761914327283070000,7.699070068359375,-1.2672882080078125,-0.27899169921875,0.059356689453125
1761914327293125600,7.709125732421875,-1.231414794921875,-0.2948455810546875,0.076324462890625
1761914327303181600,7.719181640625,-1.1819915771484375,-0.29632568359375,0.0888519287109375
1761914327313237800,7.72923779296875,-1.14666748046875,-0.27398681640625,0.0908203125
1761914327323293700,7.739293701171875,-1.109130859375,-0.2512969970703125,0.0823974609375
1761914327333348900,7.749348876953125,-1.0600433349609375,-0.2465667724609375,0.0634765625
1761914327343404800,7.75940478515625,-1.0161285400390625,-0.244842529296875,0.048797607421875
1761914327353460700,7.769460693359375,-0.973388671875,-0.2301025390625,0.0366058349609375
1761914327363517000,7.779516845703125,-0.908599853515625,-0.2022857666015625,0.0290069580078125
1761914327373572900,7.78957275390625,-0.8336639404296875,-0.173309326171875,0.038330078125
1761914327383628800,7.79962890625,-0.8371734619140625,-0.168426513671875,0.0652618408203125
1761914327393684700,7.809684814453125,-0.8994293212890625,-0.1606903076171875,0.092498779296875
1761914327403740700,7.81974072265625,-0.988189697265625,-0.12774658203125,0.128448486328125
1761914327413796600,7.829796630859375,-1.0851593017578125,-0.0869140625,0.1708831787109375
1761914327423852800,7.839852783203125,-1.1430511474609375,-0.04986572265625,0.209747314453125
1761914327433908700,7.84990869140625,-1.13140869140625,-0.0184783935546875,0.22796630859375
1761914327443964700,7.859964599609375,-1.1413726806640625,0.0049896240234375,0.23236083984375
1761914327454020900,7.870020751953125,-1.1323394775390625,0.0252227783203125,0.2398529052734375
1761914327464076800,7.880076904296875,-1.1202239990234375,0.029693603515625,0.2521820068359375
1761914327474131700,7.890131591796875,-1.1086578369140625,0.012939453125,0.2575836181640625
1761914327484188000,7.90018798828125,-1.0917205810546875,-0.004974365234375,0.2531280517578125
1761914327494243600,7.91024365234375,-1.04986572265625,-0.0190887451171875,0.2346343994140625
1761914327504299500,7.920299560546875,-1.0025787353515625,-0.038360595703125,0.1922760009765625
1761914327514355700,7.930355712890625,-0.9585113525390625,-0.0443572998046875,0.1542816162109375
1761914327524411600,7.94041162109375,-0.9146728515625,-0.016021728515625,0.108489990234375
1761914327534467600,7.950467529296875,-0.87066650390625,-0.0242156982421875,0.0879058837890625
1761914327544523800,7.960523681640625,-0.8001251220703125,-0.0467071533203125,0.1054840087890625
1761914327554579700,7.970579833984375,-0.7543792724609375,-0.0738525390625,0.079833984375
1761914327564635600,7.9806357421875,-0.8283233642578125,-0.1183319091796875,0.0525360107421875
1761914327574691800,7.99069189453125,-0.9109954833984375,-0.179443359375,0.0863800048828125
1761914327584747800,8.000747802734375,-0.885650634765625,-0.329681396484375,0.118560791015625
1761914327594801700,8.0108017578125,-0.767303466796875,-0.364959716796875,0.1360626220703125
1761914327604857600,8.020857666015624,-0.751678466796875,-0.2605133056640625,0.1301727294921875
1761914327614912800,8.030912841796875,-0.8294219970703125,-0.24761962890625,0.1468505859375
1761914327624968700,8.04096875,-0.7947998046875,-0.2683258056640625,0.12353515625
1761914327635025000,8.05102490234375,-0.7552337646484375,-0.252105712890625,0.0849609375
1761914327645080800,8.061080810546875,-0.769317626953125,-0.2341766357421875,0.061492919921875
1761914327655136800,8.07113671875,-0.7729034423828125,-0.22027587890625,0.0522918701171875
1761914327665193000,8.08119287109375,-0.767242431640625,-0.1930084228515625,0.0489654541015625
1761914327675248600,8.09124853515625,-0.8441009521484375,-0.1588134765625,0.0647430419921875
1761914327685304600,8.1013046875,-0.9132537841796875,-0.1824493408203125,0.05499267578125
1761914327695360800,8.11136083984375,-0.89801025390625,-0.2762451171875,0.013916015625
1761914327705416700,8.121416748046874,-0.915130615234375,-0.323486328125,0.0010223388671875
1761914327715472600,8.13147265625,-0.8767242431640625,-0.31646728515625,0.01788330078125
1761914327725528800,8.14152880859375,-0.882415771484375,-0.335601806640625,0.008941650390625
1761914327735585000,8.1515849609375,-0.917633056640625,-0.3516082763671875,0.0131683349609375
1761914327745640000,8.161639892578124,-0.953033447265625,-0.3646087646484375,0.0304718017578125
1761914327755696000,8.171696044921875,-0.9892730712890625,-0.3734283447265625,0.0447998046875
1761914327765752000,8.181751953125,-1.0061187744140625,-0.37493896484375,0.047637939453125
1761914327775808000,8.19180810546875,-0.999481201171875,-0.3715972900390625,0.0423126220703125
1761914327785864000,8.201864013671875,-0.981353759765625,-0.3682098388671875,0.03204345703125
1761914327795920000,8.211919921875,-0.9598388671875,-0.37109375,0.0125885009765625
1761914327805975800,8.221975830078126,-0.9396820068359375,-0.3793487548828125,-0.0034027099609375
1761914327816032000,8.232031982421875,-0.92193603515625,-0.3932037353515625,-0.016632080078125
1761914327826088000,8.242087890625,-0.907501220703125,-0.4072723388671875,-0.0247955322265625
1761914327836143900,8.252143798828126,-0.89239501953125,-0.4130096435546875,-0.023162841796875
1761914327846200000,8.262199951171874,-0.8801116943359375,-0.416351318359375,-0.0210113525390625
1761914327856256000,8.272256103515625,-0.8803558349609375,-0.424957275390625,-0.022308349609375
1761914327866312000,8.28231201171875,-0.899505615234375,-0.43292236328125,-0.01947021484375
1761914327876368100,8.2923681640625,-0.93963623046875,-0.4373779296875,-0.0141754150390625
1761914327886422800,8.3024228515625,-0.98876953125,-0.440582275390625,-0.00958251953125
1761914327896479000,8.31247900390625,-1.0153656005859375,-0.449127197265625,-0.005950927734375
1761914327906535000,8.322534912109376,-1.020904541015625,-0.4599761962890625,-0.0056915283203125
1761914327916590800,8.3325908203125,-1.000518798828125,-0.4699249267578125,-0.0148162841796875
1761914327926647000,8.34264697265625,-0.9696197509765625,-0.479400634765625,-0.0284423828125
1761914327936703000,8.352702880859376,-0.948577880859375,-0.486419677734375,-0.047637939453125
1761914327946759000,8.362759033203124,-0.9374237060546875,-0.49365234375,-0.06219482421875
1761914327956815000,8.372815185546875,-0.9319610595703125,-0.4960784912109375,-0.067047119140625
1761914327966871000,8.38287109375,-0.9278411865234375,-0.502227783203125,-0.0716705322265625
1761914327976927000,8.392927001953124,-0.9123687744140625,-0.520904541015625,-0.0815277099609375
1761914327986983200,8.402983154296875,-0.8895111083984375,-0.5429534912109375,-0.09100341796875
1761914327997039000,8.4130390625,-0.869354248046875,-0.5589447021484375,-0.097808837890625
1761914328007095000,8.423094970703126,-0.856903076171875,-0.5664215087890625,-0.10125732421875
1761914328017150000,8.43314990234375,-0.86175537109375,-0.572845458984375,-0.1095733642578125
1761914328027206000,8.443205810546875,-0.878570556640625,-0.576934814453125,-0.1161346435546875
1761914328037262000,8.453261962890625,-0.8920135498046875,-0.5710906982421875,-0.111114501953125
1761914328047318000,8.463318115234374,-0.8972320556640625,-0.5634918212890625,-0.103851318359375
1761914328057374000,8.4733740234375,-0.889556884765625,-0.5631256103515625,-0.1038360595703125
1761914328067430100,8.48343017578125,-0.866790771484375,-0.568115234375,-0.1153717041015625
1761914328077486000,8.493486083984376,-0.8492889404296875,-0.57379150390625,-0.133148193359375
1761914328087542000,8.5035419921875,-0.8359832763671875,-0.57861328125,-0.14752197265625
1761914328097598000,8.513597900390625,-0.808074951171875,-0.58251953125,-0.1529998779296875
1761914328107654100,8.523654052734376,-0.761688232421875,-0.58837890625,-0.1483154296875
1761914328117709800,8.533709716796874,-0.720245361328125,-0.603057861328125,-0.13873291015625
1761914328127766000,8.54376611328125,-0.712188720703125,-0.622406005859375,-0.1306304931640625
1761914328137822000,8.553822021484375,-0.733001708984375,-0.6229248046875,-0.1280364990234375
1761914328147878000,8.5638779296875,-0.765625,-0.599761962890625,-0.12750244140625
1761914328157933000,8.57393310546875,-0.805511474609375,-0.5524749755859375,-0.1241302490234375
1761914328167989000,8.583989013671875,-0.8402862548828125,-0.501068115234375,-0.1243438720703125
1761914328178045000,8.594044921875,-0.8602142333984375,-0.4600830078125,-0.1209716796875
1761914328188101000,8.60410107421875,-0.862548828125,-0.4218902587890625,-0.1141815185546875
1761914328198157000,8.614156982421875,-0.850799560546875,-0.3901214599609375,-0.1128692626953125
1761914328208213000,8.624212890625,-0.839630126953125,-0.366607666015625,-0.1201629638671875
1761914328218269000,8.63426904296875,-0.8387298583984375,-0.3428497314453125,-0.130523681640625
1761914328228324900,8.644324951171875,-0.848724365234375,-0.3198699951171875,-0.1444244384765625
1761914328238380800,8.654380859375,-0.8638153076171875,-0.307403564453125,-0.1607208251953125
1761914328248437000,8.66443701171875,-0.87298583984375,-0.307586669921875,-0.177459716796875
1761914328258493000,8.674492919921875,-0.8679656982421875,-0.3182830810546875,-0.1912689208984375
1761914328268548900,8.684548828125,-0.8584136962890625,-0.337646484375,-0.1961212158203125
1761914328278605000,8.69460498046875,-0.8535003662109375,-0.3621826171875,-0.201202392578125
1761914328288660000,8.704659912109374,-0.8510589599609375,-0.383209228515625,-0.2062530517578125
1761914328298716200,8.714716064453125,-0.8448486328125,-0.3986663818359375,-0.2143707275390625
1761914328308772000,8.724772216796875,-0.83026123046875,-0.410491943359375,-0.225738525390625
1761914328318827800,8.734827880859376,-0.81634521484375,-0.413543701171875,-0.23651123046875
1761914328328884000,8.744884033203125,-0.8066253662109375,-0.4077301025390625,-0.2427978515625
1761914328338940000,8.75493994140625,-0.7958984375,-0.398529052734375,-0.245208740234375
1761914328348995800,8.764995849609376,-0.777862548828125,-0.385772705078125,-0.24407958984375
1761914328359052000,8.775052001953124,-0.7592315673828125,-0.3751373291015625,-0.24407958984375
1761914328369108000,8.78510791015625,-0.747406005859375,-0.364410400390625,-0.2477569580078125
1761914328379164000,8.795163818359375,-0.7454376220703125,-0.36004638671875,-0.2566680908203125
1761914328389220000,8.80522021484375,-0.744354248046875,-0.3529815673828125,-0.2619171142578125
1761914328399276000,8.815276123046875,-0.7443084716796875,-0.3455963134765625,-0.26043701171875
1761914328409332000,8.82533203125,-0.747833251953125,-0.34210205078125,-0.2555999755859375
1761914328419387000,8.835386962890626,-0.76104736328125,-0.3423309326171875,-0.2493743896484375
1761914328429442800,8.84544287109375,-0.7768402099609375,-0.3513031005859375,-0.2432098388671875
1761914328439499000,8.8554990234375,-0.7912445068359375,-0.36370849609375,-0.2374114990234375
1761914328449555000,8.865554931640625,-0.800537109375,-0.37353515625,-0.234375
1761914328459611000,8.87561083984375,-0.8070831298828125,-0.3874053955078125,-0.230560302734375
1761914328469667000,8.8856669921875,-0.8263092041015625,-0.40496826171875,-0.2285614013671875
1761914328479723000,8.895722900390625,-0.859344482421875,-0.4199371337890625,-0.21942138671875
1761914328489779000,8.905779052734376,-0.8864288330078125,-0.4276885986328125,-0.2021331787109375
1761914328499835100,8.915835205078125,-0.8949737548828125,-0.43292236328125,-0.185211181640625
1761914328509891000,8.92589111328125,-0.8898162841796875,-0.435638427734375,-0.1741485595703125
1761914328519947000,8.935947021484376,-0.88232421875,-0.4296722412109375,-0.1642303466796875
1761914328530003000,8.9460029296875,-0.883575439453125,-0.4200592041015625,-0.1519622802734375
1761914328540059100,8.95605908203125,-0.8948822021484375,-0.4087677001953125,-0.1385345458984375
1761914328550113800,8.96611376953125,-0.90594482421875,-0.3965301513671875,-0.121734619140625
1761914328560170000,8.976169921875,-0.9081573486328125,-0.3856201171875,-0.1078948974609375
1761914328570226000,8.986225830078125,-0.89898681640625,-0.3817596435546875,-0.1016693115234375
1761914328580281900,8.99628173828125,-0.8892059326171875,-0.387939453125,-0.09881591796875
1761914328590338000,9.006338134765626,-0.8820037841796875,-0.3996124267578125,-0.095062255859375
1761914328600394000,9.01639404296875,-0.8710784912109375,-0.4134368896484375,-0.0921478271484375
1761914328610450000,9.026449951171875,-0.85162353515625,-0.43707275390625,-0.09368896484375
1761914328620506000,9.036506103515626,-0.8217010498046875,-0.4595489501953125,-0.0947723388671875
1761914328630562000,9.04656201171875,-0.7927398681640625,-0.4795684814453125,-0.0977630615234375
1761914328640618000,9.056617919921875,-0.78076171875,-0.5022125244140625,-0.1114501953125
1761914328650674000,9.066673828125,-0.786865234375,-0.5229644775390625,-0.1189422607421875
1761914328660729900,9.076729736328126,-0.804718017578125,-0.5431365966796875,-0.1158599853515625
1761914328670785800,9.086785888671875,-0.8204803466796875,-0.5561370849609375,-0.1072540283203125
1761914328680841000,9.096841064453125,-0.8334503173828125,-0.5669708251953125,-0.097442626953125
1761914328690897000,9.10689697265625,-0.8465728759765625,-0.5731048583984375,-0.0951690673828125
1761914328700953000,9.116953125,-0.8550262451171875,-0.5729217529296875,-0.09405517578125
1761914328711009000,9.127009033203125,-0.873382568359375,-0.566925048828125,-0.093719482421875
1761914328721068300,9.137068359375,-0.899810791015625,-0.563507080078125,-0.09918212890625
1761914328731124500,9.14712451171875,-0.918792724609375,-0.5635223388671875,-0.1019439697265625
1761914328741180400,9.157180419921875,-0.931549072265625,-0.56292724609375,-0.1009368896484375
1761914328751236400,9.167236328125,-0.939208984375,-0.5649261474609375,-0.095672607421875
1761914328761292500,9.17729248046875,-0.940887451171875,-0.57000732421875,-0.0941925048828125
1761914328771348200,9.18734814453125,-0.9440765380859375,-0.572601318359375,-0.0911712646484375
1761914328781404200,9.197404052734376,-0.9584808349609375,-0.573455810546875,-0.081878662109375
1761914328791460400,9.20746044921875,-0.97930908203125,-0.572174072265625,-0.0716094970703125
1761914328801515300,9.217515380859375,-1.0039215087890625,-0.567657470703125,-0.0619049072265625
1761914328811571500,9.227571533203125,-1.0288848876953125,-0.558685302734375,-0.0529632568359375
1761914328821627400,9.23762744140625,-1.04656982421875,-0.54620361328125,-0.0515594482421875
1761914328831683300,9.247683349609375,-1.05029296875,-0.5289306640625,-0.05609130859375
1761914328841739500,9.257739501953125,-1.0465240478515625,-0.520843505859375,-0.079437255859375
1761914328851795500,9.26779541015625,-1.0342254638671875,-0.517669677734375,-0.1066741943359375
1761914328861851400,9.277851318359374,-1.0178680419921875,-0.507232666015625,-0.1110382080078125
1761914328871907600,9.287907470703125,-1.003936767578125,-0.5063018798828125,-0.1028900146484375
1761914328881963300,9.29796337890625,-0.9856109619140625,-0.522705078125,-0.100189208984375
1761914328892019200,9.308019287109374,-0.9712982177734375,-0.5540771484375,-0.1100311279296875
1761914328902075400,9.318075439453125,-0.9559173583984375,-0.5768280029296875,-0.112213134765625
1761914328912131300,9.32813134765625,-0.9413299560546875,-0.5817413330078125,-0.096160888671875
1761914328922187300,9.338187255859374,-0.9220733642578125,-0.5770721435546875,-0.076995849609375
1761914328932242400,9.348242431640625,-0.9002838134765625,-0.5701904296875,-0.0731964111328125
1761914328942298400,9.35829833984375,-0.893463134765625,-0.563720703125,-0.083160400390625
1761914328952354300,9.368354248046876,-0.8998260498046875,-0.550048828125,-0.0941619873046875
1761914328962410500,9.378410400390624,-0.896728515625,-0.524993896484375,-0.102752685546875
1761914328972466400,9.388466552734375,-0.8829498291015625,-0.494659423828125,-0.10504150390625
1761914328982522400,9.3985224609375,-0.8670654296875,-0.4638519287109375,-0.1011962890625
1761914328992578300,9.408578369140624,-0.85675048828125,-0.430206298828125,-0.092071533203125
1761914329002634200,9.41863427734375,-0.8576202392578125,-0.3909759521484375,-0.0775604248046875
1761914329012690400,9.4286904296875,-0.88336181640625,-0.3505096435546875,-0.0545806884765625
1761914329022746400,9.438746337890626,-0.9138336181640625,-0.3177947998046875,-0.031219482421875
1761914329032802300,9.44880224609375,-0.9359893798828125,-0.2908477783203125,-0.00909423828125
1761914329042858200,9.458858154296875,-0.9534759521484375,-0.281280517578125,0.0023345947265625
1761914329052913400,9.468913330078125,-0.9673919677734375,-0.2854766845703125,0.002685546875
1761914329062969300,9.47896923828125,-0.963409423828125,-0.2965240478515625,-0.00091552734375
1761914329073025500,9.489025634765625,-0.941131591796875,-0.3115997314453125,-0.0070953369140625
1761914329083081200,9.499081298828125,-0.912506103515625,-0.3376312255859375,-0.0205078125
1761914329093137200,9.50913720703125,-0.8857574462890625,-0.36480712890625,-0.0357208251953125
1761914329103193300,9.519193359375,-0.8641357421875,-0.3800506591796875,-0.04510498046875
1761914329113249300,9.529249267578125,-0.8539886474609375,-0.38665771484375,-0.044158935546875
1761914329123305200,9.53930517578125,-0.8524932861328125,-0.3916778564453125,-0.0356903076171875
1761914329133361400,9.549361328125,-0.8487091064453125,-0.3980865478515625,-0.0274658203125
1761914329143417300,9.559417236328125,-0.8537445068359375,-0.4106903076171875,-0.017578125
1761914329153473300,9.569473388671875,-0.8588104248046875,-0.42205810546875,-0.0026702880859375
1761914329163529500,9.579529541015624,-0.857208251953125,-0.434112548828125,0.0126953125
1761914329173585400,9.58958544921875,-0.8470001220703125,-0.446746826171875,0.02435302734375
1761914329183640300,9.599640380859375,-0.847137451171875,-0.4608154296875,0.0355987548828125
1761914329193696300,9.6096962890625,-0.8510284423828125,-0.470611572265625,0.0508270263671875
1761914329203752200,9.619752197265624,-0.85198974609375,-0.4788970947265625,0.05926513671875
1761914329213808400,9.629808349609375,-0.860260009765625,-0.49212646484375,0.0581207275390625
1761914329223864300,9.6398642578125,-0.8708953857421875,-0.499359130859375,0.0526580810546875
1761914329233920300,9.649920166015624,-0.8697967529296875,-0.5020294189453125,0.0459442138671875
1761914329243976400,9.6599765625,-0.857635498046875,-0.5054779052734375,0.0326385498046875
1761914329254032400,9.670032470703125,-0.8470306396484375,-0.51019287109375,0.01678466796875
1761914329264088300,9.68008837890625,-0.8368377685546875,-0.513946533203125,0.0014495849609375
1761914329274144500,9.69014453125,-0.8267669677734375,-0.5125274658203125,-0.006256103515625
1761914329284200400,9.700200439453125,-0.8206787109375,-0.5167083740234375,-0.011383056640625
1761914329294256400,9.71025634765625,-0.8052978515625,-0.525115966796875,-0.0205078125
1761914329304311300,9.720311279296874,-0.77984619140625,-0.530975341796875,-0.029083251953125
1761914329314367200,9.7303671875,-0.7523345947265625,-0.537017822265625,-0.0430908203125
1761914329324423400,9.74042333984375,-0.732421875,-0.5406341552734375,-0.05780029296875
1761914329334479400,9.750479248046876,-0.7249755859375,-0.54144287109375,-0.066070556640625
1761914329344535300,9.760535400390625,-0.728851318359375,-0.5494842529296875,-0.06805419921875
1761914329354591500,9.770591552734375,-0.732635498046875,-0.558685302734375,-0.069793701171875
1761914329364647400,9.7806474609375,-0.726715087890625,-0.5599365234375,-0.0717010498046875
1761914329374703400,9.790703369140624,-0.7152862548828125,-0.558349609375,-0.07464599609375
1761914329384759600,9.800759521484375,-0.7068328857421875,-0.56536865234375,-0.0793914794921875
1761914329394815500,9.8108154296875,-0.70263671875,-0.5787506103515625,-0.0816650390625
1761914329404871400,9.820871337890624,-0.7025604248046875,-0.595947265625,-0.08245849609375
1761914329414926300,9.83092626953125,-0.71038818359375,-0.6100311279296875,-0.081787109375
1761914329424982300,9.840982177734375,-0.7145233154296875,-0.619415283203125,-0.082855224609375
1761914329435038200,9.8510380859375,-0.7109832763671875,-0.6232452392578125,-0.08868408203125
1761914329445094400,9.861094482421874,-0.7066650390625,-0.6269073486328125,-0.095794677734375
1761914329455150300,9.871150390625,-0.713714599609375,-0.632659912109375,-0.1019134521484375
1761914329465206300,9.881206298828126,-0.7289581298828125,-0.6328582763671875,-0.1031646728515625
1761914329475262500,9.891262451171874,-0.7432098388671875,-0.6299591064453125,-0.102203369140625
1761914329485318400,9.901318359375,-0.7396240234375,-0.6235198974609375,-0.102325439453125
1761914329495374300,9.911374267578125,-0.72308349609375,-0.61962890625,-0.1050567626953125
1761914329505430500,9.921430419921874,-0.71307373046875,-0.6233367919921875,-0.1063079833984375
1761914329515486200,9.931486328125,-0.7166290283203125,-0.626007080078125,-0.1012115478515625
1761914329525542100,9.941542236328125,-0.715911865234375,-0.6181793212890625,-0.0901336669921875
1761914329535598300,9.951598388671876,-0.726531982421875,-0.6102142333984375,-0.0831298828125
1761914329545653200,9.9616533203125,-0.7385101318359375,-0.6019287109375,-0.07550048828125
1761914329555709400,9.97170947265625,-0.749359130859375,-0.5941925048828125,-0.0672760009765625
1761914329565765400,9.981765380859375,-0.7562713623046875,-0.592132568359375,-0.062652587890625
1761914329575821300,9.9918212890625,-0.7607421875,-0.5931243896484375,-0.054168701171875
1761914329585877500,10.00187744140625,-0.76934814453125,-0.5949249267578125,-0.042816162109375
1761914329595933400,10.011933349609375,-0.7811431884765625,-0.5951995849609375,-0.0304107666015625
1761914329605989400,10.0219892578125,-0.7961883544921875,-0.59576416015625,-0.020782470703125
1761914329616045600,10.032045654296875,-0.807159423828125,-0.5972442626953125,-0.016326904296875
1761914329626101200,10.042101318359375,-0.8136138916015625,-0.602203369140625,-0.017181396484375
1761914329636157200,10.0521572265625,-0.808258056640625,-0.6123809814453125,-0.0259857177734375
1761914329646213400,10.06221337890625,-0.79571533203125,-0.6205596923828125,-0.0353240966796875
1761914329656269300,10.072269287109375,-0.7782440185546875,-0.6235809326171875,-0.041412353515625
1761914329666324500,10.082324462890625,-0.7722625732421875,-0.6263427734375,-0.0454559326171875
1761914329676380400,10.09238037109375,-0.7820281982421875,-0.63165283203125,-0.04486083984375
1761914329686436400,10.102436279296874,-0.79132080078125,-0.6320037841796875,-0.0433807373046875
1761914329696492500,10.112492431640625,-0.79962158203125,-0.6324920654296875,-0.04718017578125
1761914329706548500,10.122548583984376,-0.8084259033203125,-0.6324920654296875,-0.050079345703125
1761914329716604400,10.1326044921875,-0.8111419677734375,-0.63311767578125,-0.05096435546875
1761914329726656500,10.142656494140626,-0.8050537109375,-0.6382293701171875,-0.0501556396484375
1761914329736712400,10.15271240234375,-0.7928466796875,-0.6468353271484375,-0.05401611328125
1761914329746768400,10.162768310546875,-0.786895751953125,-0.6619720458984375,-0.067718505859375
1761914329756824300,10.17282421875,-0.79595947265625,-0.6904449462890625,-0.0982513427734375
1761914329766880300,10.18288037109375,-0.786651611328125,-0.7015533447265625,-0.1107635498046875
1761914329776935400,10.192935302734375,-0.76019287109375,-0.6985931396484375,-0.0987701416015625
1761914329786991400,10.202991455078125,-0.759307861328125,-0.71923828125,-0.1048126220703125
1761914329797047300,10.21304736328125,-0.778961181640625,-0.753814697265625,-0.1201629638671875
1761914329807103500,10.223103515625,-0.78997802734375,-0.7763519287109375,-0.12139892578125
1761914329817159400,10.233159423828125,-0.7965545654296875,-0.7774810791015625,-0.1005401611328125
1761914329827215400,10.24321533203125,-0.8075103759765625,-0.772552490234375,-0.069427490234375
1761914329837271600,10.253271484375,-0.826171875,-0.766632080078125,-0.0394744873046875
1761914329847327500,10.263327392578125,-0.851837158203125,-0.7492218017578125,-0.01544189453125
1761914329857383200,10.273383056640625,-0.887451171875,-0.71197509765625,0.0032196044921875
1761914329867439400,10.283439453125,-0.93145751953125,-0.6519317626953125,0.0254974365234375
1761914329877495300,10.293495361328125,-0.9635162353515625,-0.5843505859375,0.044342041015625
1761914329887551200,10.30355126953125,-0.9730377197265625,-0.51983642578125,0.0521697998046875
1761914329897606400,10.3136064453125,-0.9595184326171875,-0.4636383056640625,0.046966552734375
1761914329907662300,10.323662353515624,-0.929534912109375,-0.4338836669921875,0.025787353515625
1761914329917718500,10.333718505859375,-0.8992919921875,-0.4275665283203125,0.002044677734375
1761914329927774500,10.3437744140625,-0.8759918212890625,-0.4358978271484375,-0.0090484619140625
1761914329937830400,10.353830322265624,-0.8666839599609375,-0.458221435546875,-0.014678955078125
1761914329947886600,10.363886474609375,-0.8679351806640625,-0.4920654296875,-0.0243988037109375
1761914329957942300,10.3739423828125,-0.8643341064453125,-0.5146942138671875,-0.0368499755859375
1761914329967998200,10.383998291015626,-0.8486328125,-0.526611328125,-0.0511016845703125
1761914329978054400,10.394054443359375,-0.8369903564453125,-0.5338592529296875,-0.06805419921875
1761914329988110300,10.4041103515625,-0.8342437744140625,-0.526397705078125,-0.0843658447265625
1761914329998166300,10.414166259765626,-0.8470611572265625,-0.5140838623046875,-0.1000518798828125
1761914330008221400,10.424221435546874,-0.8612060546875,-0.4998779296875,-0.1135711669921875
1761914330018277400,10.43427734375,-0.8590240478515625,-0.4829254150390625,-0.1206817626953125
1761914330028333300,10.444333251953125,-0.8462677001953125,-0.4744720458984375,-0.1259765625
1761914330038389500,10.454389404296874,-0.82696533203125,-0.4763031005859375,-0.133636474609375
1761914330048445400,10.464445556640625,-0.805419921875,-0.484588623046875,-0.1379547119140625
1761914330058501000,10.474501220703125,-0.7896728515625,-0.497802734375,-0.147125244140625
1761914330068557300,10.484557373046876,-0.7892608642578125,-0.5146484375,-0.160552978515625
1761914330078613200,10.49461328125,-0.80035400390625,-0.5277862548828125,-0.171661376953125
1761914330088669200,10.504669189453125,-0.81280517578125,-0.53857421875,-0.184112548828125
1761914330098725400,10.514725341796876,-0.813018798828125,-0.54656982421875,-0.194854736328125
1761914330108781300,10.52478125,-0.805206298828125,-0.550506591796875,-0.206085205078125
1761914330118837200,10.534837158203125,-0.798065185546875,-0.551116943359375,-0.21759033203125
1761914330128892400,10.544892333984375,-0.7985992431640625,-0.55828857421875,-0.2354278564453125
1761914330138948400,10.5549482421875,-0.796142578125,-0.568359375,-0.2539520263671875
1761914330149004500,10.565004638671875,-0.78802490234375,-0.5789947509765625,-0.2664337158203125
1761914330159060200,10.575060302734375,-0.7716827392578125,-0.58935546875,-0.2720947265625
1761914330169116200,10.5851162109375,-0.7450408935546875,-0.59527587890625,-0.274810791015625
1761914330179172400,10.59517236328125,-0.7207183837890625,-0.5930633544921875,-0.272735595703125
1761914330189228300,10.605228271484375,-0.71514892578125,-0.5909271240234375,-0.26812744140625
1761914330199284200,10.6152841796875,-0.7217559814453125,-0.585784912109375,-0.2626495361328125
1761914330209340400,10.62534033203125,-0.72808837890625,-0.56951904296875,-0.2541046142578125
1761914330219396400,10.635396240234375,-0.740875244140625,-0.55120849609375,-0.2471160888671875
1761914330229452300,10.645452392578125,-0.7544097900390625,-0.537353515625,-0.240692138671875
1761914330239507500,10.655507568359376,-0.7554931640625,-0.52728271484375,-0.2326507568359375
1761914330249563400,10.6655634765625,-0.7642974853515625,-0.5257720947265625,-0.2222137451171875
1761914330259619600,10.67561962890625,-0.7647705078125,-0.5308380126953125,-0.2171783447265625
1761914330269675300,10.68567529296875,-0.7471771240234375,-0.5382843017578125,-0.2217559814453125
1761914330279731200,10.695731201171874,-0.7345123291015625,-0.555511474609375,-0.234222412109375
1761914330289787400,10.705787353515625,-0.7226104736328125,-0.567291259765625,-0.2395172119140625
1761914330299843300,10.71584326171875,-0.7006378173828125,-0.5741119384765625,-0.2389068603515625
1761914330309899300,10.725899169921876,-0.6911163330078125,-0.590362548828125,-0.240264892578125
1761914330319955500,10.73595556640625,-0.6863555908203125,-0.6032257080078125,-0.23858642578125
1761914330330011400,10.746011474609375,-0.67236328125,-0.6048736572265625,-0.2346649169921875
1761914330340067300,10.7560673828125,-0.6506805419921875,-0.5984344482421875,-0.2349395751953125
1761914330350122500,10.76612255859375,-0.6469879150390625,-0.5944976806640625,-0.2348785400390625
1761914330360178400,10.776178466796875,-0.6627349853515625,-0.5944061279296875,-0.223236083984375
1761914330370234400,10.786234375,-0.6862945556640625,-0.6007080078125,-0.20635986328125
1761914330380290300,10.796290283203126,-0.705963134765625,-0.61712646484375,-0.19476318359375
1761914330390346200,10.80634619140625,-0.7220306396484375,-0.6345672607421875,-0.18756103515625
1761914330400402400,10.81640234375,-0.7145538330078125,-0.643096923828125,-0.1954345703125
1761914330410458400,10.826458251953126,-0.72918701171875,-0.641845703125,-0.197662353515625
1761914330420514300,10.836514404296874,-0.7491455078125,-0.6084442138671875,-0.1636199951171875
1761914330430570200,10.8465703125,-0.732513427734375,-0.6163482666015625,-0.158538818359375
1761914330440626400,10.85662646484375,-0.7537994384765625,-0.6474456787109375,-0.1614227294921875
1761914330450682400,10.866682373046874,-0.75347900390625,-0.644683837890625,-0.164581298828125
