time,seconds_elapsed,z,y,x
1761914319693354800,0.109354736328125,-0.1451129913330078,-0.06485174596309662,-0.06396486610174179
1761914319703410700,0.11941064453125,-0.0796688050031662,-0.09036635607481003,-0.07964922487735748
1761914319713465600,0.129465576171875,-0.027712661772966385,-0.13610348105430603,-0.08609834313392639
1761914319723521800,0.139521728515625,0.011436061933636665,-0.18176309764385223,-0.08490128815174103
1761914319733577500,0.149577392578125,0.038099631667137146,-0.2345203161239624,-0.07763485610485077
1761914319743633400,0.15963330078125,0.04864959046244621,-0.28418561816215515,-0.058477044105529785
1761914319753689600,0.169689697265625,0.03983719274401665,-0.31798139214515686,-0.03238951787352562
1761914319763745500,0.17974560546875,0.022073619067668915,-0.34663835167884827,-0.0008939895778894424
1761914319773801500,0.189801513671875,-0.001711339340545237,-0.35159555077552795,0.03265225142240524
1761914319783857700,0.199857666015625,-0.02408345602452755,-0.3504008948802948,0.05683441087603569
1761914319793913600,0.20991357421875,-0.049383219331502914,-0.34885677695274353,0.06580473482608795
1761914319803969500,0.219969482421875,-0.07350190728902817,-0.3388661742210388,0.07223215699195862
1761914319814025700,0.230025634765625,-0.1025141179561615,-0.30145010352134705,0.08309066295623779
1761914319824080600,0.24008056640625,-0.12918692827224731,-0.26672112941741943,0.09111683070659637
1761914319834136800,0.25013671875,-0.15084242820739746,-0.25166839361190796,0.1057751327753067
1761914319844192500,0.260192626953125,-0.16669762134552002,-0.23970231413841248,0.11331689357757568
1761914319854248400,0.27024853515625,-0.18068374693393707,-0.22345969080924988,0.1141858771443367
1761914319864304600,0.2803046875,-0.18738265335559845,-0.2221584916114807,0.08915726840496063
1761914319874360600,0.290360595703125,-0.20043586194515228,-0.2556250989437103,0.042053136974573135
1761914319884416500,0.30041650390625,-0.21732516586780548,-0.32917097210884094,-0.01880945824086666
1761914319894472700,0.31047265625,-0.22696314752101898,-0.4289044737815857,-0.09592235088348389
1761914319904528600,0.320528564453125,-0.23426185548305511,-0.5301804542541504,-0.16553397476673126
1761914319914584600,0.33058447265625,-0.2373921275138855,-0.6236198544502258,-0.22019508481025696
1761914319924640800,0.340640869140625,-0.23893044888973236,-0.6810232400894165,-0.24727578461170197
1761914319934696700,0.35069677734375,-0.23719993233680725,-0.6963931322097778,-0.24663983285427094
1761914319944752600,0.360752685546875,-0.22580690681934357,-0.6480645537376404,-0.2149208039045334
1761914319954808800,0.370808837890625,-0.21119681000709534,-0.5394895672798157,-0.15821118652820587
1761914319964864500,0.380864501953125,-0.1817372590303421,-0.40739279985427856,-0.08513976633548737
1761914319974919700,0.390919677734375,-0.14258240163326263,-0.2841547727584839,-0.004597793333232403
1761914319984975600,0.4009755859375,-0.1018485277891159,-0.17057354748249054,0.08149893581867218
1761914319995031600,0.411031494140625,-0.05638730153441429,-0.04040195792913437,0.17065304517745972
1761914320005087500,0.42108740234375,-0.018541278317570686,0.10316797345876694,0.2555660307407379
1761914320015143700,0.431143798828125,0.0065864454954862595,0.24638532102108002,0.31715482473373413
1761914320025199600,0.44119970703125,0.0098720146343112,0.3549887239933014,0.3395160138607025
1761914320035255600,0.451255615234375,-0.008846279233694077,0.42774468660354614,0.3193865120410919
1761914320045311700,0.461311767578125,-0.0364505872130394,0.4659120738506317,0.2613222002983093
1761914320055367700,0.47136767578125,-0.06882263720035553,0.47235530614852905,0.1829243302345276
1761914320065423600,0.481423583984375,-0.10769413411617279,0.4482020437717438,0.09966500848531723
1761914320075479600,0.4914794921875,-0.15841829776763916,0.38606011867523193,0.02437824383378029
1761914320085535500,0.501535400390625,-0.21497319638729095,0.2783032953739166,-0.04588206857442856
1761914320095591400,0.51159130859375,-0.2708335220813751,0.09776360541582108,-0.13131548464298248
1761914320105647600,0.521647705078125,-0.3204241693019867,-0.11251318454742432,-0.24312128126621246
1761914320115703600,0.53170361328125,-0.3618594706058502,-0.30346691608428955,-0.3727298676967621
1761914320125758700,0.5417587890625,-0.3998022675514221,-0.4238350987434387,-0.5088954567909241
1761914320135814700,0.551814697265625,-0.4234625995159149,-0.4407847821712494,-0.6292620897293091
1761914320145870600,0.56187060546875,-0.41451290249824524,-0.3810906410217285,-0.7282471656799316
1761914320155926800,0.5719267578125,-0.4008016288280487,-0.25880759954452515,-0.808390200138092
1761914320165982700,0.581982666015625,-0.35826027393341064,-0.07250188291072845,-0.855574905872345
1761914320176038400,0.592038330078125,-0.2758418321609497,0.12575021386146545,-0.8710550665855408
1761914320186094600,0.602094482421875,-0.18199767172336578,0.30632802844047546,-0.8539780378341675
1761914320196150500,0.612150634765625,-0.061471257358789444,0.4990657866001129,-0.8160104155540466
1761914320206206500,0.62220654296875,0.08899735659360886,0.6657895445823669,-0.7613701224327087
1761914320216262700,0.6322626953125,0.24880193173885345,0.762017011642456,-0.703894853591919
1761914320226318600,0.642318603515625,0.40659046173095703,0.7991331219673157,-0.6506354808807373
1761914320236374500,0.65237451171875,0.5458849668502808,0.7924126386642456,-0.6111634373664856
1761914320246430700,0.6624306640625,0.6348757743835449,0.7517922520637512,-0.5775054097175598
1761914320256486700,0.672486572265625,0.683063268661499,0.6847453117370605,-0.5449040532112122
1761914320266542600,0.68254248046875,0.6970611214637756,0.5928700566291809,-0.4876173734664917
1761914320276597500,0.692597412109375,0.6880375146865845,0.4761277139186859,-0.4101012945175171
1761914320286653400,0.7026533203125,0.6671389937400818,0.35147392749786377,-0.31011560559272766
1761914320296709600,0.712709716796875,0.6441532373428345,0.21836435794830322,-0.18710125982761383
1761914320306765600,0.722765625,0.6297895908355713,0.07346279919147491,-0.050979919731616974
1761914320316821500,0.732821533203125,0.6300145983695984,-0.08214516937732697,0.08039381355047226
1761914320326877700,0.742877685546875,0.642381489276886,-0.24870435893535614,0.19620734453201294
1761914320336933600,0.75293359375,0.6486369967460632,-0.37880030274391174,0.2904518246650696
1761914320346989600,0.762989501953125,0.6436762809753418,-0.45134082436561584,0.34986332058906555
1761914320357045800,0.773045654296875,0.6365914940834045,-0.48082253336906433,0.381322979927063
1761914320367101700,0.783101806640625,0.6123999357223511,-0.4777393639087677,0.368945837020874
1761914320377157600,0.79315771484375,0.5796310305595398,-0.4490605890750885,0.3253687918186188
1761914320387213800,0.8032138671875,0.5293008089065552,-0.4017743170261383,0.25153177976608276
1761914320397269500,0.81326953125,0.46926888823509216,-0.35930806398391724,0.1525181233882904
1761914320407325400,0.823325439453125,0.3930223882198334,-0.3135533332824707,0.04331611469388008
1761914320417381600,0.833381591796875,0.3129187524318695,-0.27012142539024353,-0.04491307958960533
1761914320427437600,0.8434375,0.24460451304912567,-0.21531732380390167,-0.10078412294387817
1761914320437492700,0.85349267578125,0.18197494745254517,-0.15170054137706757,-0.11027084290981293
1761914320447548700,0.863548583984375,0.1369469314813614,-0.07941141724586487,-0.08182524889707565
1761914320457604600,0.8736044921875,0.09413287788629532,-0.019287893548607826,-0.024128399789333344
1761914320467660500,0.88366064453125,0.06326773762702942,0.026131784543395042,0.057003751397132874
1761914320477716700,0.893716796875,0.03705957159399986,0.048544950783252716,0.1416376829147339
1761914320487772700,0.903772705078125,0.016629625111818314,0.06143059581518173,0.20488260686397552
1761914320497828600,0.91382861328125,0.0008495964575558901,0.05661826208233833,0.24869878590106964
1761914320507884500,0.923884521484375,-0.009108433499932289,0.05933178961277008,0.2739059329032898
1761914320517940500,0.9339404296875,-0.010023761540651321,0.08218090981245041,0.294511079788208
1761914320527996400,0.943996337890625,0.0077309082262218,0.12591907382011414,0.3227749168872833
1761914320538052600,0.954052490234375,0.0321907140314579,0.18322870135307312,0.355072945356369
1761914320548108500,0.964108642578125,0.05926048010587692,0.2528664171695709,0.3912179470062256
1761914320558164500,0.97416455078125,0.08818081021308899,0.3135417401790619,0.420369952917099
1761914320568220700,0.984220703125,0.11970554292201996,0.34867626428604126,0.4471341073513031
1761914320578276600,0.994276611328125,0.14381833374500275,0.34747782349586487,0.4671403169631958
1761914320588331800,1.004331787109375,0.15459845960140228,0.3318226933479309,0.492144376039505
1761914320598387700,1.0143876953125,0.15832529962062836,0.3123355507850647,0.5188255310058594
1761914320608443400,1.024443359375,0.16893865168094635,0.2856146991252899,0.5425066947937012
1761914320618499600,1.03449951171875,0.17108994722366333,0.26331526041030884,0.5500498414039612
1761914320628555500,1.044555419921875,0.16424918174743652,0.2277544140815735,0.5367372632026672
1761914320638611500,1.054611572265625,0.16140972077846527,0.1787748783826828,0.49924659729003906
1761914320648667600,1.064667724609375,0.15818744897842407,0.15967650711536407,0.44961318373680115
1761914320658723600,1.0747236328125,0.14376242458820343,0.2017589807510376,0.4220377504825592
1761914320668779500,1.084779541015625,0.07528506219387054,0.17862600088119507,0.4289247691631317
1761914320678835700,1.094835693359375,0.06840451806783676,0.3448871374130249,0.4923066794872284
1761914320688891600,1.1048916015625,0.062143974006175995,0.4152507781982422,0.5304533839225769
1761914320698947600,1.114947509765625,0.039571020752191544,0.3985394537448883,0.5296288728713989
1761914320709003800,1.125003662109375,0.08367997407913208,0.3895779252052307,0.4932411015033722
1761914320719060000,1.13506005859375,0.19449011981487274,0.5689889192581177,0.5012372136116028
1761914320729116000,1.145115966796875,0.2513660788536072,0.6615521907806396,0.48748141527175903
1761914320739171000,1.155171142578125,0.2994483709335327,0.624994695186615,0.44986051321029663
1761914320749227000,1.16522705078125,0.3391106128692627,0.5734963417053223,0.43055129051208496
1761914320759283000,1.175282958984375,0.37495675683021545,0.549153745174408,0.44996973872184753
1761914320769339000,1.1853388671875,0.39835020899772644,0.5728324055671692,0.49604207277297974
1761914320779394800,1.195394775390625,0.43369463086128235,0.6115699410438538,0.5538777112960815
1761914320789451000,1.205450927734375,0.4768986105918884,0.641209065914154,0.5925976634025574
1761914320799507000,1.2155068359375,0.5282092094421387,0.6578599810600281,0.6188380718231201
1761914320809563000,1.22556298828125,0.5667784214019775,0.6579049825668335,0.6152265071868896
1761914320819618800,1.235618896484375,0.6006075143814087,0.6319087743759155,0.5748199224472046
1761914320829675000,1.245675048828125,0.6283873915672302,0.556936502456665,0.4951631426811218
1761914320839731000,1.25573095703125,0.6537953019142151,0.4159812331199646,0.37527480721473694
1761914320849787000,1.265786865234375,0.6616973876953125,0.2251889556646347,0.21866509318351746
1761914320859843000,1.275843017578125,0.6486348509788513,-0.015123509801924229,0.003401774913072586
1761914320869899000,1.28589892578125,0.6194384694099426,-0.2582293748855591,-0.2621174454689026
1761914320879955000,1.295954833984375,0.5736153721809387,-0.46185097098350525,-0.5525109171867371
1761914320890009900,1.306009765625,0.548348605632782,-0.5059992074966431,-0.8644798994064331
1761914320900065800,1.316065673828125,0.3573402762413025,-0.09386758506298065,-1.2300111055374146
1761914320910122000,1.3261220703125,0.054913148283958435,0.17578676342964172,-1.605934739112854
1761914320920178000,1.336177978515625,-0.23341397941112518,0.02757680043578148,-2.0100491046905518
1761914320930233900,1.34623388671875,-0.402677983045578,0.2475682646036148,-2.222851276397705
1761914320940290000,1.3562900390625,-0.5099520087242126,-0.8124945163726807,-2.3282737731933594
1761914320950346000,1.366345947265625,-0.4646144509315491,-1.1023595333099365,-2.3433339595794678
1761914320960402000,1.37640185546875,-0.21479183435440063,-1.513253092765808,-2.3228914737701416
1761914320970458000,1.3864580078125,0.06381181627511978,-2.1408398151397705,-2.255218505859375
1761914320980514000,1.39651416015625,0.18719367682933807,-2.526310682296753,-2.0951874256134033
1761914320990569700,1.40656982421875,0.25435134768486023,-2.1747636795043945,-1.9673352241516113
1761914321000626000,1.4166259765625,0.42717239260673523,-1.6540684700012207,-1.9086154699325562
1761914321010681900,1.426681884765625,0.6364961266517639,-1.5107723474502563,-1.6699973344802856
1761914321020737800,1.43673779296875,0.7746936678886414,-1.4729583263397217,-1.3261477947235107
1761914321030794000,1.4467939453125,0.7456597685813904,-1.796012282371521,-0.7500636577606201
1761914321040849000,1.456848876953125,0.5846416354179382,-1.7776237726211548,0.06566764414310455
1761914321050905000,1.466905029296875,0.28740158677101135,-1.4126231670379639,0.9935065507888794
1761914321060961000,1.4769609375,0.06828655302524567,-1.0736315250396729,1.7307173013687134
1761914321071017000,1.487016845703125,0.18820787966251373,0.28718602657318115,1.569871187210083
1761914321081073200,1.4970732421875,0.7822853326797485,1.7856056690216064,0.6193168759346008
1761914321091128800,1.50712890625,1.2795298099517822,1.7432997226715088,0.07525308430194855
1761914321101184800,1.517184814453125,1.451159119606018,1.375521183013916,-0.10433611273765564
1761914321111241000,1.527240966796875,1.382877230644226,1.2646055221557617,-0.16385093331336975
1761914321121297000,1.537296875,1.1532416343688965,1.2770699262619019,-0.21533888578414917
1761914321131352800,1.547352783203125,0.9786015152931213,1.1843293905258179,-0.3742990493774414
1761914321141409000,1.557408935546875,0.9149916172027588,0.96787428855896,-0.6266575455665588
1761914321151465000,1.56746484375,0.9194681644439697,0.6062742471694946,-0.8163847327232361
1761914321161521000,1.57752099609375,0.9414587020874023,0.2075905203819275,-0.8236751556396484
1761914321171577000,1.5875771484375,0.9131996035575867,-0.13167701661586761,-0.5976922512054443
1761914321181633000,1.597633056640625,0.8078998327255249,-0.2527341842651367,-0.3424844443798065
1761914321191689000,1.60768896484375,0.6644665598869324,-0.23225291073322296,-0.16421069204807281
1761914321201744000,1.617743896484375,0.557356595993042,-0.09281966090202332,-0.10185543447732925
1761914321211799800,1.6277998046875,0.4930267333984375,0.03369330242276192,-0.11624543368816376
1761914321221856000,1.63785595703125,0.4474318325519562,0.09559369087219238,-0.17375825345516205
1761914321231912000,1.647911865234375,0.4214645326137543,0.09278590232133865,-0.2018703818321228
1761914321241967900,1.6579677734375,0.4097343683242798,0.056924574077129364,-0.1999768763780594
1761914321252023800,1.66802392578125,0.41299518942832947,-0.028783120214939117,-0.11815173178911209
1761914321262080000,1.678080078125,0.41951167583465576,-0.002479877322912216,-0.02042943425476551
1761914321272136000,1.688135986328125,0.3943023085594177,0.1479724496603012,0.04806757718324661
1761914321282192000,1.69819189453125,0.3139134645462036,0.3001880943775177,0.1338847428560257
1761914321292248000,1.708248046875,0.21139860153198242,0.4598502218723297,0.23434364795684814
1761914321302304000,1.718303955078125,0.08878801017999649,0.64621901512146,0.3369688093662262
1761914321312360000,1.72835986328125,-0.027627451345324516,0.7890533804893494,0.45524612069129944
1761914321322415900,1.738415771484375,-0.1646209955215454,0.7640426158905029,0.5835207104682922
1761914321332471800,1.748471923828125,-0.31473201513290405,0.34265244007110596,0.6300418972969055
1761914321342527000,1.75852685546875,-0.5508976578712463,0.04685834050178528,0.6003652811050415
1761914321352583000,1.7685830078125,-0.6522476673126221,-0.3911552131175995,0.6677002906799316
1761914321362638800,1.778638916015625,-0.6583401560783386,-0.4921196401119232,0.5330674052238464
1761914321372695000,1.788695068359375,-0.6508039832115173,-0.5121748447418213,0.3374629020690918
1761914321382751000,1.7987509765625,-0.5842861533164978,-0.5473815202713013,0.154105082154274
1761914321392807000,1.808806884765625,-0.5018603205680847,-0.5448043942451477,-0.026313509792089462
1761914321402863000,1.818863037109375,-0.41756439208984375,-0.5169538855552673,-0.18162719905376434
1761914321412919000,1.8289189453125,-0.3196198046207428,-0.46476683020591736,-0.30267226696014404
1761914321422974700,1.838974609375,-0.2494199424982071,-0.39017966389656067,-0.372049480676651
1761914321433031000,1.849031005859375,-0.22524677217006683,-0.26983118057250977,-0.4091375172138214
1761914321443086800,1.8590869140625,-0.25003841519355774,-0.0896558165550232,-0.41364678740501404
1761914321453142800,1.869142822265625,-0.29485833644866943,0.08445952087640762,-0.37799811363220215
1761914321463199000,1.879198974609375,-0.3094404935836792,0.20767253637313843,-0.2735113799571991
1761914321473255000,1.8892548828125,-0.2870928645133972,0.2730425000190735,-0.10465052723884583
1761914321483310800,1.899310791015625,-0.23773036897182465,0.3059975206851959,0.09904932975769043
1761914321493366000,1.909365966796875,-0.18687909841537476,0.3172416687011719,0.29288122057914734
1761914321503422000,1.919421875,-0.14602753520011902,0.33218225836753845,0.44785135984420776
1761914321513478100,1.92947802734375,-0.10052577406167984,0.35688620805740356,0.528773844242096
1761914321523533800,1.939533935546875,-0.04432801529765129,0.3966658413410187,0.5325222611427307
1761914321533589800,1.94958984375,0.017569320276379585,0.42592230439186096,0.4942489266395569
1761914321543646000,1.95964599609375,0.06752169877290726,0.4209970533847809,0.459652841091156
1761914321553702000,1.969701904296875,0.10245180130004883,0.3569403290748596,0.4439549148082733
1761914321563757800,1.9797578125,0.12541569769382477,0.2665414810180664,0.42613598704338074
1761914321573814000,1.98981396484375,0.15194380283355713,0.18500959873199463,0.37582632899284363
1761914321583870000,1.999869873046875,0.19448114931583405,0.18425032496452332,0.28189849853515625
1761914321593926000,2.00992578125,0.241498664021492,0.2538014054298401,0.1442924290895462
1761914321603982000,2.019982177734375,0.2766435742378235,0.35860079526901245,-0.012070017866790295
1761914321614038000,2.0300380859375,0.28116488456726074,0.4752880334854126,-0.1386374682188034
1761914321624094000,2.040093994140625,0.2549021244049072,0.561038076877594,-0.202532559633255
1761914321634148900,2.05014892578125,0.2094847708940506,0.6279987096786499,-0.19976428151130676
1761914321644204800,2.060204833984375,0.14860863983631134,0.6640715003013611,-0.15792815387248993
1761914321654261000,2.070260986328125,0.0776071771979332,0.686477780342102,-0.10458766669034958
1761914321664317000,2.08031689453125,0.01612117886543274,0.6826159358024597,-0.05067943036556244
1761914321674372900,2.090372802734375,-0.03006298840045929,0.6578181385993958,-0.0004123235121369362
1761914321684429000,2.100428955078125,-0.05822724848985672,0.5917121171951294,0.052751559764146805
1761914321694485000,2.110485107421875,-0.08317404985427856,0.4881468117237091,0.1082402840256691
1761914321704541000,2.120541015625,-0.1024894192814827,0.3788338899612427,0.1452726125717163
1761914321714596900,2.130596923828125,-0.10725906491279602,0.28682753443717957,0.14670386910438538
1761914321724653000,2.140653076171875,-0.09380611032247543,0.2421463578939438,0.09627506136894226
1761914321734709000,2.150708984375,-0.05340481922030449,0.23153156042099,0.004608834162354469
1761914321744765000,2.160764892578125,0.006863047368824482,0.23496490716934204,-0.0975247249007225
1761914321754821000,2.170821044921875,0.08141188323497772,0.2383313775062561,-0.19316858053207397
1761914321764877000,2.180876953125,0.15887711942195892,0.23116880655288696,-0.27088627219200134
1761914321774933000,2.19093310546875,0.22189326584339142,0.23637954890727997,-0.3274064362049103
1761914321784988200,2.20098828125,0.27049702405929565,0.24587345123291016,-0.37331533432006836
1761914321795043800,2.2110439453125,0.2960171699523926,0.24503935873508453,-0.4047638475894928
1761914321805100000,2.22110009765625,0.30618858337402344,0.23203247785568237,-0.4384448528289795
1761914321815156000,2.231156005859375,0.2893672585487366,0.20101624727249146,-0.4627126455307007
1761914321825212000,2.2412119140625,0.2523171007633209,0.16425210237503052,-0.47364571690559387
1761914321835268000,2.25126806640625,0.1971907615661621,0.11626165360212326,-0.4623151123523712
1761914321845324000,2.261323974609375,0.13758574426174164,0.06517183780670166,-0.42613446712493896
1761914321855380000,2.2713798828125,0.08743760734796524,0.012368299067020416,-0.3680282235145569
1761914321865436200,2.281436279296875,0.05245140194892883,-0.02413085661828518,-0.31072577834129333
1761914321875492000,2.2914921875,0.033676210790872574,-0.07592055946588516,-0.23856407403945923
1761914321885548000,2.301548095703125,0.01467322651296854,-0.13251672685146332,-0.1621212363243103
1761914321895604200,2.311604248046875,-0.003289354732260108,-0.18944871425628662,-0.07040490210056305
1761914321905660200,2.32166015625,-0.011007195338606834,-0.2104663848876953,0.025911245495080948
1761914321915716000,2.331716064453125,-0.01774851605296135,-0.20742028951644897,0.13391372561454773
1761914321925771000,2.34177099609375,-0.02159971371293068,-0.19706697762012482,0.25918322801589966
1761914321935827000,2.351826904296875,-0.0337541364133358,-0.19849468767642975,0.3937625288963318
1761914321945883100,2.361883056640625,-0.050158143043518066,-0.21147014200687408,0.5153933167457581
1761914321955939000,2.37193896484375,-0.062205567955970764,-0.21173912286758423,0.6144300699234009
1761914321965995000,2.3819951171875,-0.06292834877967834,-0.19127298891544342,0.6853154301643372
1761914321976051200,2.39205126953125,-0.06298801302909851,-0.13501955568790436,0.7202839255332947
1761914321986107100,2.402107177734375,-0.05535246431827545,-0.06728233397006989,0.7237756252288818
1761914321996163000,2.4121630859375,-0.04717578366398811,-0.017345640808343887,0.7176162004470825
1761914322006219300,2.42221923828125,-0.06440962851047516,0.0005087232566438615,0.69881671667099
1761914322016275200,2.432275146484375,-0.10345440357923508,-0.00029316474683582783,0.6636867523193359
1761914322026331000,2.442330810546875,-0.1614745706319809,-0.034626901149749756,0.6268078088760376
1761914322036387000,2.452386962890625,-0.23652777075767517,-0.08398512750864029,0.5982804298400879
1761914322046443000,2.462443115234375,-0.3111170530319214,-0.10817462205886841,0.5835097432136536
1761914322056499000,2.4724990234375,-0.3796238303184509,-0.10225550085306168,0.5777112245559692
1761914322066555100,2.48255517578125,-0.450713187456131,-0.11035177856683731,0.592003345489502
1761914322076610000,2.492610107421875,-0.5307149291038513,-0.1341462880373001,0.6207276582717896
1761914322086666000,2.502666015625,-0.606287956237793,-0.15009437501430511,0.6332666277885437
1761914322096722200,2.51272216796875,-0.6429064869880676,-0.11480431258678436,0.6206325888633728
1761914322106778000,2.522778076171875,-0.6316554546356201,-0.013599665835499763,0.5818406939506531
1761914322116834000,2.532833984375,-0.588581919670105,0.13198284804821014,0.5480355024337769
1761914322126890200,2.54289013671875,-0.5264740586280823,0.27294662594795227,0.5488970279693604
1761914322136946000,2.55294580078125,-0.471640408039093,0.3920232057571411,0.5894902348518372
1761914322147001900,2.563001953125,-0.40756261348724365,0.5091540217399597,0.6413430571556091
1761914322157058000,2.57305810546875,-0.3312959671020508,0.617073118686676,0.6997733116149902
1761914322167114000,2.583114013671875,-0.25437936186790466,0.6972358822822571,0.7495967745780945
1761914322177170000,2.593169921875,-0.17596577107906342,0.727054238319397,0.7837932705879211
1761914322187226000,2.60322607421875,-0.10290196537971497,0.7105966806411743,0.8054338097572327
1761914322197282000,2.613281982421875,-0.04299125075340271,0.6608970165252686,0.8168742656707764
1761914322207338000,2.623337890625,0.015322121791541576,0.5962740778923035,0.8094573616981506
1761914322217393200,2.63339306640625,0.0594436377286911,0.513837993144989,0.7781150341033936
1761914322227449000,2.643448974609375,0.09340506792068481,0.40577495098114014,0.7178447842597961
1761914322237505000,2.653505126953125,0.10986454784870148,0.25097233057022095,0.648291289806366
1761914322247561000,2.66356103515625,0.11062940955162048,0.07948367297649384,0.580969512462616
1761914322257617000,2.673616943359375,0.09489288926124573,-0.08951174467802048,0.5235161781311035
1761914322267673000,2.683673095703125,0.07467203587293625,-0.22336462140083313,0.4635995626449585
1761914322277729000,2.69372900390625,0.06118834763765335,-0.2896557152271271,0.3801545202732086
1761914322287785000,2.703784912109375,0.06113455072045326,-0.2956150770187378,0.2722181975841522
1761914322297841200,2.713841064453125,0.0788877084851265,-0.27351537346839905,0.1621251106262207
1761914322307897000,2.72389697265625,0.10849753767251968,-0.23909136652946472,0.06367390602827072
1761914322317953000,2.733953125,0.1519426554441452,-0.19021941721439362,-0.02194982022047043
1761914322328009200,2.74400927734375,0.18716961145401,-0.14592625200748444,-0.08757570385932922
1761914322338065200,2.754065185546875,0.21469511091709137,-0.10409841686487198,-0.14186863601207733
1761914322348121000,2.76412109375,0.24276535212993622,-0.061405014246702194,-0.20871052145957947
1761914322358176000,2.774176025390625,0.2735882103443146,-0.009008625522255898,-0.2895371615886688
1761914322368232000,2.78423193359375,0.3132799565792084,0.05711739510297775,-0.3909655213356018
1761914322378288000,2.7942880859375,0.3526442348957062,0.10692702233791351,-0.4949459433555603
1761914322388344000,2.804343994140625,0.37638819217681885,0.12761712074279785,-0.5909265279769897
1761914322398400000,2.81439990234375,0.3743179440498352,0.11765478551387787,-0.6848034262657166
1761914322408456200,2.824456298828125,0.33710983395576477,0.08805668354034424,-0.7841638326644897
1761914322418512100,2.83451220703125,0.27439776062965393,0.04299411177635193,-0.8744262456893921
1761914322428568000,2.844568115234375,0.1974925696849823,-0.015764543786644936,-0.9343364238739014
1761914322438624300,2.854624267578125,0.11429836601018906,-0.09164973348379135,-0.9311462044715881
1761914322448680200,2.86468017578125,0.02717171609401703,-0.1619742214679718,-0.864287793636322
1761914322458736000,2.874736083984375,-0.05190731957554817,-0.21200887858867645,-0.7598181366920471
1761914322468792000,2.8847919921875,-0.1172676831483841,-0.2412264198064804,-0.6453242897987366
1761914322478848000,2.894847900390625,-0.1646338403224945,-0.2409617155790329,-0.5429415106773376
1761914322488904000,2.904904052734375,-0.19185134768486023,-0.2123367339372635,-0.46528130769729614
1761914322498959000,2.914958984375,-0.20759686827659607,-0.1703605055809021,-0.4014606177806854
1761914322509015000,2.92501513671875,-0.20174749195575714,-0.12633605301380157,-0.3357852101325989
1761914322519071000,2.935071044921875,-0.1883375197649002,-0.07376817613840103,-0.2743644416332245
1761914322529127200,2.945127197265625,-0.168646901845932,0.0103530902415514,-0.22148367762565613
1761914322539183000,2.95518310546875,-0.14767399430274963,0.09320031106472015,-0.1786973625421524
1761914322549239000,2.965239013671875,-0.13621973991394043,0.16078200936317444,-0.1452440768480301
1761914322559295200,2.975295166015625,-0.1367485076189041,0.21898537874221802,-0.10609109699726105
1761914322569351000,2.985350830078125,-0.13843029737472534,0.2811430096626282,-0.04917215555906296
1761914322579407000,2.995406982421875,-0.14338146150112152,0.3326307237148285,0.0345749668776989
1761914322589463000,3.005463134765625,-0.14468827843666077,0.3788277804851532,0.13182589411735535
1761914322599519000,3.01551904296875,-0.1411074846982956,0.4185123145580292,0.22424620389938354
1761914322609575000,3.025574951171875,-0.12312155961990356,0.4514843821525574,0.30299296975135803
1761914322619631000,3.035631103515625,-0.08180251717567444,0.46176791191101074,0.3446158170700073
1761914322629687000,3.04568701171875,-0.025888917967677116,0.46011754870414734,0.3479974865913391
1761914322639743000,3.055742919921875,0.038139138370752335,0.4353190064430237,0.3120894730091095
1761914322649798100,3.065798095703125,0.10128828138113022,0.3847852647304535,0.2528594434261322
1761914322659854000,3.07585400390625,0.14855407178401947,0.33203309774398804,0.1814860850572586
1761914322669910000,3.085909912109375,0.17971518635749817,0.2557505667209625,0.120233915746212
1761914322679966000,3.095966064453125,0.19680093228816986,0.162738636136055,0.07372945547103882
1761914322690022000,3.10602197265625,0.20540986955165863,0.07702799141407013,0.05033811181783676
1761914322700078000,3.116078125,0.21712781488895416,0.012436716817319393,0.04826229810714722
1761914322710134000,3.126134033203125,0.2278539538383484,-0.05248821899294853,0.05652954801917076
1761914322720189700,3.136189697265625,0.23090341687202454,-0.11445541679859161,0.05966620147228241
1761914322730245600,3.14624560546875,0.23372343182563782,-0.17023532092571259,0.048442576080560684
1761914322740301600,3.156301513671875,0.24798737466335297,-0.19808991253376007,0.009134517051279545
1761914322750357500,3.166357421875,0.2814321517944336,-0.21359750628471375,-0.037883859127759933
1761914322760413700,3.17641357421875,0.3195211887359619,-0.20669135451316833,-0.07969507575035095
1761914322770469600,3.1864697265625,0.3471094071865082,-0.1923225224018097,-0.09212058782577515
1761914322780525600,3.196525634765625,0.3525395691394806,-0.17532756924629211,-0.07797136157751083
1761914322790580500,3.20658056640625,0.330387145280838,-0.15589287877082825,-0.03811236470937729
1761914322800636400,3.216636474609375,0.2785833477973938,-0.15503934025764465,0.04248889163136482
1761914322810692600,3.226692626953125,0.20800504088401794,-0.16706404089927673,0.1391478031873703
1761914322820748500,3.23674853515625,0.14489194750785828,-0.16709095239639282,0.2193666249513626
1761914322830804500,3.246804443359375,0.08757513761520386,-0.1788376271724701,0.2794288992881775
1761914322840860700,3.256860595703125,0.019697992131114006,-0.2299913465976715,0.3130891025066376
1761914322850916600,3.26691650390625,-0.0573110394179821,-0.2810833156108856,0.32004475593566895
1761914322860972500,3.27697265625,-0.09652520716190338,-0.269482284784317,0.2627629041671753
1761914322871028700,3.28702880859375,-0.11375612765550613,-0.2044478952884674,0.15149177610874176
1761914322881084700,3.297084716796875,-0.1121969074010849,-0.14442108571529388,-0.004974685609340668
1761914322891140600,3.307140625,-0.10393524914979935,-0.1183343455195427,-0.17211493849754333
1761914322901196800,3.31719677734375,-0.08465388417243958,-0.10131966322660446,-0.32785919308662415
1761914322911252500,3.32725244140625,-0.04222067818045616,-0.06273285299539566,-0.4634050130844116
1761914322921308400,3.337308349609375,0.025594588369131088,0.04184867814183235,-0.5568814277648926
1761914322931364600,3.347364501953125,0.09624025970697403,0.16543425619602203,-0.581511378288269
1761914322941419500,3.35741943359375,0.14202745258808136,0.24672088027000427,-0.4996226131916046
1761914322951475700,3.367475830078125,0.1404457986354828,0.27140119671821594,-0.33884677290916443
1761914322961531600,3.37753173828125,0.09623322635889053,0.22122564911842346,-0.1296081244945526
1761914322971587600,3.387587646484375,0.011047489009797573,0.09732181578874588,0.10887635499238968
1761914322981643800,3.397643798828125,-0.09928359091281891,-0.06434755027294159,0.33109375834465027
1761914322991699700,3.40769970703125,-0.20808784663677216,-0.20802775025367737,0.48775845766067505
1761914323001755600,3.417755615234375,-0.298962265253067,-0.30619505047798157,0.5555934906005859
1761914323011811600,3.4278115234375,-0.3579789996147156,-0.37619438767433167,0.5502653121948242
1761914323021867500,3.437867431640625,-0.37834247946739197,-0.41306158900260925,0.4992038309574127
1761914323031923500,3.44792333984375,-0.3772053122520447,-0.4266844391822815,0.4202999472618103
1761914323041979600,3.457979736328125,-0.3316933214664459,-0.4252106547355652,0.32346877455711365
1761914323052035600,3.46803564453125,-0.2598132789134979,-0.39085453748703003,0.19955803453922272
1761914323062091500,3.478091552734375,-0.17284466326236725,-0.3365950286388397,0.06725190579891205
1761914323072147700,3.488147705078125,-0.08390652388334274,-0.2720234990119934,-0.0626315325498581
1761914323082202600,3.49820263671875,0.010005493648350239,-0.2034769207239151,-0.17613428831100464
1761914323092258800,3.5082587890625,0.08913146704435349,-0.11138825863599777,-0.2739314138889313
1761914323102314800,3.518314697265625,0.13908758759498596,-0.0035081342794001102,-0.3525857627391815
1761914323112370400,3.528370361328125,0.16635489463806152,0.11064640432596207,-0.4205927550792694
1761914323122426600,3.538426513671875,0.17359791696071625,0.2185312807559967,-0.46578824520111084
1761914323132482600,3.548482666015625,0.15987038612365723,0.28647494316101074,-0.47971099615097046
1761914323142538500,3.55853857421875,0.11013807356357574,0.29529958963394165,-0.453230619430542
1761914323152594700,3.5685947265625,0.030634457245469093,0.24379830062389374,-0.37648069858551025
1761914323162650600,3.578650634765625,-0.07172601670026779,0.13884872198104858,-0.2700285017490387
1761914323172706600,3.58870654296875,-0.1773776113986969,0.009311511181294918,-0.15919306874275208
1761914323182762500,3.598762451171875,-0.26913511753082275,-0.1164935752749443,-0.06036854907870293
1761914323192818700,3.608818603515625,-0.31773248314857483,-0.19490209221839905,0.011811371892690659
1761914323202874600,3.61887451171875,-0.3242723047733307,-0.23285208642482758,0.056007228791713715
1761914323212930600,3.6289306640625,-0.2880636751651764,-0.232169508934021,0.06885618716478348
1761914323222985500,3.6389853515625,-0.22606202960014343,-0.21168987452983856,0.05909331142902374
1761914323233041400,3.64904150390625,-0.14447475969791412,-0.16625209152698517,0.04741934686899185
1761914323243097600,3.65909765625,-0.05841181054711342,-0.09611184895038605,0.04048994928598404
1761914323253153500,3.669153564453125,0.021280886605381966,-0.021850936114788055,0.05565372109413147
1761914323263209500,3.67920947265625,0.08958254009485245,0.04837315157055855,0.0867452323436737
1761914323273265700,3.689265625,0.13077951967716217,0.10208911448717117,0.11076241731643677
1761914323283321600,3.699321533203125,0.14170128107070923,0.11330956220626831,0.12132654339075089
1761914323293377500,3.70937744140625,0.14215855300426483,0.1001194640994072,0.10789676010608673
1761914323303433700,3.719433837890625,0.12982003390789032,0.07081510871648788,0.08292824029922485
1761914323313489700,3.72948974609375,0.11927338689565659,0.020272839814424515,0.05376396328210831
1761914323323545600,3.739545654296875,0.10503917932510376,-0.031264156103134155,0.0298293549567461
1761914323333601800,3.749601806640625,0.0756344199180603,-0.08610849827528,-0.003147503361105919
1761914323343657500,3.759657470703125,0.03290119767189026,-0.12327020615339279,-0.03173781558871269
1761914323353713400,3.76971337890625,-0.021739674732089043,-0.16122344136238098,-0.061244577169418335
1761914323363768600,3.7797685546875,-0.07642268389463425,-0.19817961752414703,-0.08445292711257935
1761914323373824500,3.789824462890625,-0.12690289318561554,-0.2527262270450592,-0.09493273496627808
1761914323383880700,3.799880615234375,-0.1675666719675064,-0.30969953536987305,-0.09169398248195648
1761914323393936600,3.8099365234375,-0.19414129853248596,-0.3455510139465332,-0.08011801540851593
1761914323403992600,3.81999267578125,-0.2103080302476883,-0.3551782965660095,-0.06156940758228302
1761914323414048800,3.830048828125,-0.22710645198822021,-0.3509278893470764,-0.04404633864760399
1761914323424104700,3.840104736328125,-0.2567319869995117,-0.3451286256313324,-0.02230212278664112
1761914323434160600,3.85016064453125,-0.284990519285202,-0.35134631395339966,-0.00027431920170783997
1761914323444216600,3.860216552734375,-0.314554363489151,-0.34205612540245056,0.01305345818400383
1761914323454272500,3.8702724609375,-0.3337714672088623,-0.30020132660865784,0.004594191908836365
1761914323464328400,3.880328369140625,-0.3474676012992859,-0.23044994473457336,-0.010989414528012276
1761914323474384600,3.890384521484375,-0.36215707659721375,-0.14447271823883057,-0.017602842301130295
1761914323484440600,3.900440673828125,-0.3660372793674469,-0.062119536101818085,-0.0065136258490383625
1761914323494496500,3.91049658203125,-0.3502260744571686,0.017859986051917076,0.015619640238583088
1761914323504552700,3.920552734375,-0.3356805443763733,0.07946531474590302,0.04699759557843208
1761914323514607600,3.930607666015625,-0.32635948061943054,0.10058950632810593,0.09435978531837463
1761914323524663800,3.940663818359375,-0.31621575355529785,0.07852493971586227,0.1589570790529251
1761914323534719700,3.9507197265625,-0.3171462416648865,0.003499426646158099,0.24019894003868103
1761914323544775700,3.960775634765625,-0.35180437564849854,-0.13422204554080963,0.3312942087650299
1761914323554831600,3.97083154296875,-0.4117870330810547,-0.26967868208885193,0.3890640139579773
1761914323564887600,3.980887451171875,-0.45719367265701294,-0.3204661011695862,0.3867289125919342
1761914323574943500,3.990943603515625,-0.4743899405002594,-0.31405267119407654,0.3468898832798004
1761914323584998700,4.00099853515625,-0.45064449310302734,-0.30360668897628784,0.30270862579345703
1761914323595054600,4.0110546875,-0.3777351379394531,-0.27126261591911316,0.2634352445602417
1761914323605110500,4.021110595703125,-0.2685573995113373,-0.22071316838264465,0.2288258969783783
1761914323615166700,4.031166748046875,-0.14328178763389587,-0.17364074289798737,0.19489189982414246
1761914323625222700,4.04122265625,-0.024541983380913734,-0.15822076797485352,0.15805815160274506
1761914323635278600,4.051278564453125,0.07110012322664261,-0.17390865087509155,0.12516199052333832
1761914323645334800,4.061334716796875,0.125337153673172,-0.2186633199453354,0.08809682726860046
1761914323655389400,4.071389404296875,0.12886664271354675,-0.3011334240436554,0.057362087070941925
1761914323665445600,4.081445556640625,0.07790957391262054,-0.42793190479278564,0.06495755165815353
1761914323675501600,4.09150146484375,-0.014675493352115154,-0.5776523947715759,0.11287261545658112
1761914323685557500,4.1015576171875,-0.13640017807483673,-0.7367922067642212,0.1830538511276245
1761914323695613700,4.11161376953125,-0.25048279762268066,-0.8583061099052429,0.24934393167495728
1761914323705669600,4.121669677734375,-0.3291669487953186,-0.9192632436752319,0.28630247712135315
1761914323715726300,4.131726318359375,-0.36434146761894226,-0.9209596514701843,0.2992353141307831
1761914323725782300,4.1417822265625,-0.3623150587081909,-0.8913490772247314,0.30398568511009216
1761914323735838500,4.15183837890625,-0.34387266635894775,-0.8268364071846008,0.2951144278049469
1761914323745894400,4.161894287109375,-0.30941879749298096,-0.7337775826454163,0.28424572944641113
1761914323755950300,4.171950439453125,-0.2819059491157532,-0.6288567781448364,0.2779289782047272
1761914323766006300,4.18200634765625,-0.2732956111431122,-0.5368240475654602,0.2694609463214874
1761914323776062200,4.192062255859375,-0.2862287163734436,-0.4718247950077057,0.23823218047618866
1761914323786118100,4.2021181640625,-0.31106483936309814,-0.4290163218975067,0.18269331753253937
1761914323796174300,4.21217431640625,-0.35160958766937256,-0.3951840400695801,0.10434231162071228
1761914323806229200,4.222229248046875,-0.39162078499794006,-0.35825875401496887,0.013230044394731522
1761914323816285400,4.232285400390625,-0.42855963110923767,-0.3319821357727051,-0.07394880056381226
1761914323826341400,4.24234130859375,-0.46907898783683777,-0.3265277147293091,-0.15738816559314728
1761914323836397300,4.252397216796875,-0.5163865685462952,-0.3557250201702118,-0.24270066618919373
1761914323846453500,4.26245361328125,-0.573072075843811,-0.40542444586753845,-0.33874714374542236
1761914323856509200,4.27250927734375,-0.6308469176292419,-0.4842766225337982,-0.44120800495147705
1761914323866565000,4.282565185546875,-0.6934430599212646,-0.5796175003051758,-0.5476821660995483
1761914323876621300,4.292621337890625,-0.7603296637535095,-0.6728257536888123,-0.6455040574073792
1761914323886677200,4.30267724609375,-0.8358683586120605,-0.7409430146217346,-0.7199834585189819
1761914323896733200,4.312733154296875,-0.8961474299430847,-0.7684406638145447,-0.7638766169548035
1761914323906789400,4.322789306640625,-0.9429821372032166,-0.7527695894241333,-0.7636411786079407
1761914323916845300,4.33284521484375,-0.9720233678817749,-0.7388364672660828,-0.7189879417419434
1761914323926901200,4.3429013671875,-0.9765441417694092,-0.718565821647644,-0.6314107179641724
1761914323936957400,4.35295751953125,-0.95675128698349,-0.6904937028884888,-0.5330746173858643
1761914323947012400,4.363012451171875,-0.9168673753738403,-0.6465051770210266,-0.43781495094299316
1761914323957068300,4.373068359375,-0.8644140362739563,-0.5748991966247559,-0.3475511074066162
1761914323967124200,4.383124267578125,-0.8182735443115234,-0.5041989088058472,-0.2679075002670288
1761914323977180200,4.39318017578125,-0.771831750869751,-0.4378100335597992,-0.2001257985830307
1761914323987236400,4.403236328125,-0.7261882424354553,-0.3588302731513977,-0.1565956026315689
1761914323997292300,4.413292236328125,-0.6795501708984375,-0.2817687690258026,-0.13414117693901062
1761914324007348200,4.42334814453125,-0.642349123954773,-0.22916683554649353,-0.11127220094203949
1761914324017404400,4.433404296875,-0.6098769307136536,-0.20876488089561462,-0.06861661374568939
1761914324027460400,4.44346044921875,-0.5852178335189819,-0.21583345532417297,-0.008148620836436749
1761914324037516300,4.453516357421875,-0.5678254961967468,-0.23437118530273438,0.0737084299325943
1761914324047572500,4.463572509765625,-0.5569088459014893,-0.2692367434501648,0.16001291573047638
1761914324057628400,4.47362841796875,-0.5554986596107483,-0.30976152420043945,0.23162691295146942
1761914324067684400,4.483684326171875,-0.5507816672325134,-0.33622485399246216,0.26779061555862427
1761914324077740500,4.493740478515625,-0.5368868708610535,-0.3410300016403198,0.2657999098300934
1761914324087796200,4.503796142578125,-0.5097483396530151,-0.3494674265384674,0.2408776730298996
1761914324097851400,4.513851318359375,-0.4758540391921997,-0.3408816456794739,0.20969419181346893
1761914324107907300,4.5239072265625,-0.44136756658554077,-0.3195499777793884,0.18088749051094055
1761914324117963300,4.53396337890625,-0.40315866470336914,-0.28649455308914185,0.14645813405513763
1761914324128019500,4.54401953125,-0.3604699373245239,-0.22837749123573303,0.12266901880502701
1761914324138075400,4.554075439453125,-0.32452845573425293,-0.17984004318714142,0.11415541917085648
1761914324148131300,4.56413134765625,-0.3056727349758148,-0.15550141036510468,0.11435569077730179
1761914324158187300,4.574187255859375,-0.29411062598228455,-0.13028660416603088,0.10065905749797821
1761914324168243500,4.584243408203125,-0.2811112701892853,-0.10067093372344971,0.06402011215686798
1761914324178299400,4.59429931640625,-0.2781013548374176,-0.08263494819402695,0.010723864659667015
1761914324188355300,4.604355224609375,-0.28880906105041504,-0.06720244884490967,-0.054461024701595306
1761914324198411300,4.614411376953125,-0.3018271327018738,-0.06098503619432449,-0.13266661763191223
1761914324208467200,4.62446728515625,-0.30966803431510925,-0.04429817944765091,-0.22456997632980347
1761914324218523100,4.634523193359375,-0.3146744966506958,-0.004831462167203426,-0.33989793062210083
1761914324228579300,4.644579345703125,-0.3147640526294708,0.04948928952217102,-0.4628923535346985
1761914324238634200,4.65463427734375,-0.3380403518676758,0.07492327690124512,-0.560433030128479
1761914324248690400,4.6646904296875,-0.37800562381744385,0.06552952527999878,-0.6109662055969238
1761914324258746400,4.674746337890625,-0.4321860373020172,0.024086209014058113,-0.6072952747344971
1761914324268802300,4.68480224609375,-0.48651158809661865,-0.031071042641997337,-0.5574151277542114
1761914324278858500,4.6948583984375,-0.54991614818573,-0.10294869542121887,-0.46883437037467957
1761914324288914200,4.7049140625,-0.6260206699371338,-0.1675942987203598,-0.36311274766921997
1761914324298970000,4.71497021484375,-0.7058848738670349,-0.21900928020477295,-0.25436708331108093
1761914324309026300,4.7250263671875,-0.7668757438659668,-0.23580797016620636,-0.1590854376554489
1761914324319082200,4.735082275390625,-0.800028920173645,-0.2355419248342514,-0.07072921097278595
1761914324329138200,4.74513818359375,-0.799348771572113,-0.22324183583259583,0.02030634507536888
1761914324339194400,4.7551943359375,-0.7762911319732666,-0.2165306657552719,0.1328755021095276
1761914324349250300,4.765250244140625,-0.757771909236908,-0.19860625267028809,0.27820730209350586
1761914324359306200,4.77530615234375,-0.7578094601631165,-0.18514743447303772,0.43182241916656494
1761914324369362400,4.785362548828125,-0.7559584975242615,-0.16810083389282227,0.5561598539352417
1761914324379417300,4.795417236328125,-0.7373493909835815,-0.17155814170837402,0.637732207775116
1761914324389473300,4.805473388671875,-0.7030193209648132,-0.19748108088970184,0.6653138399124146
1761914324399529200,4.815529296875,-0.6574183106422424,-0.2590280771255493,0.6495053172111511
1761914324409585200,4.825585205078125,-0.5971901416778564,-0.33174407482147217,0.5870304107666016
1761914324419641300,4.835641357421875,-0.5012268424034119,-0.37898269295692444,0.4788314402103424
1761914324429697300,4.845697265625,-0.38336145877838135,-0.4175620377063751,0.3382357358932495
1761914324439753200,4.855753173828125,-0.2648148238658905,-0.4783148467540741,0.1964532881975174
1761914324449809400,4.865809326171875,-0.16624803841114044,-0.5167975425720215,0.047655027359724045
1761914324459865300,4.875865234375,-0.09336050599813461,-0.527887761592865,-0.11669663339853287
1761914324469921300,4.88592138671875,-0.06311024725437164,-0.5193967819213867,-0.26239895820617676
1761914324479977500,4.8959775390625,-0.08201416581869125,-0.49834051728248596,-0.37665149569511414
1761914324490033400,4.906033447265625,-0.14151053130626678,-0.47823309898376465,-0.4541015028953552
1761914324500089300,4.91608935546875,-0.21928974986076355,-0.4548555910587311,-0.48988479375839233
1761914324510145500,4.9261455078125,-0.31033068895339966,-0.437071830034256,-0.4937332272529602
1761914324520201200,4.936201171875,-0.39804401993751526,-0.435088574886322,-0.4684443771839142
1761914324530256400,4.94625634765625,-0.47120586037635803,-0.4512680768966675,-0.43260690569877625
1761914324540312300,4.956312255859375,-0.5333736538887024,-0.47294461727142334,-0.3900381326675415
1761914324550368300,4.9663681640625,-0.5944162607192993,-0.49506428837776184,-0.3437725007534027
1761914324560424400,4.976424560546875,-0.6566692590713501,-0.5265673398971558,-0.2857219874858856
1761914324570480400,4.98648046875,-0.7071795463562012,-0.5486055016517639,-0.2314419448375702
1761914324580536300,4.996536376953125,-0.7381912469863892,-0.5338689088821411,-0.19138135015964508
1761914324590592500,5.006592529296875,-0.7485040426254272,-0.4939684271812439,-0.16063806414604187
1761914324600648400,5.0166484375,-0.7388287782669067,-0.43322649598121643,-0.1271112710237503
1761914324610704400,5.026704345703125,-0.7039783596992493,-0.364182710647583,-0.09192730486392975
1761914324620760300,5.03676025390625,-0.6620202660560608,-0.2918720245361328,-0.044174425303936005
1761914324630816300,5.046816162109375,-0.6121566295623779,-0.2228628545999527,0.004977216012775898
1761914324640872200,5.0568720703125,-0.5514623522758484,-0.15573708713054657,0.04541225731372833
1761914324650928400,5.066928466796875,-0.49293872714042664,-0.12003903836011887,0.07336314022541046
1761914324660984300,5.076984375,-0.4399266541004181,-0.11953996866941452,0.08197526633739471
1761914324671040300,5.087040283203125,-0.40082189440727234,-0.1512262374162674,0.06767150014638901
1761914324681095400,5.097095458984375,-0.3755764365196228,-0.21058383584022522,0.04342395067214966
1761914324691151400,5.1071513671875,-0.37141627073287964,-0.2889172434806824,0.007306896150112152
1761914324701207300,5.117207275390625,-0.38106516003608704,-0.37947508692741394,-0.029526486992836
1761914324711263500,5.127263427734375,-0.4047524333000183,-0.45687350630760193,-0.07876449823379517
1761914324721320000,5.13731982421875,-0.4379900395870209,-0.5344935059547424,-0.11719124764204025
1761914324731375900,5.1473759765625,-0.47299373149871826,-0.5978226065635681,-0.1520606130361557
1761914324741432000,5.15743212890625,-0.5052600502967834,-0.6395623087882996,-0.19411565363407135
1761914324751488000,5.167488037109375,-0.5335104465484619,-0.6554656624794006,-0.24751311540603638
1761914324761544000,5.1775439453125,-0.5657514929771423,-0.6509382724761963,-0.3084145486354828
1761914324771600100,5.18760009765625,-0.5953556299209595,-0.6371862888336182,-0.3524073362350464
1761914324781656000,5.197656005859375,-0.6243782043457031,-0.6187359094619751,-0.3678147792816162
1761914324791712000,5.2077119140625,-0.6531572937965393,-0.6016495823860168,-0.35737091302871704
1761914324801768200,5.217768310546875,-0.6856638789176941,-0.5840290188789368,-0.3257264494895935
1761914324811824000,5.22782421875,-0.7136769890785217,-0.5578837394714355,-0.28425875306129456
1761914324821878800,5.237878662109375,-0.7390047311782837,-0.5366117358207703,-0.25187042355537415
1761914324831935000,5.24793505859375,-0.7672109603881836,-0.50062096118927,-0.22511474788188934
1761914324841991000,5.257990966796875,-0.7979353070259094,-0.4643273949623108,-0.20570136606693268
1761914324852046800,5.268046875,-0.8296197056770325,-0.4344920217990875,-0.18014231324195862
1761914324862103000,5.27810302734375,-0.8449509739875793,-0.4078633487224579,-0.13764837384223938
1761914324872159000,5.288158935546875,-0.8453735113143921,-0.3885127902030945,-0.07857470214366913
1761914324882215000,5.29821484375,-0.8343174457550049,-0.3886640667915344,-0.0023627495393157005
1761914324892271000,5.30827099609375,-0.8217828273773193,-0.4171500504016876,0.06668271869421005
1761914324902327000,5.3183271484375,-0.8153430819511414,-0.45219406485557556,0.10606314986944199
1761914324912383000,5.328383056640625,-0.8183844089508057,-0.5012795329093933,0.12321581691503525
1761914324922439200,5.338439208984375,-0.8197268843650818,-0.5732834339141846,0.12562143802642822
1761914324932494800,5.348494873046875,-0.8209989666938782,-0.6523019075393677,0.12298701703548431
1761914324942550800,5.35855078125,-0.8124420046806335,-0.7240277528762817,0.10834203660488129
1761914324952607000,5.36860693359375,-0.8136321306228638,-0.7932237982749939,0.10421399027109146
1761914324962662000,5.378661865234375,-0.814884603023529,-0.850675106048584,0.09585405886173248
1761914324972718000,5.388718017578125,-0.8181495666503906,-0.881684422492981,0.09421762824058533
1761914324982774000,5.39877392578125,-0.8129819631576538,-0.8937624096870422,0.10171842575073242
1761914324992830000,5.408829833984375,-0.8054468035697937,-0.8857987523078918,0.12056439369916916
1761914325002886100,5.41888623046875,-0.8025849461555481,-0.885258674621582,0.15340597927570343
1761914325012942000,5.428942138671875,-0.826598048210144,-0.9224814176559448,0.2010381519794464
1761914325022998000,5.438998046875,-0.8740896582603455,-0.965569794178009,0.23090577125549316
1761914325033054000,5.449053955078125,-0.9330066442489624,-0.9759331345558167,0.2170405238866806
1761914325043110000,5.45910986328125,-0.9608177542686462,-0.9163616895675659,0.13849379122257233
1761914325053165800,5.469165771484375,-0.9500924348831177,-0.7630184888839722,-0.016420092433691025
1761914325063222000,5.479221923828125,-0.8773825764656067,-0.5476526618003845,-0.20794132351875305
1761914325073278000,5.48927783203125,-0.7611216306686401,-0.33612287044525146,-0.36578696966171265
1761914325083334000,5.499333984375,-0.6290839910507202,-0.19405625760555267,-0.4571096897125244
1761914325093390000,5.50939013671875,-0.5156412720680237,-0.12433335185050964,-0.4775306284427643
1761914325103446000,5.519446044921875,-0.45661336183547974,-0.11295100301504135,-0.43586546182632446
1761914325113501200,5.529501220703125,-0.47638508677482605,-0.18775388598442078,-0.3515941798686981
1761914325123557000,5.53955712890625,-0.5870514512062073,-0.34580931067466736,-0.250803679227829
1761914325133612800,5.54961279296875,-0.7410789132118225,-0.5594712495803833,-0.16614693403244019
1761914325143669000,5.5596689453125,-0.8843383193016052,-0.7831026911735535,-0.11380091309547424
1761914325153725000,5.569724853515625,-0.9655827283859253,-0.9915834665298462,-0.09393090754747391
1761914325163780900,5.57978076171875,-0.9814269542694092,-1.1656663417816162,-0.08215760439634323
1761914325173837000,5.589837158203125,-0.9551683664321899,-1.298596978187561,-0.07252801954746246
1761914325183893000,5.59989306640625,-0.9207249283790588,-1.3942792415618896,-0.06559313833713531
1761914325193949000,5.609948974609375,-0.8898913264274597,-1.4515255689620972,-0.057210344821214676
1761914325204005000,5.620005126953125,-0.874017596244812,-1.4768370389938354,-0.05487928166985512
1761914325214061000,5.63006103515625,-0.8710433840751648,-1.4732030630111694,-0.0566796213388443
1761914325224117000,5.640116943359375,-0.8849560022354126,-1.4490900039672852,-0.06313805282115936
1761914325234173200,5.650173095703125,-0.9050514698028564,-1.412858009338379,-0.08005160093307495
1761914325244227800,5.660227783203125,-0.9081702828407288,-1.3512929677963257,-0.10996688902378082
1761914325254284000,5.670283935546875,-0.9019071459770203,-1.251359462738037,-0.15456020832061768
1761914325264340000,5.680340087890625,-0.874657154083252,-1.156206488609314,-0.212441086769104
1761914325274396000,5.69039599609375,-0.8490591049194336,-1.067421317100525,-0.2736682891845703
1761914325284451800,5.700451904296875,-0.8476601243019104,-0.9994819164276123,-0.32788094878196716
1761914325294508000,5.710508056640625,-0.8784517645835876,-0.9580742716789246,-0.37158074975013733
1761914325304564000,5.72056396484375,-0.9389161467552185,-0.9590921401977539,-0.4045935571193695
1761914325314620000,5.730619873046875,-1.020740032196045,-0.9890905022621155,-0.4142759144306183
1761914325324676000,5.740676025390625,-1.1135746240615845,-1.0397802591323853,-0.4140426218509674
1761914325334732000,5.75073193359375,-1.2195301055908203,-1.117475152015686,-0.4014884829521179
1761914325344788000,5.7607880859375,-1.3355352878570557,-1.2164692878723145,-0.37457963824272156
1761914325354844200,5.77084423828125,-1.4523051977157593,-1.3141285181045532,-0.34956738352775574
1761914325364899800,5.78089990234375,-1.5554072856903076,-1.3970696926116943,-0.33348214626312256
1761914325374955800,5.790955810546875,-1.6359634399414062,-1.4521223306655884,-0.34381693601608276
1761914325385012000,5.801011962890625,-1.693664789199829,-1.4652682542800903,-0.3698897957801819
1761914325395067000,5.81106689453125,-1.7230490446090698,-1.4552960395812988,-0.39084044098854065
1761914325405123000,5.821123046875,-1.7359240055084229,-1.4328644275665283,-0.39318588376045227
1761914325415179000,5.831178955078125,-1.7376809120178223,-1.39431893825531,-0.38808444142341614
1761914325425235000,5.84123486328125,-1.7381232976913452,-1.3361855745315552,-0.3759803771972656
1761914325435291100,5.851291015625,-1.7305939197540283,-1.2717030048370361,-0.35445520281791687
1761914325445347000,5.86134716796875,-1.724138617515564,-1.2172352075576782,-0.32770586013793945
1761914325455403000,5.871403076171875,-1.7206765413284302,-1.1895828247070312,-0.3160562813282013
1761914325465459000,5.881458984375,-1.7228257656097412,-1.166788101196289,-0.32509371638298035
1761914325475515000,5.891514892578125,-1.7218981981277466,-1.1565638780593872,-0.34906840324401855
1761914325485570800,5.90157080078125,-1.7296473979949951,-1.1899040937423706,-0.36598801612854004
1761914325495627000,5.911626953125,-1.7506614923477173,-1.26438570022583,-0.37111252546310425
1761914325505683000,5.921682861328125,-1.7808278799057007,-1.3521608114242554,-0.375834584236145
1761914325515739000,5.93173876953125,-1.8251641988754272,-1.4242923259735107,-0.3987085223197937
1761914325525795000,5.941795166015625,-1.868814468383789,-1.4564504623413086,-0.4413830041885376
1761914325535850000,5.95185009765625,-1.9115606546401978,-1.4710246324539185,-0.5115465521812439
1761914325545906200,5.96190625,-1.9458762407302856,-1.4872385263442993,-0.5632273554801941
1761914325555962000,5.971962158203125,-1.9746512174606323,-1.5047740936279297,-0.5872909426689148
1761914325566017800,5.982017822265625,-1.993636131286621,-1.5035213232040405,-0.5947967767715454
1761914325576074000,5.992073974609375,-2.0075855255126953,-1.4868919849395752,-0.6006466746330261
1761914325586130000,6.0021298828125,-2.0259547233581543,-1.4406875371932983,-0.6109938621520996
1761914325596185900,6.012185791015625,-2.04970121383667,-1.3913044929504395,-0.6331221461296082
1761914325606242000,6.022241943359375,-2.070864200592041,-1.3520876169204712,-0.6604304313659668
1761914325616298000,6.032298095703125,-2.0852420330047607,-1.3250421285629272,-0.6965510249137878
1761914325626354000,6.04235400390625,-2.088484048843384,-1.297715663909912,-0.7483686804771423
1761914325636410000,6.05241015625,-2.087329864501953,-1.282312035560608,-0.7992611527442932
1761914325646466000,6.062466064453125,-2.080703020095825,-1.2560678720474243,-0.8497453927993774
1761914325656522000,6.07252197265625,-2.0706708431243896,-1.2055903673171997,-0.8987787961959839
1761914325666578200,6.082578125,-2.046290874481201,-1.1384235620498657,-0.9340201020240784
1761914325676634000,6.092634033203125,-2.0154993534088135,-1.0651283264160156,-0.959618866443634
1761914325686689000,6.10268896484375,-1.969794750213623,-0.9969087839126587,-0.9646112322807312
1761914325696745000,6.112744873046875,-1.921972632408142,-0.9301334619522095,-0.9714546203613281
1761914325706801000,6.12280078125,-1.8648440837860107,-0.8377566337585449,-0.9878332614898682
1761914325716856600,6.132856689453125,-1.7790402173995972,-0.6933894157409668,-1.0364718437194824
1761914325726912500,6.14291259765625,-1.6539627313613892,-0.4708702862262726,-1.0958623886108398
1761914325736968400,6.152968505859375,-1.508974313735962,-0.24811147153377533,-1.1181873083114624
1761914325747024600,6.163024658203125,-1.3701122999191284,-0.07993712276220322,-1.0747390985488892
1761914325757080600,6.17308056640625,-1.2839792966842651,-0.02464219555258751,-0.9598042964935303
1761914325767136500,6.183136474609375,-1.2801182270050049,-0.11748398095369339,-0.7889715433120728
1761914325777192700,6.193192626953125,-1.3412222862243652,-0.29516714811325073,-0.6432467103004456
1761914325787248600,6.20324853515625,-1.4230200052261353,-0.4588727056980133,-0.5848531723022461
1761914325797304600,6.2133046875,-1.480388879776001,-0.5615668892860413,-0.6065613627433777
1761914325807360800,6.22336083984375,-1.4799904823303223,-0.6106225848197937,-0.6847978234291077
1761914325817415400,6.23341552734375,-1.4191182851791382,-0.5728645324707031,-0.7888249158859253
1761914325827471600,6.2434716796875,-1.319766640663147,-0.472116082906723,-0.8871676921844482
1761914325837527600,6.253527587890625,-1.1831059455871582,-0.3611432611942291,-0.9304567575454712
1761914325847583500,6.26358349609375,-1.0396225452423096,-0.27263230085372925,-0.9115326404571533
1761914325857639400,6.273639404296875,-0.9177326560020447,-0.21631868183612823,-0.8263213634490967
1761914325867695600,6.283695556640625,-0.8499477505683899,-0.1803462952375412,-0.6971050500869751
1761914325877751600,6.29375146484375,-0.8334817886352539,-0.1487111747264862,-0.5461209416389465
1761914325887807500,6.303807373046875,-0.8448790311813354,-0.13244059681892395,-0.3951959013938904
1761914325897863700,6.31386376953125,-0.8598528504371643,-0.13436947762966156,-0.2529096007347107
1761914325907919600,6.323919677734375,-0.8631346821784973,-0.13749496638774872,-0.13934068381786346
1761914325917975600,6.3339755859375,-0.8515270948410034,-0.18194739520549774,-0.04345392808318138
1761914325928031700,6.34403173828125,-0.8296249508857727,-0.27937090396881104,0.061656512320041656
1761914325938087400,6.35408740234375,-0.8208643794059753,-0.3990909457206726,0.17845147848129272
1761914325948143400,6.364143310546875,-0.8192353248596191,-0.5102224946022034,0.30556416511535645
1761914325958198500,6.374198486328125,-0.8309887051582336,-0.5966095328330994,0.4268454909324646
1761914325968254500,6.38425439453125,-0.8430666923522949,-0.644908607006073,0.5345945954322815
1761914325978310700,6.394310546875,-0.8548847436904907,-0.6640120148658752,0.6261507272720337
1761914325988366600,6.40436669921875,-0.853823184967041,-0.6597461700439453,0.6848646402359009
1761914325998422500,6.414422607421875,-0.8443871140480042,-0.6241873502731323,0.7150128483772278
1761914326008478700,6.424478759765625,-0.8128139972686768,-0.5709614157676697,0.7198491096496582
1761914326018534700,6.43453466796875,-0.7498582005500793,-0.508985698223114,0.695686936378479
1761914326028590600,6.444590576171875,-0.6538360714912415,-0.4326821267604828,0.6626059412956238
1761914326038646500,6.454646484375,-0.5357921719551086,-0.3488897681236267,0.6290101408958435
1761914326048702500,6.464702392578125,-0.4066309630870819,-0.27457931637763977,0.5960415601730347
1761914326058758400,6.47475830078125,-0.2893957793712616,-0.24788671731948853,0.5590290427207947
1761914326068814600,6.484814697265625,-0.18319638073444366,-0.24697645008563995,0.500868558883667
1761914326078870500,6.49487060546875,-0.09367290139198303,-0.26050636172294617,0.4143899977207184
1761914326088926500,6.504926513671875,-0.026786278933286667,-0.2851158380508423,0.31141167879104614
1761914326098981600,6.514981689453125,0.017912335693836212,-0.315281480550766,0.2036444991827011
1761914326109037600,6.52503759765625,0.044225700199604034,-0.345538467168808,0.09524744004011154
1761914326119093800,6.53509375,0.049194782972335815,-0.3561500608921051,0.0033262157812714577
1761914326129149700,6.545149658203125,0.04614599794149399,-0.3576744496822357,-0.06763850897550583
1761914326139205400,6.555205322265625,0.032553501427173615,-0.351893812417984,-0.1258254498243332
1761914326149261600,6.565261474609375,0.019799090921878815,-0.34185555577278137,-0.1935640126466751
1761914326159317500,6.5753173828125,0.00838211365044117,-0.33756840229034424,-0.25849229097366333
1761914326169373400,6.58537353515625,-0.008261577226221561,-0.3413681983947754,-0.3347492516040802
1761914326179429600,6.5954296875,-0.025170065462589264,-0.3407359719276428,-0.41871535778045654
1761914326189485600,6.605485595703125,-0.04547134414315224,-0.3279370963573456,-0.5201748609542847
1761914326199541500,6.61554150390625,-0.07110010087490082,-0.3054458796977997,-0.630050778388977
1761914326209597700,6.62559765625,-0.11702045798301697,-0.28235867619514465,-0.7434609532356262
1761914326219653600,6.635653564453125,-0.17008119821548462,-0.2621769607067108,-0.860397458076477
1761914326229709600,6.64570947265625,-0.23219196498394012,-0.23304250836372375,-0.9719253182411194
1761914326239764500,6.655764404296875,-0.2930496335029602,-0.18276551365852356,-1.0705432891845703
1761914326249820400,6.6658203125,-0.3447517156600952,-0.10699830204248428,-1.1444063186645508
1761914326259876600,6.675876708984375,-0.37740465998649597,-0.019556589424610138,-1.1821399927139282
1761914326269932500,6.6859326171875,-0.39955124258995056,0.08643961697816849,-1.1763079166412354
1761914326279988500,6.695988525390625,-0.39889952540397644,0.22303952276706696,-1.1386222839355469
1761914326290044700,6.706044677734375,-0.3674156367778778,0.3893168866634369,-1.0812143087387085
1761914326300100600,6.7161005859375,-0.31005096435546875,0.5396377444267273,-1.0002996921539307
1761914326310156500,6.726156494140625,-0.24439924955368042,0.6392820477485657,-0.887359619140625
1761914326320212500,6.73621240234375,-0.1775868684053421,0.6828140616416931,-0.7701089382171631
1761914326330268700,6.7462685546875,-0.12405466288328171,0.6814233660697937,-0.6545104384422302
1761914326340324600,6.75632470703125,-0.08379070460796356,0.6419411897659302,-0.5615425109863281
1761914326350380500,6.766380615234375,-0.05062209814786911,0.5718899369239807,-0.5005977153778076
1761914326360436700,6.776436767578125,-0.015624147839844227,0.47749632596969604,-0.47925275564193726
1761914326370492400,6.786492431640625,0.03218865022063255,0.3819199800491333,-0.49496862292289734
1761914326380547600,6.796547607421875,0.08068019151687622,0.2647922933101654,-0.5144990682601929
1761914326390603500,6.806603515625,0.1295928657054901,0.13366198539733887,-0.5226582288742065
1761914326400659500,6.816659423828125,0.1614658683538437,-0.020297521725296974,-0.519912838935852
1761914326410715600,6.826715576171875,0.16765426099300385,-0.1915784627199173,-0.49748268723487854
1761914326420771600,6.836771484375,0.14279894530773163,-0.3589511811733246,-0.4397565424442291
1761914326430827500,6.84682763671875,0.0797632560133934,-0.5100674629211426,-0.34806177020072937
1761914326440883700,6.8568837890625,-0.015257088467478752,-0.659464418888092,-0.2250189483165741
1761914326450939600,6.866939697265625,-0.13743279874324799,-0.8021408319473267,-0.07630990445613861
1761914326460995600,6.87699560546875,-0.2683984935283661,-0.8778827786445618,0.0652884766459465
1761914326471051500,6.887051513671875,-0.37482693791389465,-0.8861449360847473,0.17840544879436493
1761914326481107500,6.897107421875,-0.4470529854297638,-0.8293144106864929,0.2633167505264282
1761914326491163400,6.907163330078125,-0.48296332359313965,-0.723654568195343,0.3310806155204773
1761914326501219600,6.917219482421875,-0.48126906156539917,-0.5897631049156189,0.40287694334983826
1761914326511274500,6.9272744140625,-0.4702949523925781,-0.40880265831947327,0.4721287190914154
1761914326521330700,6.93733056640625,-0.45691490173339844,-0.1790626496076584,0.5400521755218506
1761914326531386600,6.94738671875,-0.462956041097641,0.05379590019583702,0.6193528771400452
1761914326541442600,6.957442626953125,-0.4758457839488983,0.23979371786117554,0.6942420601844788
1761914326551498800,6.967498779296875,-0.5009479522705078,0.3655729591846466,0.7404652237892151
1761914326561554700,6.9775546875,-0.5360189080238342,0.44011592864990234,0.7521227598190308
1761914326571610400,6.9876103515625,-0.5663197636604309,0.4622372090816498,0.7189741134643555
1761914326581666600,6.99766650390625,-0.5850741267204285,0.43629002571105957,0.6500158309936523
1761914326591722500,7.007722412109375,-0.5952655076980591,0.36406269669532776,0.5740265250205994
1761914326601778400,7.0177783203125,-0.607103705406189,0.2595842182636261,0.5080767869949341
1761914326611834600,7.027834716796875,-0.668677568435669,0.12982168793678284,0.46175190806388855
1761914326621890600,7.037890625,-0.7860539555549622,0.03698573634028435,0.4229915738105774
1761914326631946500,7.047946533203125,-0.8471290469169617,-0.27221205830574036,0.3078511357307434
1761914326642002700,7.058002685546875,-0.9959409236907959,-0.5602883100509644,0.27312421798706055
1761914326652057600,7.0680576171875,-0.8150007128715515,-1.639093279838562,0.6245954036712646
1761914326662113800,7.07811376953125,-0.46805399656295776,-1.8372702598571777,0.9028086066246033
1761914326672169500,7.08816943359375,-0.4883675277233124,-1.280165433883667,0.7024797797203064
1761914326682225400,7.098225341796875,-0.5276436805725098,-1.0249733924865723,0.5828949213027954
1761914326692281600,7.108281494140625,-0.6055928468704224,-0.7655210494995117,0.39777058362960815
1761914326702337500,7.118337646484375,-0.7403941750526428,-0.2359701246023178,0.004296698607504368
1761914326712393500,7.1283935546875,-0.787678599357605,0.26983392238616943,-0.3588689863681793
1761914326722449700,7.13844970703125,-0.7569778561592102,0.5839135646820068,-0.5117699503898621
1761914326732505900,7.148505859375,-0.6742874979972839,0.7098744511604309,-0.506244421005249
1761914326742561800,7.158561767578125,-0.5378547310829163,0.8039998412132263,-0.4740902781486511
1761914326752617700,7.16861767578125,-0.42196962237358093,0.9240908622741699,-0.42673128843307495
1761914326762673700,7.178673583984375,-0.33431363105773926,0.9954430460929871,-0.33830711245536804
1761914326772729600,7.1887294921875,-0.3038865029811859,0.8454338312149048,-0.2462048977613449
1761914326782784800,7.19878466796875,-0.4174518287181854,0.5347188711166382,-0.2886112332344055
1761914326792840700,7.2088408203125,-0.6620267033576965,0.13740850985050201,-0.39246225357055664
1761914326802896600,7.218896728515625,-0.8814090490341187,-0.2302435338497162,-0.5347012877464294
1761914326812952800,7.228952880859375,-1.0200129747390747,-0.5166196227073669,-0.735051691532135
1761914326823008800,7.2390087890625,-1.1009312868118286,-0.6446351408958435,-0.9101203680038452
1761914326833064700,7.249064697265625,-1.1599669456481934,-0.7076684236526489,-1.0028399229049683
1761914326843121000,7.259120849609375,-1.1624324321746826,-0.8005163073539734,-1.0387935638427734
1761914326853176800,7.2691767578125,-1.108180046081543,-0.6933062672615051,-1.003700613975525
1761914326863232500,7.279232421875,-1.039125919342041,-0.5011608004570007,-0.9112533926963806
1761914326873288700,7.289288818359375,-0.9462875127792358,-0.3911070227622986,-0.8006634712219238
1761914326883344600,7.2993447265625,-0.8661766052246094,-0.3697577714920044,-0.6880349516868591
1761914326893400600,7.309400634765625,-0.8314969539642334,-0.3859785497188568,-0.6282570958137512
1761914326903456800,7.319456787109375,-0.8445084691047668,-0.35979700088500977,-0.6436682343482971
1761914326913512700,7.3295126953125,-0.9063193202018738,-0.32294657826423645,-0.7434776425361633
1761914326923568600,7.339568603515625,-1.017951250076294,-0.3638998568058014,-0.9262800216674805
1761914326933623800,7.349623779296875,-1.201106071472168,-0.5586320757865906,-1.1572991609573364
1761914326943679700,7.3596796875,-1.4420108795166016,-0.5829454660415649,-1.365290641784668
1761914326953736000,7.36973583984375,-1.6024430990219116,-0.2925812304019928,-1.5089706182479858
1761914326963792000,7.3797919921875,-1.5973573923110962,-0.08797480165958405,-1.6524946689605713
1761914326973847600,7.38984765625,-1.5030224323272705,0.05189521610736847,-1.8275601863861084
1761914326983903700,7.39990380859375,-1.4285837411880493,0.2523103356361389,-2.0347461700439453
1761914326993959700,7.409959716796875,-1.3830188512802124,0.4711047410964966,-2.2620699405670166
1761914327004015600,7.420015625,-1.3588579893112183,0.6180302500724792,-2.4846458435058594
1761914327014071800,7.43007177734375,-1.2936846017837524,0.6534292697906494,-2.766630172729492
1761914327024127700,7.440127685546875,-1.2031643390655518,0.48279258608818054,-3.0556392669677734
1761914327034183700,7.45018359375,-1.114000678062439,0.4286145567893982,-3.2939538955688477
1761914327044240000,7.460239990234375,-1.008449673652649,0.7252944111824036,-3.3709628582000732
1761914327054295800,7.4702958984375,-0.9377127289772034,0.7036114931106567,-3.233628034591675
1761914327064350700,7.480350830078125,-0.9296185970306396,0.4828479290008545,-2.87009859085083
1761914327074406700,7.49040673828125,-0.9612534642219543,0.2791523337364197,-2.3346266746520996
1761914327084462600,7.500462646484375,-1.0005898475646973,0.02013273723423481,-1.698627233505249
1761914327094518800,7.510518798828125,-1.0217329263687134,-0.3269141912460327,-1.0334057807922363
1761914327104574700,7.52057470703125,-0.9848072528839111,-0.6602090001106262,-0.4201836585998535
1761914327114630700,7.530630615234375,-0.9001397490501404,-0.9033609628677368,0.08844523131847382
1761914327124686600,7.5406865234375,-0.7682613730430603,-0.9271533489227295,0.48631396889686584
1761914327134742800,7.55074267578125,-0.6162976622581482,-0.65311598777771,0.798058271408081
1761914327144798700,7.560798828125,-0.49524182081222534,-0.37712565064430237,1.0767199993133545
1761914327154854700,7.570854736328125,-0.4232397973537445,-0.20914195477962494,1.3308379650115967
1761914327164910800,7.580910888671875,-0.3957977890968323,-0.07435379177331924,1.5673346519470215
1761914327174966800,7.590966796875,-0.36436235904693604,0.0958632081747055,1.7969297170639038
1761914327185022700,7.601022705078125,-0.31232863664627075,0.3411789536476135,2.0334551334381104
1761914327195079000,7.611078857421875,-0.23677608370780945,0.5993244647979736,2.263406991958618
1761914327205133600,7.621133544921875,-0.16645677387714386,0.7967530488967896,2.4526305198669434
1761914327215189800,7.631189697265625,-0.09847452491521835,0.9553403258323669,2.5142180919647217
1761914327225245700,7.64124560546875,-0.03693416714668274,1.3033486604690552,2.2895801067352295
1761914327235301600,7.651301513671875,0.013835538178682327,1.7121663093566895,1.8668878078460693
1761914327245357800,7.66135791015625,-0.00916333869099617,1.829068899154663,1.47519850730896
1761914327255413800,7.671413818359375,-0.10348131507635117,1.6687660217285156,1.1593902111053467
1761914327265469700,7.6814697265625,-0.22256508469581604,1.2849528789520264,0.8834666013717651
1761914327275526000,7.69152587890625,-0.3294329345226288,0.8046797513961792,0.6067727208137512
1761914327285581800,7.701581787109375,-0.3995435833930969,0.34737932682037354,0.335725873708725
1761914327295637800,7.7116376953125,-0.4668792188167572,-0.023015247657895088,0.08730676025152206
1761914327305693700,7.721693603515625,-0.531069278717041,-0.3181004524230957,-0.12040693312883377
1761914327315749600,7.73174951171875,-0.5818139314651489,-0.576004683971405,-0.29721763730049133
1761914327325805600,7.7418056640625,-0.5850818157196045,-0.7622357606887817,-0.44845840334892273
1761914327335860700,7.75186083984375,-0.5573436617851257,-0.8571375608444214,-0.6037060618400574
1761914327345916700,7.761916748046875,-0.5201283097267151,-0.8182141184806824,-0.7592945694923401
1761914327355972900,7.771972900390625,-0.47754624485969543,-0.5086804628372192,-0.928991436958313
1761914327366028800,7.78202880859375,-0.37128400802612305,0.15992581844329834,-1.0962249040603638
1761914327376084700,7.792084716796875,-0.20812171697616577,0.8758953809738159,-1.1916457414627075
1761914327386141000,7.802140869140625,-0.06987043470144272,1.3908175230026245,-1.1860580444335938
1761914327396196900,7.81219677734375,0.008757265284657478,1.6293755769729614,-1.1132746934890747
1761914327406252500,7.82225244140625,0.049778275191783905,1.608413577079773,-0.9960267543792725
1761914327416308700,7.832308837890625,0.08154606074094772,1.3966429233551025,-0.8129514455795288
1761914327426364700,7.84236474609375,0.12769083678722382,1.1114239692687988,-0.5689383745193481
1761914327436420600,7.852420654296875,0.17902272939682007,0.7172407507896423,-0.2759922444820404
1761914327446476800,7.862476806640625,0.22653086483478546,0.26659873127937317,0.03988980874419212
1761914327456532700,7.87253271484375,0.26576825976371765,-0.19547410309314728,0.35926300287246704
1761914327466588700,7.882588623046875,0.2993079721927643,-0.6272540092468262,0.6547298431396484
1761914327476643800,7.892643798828125,0.31003090739250183,-1.0193266868591309,0.9224310517311096
1761914327486699800,7.90269970703125,0.3145960867404938,-1.2352757453918457,1.1248095035552979
1761914327496755700,7.912755615234375,0.3172965347766876,-1.2474168539047241,1.2326350212097168
1761914327506811600,7.922811767578125,0.3092113733291626,-1.1610833406448364,1.2254619598388672
1761914327516867600,7.93286767578125,0.23952390253543854,-1.1623603105545044,1.1132636070251465
1761914327526923800,7.942923828125,0.16665183007717133,-1.2978312969207764,0.9791758060455322
1761914327536979700,7.952979736328125,0.10633496195077896,-1.27655029296875,0.8595181107521057
1761914327547035600,7.96303564453125,0.02602076716721058,-0.8898525834083557,0.6798886060714722
1761914327557091800,7.973091796875,-0.05826082453131676,-0.6128942370414734,0.46729567646980286
1761914327567147800,7.983147705078125,-0.07025305926799774,-0.6542555093765259,0.29988035559654236
1761914327577203700,7.99320361328125,0.08058705180883408,-0.7299321889877319,0.20662523806095123
1761914327587259600,8.003259765625,0.4185481667518616,-0.43580734729766846,0.12491455674171448
1761914327597315800,8.01331591796875,0.845382571220398,-0.01801249384880066,0.025696363300085068
1761914327607371800,8.023371826171875,1.1591706275939941,0.020031291991472244,0.002038717269897461
1761914327617426700,8.0334267578125,1.3124864101409912,0.09616600722074509,0.07145374268293381
1761914327627482600,8.043482666015626,1.3486160039901733,0.36564087867736816,0.17430594563484192
1761914327637538600,8.05353857421875,1.304696798324585,0.5759368538856506,0.3441482484340668
1761914327647594800,8.0635947265625,1.217391014099121,0.6776036024093628,0.5604548454284668
1761914327657650700,8.073650634765626,1.0867283344268799,0.8153569102287292,0.7525385618209839
1761914327667706600,8.08370654296875,0.8440424203872681,0.9065765738487244,0.7982261180877686
1761914327677762800,8.0937626953125,0.5263028144836426,0.8667939901351929,0.7543870210647583
1761914327687818800,8.10381884765625,0.31856971979141235,0.7992093563079834,0.7284724712371826
1761914327697874700,8.113874755859374,0.30845823884010315,0.6488446593284607,0.7027013301849365
1761914327707931000,8.123930908203125,0.3165251314640045,0.6246016025543213,0.6419437527656555
1761914327717986800,8.13398681640625,0.3032306134700775,0.620284378528595,0.5661347508430481
1761914327728043000,8.14404296875,0.2831133306026459,0.5530970692634583,0.46710941195487976
1761914327738099200,8.15409912109375,0.2910761833190918,0.42566826939582825,0.34943443536758423
1761914327748153900,8.16415380859375,0.3085440397262573,0.24322257936000824,0.24794909358024597
1761914327758210000,8.1742099609375,0.3239980936050415,0.03073161467909813,0.18011091649532318
1761914327768266000,8.184265869140624,0.3409130871295929,-0.16352707147598267,0.1678866147994995
1761914327778322000,8.194322021484375,0.3503667712211609,-0.3279125690460205,0.216866135597229
1761914327788378000,8.204378173828125,0.36186036467552185,-0.43177053332328796,0.30704665184020996
1761914327798434000,8.21443408203125,0.3772774040699005,-0.47447964549064636,0.3961331248283386
1761914327808490000,8.224489990234375,0.38631075620651245,-0.4612242877483368,0.45596256852149963
1761914327818546200,8.234546142578125,0.40156322717666626,-0.401694655418396,0.48072385787963867
1761914327828602000,8.24460205078125,0.4267655313014984,-0.311016708612442,0.4846895933151245
1761914327838658000,8.254657958984374,0.4573996067047119,-0.17232245206832886,0.4794122874736786
1761914327848714000,8.2647138671875,0.49847856163978577,0.005479529965668917,0.4883043169975281
1761914327858770000,8.27477001953125,0.5533439517021179,0.17768537998199463,0.5218545794487
1761914327868825900,8.284825927734374,0.577559232711792,0.26506927609443665,0.5777255296707153
1761914327878882000,8.294882080078125,0.5587913990020752,0.20510847866535187,0.6349613666534424
1761914327888937000,8.30493701171875,0.5157666206359863,0.036683760583400726,0.6901876330375671
1761914327898993000,8.314992919921876,0.4593096971511841,-0.18180570006370544,0.7488341927528381
1761914327909049000,8.325049072265625,0.42191848158836365,-0.3549519181251526,0.8133663535118103
1761914327919105000,8.33510498046875,0.400600403547287,-0.4291699528694153,0.8829997181892395
1761914327929161000,8.345160888671876,0.37555328011512756,-0.451757550239563,0.9491745233535767
1761914327939217200,8.355217041015624,0.34701353311538696,-0.46244266629219055,1.0079313516616821
1761914327949272800,8.36527294921875,0.28743433952331543,-0.4911954998970032,1.0422829389572144
1761914327959328800,8.375328857421875,0.21073104441165924,-0.5527738928794861,1.0606776475906372
1761914327969385000,8.385385009765624,0.1329745352268219,-0.6124364137649536,1.073229432106018
1761914327979441000,8.39544091796875,0.0771498829126358,-0.6267660856246948,1.0818202495574951
1761914327989496800,8.405496826171875,0.0558043010532856,-0.5790643692016602,1.080723524093628
1761914327999553000,8.415552978515626,0.04817488044500351,-0.49662116169929504,1.0605229139328003
1761914328009609000,8.42560888671875,0.04496738687157631,-0.4069690406322479,1.0226308107376099
1761914328019664100,8.4356640625,0.009853074327111244,-0.3688594698905945,0.9794135689735413
1761914328029720000,8.445719970703125,-0.054035451263189316,-0.3969579339027405,0.9404629468917847
1761914328039776000,8.45577587890625,-0.13014647364616394,-0.4955686628818512,0.897693395614624
1761914328049832000,8.46583203125,-0.2015973925590515,-0.6123032569885254,0.8481603264808655
1761914328059887900,8.475887939453125,-0.26015418767929077,-0.68443363904953,0.7787333130836487
1761914328069943800,8.48594384765625,-0.32001346349716187,-0.7287982106208801,0.7189170122146606
1761914328080000000,8.496,-0.38490191102027893,-0.8076788783073425,0.6758179664611816
1761914328090056000,8.506055908203125,-0.4404054284095764,-0.9065650105476379,0.636052131652832
1761914328100112000,8.51611181640625,-0.4791163504123688,-0.9273301959037781,0.5426918268203735
1761914328110168000,8.52616796875,-0.4650665819644928,-0.7914828658103943,0.3769760727882385
1761914328120224000,8.53622412109375,-0.3605401813983917,-0.523119330406189,0.14955146610736847
1761914328130280000,8.546280029296875,-0.18768174946308136,-0.21103043854236603,-0.06921130418777466
1761914328140336000,8.556336181640624,-0.00032251057564280927,0.0721147209405899,-0.21617518365383148
1761914328150390800,8.566390869140625,0.14121419191360474,0.2514413595199585,-0.27742019295692444
1761914328160447000,8.576447021484375,0.22456927597522736,0.32179486751556396,-0.2749945819377899
1761914328170503000,8.5865029296875,0.25848525762557983,0.30230027437210083,-0.24976249039173126
1761914328180561200,8.59656103515625,0.2687416076660156,0.24965596199035645,-0.21386893093585968
1761914328190617000,8.6066171875,0.274498850107193,0.21397171914577484,-0.17593643069267273
1761914328200672800,8.6166728515625,0.2836265563964844,0.22516365349292755,-0.1286938190460205
1761914328210729000,8.62672900390625,0.285780668258667,0.2559570074081421,-0.052744437009096146
1761914328220785000,8.636784912109375,0.26647356152534485,0.2551162540912628,0.06382425874471664
1761914328230840800,8.6468408203125,0.20798459649085999,0.18393555283546448,0.18753713369369507
1761914328240897000,8.65689697265625,0.11522243916988373,0.07215389609336853,0.30341315269470215
1761914328250953000,8.666952880859375,0.004000856541097164,-0.05683792755007744,0.3795693814754486
1761914328261009000,8.6770087890625,-0.10464200377464294,-0.1543588936328888,0.40713444352149963
1761914328271065000,8.687065185546874,-0.18105608224868774,-0.2488827258348465,0.3945401608943939
1761914328281120000,8.6971201171875,-0.23875293135643005,-0.3396134376525879,0.35874488949775696
1761914328291176200,8.70717626953125,-0.2774370014667511,-0.4376947581768036,0.3163682818412781
1761914328301232000,8.717232177734376,-0.29842618107795715,-0.5279883742332458,0.26378920674324036
1761914328311287800,8.727287841796874,-0.31476497650146484,-0.6059292554855347,0.2000712901353836
1761914328321344000,8.737343994140625,-0.3362564146518707,-0.696159839630127,0.1250510960817337
1761914328331400000,8.74739990234375,-0.366477370262146,-0.7974047064781189,0.030296411365270615
1761914328341456000,8.757455810546874,-0.39895862340927124,-0.8837361335754395,-0.09230513870716095
1761914328351512000,8.767511962890625,-0.42291259765625,-0.9142074584960938,-0.23883676528930664
1761914328361568000,8.777568115234375,-0.44887226819992065,-0.9036499261856079,-0.38359662890434265
1761914328371624000,8.7876240234375,-0.4740094542503357,-0.8814170360565186,-0.5110185146331787
1761914328381680000,8.79768017578125,-0.5027828216552734,-0.8505054712295532,-0.6146674156188965
1761914328391736000,8.807736083984375,-0.5410196185112,-0.8008478879928589,-0.7034193873405457
1761914328401792000,8.8177919921875,-0.5934867858886719,-0.7396301031112671,-0.7949298620223999
1761914328411847000,8.827846923828124,-0.6549816131591797,-0.657450795173645,-0.8773608803749084
1761914328421902800,8.83790283203125,-0.721764326095581,-0.5746078491210938,-0.9466925263404846
1761914328431959000,8.847958984375,-0.7852002382278442,-0.49509623646736145,-0.985514223575592
1761914328442015000,8.858014892578124,-0.8441799283027649,-0.40297988057136536,-0.9852572679519653
1761914328452071000,8.86807080078125,-0.886622428894043,-0.2959200143814087,-0.9424039721488953
1761914328462126800,8.878126953125,-0.915378987789154,-0.19290627539157867,-0.8581258654594421
1761914328472183000,8.88818310546875,-0.9343937635421753,-0.12642790377140045,-0.7540134191513062
1761914328482239000,8.898239013671875,-0.9410610198974609,-0.10518014430999756,-0.6562823057174683
1761914328492295000,8.908294921875,-0.9266695380210876,-0.0947866216301918,-0.5693634152412415
1761914328502351000,8.91835107421875,-0.8970724940299988,-0.060742102563381195,-0.4987267851829529
1761914328512407000,8.928406982421874,-0.8632557988166809,0.005381524097174406,-0.4382959306240082
1761914328522463000,8.938462890625,-0.8386201858520508,0.0763358548283577,-0.37475821375846863
1761914328532519000,8.948518798828125,-0.8220770359039307,0.1136360913515091,-0.30304789543151855
1761914328542574800,8.958574951171874,-0.8237614631652832,0.10370010137557983,-0.22050268948078156
1761914328552630000,8.968630126953125,-0.8385473489761353,0.05618877336382866,-0.13121634721755981
1761914328562686000,8.97868603515625,-0.8592973351478577,-0.008747882209718227,-0.03743818402290344
1761914328572742000,8.988741943359376,-0.8870701789855957,-0.08102289587259293,0.058197520673274994
1761914328582798000,8.998798095703124,-0.9080337882041931,-0.16534018516540527,0.14765869081020355
1761914328592854000,9.00885400390625,-0.922068178653717,-0.25068649649620056,0.21852649748325348
1761914328602910000,9.018909912109375,-0.9194422960281372,-0.32883456349372864,0.25409942865371704
1761914328612966100,9.028966064453124,-0.8942803740501404,-0.35416147112846375,0.25712496042251587
1761914328623022000,9.03902197265625,-0.8590736389160156,-0.3275564908981323,0.22803792357444763
1761914328633078000,9.049078125,-0.8053897023200989,-0.26349493861198425,0.17385536432266235
1761914328643134000,9.059134033203126,-0.7582679986953735,-0.20285263657569885,0.09016473591327667
1761914328653190000,9.06918994140625,-0.7215384244918823,-0.1702856570482254,-0.017661357298493385
1761914328663245800,9.079245849609375,-0.6720483303070068,-0.1527079939842224,-0.14906971156597137
1761914328673302000,9.089302001953126,-0.6039096117019653,-0.1262790411710739,-0.27978450059890747
1761914328683357000,9.09935693359375,-0.526598334312439,-0.09050718694925308,-0.3868023157119751
1761914328693413000,9.1094130859375,-0.44654208421707153,-0.029145317152142525,-0.44555899500846863
1761914328703469000,9.119468994140625,-0.37152108550071716,0.05004936829209328,-0.45471253991127014
1761914328713525000,9.12952490234375,-0.31408292055130005,0.10382259637117386,-0.41444775462150574
1761914328723584500,9.13958447265625,-0.2757408618927002,0.13228991627693176,-0.34338369965553284
1761914328733640400,9.149640380859376,-0.24097031354904175,0.1451338231563568,-0.2727210819721222
1761914328743696400,9.1596962890625,-0.20650793612003326,0.17678576707839966,-0.22053880989551544
1761914328753752600,9.169752685546875,-0.1607433706521988,0.23164582252502441,-0.17857800424098969
1761914328763808300,9.179808349609376,-0.10236048698425293,0.3055972456932068,-0.13322490453720093
1761914328773864200,9.1898642578125,-0.033230751752853394,0.39167168736457825,-0.08164668083190918
1761914328783920400,9.19992041015625,0.04199609160423279,0.47024640440940857,-0.021438732743263245
1761914328793976300,9.209976318359375,0.12411127984523773,0.5299070477485657,0.04935285821557045
1761914328804031500,9.220031494140626,0.203867107629776,0.5716462731361389,0.1300772726535797
1761914328814087400,9.23008740234375,0.2773815989494324,0.5746399164199829,0.2231389582157135
1761914328824143400,9.240143310546875,0.3291153609752655,0.5618303418159485,0.3230122923851013
1761914328834199600,9.250199462890626,0.33568939566612244,0.5603416562080383,0.42179951071739197
1761914328844255500,9.26025537109375,0.30091625452041626,0.5695772171020508,0.5361886620521545
1761914328854311400,9.2703115234375,0.23190484941005707,0.5536645650863647,0.6497223973274231
1761914328864367400,9.280367431640625,0.1667620688676834,0.49338021874427795,0.7285362482070923
1761914328874423300,9.29042333984375,0.11796006560325623,0.41303080320358276,0.757409393787384
1761914328884479200,9.300479248046875,0.09061899036169052,0.3251747190952301,0.7236030101776123
1761914328894535400,9.310535400390625,0.0723680853843689,0.21354138851165771,0.641375720500946
1761914328904591400,9.32059130859375,0.0758802592754364,0.0946301743388176,0.5137171149253845
1761914328914647300,9.330647216796875,0.11365577578544617,-0.01277643907815218,0.35364824533462524
1761914328924702500,9.340702392578125,0.18192189931869507,-0.06875768303871155,0.17650248110294342
1761914328934758400,9.35075830078125,0.2530198097229004,-0.08816227316856384,0.015471064485609531
1761914328944814300,9.360814453125,0.305615097284317,-0.145196795463562,-0.11318225413560867
1761914328954870500,9.37087060546875,0.3420041799545288,-0.20900081098079681,-0.21117857098579407
1761914328964926200,9.38092626953125,0.36019864678382874,-0.22940169274806976,-0.29637548327445984
1761914328974982100,9.390982177734376,0.37917447090148926,-0.17950257658958435,-0.36601054668426514
1761914328985038300,9.401038330078125,0.4038185477256775,-0.053647708147764206,-0.4189794957637787
1761914328995094300,9.41109423828125,0.41215941309928894,0.12412253022193909,-0.43711984157562256
1761914329005150200,9.421150146484376,0.38615578413009644,0.29145801067352295,-0.3908498287200928
1761914329015206400,9.431206298828124,0.3396878242492676,0.4030362367630005,-0.279506653547287
1761914329025262300,9.441262451171875,0.2849058210849762,0.4459035396575928,-0.10556413233280182
1761914329035318300,9.451318359375,0.2353898584842682,0.41201186180114746,0.10885464400053024
1761914329045374500,9.46137451171875,0.18036256730556488,0.29095518589019775,0.34908774495124817
1761914329055429400,9.471429443359375,0.12500208616256714,0.124908447265625,0.5542469024658203
1761914329065485300,9.4814853515625,0.06278771907091141,-0.008782233111560345,0.692118227481842
1761914329075541200,9.491541259765626,-0.0021546066273003817,-0.08176057785749435,0.7678877711296082
1761914329085597200,9.50159716796875,-0.03914324939250946,-0.08675719797611237,0.7827226519584656
1761914329095653400,9.5116533203125,-0.06647776067256927,-0.04103631526231766,0.7662443518638611
1761914329105709300,9.521709228515626,-0.10410422831773758,0.01529912743717432,0.7382827401161194
1761914329115765200,9.53176513671875,-0.1554466187953949,0.050295472145080566,0.6923866868019104
1761914329125821400,9.541821533203125,-0.21478983759880066,0.08161530643701553,0.640489935874939
1761914329135877400,9.55187744140625,-0.272081583738327,0.09846644103527069,0.5922545790672302
1761914329145933300,9.561933349609374,-0.3300367593765259,0.08374875038862228,0.556041955947876
1761914329155989500,9.571989501953125,-0.3718029856681824,0.061298854649066925,0.5171641707420349
1761914329166045400,9.58204541015625,-0.3947612941265106,0.069241464138031,0.48889634013175964
1761914329176100400,9.592100341796876,-0.4027292728424072,0.0780101791024208,0.4718467891216278
1761914329186156300,9.60215625,-0.38528504967689514,0.06557454913854599,0.4557754099369049
1761914329196212200,9.612212158203125,-0.3499543368816376,0.044448234140872955,0.4424521327018738
1761914329206268400,9.622268310546875,-0.30512186884880066,-0.0011892914772033691,0.4172021448612213
1761914329216324400,9.632324462890624,-0.2696363031864166,-0.09298419207334518,0.3695625960826874
1761914329226380300,9.64238037109375,-0.26025718450546265,-0.19908852875232697,0.2997209429740906
1761914329236436500,9.6524365234375,-0.25830507278442383,-0.29604679346084595,0.2233395129442215
1761914329246492400,9.662492431640626,-0.26803866028785706,-0.37464889883995056,0.15113243460655212
1761914329256548400,9.67254833984375,-0.27872705459594727,-0.4404255151748657,0.1048676073551178
1761914329266604500,9.6826044921875,-0.29237496852874756,-0.5048165321350098,0.08405980467796326
1761914329276660500,9.692660400390626,-0.3089541494846344,-0.5842202305793762,0.08817485719919205
1761914329286716400,9.70271630859375,-0.3159438669681549,-0.6622143983840942,0.09437256306409836
1761914329296771300,9.712771240234375,-0.3189312219619751,-0.7035013437271118,0.0899529978632927
1761914329306827300,9.7228271484375,-0.31784945726394653,-0.6857143640518188,0.07586514204740524
1761914329316883200,9.73288330078125,-0.3118312656879425,-0.6305879950523376,0.062151841819286346
1761914329326939400,9.742939453125,-0.31217828392982483,-0.5579814314842224,0.05923008173704147
1761914329336995300,9.752995361328125,-0.3150278627872467,-0.5093598365783691,0.07330735772848129
1761914329347051300,9.76305126953125,-0.3099835515022278,-0.5039427280426025,0.09995068609714508
1761914329357107500,9.773107421875,-0.3045996129512787,-0.5049850940704346,0.11853516101837158
1761914329367163400,9.783163330078125,-0.3186757564544678,-0.4995935261249542,0.13187359273433685
1761914329377219300,9.79321923828125,-0.33874383568763733,-0.48011910915374756,0.12692920863628387
1761914329387275500,9.803275634765624,-0.35999906063079834,-0.45271411538124084,0.11218620836734772
1761914329397331200,9.813331298828125,-0.36432963609695435,-0.4267917275428772,0.088788241147995
1761914329407387100,9.82338720703125,-0.3534490168094635,-0.4170543849468231,0.05995366722345352
1761914329417442300,9.8334423828125,-0.33967024087905884,-0.4243488311767578,0.029889214783906937
1761914329427498200,9.843498291015624,-0.33832427859306335,-0.4209192097187042,-0.005665048491209745
1761914329437554400,9.853554443359375,-0.33896467089653015,-0.3810282349586487,-0.04885584115982056
1761914329447610400,9.8636103515625,-0.3303104639053345,-0.3180793821811676,-0.0859917625784874
1761914329457666300,9.873666259765624,-0.3175714313983917,-0.26669713854789734,-0.10416660457849503
1761914329467722500,9.883722412109375,-0.3124086260795593,-0.26088747382164,-0.099761463701725
1761914329477778400,9.8937783203125,-0.31977468729019165,-0.2611127197742462,-0.08720782399177551
1761914329487834400,9.90383447265625,-0.3350183367729187,-0.24423283338546753,-0.07072445750236511
1761914329497890600,9.913890625,-0.34711402654647827,-0.1977846473455429,-0.07295814901590347
1761914329507946200,9.9239462890625,-0.3406984806060791,-0.14101910591125488,-0.09879480302333832
1761914329518002200,9.934002197265626,-0.3290606439113617,-0.050517696887254715,-0.14023639261722565
1761914329528058400,9.944058349609374,-0.3148726522922516,0.045577410608530045,-0.15978027880191803
1761914329538113300,9.95411328125,-0.30562424659729004,0.12123169004917145,-0.15204742550849915
1761914329548169500,9.96416943359375,-0.3009543716907501,0.1658761203289032,-0.1191033199429512
1761914329558225400,9.974225341796876,-0.2995999753475189,0.18767888844013214,-0.07435040175914764
1761914329568281300,9.98428125,-0.29297778010368347,0.19845856726169586,-0.042886216193437576
1761914329578337500,9.994337646484375,-0.29268747568130493,0.19754615426063538,-0.026518918573856354
1761914329588393500,10.0043935546875,-0.30221280455589294,0.17264214158058167,-0.019559279084205627
1761914329598449400,10.014449462890624,-0.3074932098388672,0.12038984894752502,-0.017463892698287964
1761914329608505300,10.02450537109375,-0.3112700879573822,0.05285129323601723,-0.011200137436389923
1761914329618561300,10.034561279296875,-0.306407630443573,-0.031084874644875526,0.006285808049142361
1761914329628617200,10.0446171875,-0.2874690890312195,-0.11578112095594406,0.03911779075860977
1761914329638673400,10.05467333984375,-0.2684996724128723,-0.1899951696395874,0.06590976566076279
1761914329648729300,10.064729248046875,-0.24713817238807678,-0.21679694950580597,0.07787854224443436
1761914329658784500,10.074784423828126,-0.2426479160785675,-0.20308220386505127,0.07495509833097458
1761914329668840400,10.08484033203125,-0.24258160591125488,-0.2058606743812561,0.08007529377937317
1761914329678896400,10.094896484375,-0.23953522741794586,-0.23472268879413605,0.10391400754451752
1761914329688952300,10.104952392578125,-0.24323302507400513,-0.28160175681114197,0.1364666223526001
1761914329699008500,10.115008544921874,-0.2567990720272064,-0.3430648446083069,0.1739165335893631
1761914329709064200,10.125064208984375,-0.2801922857761383,-0.41565969586372375,0.20516127347946167
1761914329719116500,10.135116455078125,-0.29846182465553284,-0.4907320737838745,0.2147131711244583
1761914329729172500,10.14517236328125,-0.30909183621406555,-0.5419026017189026,0.20284052193164825
1761914329739228200,10.155228271484376,-0.31475886702537537,-0.5748389959335327,0.17311914265155792
1761914329749284400,10.165284423828124,-0.3360079526901245,-0.6156042814254761,0.14664359390735626
1761914329759340300,10.17534033203125,-0.37146955728530884,-0.6426201462745667,0.12117227911949158
1761914329769396200,10.185396240234375,-0.39509445428848267,-0.606054425239563,0.10142014920711517
1761914329779451400,10.195451416015626,-0.4015378952026367,-0.5162707567214966,0.08424429595470428
1761914329789507300,10.20550732421875,-0.39287036657333374,-0.42948442697525024,0.07267951965332031
1761914329799563500,10.2155634765625,-0.36810269951820374,-0.3491922616958618,0.05399717763066292
1761914329809619500,10.225619384765626,-0.3308298885822296,-0.2415212094783783,0.03788318485021591
1761914329819675400,10.23567529296875,-0.2631835639476776,-0.11145853996276855,0.007537328638136387
1761914329829731600,10.245731689453125,-0.15388263761997223,0.04145989939570427,-0.04037347063422203
1761914329839787300,10.255787353515625,-0.018618017435073853,0.19128774106502533,-0.10470718890428543
1761914329849843200,10.26584326171875,0.11755979806184769,0.30832064151763916,-0.17341913282871246
1761914329859899400,10.2758994140625,0.2279709130525589,0.33304673433303833,-0.21788042783737183
1761914329869955300,10.285955322265625,0.2933690845966339,0.24209526181221008,-0.23977693915367126
1761914329880011300,10.29601123046875,0.3096308708190918,0.06806940585374832,-0.23761528730392456
1761914329890066400,10.30606640625,0.2638958692550659,-0.12450616806745529,-0.21494700014591217
1761914329900122400,10.316122314453125,0.16413021087646484,-0.2751998007297516,-0.17901456356048584
1761914329910178300,10.32617822265625,0.044592101126909256,-0.37600308656692505,-0.12741394340991974
1761914329920234500,10.336234375,-0.04844311997294426,-0.42618265748023987,-0.07091028243303299
1761914329930290400,10.34629052734375,-0.11092327535152435,-0.4524456858634949,-0.010478360578417778
1761914329940346400,10.356346435546875,-0.12941068410873413,-0.47617098689079285,0.036080922931432724
1761914329950402300,10.36640234375,-0.12575416266918182,-0.502342700958252,0.07339313626289368
1761914329960458200,10.376458251953125,-0.10442719608545303,-0.5115359425544739,0.10123685002326965
1761914329970514200,10.38651416015625,-0.059479691088199615,-0.4766935110092163,0.1299601048231125
1761914329980570400,10.3965703125,-0.009690746665000916,-0.4182070195674896,0.16262999176979065
1761914329990626300,10.406626220703124,0.006974782794713974,-0.38869544863700867,0.2059633582830429
1761914330000681500,10.416681396484375,-0.005250023677945137,-0.40941113233566284,0.25818076729774475
1761914330010737400,10.4267373046875,-0.04737111181020737,-0.4640767574310303,0.31426802277565
1761914330020793300,10.43679345703125,-0.09888240694999695,-0.5247460007667542,0.3561864197254181
1761914330030849500,10.446849609375,-0.15542477369308472,-0.5674892067909241,0.38189658522605896
1761914330040905200,10.4569052734375,-0.19751781225204468,-0.573844313621521,0.3750535845756531
1761914330050961200,10.466961181640626,-0.22536702454090118,-0.5393363833427429,0.34841078519821167
1761914330061017300,10.477017333984374,-0.2414989322423935,-0.49814289808273315,0.31190675497055054
1761914330071073300,10.4870732421875,-0.24520206451416016,-0.4803526997566223,0.28222209215164185
1761914330081129200,10.497129150390625,-0.24620535969734192,-0.5034852027893066,0.26119211316108704
1761914330091185400,10.507185302734374,-0.24117012321949005,-0.5393049716949463,0.2403949648141861
1761914330101241300,10.517241455078125,-0.2402297705411911,-0.5675086379051208,0.20579102635383606
1761914330111297300,10.52729736328125,-0.24743707478046417,-0.5753380656242371,0.16217990219593048
1761914330121352400,10.5373525390625,-0.26908421516418457,-0.5891388654708862,0.11663815379142761
1761914330131408400,10.547408447265624,-0.30714133381843567,-0.6242632865905762,0.07500282675027847
1761914330141464600,10.557464599609375,-0.3346942365169525,-0.6681953072547913,0.04602773115038872
1761914330151520300,10.567520263671875,-0.347473680973053,-0.6968807578086853,0.016645871102809906
1761914330161576200,10.577576171875,-0.3302292823791504,-0.6718281507492065,-0.028170347213745117
1761914330171632400,10.58763232421875,-0.3109793961048126,-0.5899487137794495,-0.0793166235089302
1761914330181688300,10.597688232421875,-0.29978978633880615,-0.4956860840320587,-0.13637875020503998
1761914330191744300,10.607744140625,-0.28166937828063965,-0.4221231937408447,-0.18537132441997528
1761914330201800400,10.617800537109375,-0.27466630935668945,-0.3756398558616638,-0.22194597125053406
1761914330211856400,10.6278564453125,-0.29763340950012207,-0.3691883385181427,-0.2413921058177948
1761914330221912300,10.637912353515626,-0.3387119770050049,-0.4163318872451782,-0.24457527697086334
1761914330231967500,10.647967529296874,-0.40189918875694275,-0.4779110848903656,-0.22769562900066376
1761914330242023400,10.6580234375,-0.46971940994262695,-0.5619221329689026,-0.20305970311164856
1761914330252079400,10.668079345703125,-0.5218251943588257,-0.653414249420166,-0.17988461256027222
1761914330262135300,10.67813525390625,-0.5734381079673767,-0.7281473278999329,-0.15600016713142395
1761914330272191200,10.688191162109375,-0.6335856318473816,-0.7815421223640442,-0.1451754868030548
1761914330282247400,10.698247314453125,-0.6939792633056641,-0.8149650692939758,-0.1544926017522812
1761914330292303400,10.708303466796876,-0.7536244988441467,-0.7958062887191772,-0.16865742206573486
1761914330302359300,10.718359375,-0.7913997173309326,-0.7599193453788757,-0.16850514709949493
1761914330312415500,10.72841552734375,-0.7965033650398254,-0.7087469696998596,-0.15224789083003998
1761914330322471400,10.738471435546876,-0.7869325280189514,-0.6316149234771729,-0.12930159270763397
1761914330332527400,10.74852734375,-0.7742987275123596,-0.4808504283428192,-0.10508333891630173
1761914330342583300,10.758583251953125,-0.7693268060684204,-0.30716490745544434,-0.060144614428281784
1761914330352638200,10.76863818359375,-0.7508660554885864,-0.1742793172597885,-0.009266519919037819
1761914330362694100,10.778694091796876,-0.7279942035675049,-0.10381953418254852,0.02242092415690422
1761914330372750300,10.788750244140624,-0.6783062815666199,-0.07410531491041183,0.030253548175096512
1761914330382806300,10.79880615234375,-0.5987586379051208,-0.07021070271730423,0.0145387789234519
1761914330392862200,10.8088623046875,-0.4997614622116089,-0.09178896993398666,0.0799018070101738
1761914330402918400,10.81891845703125,-0.4155057966709137,-0.06274133920669556,0.12120723724365234
1761914330412974300,10.828974365234375,-0.40719008445739746,-0.061516813933849335,0.04287487640976906
1761914330423030300,10.8390302734375,-0.4033101499080658,0.08071276545524597,-0.06941940635442734
1761914330433086500,10.84908642578125,-0.36160528659820557,0.19106057286262512,-0.12879936397075653
1761914330443142400,10.859142333984375,-0.2798282206058502,0.291486531496048,-0.10224180668592453
1761914330453198300,10.8691982421875,-0.19316230714321136,0.46752679347991943,-0.03214608132839203
