time,seconds_elapsed,z,y,x
1761914319650619600,0.06661962890625,-0.4239720404148102,-0.06557927280664444,0.07879175245761871
1761914319660675800,0.07667578125,-0.3621276021003723,-0.04294879734516144,0.04248514398932457
1761914319670730800,0.086730712890625,-0.29349154233932495,-0.02930595725774765,0.00569969741627574
1761914319680787000,0.096786865234375,-0.22529810667037964,-0.036429114639759064,-0.024661138653755188
1761914319690842600,0.106842529296875,-0.16291780769824982,-0.05534927546977997,-0.04944637790322304
1761914319700898600,0.116898681640625,-0.09466632455587387,-0.0824916809797287,-0.06657610088586807
1761914319710953700,0.12695361328125,-0.04001373052597046,-0.12313444912433624,-0.07292533665895462
1761914319721009400,0.137009521484375,0.004659200087189674,-0.1704990267753601,-0.07337088882923126
1761914319731065600,0.147065673828125,0.032763540744781494,-0.22146475315093994,-0.06984592974185944
1761914319741121500,0.15712158203125,0.04742690548300743,-0.2712719738483429,-0.051061321049928665
1761914319751177500,0.167177490234375,0.044972799718379974,-0.3104745149612427,-0.027028687298297882
1761914319761233700,0.177233642578125,0.026041187345981598,-0.33826780319213867,0.0019153454340994358
1761914319771289600,0.18728955078125,0.0029531794134527445,-0.3499894440174103,0.036614201962947845
1761914319781345500,0.197345458984375,-0.019881296902894974,-0.35022324323654175,0.063090018928051
1761914319791401700,0.207401611328125,-0.04276903346180916,-0.3499923646450043,0.07435758411884308
1761914319801457700,0.217457763671875,-0.06494411081075668,-0.3433603048324585,0.08147035539150238
1761914319811513600,0.227513671875,-0.09315657615661621,-0.31452226638793945,0.09208811819553375
1761914319821568500,0.237568603515625,-0.12257331609725952,-0.2749492824077606,0.10124539583921432
1761914319831624400,0.24762451171875,-0.14770983159542084,-0.25110945105552673,0.11297954618930817
1761914319841680600,0.2576806640625,-0.16374152898788452,-0.2408304512500763,0.12592864036560059
1761914319851736600,0.267736572265625,-0.17619100213050842,-0.22929629683494568,0.12579254806041718
1761914319861792500,0.27779248046875,-0.18610994517803192,-0.21971078217029572,0.10953714698553085
1761914319871848700,0.2878486328125,-0.19858606159687042,-0.24510003626346588,0.06835455447435379
1761914319881904600,0.297904541015625,-0.21310748159885406,-0.30444324016571045,0.009015332907438278
1761914319891960600,0.307960693359375,-0.22261203825473785,-0.40297701954841614,-0.0646655485033989
1761914319902016500,0.3180166015625,-0.2338353991508484,-0.5078789591789246,-0.13746678829193115
1761914319912072700,0.32807275390625,-0.23682133853435516,-0.6008394956588745,-0.19734929502010345
1761914319922128600,0.338128662109375,-0.24094124138355255,-0.669015109539032,-0.23217704892158508
1761914319932184600,0.3481845703125,-0.2393694370985031,-0.7009575963020325,-0.2377944439649582
1761914319942240800,0.35824072265625,-0.23024199903011322,-0.667980968952179,-0.2147064357995987
1761914319952296400,0.36829638671875,-0.21881942451000214,-0.5703324675559998,-0.16410665214061737
1761914319962352600,0.3783525390625,-0.1893044114112854,-0.439861536026001,-0.09675157815217972
1761914319972407600,0.388407470703125,-0.15470515191555023,-0.3146114647388458,-0.012715795077383518
1761914319982463500,0.39846337890625,-0.11448156833648682,-0.20004360377788544,0.07020651549100876
1761914319992519700,0.408519775390625,-0.06830529123544693,-0.0732521116733551,0.160345196723938
1761914320002575600,0.41857568359375,-0.028777053579688072,0.06585198640823364,0.24593040347099304
1761914320012631600,0.428631591796875,0.0034378746058791876,0.2118920087814331,0.3144146502017975
1761914320022687700,0.438687744140625,0.011247594840824604,0.33251163363456726,0.3510695993900299
1761914320032743700,0.44874365234375,-0.006298375781625509,0.41314896941185,0.3384542167186737
1761914320042799600,0.458799560546875,-0.027593810111284256,0.45802614092826843,0.29052770137786865
1761914320052855600,0.46885546875,-0.06186762824654579,0.475430428981781,0.21164833009243011
1761914320062911500,0.478911376953125,-0.09828422218561172,0.457979291677475,0.13079530000686646
1761914320072967400,0.488967529296875,-0.14366741478443146,0.4026971161365509,0.0553511381149292
1761914320083023600,0.499023681640625,-0.1990225613117218,0.31249159574508667,-0.018035460263490677
1761914320093079600,0.50907958984375,-0.2543577253818512,0.14745789766311646,-0.0970945879817009
1761914320103135500,0.519135498046875,-0.3091226816177368,-0.06159918010234833,-0.20019887387752533
1761914320113191700,0.529191650390625,-0.3524547219276428,-0.2591277062892914,-0.3288479149341583
1761914320123246600,0.53924658203125,-0.39489591121673584,-0.40063557028770447,-0.46297404170036316
1761914320133302800,0.549302734375,-0.42051926255226135,-0.44358381628990173,-0.5881657600402832
1761914320143358700,0.559358642578125,-0.41793012619018555,-0.40152132511138916,-0.6936519742012024
1761914320153414400,0.569414306640625,-0.4066375195980072,-0.2932041883468628,-0.777131199836731
1761914320163470600,0.579470703125,-0.37479570508003235,-0.12499333173036575,-0.8353664875030518
1761914320173526500,0.589526611328125,-0.2971475124359131,0.07891212403774261,-0.8572952747344971
1761914320183582500,0.59958251953125,-0.20707301795482635,0.2621533274650574,-0.8506543636322021
1761914320193638700,0.609638671875,-0.09474222362041473,0.45370757579803467,-0.8129192590713501
1761914320203694600,0.619694580078125,0.04760746657848358,0.6273917555809021,-0.762708306312561
1761914320213750500,0.62975048828125,0.20617526769638062,0.7453431487083435,-0.7073180079460144
1761914320223806700,0.639806640625,0.3619113266468048,0.7954702377319336,-0.6509988307952881
1761914320233862700,0.649862548828125,0.5130555629730225,0.7959765195846558,-0.6091485619544983
1761914320243918600,0.659918701171875,0.6177433729171753,0.7659373879432678,-0.5748297572135925
1761914320253974800,0.669974853515625,0.6737211346626282,0.7027338743209839,-0.541925847530365
1761914320264030700,0.68003076171875,0.6956679821014404,0.6164965033531189,-0.4950246512889862
1761914320274085600,0.690085693359375,0.6904303431510925,0.5086485743522644,-0.42127320170402527
1761914320284141600,0.7001416015625,0.6733787059783936,0.3839910626411438,-0.3243200182914734
1761914320294197500,0.710197509765625,0.64825439453125,0.2521081566810608,-0.20857904851436615
1761914320304253700,0.720253662109375,0.6299734115600586,0.1120770052075386,-0.07551286369562149
1761914320314309600,0.7303095703125,0.6285569071769714,-0.04032238945364952,0.05836557224392891
1761914320324365600,0.740365478515625,0.6359708309173584,-0.20835188031196594,0.18047523498535156
1761914320334421800,0.750421875,0.6475178003311157,-0.35176947712898254,0.28129318356513977
1761914320344477700,0.760477783203125,0.6475265622138977,-0.43820399045944214,0.34855425357818604
1761914320354533600,0.77053369140625,0.6385250687599182,-0.4742943346500397,0.3894540071487427
1761914320364589600,0.780589599609375,0.6213114857673645,-0.47997725009918213,0.3847886919975281
1761914320374645800,0.790645751953125,0.5898662209510803,-0.4563813805580139,0.35120889544487
1761914320384701400,0.800701416015625,0.5442361235618591,-0.4171663522720337,0.2856471836566925
1761914320394757600,0.810757568359375,0.48652249574661255,-0.3663782477378845,0.1873706877231598
1761914320404813600,0.8208134765625,0.4123987555503845,-0.32526731491088867,0.08357878029346466
1761914320414869500,0.830869384765625,0.3298679292201996,-0.28217390179634094,-0.013320332393050194
1761914320424925400,0.840925537109375,0.2580065131187439,-0.23131445050239563,-0.07981093972921371
1761914320434980600,0.850980712890625,0.19579879939556122,-0.1705498993396759,-0.10307498276233673
1761914320445036500,0.86103662109375,0.1481734812259674,-0.09869968146085739,-0.08398944139480591
1761914320455092700,0.8710927734375,0.10392560064792633,-0.03641846030950546,-0.029317675158381462
1761914320465148700,0.881148681640625,0.07028401643037796,0.014854846522212029,0.048347823321819305
1761914320475204600,0.89120458984375,0.04283614829182625,0.04692010581493378,0.13068610429763794
1761914320485260800,0.9012607421875,0.021821409463882446,0.06027479097247124,0.20454834401607513
1761914320495316500,0.91131640625,0.003425091505050659,0.06109531223773956,0.24949824810028076
1761914320505372400,0.921372314453125,-0.008257930167019367,0.05741828680038452,0.27856266498565674
1761914320515428600,0.9314287109375,-0.012818593531847,0.07416317611932755,0.29919150471687317
1761914320525484500,0.941484619140625,0.0036519928835332394,0.11429621279239655,0.32643750309944153
1761914320535540500,0.95154052734375,0.026215357705950737,0.16600655019283295,0.36006391048431396
1761914320545596700,0.9615966796875,0.05317480489611626,0.23580613732337952,0.39741021394729614
1761914320555652600,0.971652587890625,0.0789419561624527,0.2979682981967926,0.4252255856990814
1761914320565708500,0.98170849609375,0.1106913611292839,0.3397884666919708,0.45166465640068054
1761914320575764700,0.9917646484375,0.13897466659545898,0.3487150967121124,0.4735100269317627
1761914320585819600,1.001819580078125,0.15175624191761017,0.33560436964035034,0.4971429407596588
1761914320595875600,1.01187548828125,0.15543140470981598,0.3167579770088196,0.5237886309623718
1761914320605931500,1.021931640625,0.1696888953447342,0.28918173909187317,0.551109254360199
1761914320615987500,1.031987548828125,0.1785987764596939,0.27123868465423584,0.5621927976608276
1761914320626043600,1.042043701171875,0.16763107478618622,0.23952017724514008,0.5516101717948914
1761914320636099600,1.052099609375,0.1608288288116455,0.19093160331249237,0.5235140919685364
1761914320646155500,1.062155517578125,0.16334392130374908,0.15743543207645416,0.47506052255630493
1761914320656211700,1.072211669921875,0.1521296203136444,0.1928195208311081,0.4346398711204529
1761914320666267600,1.082267578125,0.09127797931432724,0.16060751676559448,0.434672087430954
1761914320676323600,1.092323486328125,0.06624027341604233,0.3084776699542999,0.48906928300857544
1761914320686379800,1.1023798828125,0.06611217558383942,0.4099728763103485,0.534904956817627
1761914320696435700,1.112435791015625,0.04236423596739769,0.4080580472946167,0.5442201495170593
1761914320706491600,1.12249169921875,0.06095150113105774,0.3838914632797241,0.5153472423553467
1761914320716547800,1.1325478515625,0.17056961357593536,0.5158044695854187,0.5063968896865845
1761914320726604000,1.14260400390625,0.24061021208763123,0.6576148867607117,0.5060868859291077
1761914320736659000,1.152658935546875,0.28610020875930786,0.6400502920150757,0.470267117023468
1761914320746715000,1.16271484375,0.32816508412361145,0.5857905149459839,0.4440229833126068
1761914320756770800,1.172770751953125,0.36815938353538513,0.5522956848144531,0.4531136751174927
1761914320766826800,1.18282666015625,0.3907664120197296,0.5654924511909485,0.4946315586566925
1761914320776883000,1.192883056640625,0.4252288043498993,0.6013388633728027,0.5509451627731323
1761914320786939000,1.20293896484375,0.46514397859573364,0.6338688135147095,0.5971747040748596
1761914320796994800,1.212994873046875,0.5157224535942078,0.6566039323806763,0.6243855953216553
1761914320807051000,1.223051025390625,0.5589013695716858,0.659232497215271,0.628976583480835
1761914320817107000,1.23310693359375,0.5886417031288147,0.6425706744194031,0.6021785140037537
1761914320827163000,1.243162841796875,0.6232166886329651,0.5810463428497314,0.5313512086868286
1761914320837219000,1.253218994140625,0.6468887329101562,0.4563528895378113,0.42045480012893677
1761914320847275000,1.26327490234375,0.6593102812767029,0.2750680446624756,0.27404752373695374
1761914320857331000,1.2733310546875,0.6543578505516052,0.045031655579805374,0.07282333821058273
1761914320867387100,1.28338720703125,0.6243722438812256,-0.19860577583312988,-0.17917028069496155
1761914320877442800,1.29344287109375,0.5853409767150879,-0.4113880693912506,-0.46805083751678467
1761914320887498000,1.303498046875,0.5512919425964355,-0.5462947487831116,-0.7719396352767944
1761914320897554000,1.313553955078125,0.43789932131767273,-0.2070983201265335,-1.1216158866882324
1761914320907609900,1.32360986328125,0.12930180132389069,0.15981949865818024,-1.502936601638794
1761914320917666000,1.333666015625,-0.1689104586839676,0.008525311015546322,-1.9016213417053223
1761914320927722000,1.343721923828125,-0.3693751096725464,0.28309348225593567,-2.167090892791748
1761914320937778000,1.35377783203125,-0.49237480759620667,-0.5774521231651306,-2.301004409790039
1761914320947834000,1.363834228515625,-0.4966971278190613,-1.0413023233413696,-2.337956190109253
1761914320957890000,1.37389013671875,-0.2857617139816284,-1.3954410552978516,-2.316441774368286
1761914320967946000,1.383946044921875,0.004162520635873079,-1.9764026403427124,-2.2756919860839844
1761914320978002000,1.394001953125,0.1752764731645584,-2.486440658569336,-2.114938497543335
1761914320988057900,1.404057861328125,0.21753817796707153,-2.3231308460235596,-1.9899791479110718
1761914320998113800,1.41411376953125,0.3860345184803009,-1.7937511205673218,-1.9003835916519165
1761914321008170000,1.424169921875,0.5804418325424194,-1.488523244857788,-1.746215581893921
1761914321018226000,1.434225830078125,0.7532958984375,-1.4380627870559692,-1.4229871034622192
1761914321028281900,1.44428173828125,0.7644505500793457,-1.712381362915039,-0.9052262902259827
1761914321038337000,1.4543369140625,0.639283299446106,-1.8566049337387085,-0.15068191289901733
1761914321048393000,1.46439306640625,0.359578937292099,-1.4861482381820679,0.7833626866340637
1761914321058449200,1.47444921875,0.10332425683736801,-1.2067701816558838,1.6056605577468872
1761914321068505000,1.484505126953125,0.10382253676652908,-0.17737238109111786,1.7391868829727173
1761914321078560800,1.494560791015625,0.6166722774505615,1.5539872646331787,0.8591906428337097
1761914321088617000,1.504616943359375,1.1906063556671143,1.8492058515548706,0.1718178242444992
1761914321098673000,1.5146728515625,1.4322549104690552,1.4428244829177856,-0.062094796448946
1761914321108728800,1.524728759765625,1.4192075729370117,1.2656816244125366,-0.1439603716135025
1761914321118785000,1.534784912109375,1.2155405282974243,1.2812553644180298,-0.1858164668083191
1761914321128841000,1.544841064453125,1.0090477466583252,1.219254493713379,-0.3098832964897156
1761914321138897000,1.55489697265625,0.9191474318504333,1.0390594005584717,-0.5504732728004456
1761914321148953000,1.564953125,0.9141193628311157,0.7040199637413025,-0.7694796323776245
1761914321159009000,1.575009033203125,0.9345991015434265,0.31140875816345215,-0.8347572088241577
1761914321169065000,1.58506494140625,0.9269827008247375,-0.07056284695863724,-0.6536614298820496
1761914321179121000,1.595120849609375,0.8416332006454468,-0.23791828751564026,-0.39037707448005676
1761914321189177000,1.605177001953125,0.698838472366333,-0.24842552840709686,-0.18525853753089905
1761914321199231700,1.615231689453125,0.5775173902511597,-0.1305236518383026,-0.09523756802082062
1761914321209288000,1.625287841796875,0.5069023370742798,0.004220311529934406,-0.09534329921007156
1761914321219344000,1.63534375,0.4573238790035248,0.08457933366298676,-0.14821690320968628
1761914321229399800,1.64539990234375,0.42039090394973755,0.09415659308433533,-0.18500180542469025
1761914321239456000,1.6554560546875,0.4124016761779785,0.0736265480518341,-0.19656231999397278
1761914321249512000,1.665511962890625,0.410348117351532,-0.010512029752135277,-0.1313186138868332
1761914321259567900,1.67556787109375,0.418977826833725,-0.02038995921611786,-0.03128468617796898
1761914321269624000,1.6856240234375,0.4031383991241455,0.10476262867450714,0.04228993132710457
1761914321279680000,1.695679931640625,0.33660730719566345,0.26444417238235474,0.12181911617517471
1761914321289736000,1.70573583984375,0.2361012101173401,0.4158872365951538,0.2217627465724945
1761914321299792100,1.715792236328125,0.12035331130027771,0.600653886795044,0.3219625949859619
1761914321309847800,1.725847900390625,0.00006258428766159341,0.7591164708137512,0.4349954128265381
1761914321319903700,1.73590380859375,-0.1280815303325653,0.8413791060447693,0.562546968460083
1761914321329960000,1.7459599609375,-0.26659679412841797,0.4023711383342743,0.648246705532074
1761914321340014800,1.756014892578125,-0.4956534206867218,0.13690805435180664,0.6000866293907166
1761914321350071000,1.766071044921875,-0.643399178981781,-0.30376413464546204,0.6810885071754456
1761914321360127000,1.776126953125,-0.6572814583778381,-0.48936834931373596,0.59236079454422
1761914321370183000,1.786182861328125,-0.6557466983795166,-0.503882884979248,0.3981665372848511
1761914321380239000,1.796239013671875,-0.6045748591423035,-0.5415276885032654,0.20950847864151
1761914321390295000,1.806294921875,-0.5212964415550232,-0.5481850504875183,0.02857491932809353
1761914321400351000,1.81635107421875,-0.43845751881599426,-0.5227854251861572,-0.13377536833286285
1761914321410407000,1.826406982421875,-0.34410572052001953,-0.4807503819465637,-0.2611447870731354
1761914321420462800,1.836462890625,-0.2660127580165863,-0.41423606872558594,-0.34560614824295044
1761914321430518800,1.846518798828125,-0.22653940320014954,-0.3063199818134308,-0.3912404775619507
1761914321440575000,1.856574951171875,-0.2425529807806015,-0.13756531476974487,-0.40602022409439087
1761914321450631000,1.866630859375,-0.2845371961593628,0.045946184545755386,-0.3810805082321167
1761914321460686800,1.876686767578125,-0.3122977018356323,0.18504628539085388,-0.29600954055786133
1761914321470743000,1.886742919921875,-0.2962830662727356,0.2587532699108124,-0.14097896218299866
1761914321480799000,1.896799072265625,-0.2475661188364029,0.30175507068634033,0.06017332524061203
1761914321490854100,1.906854248046875,-0.1983623504638672,0.31355419754981995,0.2572653591632843
1761914321500910000,1.91691015625,-0.15898406505584717,0.3319616913795471,0.4235003888607025
1761914321510965800,1.9269658203125,-0.11179471015930176,0.34855398535728455,0.5281141400337219
1761914321521022000,1.93702197265625,-0.0612788051366806,0.3853181302547455,0.5484316945075989
1761914321531078000,1.947077880859375,0.0014271880500018597,0.41974136233329773,0.5146673321723938
1761914321541133800,1.9571337890625,0.058034807443618774,0.42839235067367554,0.4773836135864258
1761914321551190000,1.96718994140625,0.09746184200048447,0.3748457729816437,0.45924773812294006
1761914321561246000,1.977245849609375,0.1210571825504303,0.28944939374923706,0.4439745247364044
1761914321571302000,1.987302001953125,0.14461922645568848,0.20100954174995422,0.40727856755256653
1761914321581358000,1.997358154296875,0.18123289942741394,0.1784280687570572,0.32383692264556885
1761914321591414000,2.0074140625,0.22978579998016357,0.2322164624929428,0.19379450380802155
1761914321601470000,2.017469970703125,0.26727163791656494,0.33287355303764343,0.038778819143772125
1761914321611526000,2.02752587890625,0.2839938998222351,0.44788670539855957,-0.10047201067209244
1761914321621582000,2.03758203125,0.2631293535232544,0.5430126786231995,-0.1809583306312561
1761914321631636700,2.04763671875,0.2212785929441452,0.6110079884529114,-0.1926426887512207
1761914321641693000,2.05769287109375,0.16123603284358978,0.6598458290100098,-0.1599225550889969
1761914321651748900,2.067748779296875,0.09541094303131104,0.6815793514251709,-0.10433705896139145
1761914321661804800,2.0778046875,0.03007667511701584,0.6852803230285645,-0.05011270195245743
1761914321671861000,2.087861083984375,-0.02207920327782631,0.6667580604553223,-0.0023694143164902925
1761914321681917000,2.0979169921875,-0.052017129957675934,0.611108660697937,0.047814927995204926
1761914321691972900,2.107972900390625,-0.07681301981210709,0.515181839466095,0.10555971413850784
1761914321702029000,2.118029052734375,-0.09899422526359558,0.4031226933002472,0.15019136667251587
1761914321712085000,2.1280849609375,-0.11108390986919403,0.30944228172302246,0.1619260460138321
1761914321722141000,2.138140869140625,-0.0996919721364975,0.25076085329055786,0.12255147844552994
1761914321732197000,2.148197021484375,-0.06526395678520203,0.23501171171665192,0.038964178413152695
1761914321742253000,2.158253173828125,-0.009604157879948616,0.23471103608608246,-0.06241810321807861
1761914321752309000,2.16830908203125,0.0626697689294815,0.2382301390171051,-0.1594245433807373
1761914321762365200,2.178365234375,0.13637222349643707,0.23176425695419312,-0.2412206083536148
1761914321772421000,2.188421142578125,0.20854175090789795,0.23209261894226074,-0.30679720640182495
1761914321782476000,2.19847607421875,0.2593386173248291,0.24616236984729767,-0.3527364730834961
1761914321792532000,2.208531982421875,0.28961023688316345,0.24271491169929504,-0.38539162278175354
1761914321802588000,2.218587890625,0.30375537276268005,0.23542769253253937,-0.4199323058128357
1761914321812644000,2.22864404296875,0.2950814366340637,0.210945263504982,-0.448604941368103
1761914321822700000,2.238699951171875,0.26247236132621765,0.1748274713754654,-0.46215006709098816
1761914321832756000,2.248755859375,0.2125074714422226,0.12868793308734894,-0.45570120215415955
1761914321842812200,2.258812255859375,0.152440145611763,0.07799679785966873,-0.4231739044189453
1761914321852868000,2.2688681640625,0.09801364690065384,0.02382570505142212,-0.3710116147994995
1761914321862924000,2.278924072265625,0.05814053490757942,-0.01333098579198122,-0.31422317028045654
1761914321872980200,2.288980224609375,0.03514600172638893,-0.05938742682337761,-0.24832645058631897
1761914321883036200,2.2990361328125,0.01737898960709572,-0.11491912603378296,-0.17059624195098877
1761914321893092000,2.309092041015625,-0.00025007082149386406,-0.17608341574668884,-0.07962825149297714
1761914321903148300,2.319148193359375,-0.011125355027616024,-0.20994897186756134,0.015205584466457367
1761914321913204000,2.329203857421875,-0.01625460386276245,-0.20849356055259705,0.11496227234601974
1761914321923259100,2.339259033203125,-0.01991218887269497,-0.20044441521167755,0.23641307651996613
1761914321933315000,2.349315185546875,-0.02894776128232479,-0.19694529473781586,0.3687111735343933
1761914321943371000,2.35937109375,-0.04541568458080292,-0.20737741887569427,0.49885934591293335
1761914321953427200,2.36942724609375,-0.05920766294002533,-0.2119346261024475,0.6060941815376282
1761914321963483100,2.379483154296875,-0.06432706117630005,-0.19835835695266724,0.6842989921569824
1761914321973539000,2.3895390625,-0.06463278830051422,-0.15362951159477234,0.7217925786972046
1761914321983595000,2.399594970703125,-0.05776822566986084,-0.08269327878952026,0.7388365268707275
1761914321993651200,2.409651123046875,-0.04783410206437111,-0.029796777293086052,0.730665922164917
1761914322003707100,2.41970703125,-0.05798953399062157,-0.0022173479665070772,0.7169943451881409
1761914322013763000,2.42976318359375,-0.09120234847068787,-0.0001430117554264143,0.6845112442970276
1761914322023819000,2.439819091796875,-0.14523708820343018,-0.02093351073563099,0.648391842842102
1761914322033875000,2.449875,-0.21663856506347656,-0.07022515684366226,0.6175580024719238
1761914322043931000,2.459930908203125,-0.293717622756958,-0.10582629591226578,0.5939767956733704
1761914322053987000,2.469987060546875,-0.361368328332901,-0.10580819100141525,0.5883985161781311
1761914322064043000,2.48004296875,-0.4336547553539276,-0.10436715185642242,0.5982477068901062
1761914322074098200,2.49009814453125,-0.513310432434082,-0.12539014220237732,0.6241272687911987
1761914322084154000,2.500154052734375,-0.588996410369873,-0.14767228066921234,0.6467441320419312
1761914322094210000,2.5102099609375,-0.6388662457466125,-0.1315889209508896,0.6389732956886292
1761914322104266200,2.520266357421875,-0.6386140584945679,-0.04381832107901573,0.6034771203994751
1761914322114322000,2.530322021484375,-0.5999451875686646,0.09295523911714554,0.5649118423461914
1761914322124377900,2.5403779296875,-0.5423948168754578,0.23938383162021637,0.5585927367210388
1761914322134434000,2.55043408203125,-0.48414671421051025,0.36272892355918884,0.5894531607627869
1761914322144490000,2.560489990234375,-0.42573052644729614,0.48205479979515076,0.6408886313438416
1761914322154546000,2.5705458984375,-0.35259851813316345,0.5910468101501465,0.699279248714447
1761914322164602000,2.58060205078125,-0.27478283643722534,0.6848241686820984,0.7499903440475464
1761914322174658000,2.590657958984375,-0.19282084703445435,0.7246101498603821,0.7882064580917358
1761914322184714000,2.6007138671875,-0.12307612597942352,0.719681441783905,0.8131512403488159
1761914322194770200,2.610770263671875,-0.056726131588220596,0.6778038144111633,0.825700044631958
1761914322204826000,2.620826171875,0.00038589202449657023,0.6141347885131836,0.8254534602165222
1761914322214881300,2.63088134765625,0.048357147723436356,0.5348911285400391,0.7999445796012878
1761914322224937000,2.64093701171875,0.08669095486402512,0.4369509518146515,0.7489607930183411
1761914322234993000,2.650992919921875,0.10776720941066742,0.29584550857543945,0.6766724586486816
1761914322245049000,2.661049072265625,0.11009348183870316,0.1216563954949379,0.607755184173584
1761914322255105000,2.67110498046875,0.10162569582462311,-0.04872652515769005,0.5513073801994324
1761914322265161000,2.681160888671875,0.08045649528503418,-0.19617536664009094,0.4929439127445221
1761914322275217200,2.691217041015625,0.06289427727460861,-0.28140318393707275,0.41601237654685974
1761914322285273000,2.701273193359375,0.060080114752054214,-0.2989257276058197,0.31023108959198
1761914322295329000,2.7113291015625,0.07153383642435074,-0.28100770711898804,0.20150887966156006
1761914322305385200,2.72138525390625,0.09863336384296417,-0.2503283619880676,0.09533317387104034
1761914322315441200,2.731441162109375,0.13904203474521637,-0.20131446421146393,0.009840114042162895
1761914322325497000,2.7414970703125,0.17504212260246277,-0.15469130873680115,-0.06300026923418045
1761914322335553300,2.75155322265625,0.20626741647720337,-0.11464349180459976,-0.11683820188045502
1761914322345609000,2.76160888671875,0.23399092257022858,-0.07260575890541077,-0.17901529371738434
1761914322355664100,2.7716640625,0.2641903758049011,-0.022224079817533493,-0.2571524381637573
1761914322365720000,2.781719970703125,0.3022131323814392,0.03776974976062775,-0.35442811250686646
1761914322375776000,2.79177587890625,0.344452440738678,0.09827730059623718,-0.45840486884117126
1761914322385832200,2.801832275390625,0.3735991418361664,0.12727299332618713,-0.5555316805839539
1761914322395888000,2.81188818359375,0.37543433904647827,0.1224212497472763,-0.6512728333473206
1761914322405944000,2.821944091796875,0.34904107451438904,0.09684345871210098,-0.749041736125946
1761914322416000000,2.832,0.29243800044059753,0.054728224873542786,-0.8448388576507568
1761914322426056200,2.84205615234375,0.2154153734445572,-0.0014397049089893699,-0.9137073755264282
1761914322436112100,2.852112060546875,0.1340869665145874,-0.07120999693870544,-0.9255174398422241
1761914322446168000,2.86216796875,0.049008555710315704,-0.14707599580287933,-0.8762012720108032
1761914322456224000,2.87222412109375,-0.0328490249812603,-0.20059248805046082,-0.7753902673721313
1761914322466280000,2.882280029296875,-0.10137801617383957,-0.2377196103334427,-0.6617334485054016
1761914322476336000,2.892336181640625,-0.15649400651454926,-0.24386513233184814,-0.5581663250923157
1761914322486392000,2.90239208984375,-0.18755897879600525,-0.21985992789268494,-0.47241467237472534
1761914322496447000,2.912447021484375,-0.2057478278875351,-0.17888186872005463,-0.4055030345916748
1761914322506503200,2.922503173828125,-0.2058359831571579,-0.13483105599880219,-0.3429222106933594
1761914322516559000,2.93255908203125,-0.1950717568397522,-0.08721799403429031,-0.2797725200653076
1761914322526615000,2.942614990234375,-0.17565783858299255,-0.012652412056922913,-0.22112306952476501
1761914322536671200,2.952671142578125,-0.1516454517841339,0.07428035885095596,-0.17805948853492737
1761914322546727200,2.96272705078125,-0.13659033179283142,0.14417608082294464,-0.13992567360401154
1761914322556782800,2.972782958984375,-0.13698634505271912,0.20572254061698914,-0.1066657230257988
1761914322566839000,2.982839111328125,-0.14107775688171387,0.26606684923171997,-0.05567364767193794
1761914322576895000,2.99289501953125,-0.14230601489543915,0.32267045974731445,0.02412291243672371
1761914322586951000,3.002950927734375,-0.14329297840595245,0.36760783195495605,0.12046729028224945
1761914322597007000,3.013007080078125,-0.1441318690776825,0.41183069348335266,0.21014630794525146
1761914322607063000,3.02306298828125,-0.1309385746717453,0.44417399168014526,0.2973134517669678
1761914322617119000,3.033118896484375,-0.09600935131311417,0.46014976501464844,0.3490176498889923
1761914322627175200,3.043175048828125,-0.0398494116961956,0.4637114703655243,0.3628897964954376
1761914322637231000,3.053231201171875,0.021277058869600296,0.44621849060058594,0.33487412333488464
1761914322647286300,3.063286376953125,0.09123457223176956,0.39898306131362915,0.27809685468673706
1761914322657342000,3.073342041015625,0.13743695616722107,0.3438290059566498,0.2109716236591339
1761914322667398000,3.08339794921875,0.17324689030647278,0.27557432651519775,0.14576172828674316
1761914322677454000,3.0934541015625,0.19227170944213867,0.1848718523979187,0.09856598824262619
1761914322687510000,3.103510009765625,0.20163138210773468,0.09724079817533493,0.0643659383058548
1761914322697566000,3.11356591796875,0.21246619522571564,0.02847105637192726,0.05751628801226616
1761914322707622100,3.1236220703125,0.22039814293384552,-0.0356978103518486,0.06532733887434006
1761914322717677600,3.133677490234375,0.23019059002399445,-0.10106509923934937,0.07194476574659348
1761914322727733500,3.1437333984375,0.23076823353767395,-0.15715180337429047,0.06635318696498871
1761914322737789700,3.153789794921875,0.24681644141674042,-0.19319449365139008,0.031014109030365944
1761914322747845600,3.163845703125,0.2727590799331665,-0.21132849156856537,-0.013338175602257252
1761914322757901600,3.173901611328125,0.30920925736427307,-0.2105013132095337,-0.060568805783987045
1761914322767957800,3.183957763671875,0.3407314717769623,-0.1960749626159668,-0.08243095874786377
1761914322778013700,3.194013671875,0.35425660014152527,-0.18214529752731323,-0.07151226699352264
1761914322788068600,3.204068603515625,0.3378715217113495,-0.15920136868953705,-0.0400366336107254
1761914322798124500,3.21412451171875,0.2900344729423523,-0.15394829213619232,0.02881620079278946
1761914322808180500,3.224180419921875,0.2257351279258728,-0.16427789628505707,0.12507909536361694
1761914322818236700,3.234236572265625,0.1589539647102356,-0.16745664179325104,0.21284861862659454
1761914322828292600,3.244292724609375,0.10353624820709229,-0.16966067254543304,0.27536100149154663
1761914322838348500,3.2543486328125,0.03562856838107109,-0.21444597840309143,0.31953299045562744
1761914322848404700,3.26440478515625,-0.03856842964887619,-0.27114176750183105,0.33396226167678833
1761914322858460700,3.274460693359375,-0.09021218121051788,-0.27903643250465393,0.29541513323783875
1761914322868516600,3.2845166015625,-0.11030573397874832,-0.22302882373332977,0.19464485347270966
1761914322878572800,3.29457275390625,-0.11351697146892548,-0.1582825779914856,0.0486849807202816
1761914322888628700,3.304628662109375,-0.10685214400291443,-0.12112163007259369,-0.11947526782751083
1761914322898684400,3.314684326171875,-0.09113763272762299,-0.10663643479347229,-0.27995947003364563
1761914322908740600,3.32474072265625,-0.05652559548616409,-0.07755976915359497,-0.4188776910305023
1761914322918796500,3.334796630859375,0.0054640076123178005,0.009665676392614841,-0.5253673791885376
1761914322928852500,3.3448525390625,0.08039470762014389,0.13696131110191345,-0.5724515318870544
1761914322938907600,3.35490771484375,0.13481347262859344,0.22995144128799438,-0.5170186161994934
1761914322948963600,3.364963623046875,0.1468546837568283,0.2716964781284332,-0.37686285376548767
1761914322959019800,3.375019775390625,0.10972889512777328,0.24237748980522156,-0.17353050410747528
1761914322969075700,3.38507568359375,0.0377361923456192,0.135333850979805,0.060505419969558716
1761914322979131600,3.395131591796875,-0.06923872232437134,-0.020972127094864845,0.29301562905311584
1761914322989187800,3.405187744140625,-0.18249258399009705,-0.1788584291934967,0.46982476115226746
1761914322999243500,3.415243408203125,-0.28111928701400757,-0.2858797013759613,0.5568004250526428
1761914323009299500,3.425299560546875,-0.34568148851394653,-0.361371248960495,0.5688351988792419
1761914323019355600,3.435355712890625,-0.3763696551322937,-0.40734726190567017,0.5239348411560059
1761914323029411600,3.44541162109375,-0.3803662359714508,-0.4228106439113617,0.4513069987297058
1761914323039467500,3.455467529296875,-0.34442049264907837,-0.42864537239074707,0.35885801911354065
1761914323049523700,3.465523681640625,-0.28008759021759033,-0.40245771408081055,0.24214978516101837
1761914323059579600,3.47557958984375,-0.1976531594991684,-0.35032686591148376,0.11314412951469421
1761914323069635600,3.485635498046875,-0.10608142614364624,-0.28758570551872253,-0.01822933740913868
1761914323079690800,3.495690673828125,-0.011715245433151722,-0.22359873354434967,-0.13595889508724213
1761914323089746700,3.50574658203125,0.07107550650835037,-0.1386295109987259,-0.23678724467754364
1761914323099802400,3.51580224609375,0.13061553239822388,-0.03230094909667969,-0.3232150673866272
1761914323109858600,3.525858642578125,0.16285070776939392,0.08017126470804214,-0.3944961726665497
1761914323119914500,3.53591455078125,0.17572762072086334,0.19314922392368317,-0.4473327696323395
1761914323129970400,3.545970458984375,0.16298678517341614,0.2746483385562897,-0.4689227342605591
1761914323140026600,3.556026611328125,0.12524819374084473,0.29839760065078735,-0.4504409432411194
1761914323150082600,3.56608251953125,0.054605454206466675,0.26404762268066406,-0.3844081163406372
1761914323160138500,3.576138427734375,-0.04549078643321991,0.16787928342819214,-0.2898073196411133
1761914323170194700,3.586194580078125,-0.15295466780662537,0.04056873172521591,-0.17382505536079407
1761914323180250600,3.596250732421875,-0.2501640319824219,-0.08921163529157639,-0.07476265728473663
1761914323190306600,3.606306640625,-0.3084494471549988,-0.18088403344154358,0.007905859500169754
1761914323200362800,3.61636279296875,-0.32658398151397705,-0.2256230115890503,0.05958689749240875
1761914323210418700,3.626418701171875,-0.30062535405158997,-0.2343571037054062,0.07806577533483505
1761914323220473600,3.6364736328125,-0.24402810633182526,-0.21739943325519562,0.075734443962574
1761914323230529500,3.646529541015625,-0.1662994921207428,-0.18258285522460938,0.06123805791139603
1761914323240585500,3.65658544921875,-0.08085330575704575,-0.11242933571338654,0.05016143620014191
1761914323250641700,3.6666416015625,0.003751062322407961,-0.03899933025240898,0.06450335681438446
1761914323260697600,3.676697509765625,0.07467211037874222,0.034752123057842255,0.08943773806095123
1761914323270753500,3.68675341796875,0.11944171041250229,0.09231528639793396,0.11699426174163818
1761914323280809700,3.696809814453125,0.14031024277210236,0.11507385969161987,0.1320115625858307
1761914323290865700,3.70686572265625,0.14335742592811584,0.10707984864711761,0.12563009560108185
1761914323300921600,3.716921630859375,0.13195990025997162,0.07763992995023727,0.101615309715271
1761914323310977800,3.726977783203125,0.1207842081785202,0.03534174710512161,0.07469873875379562
1761914323321033700,3.73703369140625,0.11181841045618057,-0.018975289538502693,0.046002645045518875
1761914323331089400,3.74708935546875,0.08385468274354935,-0.0699780210852623,0.016639163717627525
1761914323341145600,3.7571455078125,0.04367051646113396,-0.1140591949224472,-0.012542955577373505
1761914323351201500,3.767201416015625,-0.0070461914874613285,-0.14937856793403625,-0.04280285909771919
1761914323361256700,3.777256591796875,-0.06449083983898163,-0.18744845688343048,-0.068105548620224
1761914323371312600,3.787312744140625,-0.114476777613163,-0.23580560088157654,-0.08134465664625168
1761914323381368600,3.79736865234375,-0.15863598883152008,-0.29648706316947937,-0.08032546192407608
1761914323391424800,3.8074248046875,-0.18761196732521057,-0.3380536735057831,-0.07302707433700562
1761914323401480700,3.817480712890625,-0.20669059455394745,-0.35390961170196533,-0.056483250111341476
1761914323411536600,3.82753662109375,-0.22483471035957336,-0.3502642810344696,-0.03585467115044594
1761914323421592800,3.8375927734375,-0.24772991240024567,-0.3441041111946106,-0.018861304968595505
1761914323431648500,3.8476484375,-0.2789384126663208,-0.3527447283267975,0.00782862864434719
1761914323441704400,3.857704345703125,-0.3076651394367218,-0.34465351700782776,0.023624636232852936
1761914323451760600,3.8677607421875,-0.3296772241592407,-0.3117677569389343,0.017478059977293015
1761914323461816600,3.877816650390625,-0.349260538816452,-0.2512490153312683,0.008326106704771519
1761914323471872500,3.88787255859375,-0.35981491208076477,-0.1683349460363388,-0.0047058057971298695
1761914323481928700,3.8979287109375,-0.3673902451992035,-0.08160644769668579,-0.00013901700731366873
1761914323491984600,3.907984619140625,-0.35895389318466187,-0.0012311793398112059,0.021277857944369316
1761914323502040600,3.91804052734375,-0.34215468168258667,0.06809969246387482,0.047748878598213196
1761914323512095700,3.928095703125,-0.3276742696762085,0.09857211261987686,0.09327615052461624
1761914323522151700,3.938151611328125,-0.3186730444431305,0.0916106104850769,0.1528816968202591
1761914323532207600,3.94820751953125,-0.31303754448890686,0.03133848309516907,0.23080392181873322
1761914323542263600,3.958263671875,-0.3393911123275757,-0.0949358344078064,0.32068559527397156
1761914323552319500,3.968319580078125,-0.39880889654159546,-0.2422264814376831,0.39157867431640625
1761914323562375400,3.97837548828125,-0.448375403881073,-0.31576433777809143,0.4046494960784912
1761914323572431600,3.988431640625,-0.4753423035144806,-0.31684452295303345,0.36983585357666016
1761914323582484700,3.998484619140625,-0.46175962686538696,-0.3091605007648468,0.3253341615200043
1761914323592540400,4.00854052734375,-0.40043503046035767,-0.28261518478393555,0.28776681423187256
1761914323602596600,4.0185966796875,-0.2992439568042755,-0.23352301120758057,0.24908438324928284
1761914323612652500,4.028652587890625,-0.1769380271434784,-0.18213731050491333,0.2160438746213913
1761914323622708500,4.03870849609375,-0.05229329690337181,-0.15813876688480377,0.17958414554595947
1761914323632764700,4.0487646484375,0.04831773042678833,-0.16327494382858276,0.14556998014450073
1761914323642820600,4.058820556640625,0.11584591120481491,-0.2039579302072525,0.10625586658716202
1761914323652876500,4.06887646484375,0.12985414266586304,-0.28016000986099243,0.07623058557510376
1761914323662931700,4.078931640625,0.09434274584054947,-0.3966403007507324,0.0700850784778595
1761914323672987600,4.088987548828125,0.010786068625748158,-0.5433564782142639,0.10877148807048798
1761914323683043800,4.0990439453125,-0.107331782579422,-0.6996177434921265,0.17645785212516785
1761914323693099500,4.109099609375,-0.22488264739513397,-0.8315837383270264,0.2461722195148468
1761914323703155500,4.119155517578125,-0.31571802496910095,-0.9089105129241943,0.29031625390052795
1761914323713211600,4.129211669921875,-0.35811153054237366,-0.9267470240592957,0.3102231025695801
1761914323723268400,4.139268310546875,-0.36525094509124756,-0.9005090594291687,0.3126724064350128
1761914323733324300,4.14932421875,-0.35058891773223877,-0.8467179536819458,0.3058896064758301
1761914323743380200,4.159380126953125,-0.3172389566898346,-0.7634502649307251,0.2981414198875427
1761914323753436400,4.1694365234375,-0.2880730628967285,-0.6581224799156189,0.29212746024131775
1761914323763492400,4.179492431640625,-0.27329519391059875,-0.5584108233451843,0.2828330397605896
1761914323773548300,4.18954833984375,-0.28086310625076294,-0.48767778277397156,0.2598520815372467
1761914323783604500,4.1996044921875,-0.30462247133255005,-0.43457862734794617,0.209190234541893
1761914323793660400,4.209660400390625,-0.34236666560173035,-0.405973881483078,0.13759487867355347
1761914323803715300,4.21971533203125,-0.3854891061782837,-0.36744457483291626,0.04960457235574722
1761914323813771300,4.229771240234375,-0.4173021614551544,-0.3363194167613983,-0.04109097644686699
1761914323823827200,4.2398271484375,-0.4589976668357849,-0.32600075006484985,-0.12533049285411835
1761914323833883400,4.24988330078125,-0.5053033828735352,-0.34387001395225525,-0.20982326567173004
1761914323843939300,4.259939208984375,-0.5596638321876526,-0.3911925256252289,-0.30196598172187805
1761914323853995300,4.269995361328125,-0.6171873211860657,-0.46155911684036255,-0.40338820219039917
1761914323864051500,4.280051513671875,-0.6767742037773132,-0.5596199035644531,-0.5133413672447205
1761914323874107400,4.290107421875,-0.7437098622322083,-0.6496179699897766,-0.6127853989601135
1761914323884163300,4.300163330078125,-0.8141909241676331,-0.7267111539840698,-0.6920087933540344
1761914323894219500,4.310219482421875,-0.8837623000144958,-0.7674865126609802,-0.7452858686447144
1761914323904275500,4.320275390625,-0.9335170388221741,-0.7581636309623718,-0.7566519975662231
1761914323914331100,4.3303310546875,-0.9688768982887268,-0.7404855489730835,-0.7260892987251282
1761914323924387300,4.34038720703125,-0.9764708876609802,-0.7230732440948486,-0.6465185880661011
1761914323934443300,4.350443359375,-0.9621196389198303,-0.699957549571991,-0.5470633506774902
1761914323944498200,4.360498291015625,-0.9233943819999695,-0.6607712507247925,-0.45023295283317566
1761914323954554400,4.370554443359375,-0.8770101070404053,-0.5950306057929993,-0.3587203323841095
1761914323964610300,4.3806103515625,-0.8273237943649292,-0.5221518874168396,-0.2750387489795685
1761914323974666200,4.390666259765625,-0.7812838554382324,-0.45256614685058594,-0.20348840951919556
1761914323984722400,4.400722412109375,-0.7362580299377441,-0.3773994743824005,-0.15539439022541046
1761914323994778400,4.4107783203125,-0.6923049688339233,-0.29969003796577454,-0.12534034252166748
1761914324004834300,4.420834228515625,-0.6510347723960876,-0.24071727693080902,-0.10536637157201767
1761914324014890500,4.430890380859375,-0.6170823574066162,-0.21396341919898987,-0.0690336599946022
1761914324024946200,4.4409462890625,-0.591679036617279,-0.21220573782920837,-0.01414458081126213
1761914324035002000,4.451002197265625,-0.5715412497520447,-0.2292102873325348,0.06229959428310394
1761914324045058300,4.461058349609375,-0.5583306550979614,-0.25930720567703247,0.14920759201049805
1761914324055114200,4.4711142578125,-0.5571870803833008,-0.3003750145435333,0.23023639619350433
1761914324065170200,4.481170166015625,-0.55694580078125,-0.3309675455093384,0.2737029194831848
1761914324075226400,4.491226318359375,-0.5404528379440308,-0.3448878824710846,0.28094378113746643
1761914324085282300,4.5012822265625,-0.5168154239654541,-0.3451683223247528,0.25930532813072205
1761914324095337500,4.51133740234375,-0.4858311414718628,-0.34214669466018677,0.22936049103736877
1761914324105393400,4.521393310546875,-0.45228758454322815,-0.3237250745296478,0.1994052529335022
1761914324115449300,4.531449462890625,-0.4171394407749176,-0.29382017254829407,0.16625608503818512
1761914324125505300,4.54150537109375,-0.3727637231349945,-0.24384967982769012,0.14029613137245178
1761914324135561200,4.551561279296875,-0.33205118775367737,-0.1919017881155014,0.12442395091056824
1761914324145619500,4.561619384765625,-0.3111107349395752,-0.16008873283863068,0.12415683269500732
1761914324155675400,4.57167529296875,-0.29883062839508057,-0.13650724291801453,0.11767896264791489
1761914324165731300,4.5817314453125,-0.28401681780815125,-0.10748890787363052,0.08917754888534546
1761914324175787300,4.591787353515625,-0.27646753191947937,-0.08228874951601028,0.03777347877621651
1761914324185843200,4.60184326171875,-0.28411561250686646,-0.07293625921010971,-0.02809235453605652
1761914324195899100,4.611899169921875,-0.2990967035293579,-0.06533213704824448,-0.10212370753288269
1761914324205955300,4.621955322265625,-0.31057146191596985,-0.05036623403429985,-0.18908096849918365
1761914324216011300,4.63201123046875,-0.3134801685810089,-0.015078285709023476,-0.297524094581604
1761914324226067200,4.642067138671875,-0.31252673268318176,0.03671513870358467,-0.41900524497032166
1761914324236122400,4.652122314453125,-0.3305520713329315,0.07174982130527496,-0.53056401014328
1761914324246178300,4.66217822265625,-0.3658839762210846,0.0703577846288681,-0.5900821685791016
1761914324256234500,4.672234375,-0.4154326319694519,0.035417646169662476,-0.6003921031951904
1761914324266290400,4.68229052734375,-0.47044312953948975,-0.020503677427768707,-0.5650458335876465
1761914324276346000,4.69234619140625,-0.5318127870559692,-0.08308609575033188,-0.4817919433116913
1761914324286402300,4.70240234375,-0.605213463306427,-0.15167394280433655,-0.3768112063407898
1761914324296458200,4.712458251953125,-0.686438798904419,-0.206651970744133,-0.2694903314113617
1761914324306514200,4.72251416015625,-0.7545790076255798,-0.2340226173400879,-0.16925986111164093
1761914324316570400,4.7325703125,-0.7950979471206665,-0.23719178140163422,-0.08174759149551392
1761914324326626300,4.742626220703125,-0.8039411902427673,-0.22795087099075317,0.00561181316152215
1761914324336682200,4.75268212890625,-0.7806960940361023,-0.21632111072540283,0.11392416805028915
1761914324346738400,4.762738525390625,-0.759939432144165,-0.20344926416873932,0.25389617681503296
1761914324356794400,4.77279443359375,-0.7581859827041626,-0.18705590069293976,0.4047727882862091
1761914324366850300,4.782850341796875,-0.7548050880432129,-0.1707536280155182,0.5398911833763123
1761914324376905200,4.7929052734375,-0.7425545454025269,-0.16693119704723358,0.6323521733283997
1761914324386961200,4.802961181640625,-0.7121074199676514,-0.18665963411331177,0.6726385951042175
1761914324397017300,4.813017333984375,-0.6691842079162598,-0.23957131803035736,0.6660717725753784
1761914324407073300,4.8230732421875,-0.6160528063774109,-0.3146394193172455,0.6190001368522644
1761914324417129200,4.833129150390625,-0.5289847254753113,-0.3654322922229767,0.519581139087677
1761914324427185400,4.843185302734375,-0.4130008816719055,-0.40949511528015137,0.3854547441005707
1761914324437241300,4.853241455078125,-0.2938646376132965,-0.4587947428226471,0.24213247001171112
1761914324447297300,4.86329736328125,-0.18674299120903015,-0.510919988155365,0.09837770462036133
1761914324457353500,4.873353515625,-0.10888786613941193,-0.529964804649353,-0.06474331021308899
1761914324467409400,4.883409423828125,-0.06633215397596359,-0.5227055549621582,-0.2183336615562439
1761914324477465300,4.89346533203125,-0.0732387900352478,-0.503964900970459,-0.3413751721382141
1761914324487521500,4.903521484375,-0.12296506762504578,-0.480763703584671,-0.42780858278274536
1761914324497577500,4.913577392578125,-0.20132379233837128,-0.46004748344421387,-0.47432228922843933
1761914324507633200,4.923633056640625,-0.2898784279823303,-0.4409491717815399,-0.48423483967781067
1761914324517689300,4.933689453125,-0.37783384323120117,-0.4360566735267639,-0.4645290672779083
1761914324527744300,4.943744140625,-0.45641282200813293,-0.44530901312828064,-0.43038812279701233
1761914324537800200,4.95380029296875,-0.5203915238380432,-0.4641365110874176,-0.3906950354576111
1761914324547856400,4.9638564453125,-0.5808184146881104,-0.4901697039604187,-0.34225666522979736
1761914324557912300,4.973912353515625,-0.640094518661499,-0.518317461013794,-0.28741180896759033
1761914324567968300,4.98396826171875,-0.6964240670204163,-0.542295515537262,-0.2353544682264328
1761914324578024400,4.9940244140625,-0.7340041995048523,-0.5381340384483337,-0.1891816407442093
1761914324588080400,5.004080322265625,-0.7506263256072998,-0.5096858739852905,-0.1569747030735016
1761914324598136300,5.01413623046875,-0.7420610785484314,-0.44991335272789,-0.12289023399353027
1761914324608192300,5.024192138671875,-0.7147641777992249,-0.3783861994743347,-0.09212353825569153
1761914324618248200,5.034248291015625,-0.6727568507194519,-0.3071519434452057,-0.04657522588968277
1761914324628304100,5.04430419921875,-0.6231762170791626,-0.24011406302452087,0.0038064562249928713
1761914324638360300,5.0543603515625,-0.5649397969245911,-0.1702180653810501,0.04742290824651718
1761914324648416300,5.064416259765625,-0.5061686635017395,-0.12529586255550385,0.07985302060842514
1761914324658472200,5.07447216796875,-0.4546167850494385,-0.11440913379192352,0.09144096821546555
1761914324668528400,5.0845283203125,-0.4062958359718323,-0.1381610631942749,0.0831388309597969
1761914324678583300,5.094583251953125,-0.3785667419433594,-0.19388504326343536,0.06272809952497482
1761914324688639500,5.104639404296875,-0.3712345361709595,-0.2681872546672821,0.02935762144625187
1761914324698695400,5.1146953125,-0.37786075472831726,-0.35455381870269775,-0.011357583105564117
1761914324708751000,5.124751220703125,-0.39675480127334595,-0.4402223825454712,-0.05531492084264755
1761914324718807800,5.134807861328125,-0.42899635434150696,-0.5176487565040588,-0.09743308275938034
1761914324728864000,5.144864013671875,-0.4653831422328949,-0.5870083570480347,-0.13230903446674347
1761914324738920000,5.154919921875,-0.49662333726882935,-0.6308759450912476,-0.17247164249420166
1761914324748975900,5.164975830078125,-0.5282273292541504,-0.6541873812675476,-0.22480514645576477
1761914324759032000,5.175031982421875,-0.5562019944190979,-0.6552183032035828,-0.2815872132778168
1761914324769088000,5.185087890625,-0.5903152227401733,-0.6385778188705444,-0.33272361755371094
1761914324779144000,5.19514404296875,-0.6161127090454102,-0.625386118888855,-0.355282723903656
1761914324789200100,5.2052001953125,-0.6428724527359009,-0.6079962253570557,-0.3535956144332886
1761914324799256000,5.215256103515625,-0.6766735315322876,-0.5892803072929382,-0.3243767321109772
1761914324809311700,5.225311767578125,-0.7052755951881409,-0.5635895729064941,-0.2850160300731659
1761914324819367000,5.235366943359375,-0.7332926392555237,-0.5456523895263672,-0.24378682672977448
1761914324829422800,5.2454228515625,-0.7611375451087952,-0.5123916864395142,-0.21729636192321777
1761914324839479000,5.25547900390625,-0.7907929420471191,-0.47341522574424744,-0.19883187115192413
1761914324849535000,5.265534912109375,-0.8226728439331055,-0.4405912458896637,-0.17396406829357147
1761914324859591000,5.2755908203125,-0.8459083437919617,-0.4153788387775421,-0.14192651212215424
1761914324869647000,5.285647216796875,-0.8493654131889343,-0.391964316368103,-0.08173906803131104
1761914324879703000,5.295703125,-0.8379929065704346,-0.39135313034057617,-0.008983374573290348
1761914324889759000,5.305759033203125,-0.8269972801208496,-0.40877923369407654,0.06264606863260269
1761914324899815200,5.315815185546875,-0.8157744407653809,-0.43895259499549866,0.11107885092496872
1761914324909870800,5.325870849609375,-0.8151763081550598,-0.4881843328475952,0.13324514031410217
1761914324919926800,5.3359267578125,-0.8202775716781616,-0.555670440196991,0.13604705035686493
1761914324929983000,5.34598291015625,-0.8184024691581726,-0.6333082318305969,0.13459989428520203
1761914324940039000,5.356038818359375,-0.8175667524337769,-0.7027298808097839,0.12464100122451782
1761914324950094800,5.3660947265625,-0.8116436004638672,-0.7739923596382141,0.11483576893806458
1761914324960150000,5.37614990234375,-0.8149800300598145,-0.8394789695739746,0.10833792388439178
1761914324970206000,5.3862060546875,-0.8164705634117126,-0.8778277039527893,0.10524439811706543
1761914324980262100,5.39626220703125,-0.8141355514526367,-0.8912017941474915,0.11134996265172958
1761914324990318000,5.406318115234375,-0.8059937357902527,-0.8882609009742737,0.12490811198949814
1761914325000374000,5.4163740234375,-0.8016181588172913,-0.8855055570602417,0.15565936267375946
1761914325010430200,5.42643017578125,-0.815690815448761,-0.9075520038604736,0.19919991493225098
1761914325020486000,5.43648583984375,-0.8618465662002563,-0.9514614343643188,0.23763465881347656
1761914325030541800,5.446541748046875,-0.9166941046714783,-0.977368950843811,0.23667113482952118
1761914325040598000,5.456597900390625,-0.9569129347801208,-0.9405187964439392,0.17767173051834106
1761914325050654000,5.466654052734375,-0.9573078751564026,-0.8080640435218811,0.04440048709511757
1761914325060710000,5.4767099609375,-0.8983801007270813,-0.6074917912483215,-0.14979694783687592
1761914325070766000,5.48676611328125,-0.7934827208518982,-0.3863335847854614,-0.3225063979625702
1761914325080822000,5.496822021484375,-0.6613976359367371,-0.2221318632364273,-0.430298388004303
1761914325090878000,5.5068779296875,-0.5410611033439636,-0.13475674390792847,-0.4683661460876465
1761914325100934100,5.51693408203125,-0.46317723393440247,-0.10922156274318695,-0.44219526648521423
1761914325110989000,5.526989013671875,-0.46283209323883057,-0.1598847359418869,-0.3636991083621979
1761914325121045000,5.537044921875,-0.5516495704650879,-0.300889253616333,-0.26462820172309875
1761914325131101000,5.547100830078125,-0.7033743858337402,-0.5024276971817017,-0.17243808507919312
1761914325141156900,5.557156982421875,-0.8541159629821777,-0.7268334031105042,-0.1147225871682167
1761914325151213000,5.567213134765625,-0.9546108841896057,-0.9412854909896851,-0.08772319555282593
1761914325161269000,5.57726904296875,-0.980370044708252,-1.1236313581466675,-0.07230615615844727
1761914325171325000,5.587324951171875,-0.9620421528816223,-1.2686606645584106,-0.06176003813743591
1761914325181380900,5.597380859375,-0.9296882152557373,-1.3740081787109375,-0.05517643690109253
1761914325191437000,5.60743701171875,-0.8964959383010864,-1.4409395456314087,-0.047082025557756424
1761914325201493000,5.617492919921875,-0.8777560591697693,-1.4730674028396606,-0.0427919365465641
1761914325211549000,5.627548828125,-0.8689345717430115,-1.4735618829727173,-0.04372590780258179
1761914325221605000,5.637605224609375,-0.8812602162361145,-1.4564756155014038,-0.048597097396850586
1761914325231661000,5.6476611328125,-0.902063250541687,-1.4232721328735352,-0.0621776208281517
1761914325241716000,5.657716064453125,-0.9096375703811646,-1.3711098432540894,-0.09007290005683899
1761914325251772000,5.66777197265625,-0.9050068259239197,-1.2774994373321533,-0.1310722678899765
1761914325261827800,5.677827880859375,-0.8841774463653564,-1.1799204349517822,-0.18631048500537872
1761914325271884000,5.687884033203125,-0.8542323708534241,-1.087648868560791,-0.243858203291893
1761914325281940000,5.69793994140625,-0.8447248935699463,-1.017350673675537,-0.29977473616600037
1761914325291996000,5.707995849609375,-0.8682176470756531,-0.9648845791816711,-0.3524470031261444
1761914325302052000,5.718052001953125,-0.9207964539527893,-0.9536904692649841,-0.3855458199977875
1761914325312108000,5.72810791015625,-1.0000749826431274,-0.9764525294303894,-0.4031096398830414
1761914325322164000,5.7381640625,-1.090867042541504,-1.023259162902832,-0.40468302369117737
1761914325332220200,5.74822021484375,-1.1931110620498657,-1.0958441495895386,-0.3921435475349426
1761914325342276000,5.758276123046875,-1.3076599836349487,-1.1920967102050781,-0.37103959918022156
1761914325352331800,5.768331787109375,-1.4228084087371826,-1.2940670251846313,-0.33947473764419556
1761914325362388000,5.778387939453125,-1.5307657718658447,-1.378221035003662,-0.3221551477909088
1761914325372444000,5.78844384765625,-1.6193835735321045,-1.4419450759887695,-0.3299110531806946
1761914325382499800,5.798499755859375,-1.6825212240219116,-1.4641977548599243,-0.3532384932041168
1761914325392555000,5.808554931640625,-1.7207165956497192,-1.4597581624984741,-0.37420955300331116
1761914325402611000,5.81861083984375,-1.732919454574585,-1.4418474435806274,-0.38126134872436523
1761914325412667100,5.828667236328125,-1.7360931634902954,-1.405519723892212,-0.3789939284324646
1761914325422723000,5.83872314453125,-1.739412784576416,-1.352455496788025,-0.3677271604537964
1761914325432779000,5.848779052734375,-1.7321311235427856,-1.2870428562164307,-0.3475891351699829
1761914325442835200,5.858835205078125,-1.7279773950576782,-1.2301702499389648,-0.32213541865348816
1761914325452891000,5.868890869140625,-1.723057746887207,-1.1933084726333618,-0.3056184947490692
1761914325462946800,5.87894677734375,-1.723812460899353,-1.1713464260101318,-0.30900976061820984
1761914325473003000,5.8890029296875,-1.7209527492523193,-1.154686450958252,-0.3337220549583435
1761914325483059000,5.899058837890625,-1.728064775466919,-1.1759369373321533,-0.35290825366973877
1761914325493115000,5.909114990234375,-1.7420538663864136,-1.2415763139724731,-0.3587730824947357
1761914325503171000,5.919171142578125,-1.7711584568023682,-1.3299216032028198,-0.3611920177936554
1761914325513227000,5.92922705078125,-1.8140391111373901,-1.407536268234253,-0.3780442476272583
1761914325523283000,5.939282958984375,-1.8587173223495483,-1.451383352279663,-0.41894692182540894
1761914325533338000,5.949338134765625,-1.9009307622909546,-1.4713040590286255,-0.4797082841396332
1761914325543394000,5.95939404296875,-1.9386649131774902,-1.479024052619934,-0.5401540398597717
1761914325553450000,5.969449951171875,-1.968214511871338,-1.499276041984558,-0.573674738407135
1761914325563506000,5.979505859375,-1.9897680282592773,-1.5054197311401367,-0.5794862508773804
1761914325573561900,5.989561767578125,-2.0038013458251953,-1.4909398555755615,-0.5880781412124634
1761914325583618000,5.9996181640625,-2.0214498043060303,-1.4542853832244873,-0.595872163772583
1761914325593674000,6.009674072265625,-2.0451087951660156,-1.404618501663208,-0.6157944798469543
1761914325603730000,6.01972998046875,-2.064924478530884,-1.361424207687378,-0.6424583196640015
1761914325613785900,6.029785888671875,-2.082866907119751,-1.3305773735046387,-0.6761742234230042
1761914325623842000,6.039842041015625,-2.087167739868164,-1.3015317916870117,-0.7238109707832336
1761914325633898000,6.04989794921875,-2.087512254714966,-1.2842907905578613,-0.7753064036369324
1761914325643954000,6.059953857421875,-2.0835587978363037,-1.2629806995391846,-0.8278803825378418
1761914325654010000,6.070010009765625,-2.0738253593444824,-1.2205677032470703,-0.8737115263938904
1761914325664066000,6.080066162109375,-2.0550458431243896,-1.15477454662323,-0.9142591953277588
1761914325674122000,6.0901220703125,-2.0259945392608643,-1.0781583786010742,-0.9451369643211365
1761914325684177000,6.100177001953125,-1.979764699935913,-1.0176180601119995,-0.9536345601081848
1761914325694232800,6.11023291015625,-1.934434175491333,-0.9471263289451599,-0.9560287594795227
1761914325704289000,6.1202890625,-1.8808939456939697,-0.8692102432250977,-0.9687067270278931
1761914325714345000,6.130344970703125,-1.804791808128357,-0.737013041973114,-1.0094794034957886
1761914325724400600,6.140400634765625,-1.6882432699203491,-0.5291762351989746,-1.0724517107009888
1761914325734456600,6.15045654296875,-1.5462760925292969,-0.2997758090496063,-1.1044371128082275
1761914325744512500,6.160512451171875,-1.4008029699325562,-0.11336597055196762,-1.0806682109832764
1761914325754568700,6.170568603515625,-1.300318717956543,-0.02695784717798233,-0.9850156903266907
1761914325764624600,6.180624755859375,-1.2729339599609375,-0.07889854162931442,-0.8220677375793457
1761914325774680600,6.1906806640625,-1.3224085569381714,-0.24754641950130463,-0.6608445048332214
1761914325784736500,6.200736572265625,-1.4055863618850708,-0.4260706305503845,-0.5780218243598938
1761914325794792700,6.210792724609375,-1.4733549356460571,-0.538642942905426,-0.5858975648880005
1761914325804848600,6.2208486328125,-1.4863978624343872,-0.607155978679657,-0.6505261063575745
1761914325814903600,6.230903564453125,-1.4389405250549316,-0.5883833765983582,-0.7496079206466675
1761914325824959500,6.24095947265625,-1.3446481227874756,-0.5004202127456665,-0.8529106378555298
1761914325835015400,6.251015380859375,-1.2194875478744507,-0.3887711763381958,-0.9128075242042542
1761914325845071600,6.261071533203125,-1.0753575563430786,-0.28926751017570496,-0.9107890725135803
1761914325855127600,6.27112744140625,-0.9441481232643127,-0.22537027299404144,-0.8411194682121277
1761914325865183500,6.28118359375,-0.8634554147720337,-0.18371790647506714,-0.7230051159858704
1761914325875239700,6.29123974609375,-0.8326335549354553,-0.15497227013111115,-0.5746774077415466
1761914325885295600,6.301295654296875,-0.8392752408981323,-0.13890515267848969,-0.4220582842826843
1761914325895351600,6.3113515625,-0.8592300415039062,-0.13331358134746552,-0.2745455503463745
1761914325905407700,6.32140771484375,-0.8648543953895569,-0.1333031952381134,-0.15243135392665863
1761914325915463400,6.33146337890625,-0.8548328876495361,-0.1654190570116043,-0.05768886208534241
1761914325925519400,6.341519287109375,-0.8340911269187927,-0.2508673667907715,0.04313388839364052
1761914325935575600,6.351575439453125,-0.820626437664032,-0.3690134584903717,0.16157744824886322
1761914325945631500,6.361631591796875,-0.8185888528823853,-0.48634621500968933,0.28448233008384705
1761914325955686700,6.371686767578125,-0.8275067210197449,-0.5802407264709473,0.405565083026886
1761914325965742600,6.38174267578125,-0.8424774408340454,-0.633372962474823,0.5199057459831238
1761914325975798500,6.391798583984375,-0.8513332605361938,-0.6598668694496155,0.6165204644203186
1761914325985854700,6.401854736328125,-0.857823371887207,-0.6617745161056519,0.6834164261817932
1761914325995910700,6.41191064453125,-0.8512411117553711,-0.6360081434249878,0.7221784591674805
1761914326005966600,6.421966552734375,-0.8260800838470459,-0.5818647146224976,0.7349776029586792
1761914326016022800,6.432022705078125,-0.7691105008125305,-0.51973557472229,0.7168164253234863
1761914326026078500,6.442078369140625,-0.6801937222480774,-0.4538889229297638,0.6861463785171509
1761914326036134400,6.452134521484375,-0.5661028027534485,-0.3693133294582367,0.6482158303260803
1761914326046190600,6.462190673828125,-0.43825510144233704,-0.28994181752204895,0.6153401136398315
1761914326056246500,6.47224658203125,-0.3169308006763458,-0.24863804876804352,0.5817427635192871
1761914326066302500,6.482302490234375,-0.20974470674991608,-0.24554531276226044,0.5315887928009033
1761914326076358700,6.492358642578125,-0.11409914493560791,-0.255940705537796,0.44994425773620605
1761914326086414600,6.50241455078125,-0.041608430445194244,-0.2777189612388611,0.3499486744403839
1761914326096469800,6.5124697265625,0.005913549102842808,-0.3094460070133209,0.24056626856327057
1761914326106525700,6.522525634765625,0.03917030617594719,-0.3398648798465729,0.13557913899421692
1761914326116581600,6.53258154296875,0.04896248131990433,-0.35460495948791504,0.039683762937784195
1761914326126637600,6.542637451171875,0.04801226779818535,-0.3573527932167053,-0.0388517901301384
1761914326136693500,6.552693603515625,0.03550313413143158,-0.35329946875572205,-0.09864721447229385
1761914326146749400,6.56274951171875,0.023754332214593887,-0.34042975306510925,-0.16185681521892548
1761914326156805600,6.5728056640625,0.01284522470086813,-0.3367660343647003,-0.22942759096622467
1761914326166861600,6.582861572265625,-0.0035092474427074194,-0.33936822414398193,-0.3039971590042114
1761914326176917500,6.59291748046875,-0.02009381726384163,-0.3370600640773773,-0.3861983120441437
1761914326186973700,6.6029736328125,-0.042149849236011505,-0.33225277066230774,-0.4817858040332794
1761914326197029600,6.613029541015625,-0.06438378244638443,-0.30930671095848083,-0.5903005599975586
1761914326207085600,6.62308544921875,-0.10381241887807846,-0.28624826669692993,-0.7027522921562195
1761914326217141500,6.6331416015625,-0.15551263093948364,-0.26746606826782227,-0.8198291063308716
1761914326227197700,6.64319775390625,-0.21550032496452332,-0.24240784347057343,-0.9341908097267151
1761914326237252400,6.65325244140625,-0.2797679901123047,-0.1991967260837555,-1.038221836090088
1761914326247308500,6.66330859375,-0.3344285786151886,-0.12349264323711395,-1.118728756904602
1761914326257364500,6.673364501953125,-0.36609357595443726,-0.041485391557216644,-1.1657569408416748
1761914326267420400,6.68342041015625,-0.39784562587738037,0.055940497666597366,-1.1662520170211792
1761914326277476600,6.6934765625,-0.4024025797843933,0.18638478219509125,-1.1382992267608643
1761914326287532500,6.703532470703125,-0.3767547309398651,0.3483606278896332,-1.0865750312805176
1761914326297588500,6.71358837890625,-0.3276628255844116,0.5077018141746521,-1.0112576484680176
1761914326307644700,6.723644775390625,-0.2619658410549164,0.6200608611106873,-0.9053775668144226
1761914326317700600,6.73370068359375,-0.1950397938489914,0.6775947213172913,-0.7871742248535156
1761914326327756500,6.743756591796875,-0.13601481914520264,0.687101423740387,-0.6695644855499268
1761914326337812700,6.753812744140625,-0.09433235973119736,0.656547486782074,-0.5708088874816895
1761914326347868700,6.76386865234375,-0.06108572334051132,0.594078779220581,-0.5019137263298035
1761914326357924400,6.77392431640625,-0.025668345391750336,0.5037182569503784,-0.4674718677997589
1761914326367980500,6.78398046875,0.018575815483927727,0.406913161277771,-0.47721874713897705
1761914326378035500,6.794035400390625,0.06807093322277069,0.29744526743888855,-0.49758395552635193
1761914326388091600,6.804091552734375,0.11860334873199463,0.167890727519989,-0.5117841958999634
1761914326398147600,6.814147705078125,0.15632756054401398,0.018967831507325172,-0.5110605955123901
1761914326408203500,6.82420361328125,0.17293289303779602,-0.14404451847076416,-0.4916432499885559
1761914326418259700,6.834259765625,0.15352563560009003,-0.3185092806816101,-0.44324082136154175
1761914326428315600,6.844315673828125,0.09849487990140915,-0.4704439342021942,-0.3638322651386261
1761914326438371600,6.85437158203125,0.00974530540406704,-0.6230300068855286,-0.24802792072296143
1761914326448427800,6.864427734375,-0.10502255707979202,-0.7741902470588684,-0.10262544453144073
1761914326458483500,6.8744833984375,-0.2376226782798767,-0.865379273891449,0.04490169510245323
1761914326468539400,6.884539306640625,-0.3517833352088928,-0.8888182640075684,0.16810192167758942
1761914326478595600,6.894595703125,-0.432763934135437,-0.8519558906555176,0.2557066082954407
1761914326488651500,6.904651611328125,-0.4782446026802063,-0.7572943568229675,0.3252297639846802
1761914326498707500,6.91470751953125,-0.48295679688453674,-0.6257438063621521,0.3988824188709259
1761914326508762600,6.9247626953125,-0.47165194153785706,-0.4579600989818573,0.46546995639801025
1761914326518818600,6.934818603515625,-0.45907917618751526,-0.24083764851093292,0.5358924269676208
1761914326528874800,6.944874755859375,-0.46291279792785645,0.00004500742215896025,0.6085565686225891
1761914326538930700,6.9549306640625,-0.4713400900363922,0.19988781213760376,0.6900529861450195
1761914326548986600,6.964986572265625,-0.4931918680667877,0.34250596165657043,0.7440747022628784
1761914326559042600,6.97504248046875,-0.5275471806526184,0.4288967549800873,0.7644901871681213
1761914326569098500,6.985098388671875,-0.5605959296226501,0.46235379576683044,0.7420480251312256
1761914326579154400,6.995154541015625,-0.584437906742096,0.4479024112224579,0.681877613067627
1761914326589210600,7.005210693359375,-0.5933552384376526,0.3849913477897644,0.6020685434341431
1761914326599266600,7.0152666015625,-0.5984405279159546,0.29015299677848816,0.5326071977615356
1761914326609322500,7.025322509765625,-0.6481255292892456,0.1614149957895279,0.48100924491882324
1761914326619378700,7.035378662109375,-0.7490587830543518,0.06877560168504715,0.44596096873283386
1761914326629434600,7.0454345703125,-0.8365934491157532,-0.20146547257900238,0.3526246249675751
1761914326639490600,7.055490478515625,-0.9518271088600159,-0.4588086009025574,0.27836957573890686
1761914326649545700,7.065545654296875,-0.9250612258911133,-1.327194333076477,0.48846420645713806
1761914326659601400,7.075601318359375,-0.5152923464775085,-1.934961199760437,0.9165902733802795
1761914326669657300,7.0856572265625,-0.4723893702030182,-1.3975872993469238,0.7643328309059143
1761914326679713500,7.095713623046875,-0.5202703475952148,-1.0619232654571533,0.6173636317253113
1761914326689769500,7.10576953125,-0.5784367322921753,-0.8579397201538086,0.47356462478637695
1761914326699825400,7.115825439453125,-0.7106624245643616,-0.3777896463871002,0.12803439795970917
1761914326709881600,7.125881591796875,-0.7865419983863831,0.1606581211090088,-0.2760760486125946
1761914326719937800,7.135937744140625,-0.7700572609901428,0.5198168158531189,-0.4887068271636963
1761914326729993700,7.14599365234375,-0.7065467238426208,0.6898044943809509,-0.5090616345405579
1761914326740050000,7.1560498046875,-0.5748856663703918,0.7715228199958801,-0.47145166993141174
1761914326750105600,7.166105712890625,-0.4456334114074707,0.8932955861091614,-0.42972901463508606
1761914326760161500,7.17616162109375,-0.3536584675312042,0.9936541318893433,-0.35535728931427
1761914326770217700,7.1862177734375,-0.3021526634693146,0.9401464462280273,-0.24772430956363678
1761914326780272600,7.196272705078125,-0.36529383063316345,0.5959137082099915,-0.24874882400035858
1761914326790328800,7.206328857421875,-0.600729763507843,0.2439463585615158,-0.3566846251487732
1761914326800384800,7.216384765625,-0.8328655362129211,-0.14252465963363647,-0.47931039333343506
1761914326810440700,7.226440673828125,-0.9933468103408813,-0.4642281234264374,-0.6715400218963623
1761914326820497000,7.236496826171875,-1.081699013710022,-0.623069167137146,-0.8594422936439514
1761914326830552800,7.246552734375,-1.1451480388641357,-0.686507523059845,-0.9758442640304565
1761914326840608800,7.25660888671875,-1.1729698181152344,-0.7886733412742615,-1.0240134000778198
1761914326850664700,7.266664794921875,-1.1233197450637817,-0.736193060874939,-1.0088571310043335
1761914326860720600,7.276720703125,-1.0581202507019043,-0.5425533056259155,-0.9257334470748901
1761914326870776600,7.286776611328125,-0.9706476330757141,-0.4048476219177246,-0.8208125829696655
1761914326880832800,7.296832763671875,-0.8838650584220886,-0.372126966714859,-0.6997668743133545
1761914326890888700,7.306888671875,-0.8379918336868286,-0.3809175193309784,-0.6248710751533508
1761914326900944600,7.316944580078125,-0.8344655632972717,-0.3714771568775177,-0.6194358468055725
1761914326911000800,7.327000732421875,-0.8869125247001648,-0.3303571343421936,-0.7007980346679688
1761914326921056800,7.337056884765625,-0.9860026240348816,-0.33951494097709656,-0.8619917631149292
1761914326931112000,7.34711181640625,-1.1499849557876587,-0.500686526298523,-1.0920507907867432
1761914326941167900,7.35716796875,-1.3758342266082764,-0.6293081641197205,-1.311305046081543
1761914326951223800,7.367223876953125,-1.5774822235107422,-0.36589303612709045,-1.465716004371643
1761914326961279700,7.37727978515625,-1.6116116046905518,-0.12383618950843811,-1.6032192707061768
1761914326971335700,7.387335693359375,-1.5273792743682861,0.013214072212576866,-1.7690060138702393
1761914326981391600,7.3973916015625,-1.4427448511123657,0.19577616453170776,-1.9682981967926025
1761914326991447800,7.40744775390625,-1.3912361860275269,0.4212862551212311,-2.1966567039489746
1761914327001503700,7.417503662109375,-1.3687471151351929,0.585569441318512,-2.4119603633880615
1761914327011559700,7.4275595703125,-1.3148415088653564,0.6654152870178223,-2.6864829063415527
1761914327021615600,7.43761572265625,-1.2224642038345337,0.5364354848861694,-2.9753551483154297
1761914327031671800,7.447671875,-1.138848900794983,0.40462711453437805,-3.2308969497680664
1761914327041727700,7.457727783203125,-1.0355746746063232,0.6579999923706055,-3.359387159347534
1761914327051783700,7.46778369140625,-0.9506025314331055,0.7474662065505981,-3.2772645950317383
1761914327061838600,7.477838623046875,-0.9236705303192139,0.5373478531837463,-2.9692628383636475
1761914327071894500,7.48789453125,-0.9520537257194519,0.3310359716415405,-2.468750476837158
1761914327081950700,7.49795068359375,-0.9896697998046875,0.09767595678567886,-1.8507651090621948
1761914327092006700,7.508006591796875,-1.0184096097946167,-0.23734436929225922,-1.186569333076477
1761914327102062600,7.5180625,-1.0010566711425781,-0.5833262801170349,-0.5544176697731018
1761914327112118800,7.528118896484375,-0.9257147908210754,-0.8572435975074768,-0.019208315759897232
1761914327122174700,7.5381748046875,-0.8051409721374512,-0.9569385051727295,0.40906286239624023
1761914327132230700,7.548230712890625,-0.6535434722900391,-0.7360202074050903,0.7377773523330688
1761914327142286800,7.558286865234375,-0.5197233557701111,-0.42668792605400085,1.0195728540420532
1761914327152342800,7.5683427734375,-0.4397989511489868,-0.24291570484638214,1.2804089784622192
1761914327162398700,7.578398681640625,-0.4023786187171936,-0.1099744364619255,1.519614577293396
1761914327172455000,7.588454833984375,-0.3749360740184784,0.04481487721204758,1.750191330909729
1761914327182510600,7.598510498046875,-0.32675307989120483,0.2740398049354553,1.986273169517517
1761914327192566500,7.60856640625,-0.2561585307121277,0.5373747944831848,2.2184231281280518
1761914327202621700,7.61862158203125,-0.1855538785457611,0.7561001777648926,2.4241232872009277
1761914327212677600,7.628677734375,-0.11401604861021042,0.9089635014533997,2.531402349472046
1761914327222733800,7.63873388671875,-0.04988846182823181,1.1959327459335327,2.3856711387634277
1761914327232789800,7.648789794921875,0.001315335277467966,1.630544900894165,1.9875134229660034
1761914327242845700,7.658845703125,0.005289037711918354,1.827043056488037,1.5752876996994019
1761914327252902000,7.66890185546875,-0.07591526955366135,1.733138084411621,1.2446274757385254
1761914327262957800,7.678957763671875,-0.19368530809879303,1.3937187194824219,0.9625644087791443
1761914327273013800,7.689013671875,-0.3052182197570801,0.9232937097549438,0.686053454875946
1761914327283070000,7.699070068359375,-0.3897187411785126,0.45414698123931885,0.4133993089199066
1761914327293125600,7.709125732421875,-0.451742947101593,0.060377322137355804,0.15698428452014923
1761914327303181600,7.719181640625,-0.5174399614334106,-0.24635012447834015,-0.057729609310626984
1761914327313237800,7.72923779296875,-0.5732078552246094,-0.5190405249595642,-0.24357403814792633
1761914327323293700,7.739293701171875,-0.5912281274795532,-0.7268445491790771,-0.4019612967967987
1761914327333348900,7.749348876953125,-0.5676887631416321,-0.8443642854690552,-0.5508759617805481
1761914327343404800,7.75940478515625,-0.5300822257995605,-0.8466295599937439,-0.7055725455284119
1761914327353460700,7.769460693359375,-0.4897175133228302,-0.6175380349159241,-0.8755943775177002
1761914327363517000,7.779516845703125,-0.4049608111381531,-0.030534472316503525,-1.0462627410888672
1761914327373572900,7.78957275390625,-0.25136858224868774,0.7139564752578735,-1.1643643379211426
1761914327383628800,7.79962890625,-0.10068559646606445,1.286097526550293,-1.1861472129821777
1761914327393684700,7.809684814453125,-0.006218214984983206,1.5957067012786865,-1.1276718378067017
1761914327403740700,7.81974072265625,0.03939187899231911,1.634961485862732,-1.0169789791107178
1761914327413796600,7.829796630859375,0.07018814235925674,1.4583070278167725,-0.8528128862380981
1761914327423852800,7.839852783203125,0.1142839640378952,1.193915605545044,-0.622623860836029
1761914327433908700,7.84990869140625,0.1701727956533432,0.8237034678459167,-0.3395240008831024
1761914327443964700,7.859964599609375,0.21649502217769623,0.3806717097759247,-0.028373317793011665
1761914327454020900,7.870020751953125,0.2542003095149994,-0.08002852648496628,0.29206302762031555
1761914327464076800,7.880076904296875,0.2898422181606293,-0.5242707133293152,0.5949848294258118
1761914327474131700,7.890131591796875,0.30662038922309875,-0.9258708357810974,0.8719037771224976
1761914327484188000,7.90018798828125,0.3140389025211334,-1.2044780254364014,1.0954498052597046
1761914327494243600,7.91024365234375,0.31670498847961426,-1.2584437131881714,1.224259614944458
1761914327504299500,7.920299560546875,0.3124431073665619,-1.1811423301696777,1.2495852708816528
1761914327514355700,7.930355712890625,0.2654319405555725,-1.1487518548965454,1.161238670349121
1761914327524411600,7.94041162109375,0.17914311587810516,-1.2570245265960693,1.0193909406661987
1761914327534467600,7.950467529296875,0.12169714272022247,-1.3238059282302856,0.9036465287208557
1761914327544523800,7.960523681640625,0.04788123816251755,-0.9953545928001404,0.743815541267395
1761914327554579700,7.970579833984375,-0.040472060441970825,-0.6491963863372803,0.526393473148346
1761914327564635600,7.9806357421875,-0.07534828037023544,-0.620522141456604,0.3526155650615692
1761914327574691800,7.99069189453125,0.011746138334274292,-0.7299609780311584,0.23810045421123505
1761914327584747800,8.000747802734375,0.3223026692867279,-0.547455906867981,0.15905116498470306
1761914327594801700,8.0108017578125,0.741712212562561,-0.09105640649795532,0.06079810485243797
1761914327604857600,8.020857666015624,1.094224452972412,0.04560210555791855,0.009013734757900238
1761914327614912800,8.030912841796875,1.2877891063690186,0.0438164547085762,0.05780977010726929
1761914327624968700,8.04096875,1.3502836227416992,0.2959757447242737,0.15346784889698029
1761914327635025000,8.05102490234375,1.3206714391708374,0.5385766625404358,0.3071080148220062
1761914327645080800,8.061080810546875,1.2390042543411255,0.6561357975006104,0.5170383453369141
1761914327655136800,8.07113671875,1.127201795578003,0.7778225541114807,0.7270994186401367
1761914327665193000,8.08119287109375,0.9165873527526855,0.903862476348877,0.808288037776947
1761914327675248600,8.09124853515625,0.6051575541496277,0.8689556121826172,0.7740200757980347
1761914327685304600,8.1013046875,0.34508016705513,0.8344871401786804,0.743058979511261
1761914327695360800,8.11136083984375,0.3015230894088745,0.678876519203186,0.723045289516449
1761914327705416700,8.121416748046874,0.31577765941619873,0.6194262504577637,0.6699753999710083
1761914327715472600,8.13147265625,0.3057734966278076,0.6289869546890259,0.6012959480285645
1761914327725528800,8.14152880859375,0.2880147397518158,0.5740888714790344,0.5087060928344727
1761914327735585000,8.1515849609375,0.2878653407096863,0.46493253111839294,0.38870006799697876
1761914327745640000,8.161639892578124,0.30592477321624756,0.2931000590324402,0.28418752551078796
1761914327755696000,8.171696044921875,0.32120996713638306,0.08800282329320908,0.20350651443004608
1761914327765752000,8.181751953125,0.33676791191101074,-0.11897192895412445,0.1754266768693924
1761914327775808000,8.19180810546875,0.3442354202270508,-0.29210323095321655,0.21444198489189148
1761914327785864000,8.201864013671875,0.35809236764907837,-0.412212073802948,0.2937125861644745
1761914327795920000,8.211919921875,0.37172216176986694,-0.46873393654823303,0.3848781883716583
1761914327805975800,8.221975830078126,0.38240116834640503,-0.46961382031440735,0.4569616913795471
1761914327816032000,8.232031982421875,0.39746347069740295,-0.4201056659221649,0.49117639660835266
1761914327826088000,8.242087890625,0.41842734813690186,-0.3390270471572876,0.4954739212989807
1761914327836143900,8.252143798828126,0.4497045874595642,-0.21278683841228485,0.4905822277069092
1761914327846200000,8.262199951171874,0.48615527153015137,-0.04279566556215286,0.4972641170024872
1761914327856256000,8.272256103515625,0.5409734845161438,0.14292679727077484,0.522801399230957
1761914327866312000,8.28231201171875,0.5732187628746033,0.2571257948875427,0.5752249360084534
1761914327876368100,8.2923681640625,0.5673891305923462,0.23431476950645447,0.6307806372642517
1761914327886422800,8.3024228515625,0.5277775526046753,0.08823878318071365,0.6847591400146484
1761914327896479000,8.31247900390625,0.4747103154659271,-0.1257382184267044,0.7437311410903931
1761914327906535000,8.322534912109376,0.4302999973297119,-0.32041555643081665,0.8082483410835266
1761914327916590800,8.3325908203125,0.40521568059921265,-0.41667792201042175,0.8768359422683716
1761914327926647000,8.34264697265625,0.38273006677627563,-0.4482869803905487,0.9456296563148499
1761914327936703000,8.352702880859376,0.35363078117370605,-0.45781150460243225,1.004267930984497
1761914327946759000,8.362759033203124,0.30401262640953064,-0.47997725009918213,1.0471166372299194
1761914327956815000,8.372815185546875,0.23169048130512238,-0.5381327271461487,1.0709178447723389
1761914327966871000,8.38287109375,0.15076740086078644,-0.6006645560264587,1.083030104637146
1761914327976927000,8.392927001953124,0.08885157853364944,-0.6253288388252258,1.0928257703781128
1761914327986983200,8.402983154296875,0.06019223481416702,-0.59415602684021,1.0961097478866577
1761914327997039000,8.4130390625,0.0525423027575016,-0.5182260870933533,1.0781255960464478
1761914328007095000,8.423094970703126,0.0490916445851326,-0.4262754023075104,1.0444422960281372
1761914328017150000,8.43314990234375,0.021749237552285194,-0.37213602662086487,1.0005253553390503
1761914328027206000,8.443205810546875,-0.036315664649009705,-0.3811553418636322,0.9611862301826477
1761914328037262000,8.453261962890625,-0.11222054809331894,-0.4683384597301483,0.9205812811851501
1761914328047318000,8.463318115234374,-0.18566466867923737,-0.5828679800033569,0.8730766177177429
1761914328057374000,8.4733740234375,-0.24610644578933716,-0.6685080528259277,0.8080062866210938
1761914328067430100,8.48343017578125,-0.30490636825561523,-0.71137934923172,0.7439029216766357
1761914328077486000,8.493486083984376,-0.3681522011756897,-0.7864386439323425,0.6956664323806763
1761914328087542000,8.5035419921875,-0.42950183153152466,-0.8822807669639587,0.6598117351531982
1761914328097598000,8.513597900390625,-0.4733217656612396,-0.9355770349502563,0.5821507573127747
1761914328107654100,8.523654052734376,-0.47503548860549927,-0.8398171663284302,0.4346340000629425
1761914328117709800,8.533709716796874,-0.39365488290786743,-0.5983331799507141,0.22166262567043304
1761914328127766000,8.54376611328125,-0.2352503389120102,-0.28621578216552734,-0.007728493306785822
1761914328137822000,8.553822021484375,-0.045463353395462036,0.005312207154929638,-0.17715054750442505
1761914328147878000,8.5638779296875,0.11301709711551666,0.2186814695596695,-0.25936606526374817
1761914328157933000,8.57393310546875,0.20934443175792694,0.31142657995224,-0.2673797607421875
1761914328167989000,8.583989013671875,0.25337234139442444,0.3125035762786865,-0.24601642787456512
1761914328178045000,8.594044921875,0.26808470487594604,0.26261165738105774,-0.21084032952785492
1761914328188101000,8.60410107421875,0.27155640721321106,0.2203185260295868,-0.1764988750219345
1761914328198157000,8.614156982421875,0.27937784790992737,0.2210570126771927,-0.13230371475219727
1761914328208213000,8.624212890625,0.28776147961616516,0.25020772218704224,-0.06202502176165581
1761914328218269000,8.63426904296875,0.2718549370765686,0.2647522985935211,0.042579151690006256
1761914328228324900,8.644324951171875,0.22670558094978333,0.210945263504982,0.16613037884235382
1761914328238380800,8.654380859375,0.1411866843700409,0.10214580595493317,0.28818145394325256
1761914328248437000,8.66443701171875,0.032586704939603806,-0.024754881858825684,0.3761155605316162
1761914328258493000,8.674492919921875,-0.07996807247400284,-0.13229386508464813,0.41679084300994873
1761914328268548900,8.684548828125,-0.16705849766731262,-0.2261923849582672,0.40900561213493347
1761914328278605000,8.69460498046875,-0.22641342878341675,-0.3154660761356354,0.3796519935131073
1761914328288660000,8.704659912109374,-0.2688541114330292,-0.41516390442848206,0.3391157388687134
1761914328298716200,8.714716064453125,-0.2921445071697235,-0.5098395347595215,0.28986138105392456
1761914328308772000,8.724772216796875,-0.30980899930000305,-0.5858304500579834,0.2279047966003418
1761914328318827800,8.734827880859376,-0.3260308504104614,-0.6722966432571411,0.15663088858127594
1761914328328884000,8.744884033203125,-0.3589256703853607,-0.7702804803848267,0.06819476932287216
1761914328338940000,8.75493994140625,-0.38931047916412354,-0.8688278198242188,-0.045036718249320984
1761914328348995800,8.764995849609376,-0.4161471426486969,-0.9089507460594177,-0.1889781802892685
1761914328359052000,8.775052001953124,-0.4436706602573395,-0.910585880279541,-0.33892399072647095
1761914328369108000,8.78510791015625,-0.4688551127910614,-0.8876065611839294,-0.4685240685939789
1761914328379164000,8.795163818359375,-0.4971224367618561,-0.8591216206550598,-0.5749988555908203
1761914328389220000,8.80522021484375,-0.5308154225349426,-0.8155001401901245,-0.6690760850906372
1761914328399276000,8.815276123046875,-0.5790417790412903,-0.757258951663971,-0.7595532536506653
1761914328409332000,8.82533203125,-0.6408804059028625,-0.6739150285720825,-0.8460119962692261
1761914328419387000,8.835386962890626,-0.7059773802757263,-0.5949576497077942,-0.9225946068763733
1761914328429442800,8.84544287109375,-0.7699206471443176,-0.5152708292007446,-0.9667152166366577
1761914328439499000,8.8554990234375,-0.8296817541122437,-0.42599204182624817,-0.9782299399375916
1761914328449555000,8.865554931640625,-0.8769856095314026,-0.32414212822914124,-0.9446980953216553
1761914328459611000,8.87561083984375,-0.9100668430328369,-0.21532322466373444,-0.8689055442810059
1761914328469667000,8.8856669921875,-0.9309729337692261,-0.13558952510356903,-0.769433319568634
1761914328479723000,8.895722900390625,-0.943160355091095,-0.10833233594894409,-0.6704217791557312
1761914328489779000,8.905779052734376,-0.9325154423713684,-0.09738727658987045,-0.5750385522842407
1761914328499835100,8.915835205078125,-0.905647337436676,-0.0713876336812973,-0.5025249123573303
1761914328509891000,8.92589111328125,-0.8717021346092224,-0.014585600234568119,-0.44259020686149597
1761914328519947000,8.935947021484376,-0.8414273262023926,0.05830671638250351,-0.37648308277130127
1761914328530003000,8.9460029296875,-0.824127733707428,0.10726892948150635,-0.30844998359680176
1761914328540059100,8.95605908203125,-0.8231873512268066,0.11037151515483856,-0.2292395830154419
1761914328550113800,8.96611376953125,-0.8354333639144897,0.07045073062181473,-0.14189934730529785
1761914328560170000,8.976169921875,-0.8552275896072388,0.004619252867996693,-0.051173970103263855
1761914328570226000,8.986225830078125,-0.8795922994613647,-0.06445622444152832,0.04339434579014778
1761914328580281900,8.99628173828125,-0.904598593711853,-0.14462348818778992,0.13706783950328827
1761914328590338000,9.006338134765626,-0.9202747344970703,-0.2273005247116089,0.2165328413248062
1761914328600394000,9.01639404296875,-0.9208348393440247,-0.31442877650260925,0.26394668221473694
1761914328610450000,9.026449951171875,-0.9028856158256531,-0.3549479842185974,0.2691265344619751
1761914328620506000,9.036506103515626,-0.8693662881851196,-0.33813729882240295,0.24517060816287994
1761914328630562000,9.04656201171875,-0.8172788619995117,-0.2807762622833252,0.1981775313615799
1761914328640618000,9.056617919921875,-0.769505500793457,-0.2137729972600937,0.1274775266647339
1761914328650674000,9.066673828125,-0.7308529019355774,-0.17443065345287323,0.025737853720784187
1761914328660729900,9.076729736328126,-0.6837874054908752,-0.1599382758140564,-0.10288084298372269
1761914328670785800,9.086785888671875,-0.6220877766609192,-0.13345526158809662,-0.23959873616695404
1761914328680841000,9.096841064453125,-0.5462921261787415,-0.10182303190231323,-0.35326725244522095
1761914328690897000,9.10689697265625,-0.4643133580684662,-0.05061018094420433,-0.42824482917785645
1761914328700953000,9.116953125,-0.389091819524765,0.031672973185777664,-0.44615671038627625
1761914328711009000,9.127009033203125,-0.3284953236579895,0.09502824395895004,-0.41899991035461426
1761914328721068300,9.137068359375,-0.28489139676094055,0.12455817312002182,-0.3494831621646881
1761914328731124500,9.14712451171875,-0.25205355882644653,0.1442924588918686,-0.276047021150589
1761914328741180400,9.157180419921875,-0.21557995676994324,0.16823801398277283,-0.22151827812194824
1761914328751236400,9.167236328125,-0.17224660515785217,0.21448220312595367,-0.177007794380188
1761914328761292500,9.17729248046875,-0.11938205361366272,0.2856069803237915,-0.13318601250648499
1761914328771348200,9.18734814453125,-0.05403527244925499,0.36956021189689636,-0.08320754021406174
1761914328781404200,9.197404052734376,0.02154470607638359,0.45038101077079773,-0.025835325941443443
1761914328791460400,9.20746044921875,0.10245127230882645,0.5164703130722046,0.04152160882949829
1761914328801515300,9.217515380859375,0.18572965264320374,0.5662258863449097,0.11769520491361618
1761914328811571500,9.227571533203125,0.26150697469711304,0.5744845867156982,0.20986880362033844
1761914328821627400,9.23762744140625,0.31616541743278503,0.5617378950119019,0.30974215269088745
1761914328831683300,9.247683349609375,0.3380241096019745,0.5554941296577454,0.4090447723865509
1761914328841739500,9.257739501953125,0.314826637506485,0.5669947266578674,0.5169946551322937
1761914328851795500,9.26779541015625,0.24883431196212769,0.5631909370422363,0.6330687999725342
1761914328861851400,9.277851318359374,0.17945177853107452,0.5114099979400635,0.7250336408615112
1761914328871907600,9.287907470703125,0.1315697431564331,0.43647265434265137,0.7659459114074707
1761914328881963300,9.29796337890625,0.09623651951551437,0.35117268562316895,0.7482745051383972
1761914328892019200,9.308019287109374,0.07451418042182922,0.24371971189975739,0.6749550104141235
1761914328902075400,9.318075439453125,0.07094767689704895,0.12348651885986328,0.5602015256881714
1761914328912131300,9.32813134765625,0.10195831954479218,0.009558884426951408,0.40785059332847595
1761914328922187300,9.338187255859374,0.164210245013237,-0.06012032926082611,0.23114266991615295
1761914328932242400,9.348242431640625,0.23757927119731903,-0.08482514321804047,0.06546715646982193
1761914328942298400,9.35829833984375,0.2949773073196411,-0.12716861069202423,-0.07418474555015564
1761914328952354300,9.368354248046876,0.3361622989177704,-0.1966067999601364,-0.17899984121322632
1761914328962410500,9.378410400390624,0.35711950063705444,-0.2307959347963333,-0.266031950712204
1761914328972466400,9.388466552734375,0.3731834292411804,-0.19976957142353058,-0.3394733965396881
1761914328982522400,9.3985224609375,0.39757052063941956,-0.09395552426576614,-0.39898681640625
1761914328992578300,9.408578369140624,0.414122611284256,0.07717281579971313,-0.4236796200275421
1761914329002634200,9.41863427734375,0.39567384123802185,0.2502548396587372,-0.3947206735610962
1761914329012690400,9.4286904296875,0.3515854775905609,0.380759596824646,-0.30184242129325867
1761914329022746400,9.438746337890626,0.29535096883773804,0.4417337477207184,-0.14419898390769958
1761914329032802300,9.44880224609375,0.2476113885641098,0.4296885132789612,0.0656043067574501
1761914329042858200,9.458858154296875,0.19257690012454987,0.3298380970954895,0.3006895184516907
1761914329052913400,9.468913330078125,0.13944604992866516,0.16625767946243286,0.5202261209487915
1761914329062969300,9.47896923828125,0.08386081457138062,0.01672491803765297,0.6760932207107544
1761914329073025500,9.489025634765625,0.016278572380542755,-0.07005045562982559,0.7664015889167786
1761914329083081200,9.499081298828125,-0.03145645931363106,-0.09118609875440598,0.7936712503433228
1761914329093137200,9.50913720703125,-0.057802312076091766,-0.053043242543935776,0.7817466855049133
1761914329103193300,9.519193359375,-0.09123829752206802,0.003206712193787098,0.7582547068595886
1761914329113249300,9.529249267578125,-0.14461630582809448,0.043584227561950684,0.7177003622055054
1761914329123305200,9.53930517578125,-0.20080900192260742,0.07468462735414505,0.6670286655426025
1761914329133361400,9.549361328125,-0.25817030668258667,0.09650709480047226,0.6165100932121277
1761914329143417300,9.559417236328125,-0.3189215362071991,0.08674155175685883,0.5753354430198669
1761914329153473300,9.569473388671875,-0.36429354548454285,0.06514278054237366,0.5379433631896973
1761914329163529500,9.579529541015624,-0.39001327753067017,0.06468764692544937,0.5090395212173462
1761914329173585400,9.58958544921875,-0.39932581782341003,0.07988497614860535,0.48634859919548035
1761914329183640300,9.599640380859375,-0.3898806571960449,0.06583227962255478,0.47200560569763184
1761914329193696300,9.6096962890625,-0.3596492409706116,0.05012654885649681,0.4561190605163574
1761914329203752200,9.619752197265624,-0.3171108365058899,0.015029549598693848,0.4363775849342346
1761914329213808400,9.629808349609375,-0.2786145806312561,-0.06693189591169357,0.39466583728790283
1761914329223864300,9.6398642578125,-0.2632175087928772,-0.17427459359169006,0.32986631989479065
1761914329233920300,9.649920166015624,-0.2596267759799957,-0.2750893533229828,0.2531837821006775
1761914329243976400,9.6599765625,-0.2677989602088928,-0.3567432165145874,0.17896895110607147
1761914329254032400,9.670032470703125,-0.2757945656776428,-0.42791086435317993,0.12465032190084457
1761914329264088300,9.68008837890625,-0.29018816351890564,-0.48578959703445435,0.0974154993891716
1761914329274144500,9.69014453125,-0.30519214272499084,-0.5578824281692505,0.09686849266290665
1761914329284200400,9.700200439453125,-0.31484663486480713,-0.6445456743240356,0.1048491820693016
1761914329294256400,9.71025634765625,-0.31908318400382996,-0.6999729871749878,0.1043037697672844
1761914329304311300,9.720311279296874,-0.31802645325660706,-0.6986515522003174,0.09199170768260956
1761914329314367200,9.7303671875,-0.3159630298614502,-0.6501343250274658,0.07393068075180054
1761914329324423400,9.74042333984375,-0.31438297033309937,-0.5761620998382568,0.0705450028181076
1761914329334479400,9.750479248046876,-0.31426018476486206,-0.5230642557144165,0.08300486952066422
1761914329344535300,9.760535400390625,-0.3105536103248596,-0.5031270384788513,0.10092954337596893
1761914329354591500,9.770591552734375,-0.3046850562095642,-0.5042604804039001,0.12613077461719513
1761914329364647400,9.7806474609375,-0.31352943181991577,-0.5034943222999573,0.14099493622779846
1761914329374703400,9.790703369140624,-0.3355367183685303,-0.48150113224983215,0.14141757786273956
1761914329384759600,9.800759521484375,-0.3578084707260132,-0.46339163184165955,0.12763120234012604
1761914329394815500,9.8108154296875,-0.36622220277786255,-0.4337455928325653,0.10256898403167725
1761914329404871400,9.820871337890624,-0.3573765158653259,-0.4210209846496582,0.07984422892332077
1761914329414926300,9.83092626953125,-0.3427743911743164,-0.4230490028858185,0.0515579991042614
1761914329424982300,9.840982177734375,-0.33872586488723755,-0.4248514175415039,0.015298528596758842
1761914329435038200,9.8510380859375,-0.3413330912590027,-0.39808425307273865,-0.02798103354871273
1761914329445094400,9.861094482421874,-0.33656495809555054,-0.33345574140548706,-0.07087230682373047
1761914329455150300,9.871150390625,-0.3209018409252167,-0.2756534218788147,-0.088502436876297
1761914329465206300,9.881206298828126,-0.3131512701511383,-0.2557438910007477,-0.09202100336551666
1761914329475262500,9.891262451171874,-0.31628847122192383,-0.2612156271934509,-0.07973983883857727
1761914329485318400,9.901318359375,-0.3334600031375885,-0.24896614253520966,-0.06448418647050858
1761914329495374300,9.911374267578125,-0.34524446725845337,-0.21279215812683105,-0.059664662927389145
1761914329505430500,9.921430419921874,-0.3432473838329315,-0.1577392965555191,-0.08033851534128189
1761914329515486200,9.931486328125,-0.33114489912986755,-0.07027097046375275,-0.11824595183134079
1761914329525542100,9.941542236328125,-0.31724241375923157,0.025232119485735893,-0.14609356224536896
1761914329535598300,9.951598388671876,-0.30891895294189453,0.10860344022512436,-0.1471918523311615
1761914329545653200,9.9616533203125,-0.30074411630630493,0.1589539647102356,-0.11568398773670197
1761914329555709400,9.97170947265625,-0.29984477162361145,0.18242813646793365,-0.07196687161922455
1761914329565765400,9.981765380859375,-0.29496240615844727,0.19638629257678986,-0.03560513257980347
1761914329575821300,9.9918212890625,-0.29332882165908813,0.20175069570541382,-0.01798326149582863
1761914329585877500,10.00187744140625,-0.299538254737854,0.18455547094345093,-0.008590292185544968
1761914329595933400,10.011933349609375,-0.3076217472553253,0.13676530122756958,-0.007845406420528889
1761914329605989400,10.0219892578125,-0.3120761513710022,0.0718398317694664,-0.0007209177128970623
1761914329616045600,10.032045654296875,-0.31021884083747864,-0.00917618814855814,0.010991131886839867
1761914329626101200,10.042101318359375,-0.2935085892677307,-0.09873136878013611,0.040588706731796265
1761914329636157200,10.0521572265625,-0.2752041518688202,-0.17461921274662018,0.07192638516426086
1761914329646213400,10.06221337890625,-0.25166580080986023,-0.21371868252754211,0.08591490983963013
1761914329656269300,10.072269287109375,-0.24442598223686218,-0.20440560579299927,0.08735967427492142
1761914329666324500,10.082324462890625,-0.2426786869764328,-0.2004052698612213,0.09214537590742111
1761914329676380400,10.09238037109375,-0.23984694480895996,-0.22821585834026337,0.107031911611557
1761914329686436400,10.102436279296874,-0.24198387563228607,-0.2685750126838684,0.13943885266780853
1761914329696492500,10.112492431640625,-0.25684139132499695,-0.3271203339099884,0.17584027349948883
1761914329706548500,10.122548583984376,-0.27632054686546326,-0.397162526845932,0.21041156351566315
1761914329716604400,10.1326044921875,-0.2963818609714508,-0.47346237301826477,0.22702649235725403
1761914329726656500,10.142656494140626,-0.30605900287628174,-0.5351784825325012,0.21645507216453552
1761914329736712400,10.15271240234375,-0.31518006324768066,-0.5683712959289551,0.1920567899942398
1761914329746768400,10.162768310546875,-0.3293328881263733,-0.6024808287620544,0.16254949569702148
1761914329756824300,10.17282421875,-0.36214888095855713,-0.6439512968063354,0.13497087359428406
1761914329766880300,10.18288037109375,-0.3933078646659851,-0.6225354671478271,0.11856446415185928
1761914329776935400,10.192935302734375,-0.399960458278656,-0.5391644239425659,0.09825360029935837
1761914329786991400,10.202991455078125,-0.3941132128238678,-0.44915515184402466,0.08686086535453796
1761914329797047300,10.21304736328125,-0.3753909170627594,-0.3700326383113861,0.07190588116645813
1761914329807103500,10.223103515625,-0.34257492423057556,-0.26872679591178894,0.051296744495630264
1761914329817159400,10.233159423828125,-0.2844913899898529,-0.1446187049150467,0.025667013600468636
1761914329827215400,10.24321533203125,-0.18709425628185272,0.0022354573011398315,-0.011806592345237732
1761914329837271600,10.253271484375,-0.05139288306236267,0.15556855499744415,-0.07528383284807205
1761914329847327500,10.263327392578125,0.08606377989053726,0.2838208079338074,-0.14623071253299713
1761914329857383200,10.273383056640625,0.2042708396911621,0.33927980065345764,-0.19783158600330353
1761914329867439400,10.283439453125,0.28175845742225647,0.27605316042900085,-0.22638413310050964
1761914329877495300,10.293495361328125,0.3086702227592468,0.11691383272409439,-0.2272249013185501
1761914329887551200,10.30355126953125,0.2847023010253906,-0.07613737881183624,-0.2123362272977829
1761914329897606400,10.3136064453125,0.19289594888687134,-0.24354448914527893,-0.17666025459766388
1761914329907662300,10.323662353515624,0.07248006016016006,-0.35528725385665894,-0.12970659136772156
1761914329917718500,10.333718505859375,-0.03225940093398094,-0.41634607315063477,-0.0716845691204071
1761914329927774500,10.3437744140625,-0.09992952644824982,-0.4460880160331726,-0.013470268808305264
1761914329937830400,10.353830322265624,-0.12928634881973267,-0.47181734442710876,0.03801928833127022
1761914329947886600,10.363886474609375,-0.12838193774223328,-0.49509361386299133,0.07541299611330032
1761914329957942300,10.3739423828125,-0.10979919880628586,-0.5115037560462952,0.10618183016777039
1761914329967998200,10.383998291015626,-0.0721258595585823,-0.4863283634185791,0.1374252438545227
1761914329978054400,10.394054443359375,-0.018559303134679794,-0.43099772930145264,0.1654938906431198
1761914329988110300,10.4041103515625,0.005063201766461134,-0.39023885130882263,0.2040143758058548
1761914329998166300,10.414166259765626,0.0016471651615574956,-0.39834603667259216,0.25578171014785767
1761914330008221400,10.424221435546874,-0.034152910113334656,-0.4504918158054352,0.311568021774292
1761914330018277400,10.43427734375,-0.0861029252409935,-0.5119556784629822,0.3592665493488312
1761914330028333300,10.444333251953125,-0.14250601828098297,-0.5597962141036987,0.3894156813621521
1761914330038389500,10.454389404296874,-0.18774406611919403,-0.5777906179428101,0.3898566961288452
1761914330048445400,10.464445556640625,-0.220920130610466,-0.5507105588912964,0.36657825112342834
1761914330058501000,10.474501220703125,-0.23824238777160645,-0.5063566565513611,0.3317915201187134
1761914330068557300,10.484557373046876,-0.24481108784675598,-0.4791199862957001,0.29895874857902527
1761914330078613200,10.49461328125,-0.24553066492080688,-0.49292582273483276,0.2765170931816101
1761914330088669200,10.504669189453125,-0.24101553857326508,-0.5306846499443054,0.25753140449523926
1761914330098725400,10.514725341796876,-0.23973456025123596,-0.5647035837173462,0.22805926203727722
1761914330108781300,10.52478125,-0.24217002093791962,-0.574422299861908,0.18824714422225952
1761914330118837200,10.534837158203125,-0.26511049270629883,-0.5856307148933411,0.13825587928295135
1761914330128892400,10.544892333984375,-0.29640424251556396,-0.6171116828918457,0.09582825750112534
1761914330138948400,10.5549482421875,-0.32966524362564087,-0.6595742106437683,0.06636277586221695
1761914330149004500,10.565004638671875,-0.3478375971317291,-0.6908493041992188,0.037152696400880814
1761914330159060200,10.575060302734375,-0.33691996335983276,-0.6869285702705383,-0.0034048515371978283
1761914330169116200,10.5851162109375,-0.3181212544441223,-0.6096116900444031,-0.055412657558918
1761914330179172400,10.59517236328125,-0.3034626841545105,-0.5144393444061279,-0.11044075340032578
1761914330189228300,10.605228271484375,-0.28703737258911133,-0.4370143413543701,-0.1618994176387787
1761914330199284200,10.6152841796875,-0.27514395117759705,-0.38243046402931213,-0.20147879421710968
1761914330209340400,10.62534033203125,-0.28812873363494873,-0.3643880784511566,-0.22840094566345215
1761914330219396400,10.635396240234375,-0.32670995593070984,-0.4012899100780487,-0.23577231168746948
1761914330229452300,10.645452392578125,-0.38705503940582275,-0.4627822935581207,-0.22229431569576263
1761914330239507500,10.655507568359376,-0.4526154100894928,-0.5374589562416077,-0.1986132264137268
1761914330249563400,10.6655634765625,-0.5107093453407288,-0.6328113079071045,-0.17641790211200714
1761914330259619600,10.67561962890625,-0.5586315989494324,-0.7156022787094116,-0.15123745799064636
1761914330269675300,10.68567529296875,-0.621282160282135,-0.7660420536994934,-0.13274019956588745
1761914330279731200,10.695731201171874,-0.6800261735916138,-0.8119155168533325,-0.13933178782463074
1761914330289787400,10.705787353515625,-0.7423585653305054,-0.8054951429367065,-0.15541090071201324
1761914330299843300,10.71584326171875,-0.784911036491394,-0.7664111256599426,-0.15875369310379028
1761914330309899300,10.725899169921876,-0.7978473901748657,-0.7230178713798523,-0.14649729430675507
1761914330319955500,10.73595556640625,-0.7884677052497864,-0.6523908376693726,-0.1246844083070755
1761914330330011400,10.746011474609375,-0.7783269286155701,-0.5247774720191956,-0.10310374945402145
1761914330340067300,10.7560673828125,-0.7687866687774658,-0.3480035066604614,-0.06199519336223602
1761914330350122500,10.76612255859375,-0.7583974599838257,-0.20209982991218567,-0.012431102804839611
1761914330360178400,10.776178466796875,-0.7346652150154114,-0.11762916296720505,0.02936960570514202
1761914330370234400,10.786234375,-0.6901728510856628,-0.07778427749872208,0.04129284620285034
1761914330380290300,10.796290283203126,-0.6199692487716675,-0.07137271761894226,0.02983965538442135
1761914330390346200,10.80634619140625,-0.5323778986930847,-0.09071338921785355,0.06594306230545044
1761914330400402400,10.81640234375,-0.43107497692108154,-0.06469830125570297,0.13057318329811096
1761914330410458400,10.826458251953126,-0.4009990990161896,-0.07694990932941437,0.07887164503335953
1761914330420514300,10.836514404296874,-0.41109034419059753,0.04686044901609421,-0.03479659557342529
1761914330430570200,10.8465703125,-0.3727022111415863,0.17174991965293884,-0.11320698261260986
1761914330440626400,10.85662646484375,-0.3043369948863983,0.2573004961013794,-0.10254981368780136
1761914330450682400,10.866682373046874,-0.21439698338508606,0.42800912261009216,-0.043781034648418427
1761914330460738300,10.87673828125,-0.14866404235363007,0.5262749791145325,0.021854165941476822
