time,seconds_elapsed,z,y,x
1761914471093879000,0.079879150390625,-0.95574951171875,-0.4364013671875,-0.0672760009765625
1761914471103935000,0.08993505859375,-0.947174072265625,-0.4498291015625,-0.0561981201171875
1761914471113990100,0.099990234375,-0.9466400146484375,-0.4592742919921875,-0.0450439453125
1761914471124046000,0.110046142578125,-0.9430389404296875,-0.463958740234375,-0.0342559814453125
1761914471134102000,0.12010205078125,-0.9415740966796875,-0.4639892578125,-0.024505615234375
1761914471144157200,0.1301572265625,-0.9535980224609375,-0.4621124267578125,-0.012176513671875
1761914471154212900,0.140212890625,-0.9627838134765625,-0.45635986328125,0.001556396484375
1761914471164269000,0.15026904296875,-0.9727783203125,-0.451080322265625,0.0116119384765625
1761914471174325000,0.160324951171875,-0.9830474853515625,-0.4478759765625,0.022064208984375
1761914471184380200,0.170380126953125,-0.9893951416015625,-0.446624755859375,0.031982421875
1761914471194436000,0.18043603515625,-0.9918060302734375,-0.4476318359375,0.037750244140625
1761914471204492000,0.190491943359375,-0.998260498046875,-0.449249267578125,0.04058837890625
1761914471214547200,0.200547119140625,-0.9997100830078125,-0.4512481689453125,0.04705810546875
1761914471224603100,0.21060302734375,-0.9892578125,-0.4552459716796875,0.0535888671875
1761914471234659000,0.2206591796875,-0.9751434326171875,-0.4554290771484375,0.0594482421875
1761914471244715000,0.230715087890625,-0.9629669189453125,-0.45501708984375,0.0650482177734375
1761914471254770000,0.24077001953125,-0.943939208984375,-0.4449920654296875,0.0864105224609375
1761914471264826000,0.250826171875,-0.91864013671875,-0.4346160888671875,0.09857177734375
1761914471274882000,0.260882080078125,-0.903411865234375,-0.423309326171875,0.1131591796875
1761914471284937200,0.270937255859375,-0.887603759765625,-0.4100341796875,0.1288604736328125
1761914471294993200,0.2809931640625,-0.8819427490234375,-0.3967437744140625,0.1436004638671875
1761914471305049000,0.291049072265625,-0.872467041015625,-0.3859710693359375,0.157470703125
1761914471315105000,0.30110498046875,-0.86279296875,-0.3820037841796875,0.17230224609375
1761914471325160000,0.311159912109375,-0.8532257080078125,-0.38525390625,0.18841552734375
1761914471335216000,0.321216064453125,-0.83673095703125,-0.386566162109375,0.20074462890625
1761914471345272000,0.33127197265625,-0.819732666015625,-0.391082763671875,0.2093505859375
1761914471355328000,0.341327880859375,-0.808197021484375,-0.3942413330078125,0.2169647216796875
1761914471365383200,0.351383056640625,-0.8091583251953125,-0.4012298583984375,0.223846435546875
1761914471375439000,0.361439208984375,-0.8163909912109375,-0.4131317138671875,0.2293548583984375
1761914471385495000,0.3714951171875,-0.8211212158203125,-0.4198150634765625,0.237640380859375
1761914471395550000,0.381550048828125,-0.8203277587890625,-0.4216766357421875,0.245361328125
1761914471405606100,0.391606201171875,-0.8181610107421875,-0.4202880859375,0.2497406005859375
1761914471415662000,0.401662109375,-0.822662353515625,-0.417877197265625,0.2476654052734375
1761914471425717000,0.411717041015625,-0.8265228271484375,-0.4103546142578125,0.236907958984375
1761914471435773200,0.421773193359375,-0.8230438232421875,-0.4024505615234375,0.2215423583984375
1761914471445829000,0.4318291015625,-0.823089599609375,-0.3954925537109375,0.21429443359375
1761914471455885000,0.441885009765625,-0.8218994140625,-0.387176513671875,0.212432861328125
1761914471465940000,0.45193994140625,-0.8239898681640625,-0.3754119873046875,0.208709716796875
1761914471475996000,0.461995849609375,-0.82635498046875,-0.3675689697265625,0.201019287109375
1761914471486052000,0.472052001953125,-0.823150634765625,-0.367279052734375,0.188079833984375
1761914471496108000,0.48210791015625,-0.8238525390625,-0.3778228759765625,0.1737060546875
1761914471506163200,0.4921630859375,-0.824554443359375,-0.3919219970703125,0.1583709716796875
1761914471516219100,0.50221923828125,-0.8217315673828125,-0.4090118408203125,0.1473846435546875
1761914471526275000,0.512275146484375,-0.8225860595703125,-0.427642822265625,0.1378631591796875
1761914471536330000,0.522330078125,-0.8264312744140625,-0.44354248046875,0.1328887939453125
1761914471546386000,0.532385986328125,-0.827056884765625,-0.4575042724609375,0.1309661865234375
1761914471556442000,0.542442138671875,-0.823822021484375,-0.4705352783203125,0.1290283203125
1761914471566498000,0.552498046875,-0.823944091796875,-0.479156494140625,0.1244049072265625
1761914471576553200,0.56255322265625,-0.823272705078125,-0.4873809814453125,0.1222076416015625
1761914471586609200,0.572609130859375,-0.8207550048828125,-0.4927978515625,0.120819091796875
1761914471596665000,0.5826650390625,-0.82012939453125,-0.490234375,0.115081787109375
1761914471606720000,0.592719970703125,-0.8281097412109375,-0.4876251220703125,0.1092376708984375
1761914471616776000,0.60277587890625,-0.8421478271484375,-0.484039306640625,0.1004791259765625
1761914471626832100,0.61283203125,-0.8530120849609375,-0.4797821044921875,0.0899658203125
1761914471636888000,0.62288818359375,-0.859649658203125,-0.4791259765625,0.0794677734375
1761914471646943000,0.63294287109375,-0.867340087890625,-0.477569580078125,0.0701904296875
1761914471656999200,0.642999267578125,-0.867706298828125,-0.4761199951171875,0.0601959228515625
1761914471667055000,0.65305517578125,-0.8671112060546875,-0.4778900146484375,0.051055908203125
1761914471677110000,0.663110107421875,-0.8642120361328125,-0.4786376953125,0.0418701171875
1761914471687166000,0.673166015625,-0.8610687255859375,-0.4828033447265625,0.0344696044921875
1761914471697222000,0.683221923828125,-0.8654327392578125,-0.489654541015625,0.029815673828125
1761914471707278000,0.693278076171875,-0.8648223876953125,-0.49609375,0.0299835205078125
1761914471717333000,0.7033330078125,-0.8669891357421875,-0.497802734375,0.02728271484375
1761914471727389200,0.71338916015625,-0.86956787109375,-0.498046875,0.02337646484375
1761914471737445000,0.723445068359375,-0.873321533203125,-0.4940185546875,0.02471923828125
1761914471747500000,0.7335,-0.869354248046875,-0.4896240234375,0.028564453125
1761914471757556000,0.743555908203125,-0.869659423828125,-0.49285888671875,0.0179443359375
1761914471767612000,0.75361181640625,-0.859100341796875,-0.5096893310546875,0.0122222900390625
1761914471777668000,0.763668212890625,-0.845458984375,-0.532135009765625,0.0193328857421875
1761914471787723000,0.773722900390625,-0.833160400390625,-0.5546417236328125,0.0246734619140625
1761914471797779200,0.783779296875,-0.825225830078125,-0.5753326416015625,0.0262298583984375
1761914471807835100,0.793835205078125,-0.826324462890625,-0.5867767333984375,0.0305023193359375
1761914471817890000,0.80389013671875,-0.8322906494140625,-0.5906219482421875,0.036163330078125
1761914471827946000,0.813946044921875,-0.8386993408203125,-0.59185791015625,0.0476837158203125
1761914471838002000,0.824001953125,-0.849395751953125,-0.58306884765625,0.06011962890625
1761914471848058000,0.83405810546875,-0.869140625,-0.5710601806640625,0.076904296875
1761914471858113000,0.844113037109375,-0.888885498046875,-0.5639190673828125,0.093994140625
1761914471868168000,0.85416796875,-0.9084930419921875,-0.5599517822265625,0.1096038818359375
1761914471878224000,0.864223876953125,-0.9212799072265625,-0.5549774169921875,0.12255859375
1761914471888278800,0.87427880859375,-0.9270782470703125,-0.5438232421875,0.1281890869140625
1761914471898334700,0.884334716796875,-0.9368896484375,-0.5302581787109375,0.127685546875
1761914471908390700,0.894390625,-0.945526123046875,-0.5178985595703125,0.1217498779296875
1761914471918446800,0.90444677734375,-0.955535888671875,-0.513580322265625,0.1096649169921875
1761914471928501800,0.914501708984375,-0.957000732421875,-0.5351409912109375,0.103668212890625
1761914471938558000,0.924557861328125,-0.9608612060546875,-0.567535400390625,0.101470947265625
1761914471948614000,0.93461376953125,-0.964630126953125,-0.58416748046875,0.0955352783203125
1761914471958668800,0.944668701171875,-0.94482421875,-0.5838470458984375,0.09002685546875
1761914471968724700,0.954724853515625,-0.9216156005859375,-0.5887908935546875,0.083709716796875
1761914471978780700,0.96478076171875,-0.903045654296875,-0.6125030517578125,0.0696563720703125
1761914471988836900,0.9748369140625,-0.8984527587890625,-0.6206207275390625,0.0649566650390625
1761914471998891800,0.984891845703125,-0.87469482421875,-0.62091064453125,0.077850341796875
1761914472008948000,0.994947998046875,-0.866424560546875,-0.621612548828125,0.0811614990234375
1761914472019004000,1.00500390625,-0.8617401123046875,-0.602691650390625,0.0891265869140625
1761914472029058800,1.015058837890625,-0.859771728515625,-0.5902557373046875,0.090545654296875
1761914472039114800,1.02511474609375,-0.86798095703125,-0.5629119873046875,0.094573974609375
1761914472049170700,1.035170654296875,-0.89215087890625,-0.5236053466796875,0.099761962890625
1761914472059226600,1.0452265625,-0.896942138671875,-0.4824066162109375,0.089141845703125
1761914472069281800,1.05528173828125,-0.8956146240234375,-0.4438323974609375,0.08111572265625
1761914472079337700,1.065337646484375,-0.929290771484375,-0.4192962646484375,0.0712432861328125
1761914472089394000,1.075393798828125,-0.9802093505859375,-0.40625,0.0515594482421875
1761914472099448800,1.08544873046875,-0.9692535400390625,-0.392547607421875,0.059173583984375
1761914472109504800,1.0955048828125,-0.979583740234375,-0.368011474609375,0.0521392822265625
1761914472119560700,1.105560791015625,-0.9938201904296875,-0.3500213623046875,0.03570556640625
1761914472129616600,1.11561669921875,-0.9791107177734375,-0.34185791015625,0.0176849365234375
1761914472139671800,1.125671875,-0.955718994140625,-0.333099365234375,-0.00592041015625
1761914472149727700,1.135727783203125,-0.92919921875,-0.29913330078125,-0.0152587890625
1761914472159784000,1.145783935546875,-0.900543212890625,-0.2823944091796875,-0.0198822021484375
1761914472169839900,1.15583984375,-0.8878326416015625,-0.2760009765625,-0.0247039794921875
1761914472179895000,1.16589501953125,-0.8869476318359375,-0.28375244140625,-0.031341552734375
1761914472189950700,1.17595068359375,-0.8778076171875,-0.2954254150390625,-0.0355072021484375
1761914472200006700,1.186006591796875,-0.8671875,-0.2969970703125,-0.03253173828125
1761914472210061800,1.196061767578125,-0.8487091064453125,-0.3047027587890625,-0.0306243896484375
1761914472220117800,1.20611767578125,-0.8220672607421875,-0.3223419189453125,-0.032623291015625
1761914472230174000,1.216174072265625,-0.79705810546875,-0.34100341796875,-0.041534423828125
1761914472240228900,1.226228759765625,-0.7724456787109375,-0.3538055419921875,-0.0557708740234375
1761914472250284800,1.236284912109375,-0.7501373291015625,-0.362548828125,-0.072967529296875
1761914472260341000,1.246341064453125,-0.731353759765625,-0.3671722412109375,-0.087066650390625
1761914472270396700,1.256396728515625,-0.7213287353515625,-0.3735198974609375,-0.099395751953125
1761914472280451800,1.266451904296875,-0.715606689453125,-0.3820343017578125,-0.1102142333984375
1761914472290507800,1.2765078125,-0.716949462890625,-0.3954925537109375,-0.121734619140625
1761914472300563700,1.286563720703125,-0.7165069580078125,-0.411834716796875,-0.1319122314453125
1761914472310620000,1.296619873046875,-0.72015380859375,-0.42919921875,-0.141204833984375
1761914472320674800,1.3066748046875,-0.7306671142578125,-0.4474639892578125,-0.144989013671875
1761914472330731000,1.31673095703125,-0.7342071533203125,-0.4642486572265625,-0.1458740234375
1761914472340786700,1.32678662109375,-0.7450103759765625,-0.482666015625,-0.14532470703125
1761914472350841900,1.336841796875,-0.7636260986328125,-0.4989471435546875,-0.143524169921875
1761914472360897800,1.346897705078125,-0.786102294921875,-0.5175628662109375,-0.13739013671875
1761914472370953700,1.35695361328125,-0.80670166015625,-0.537933349609375,-0.124176025390625
1761914472381010000,1.367010009765625,-0.810516357421875,-0.551361083984375,-0.1069488525390625
1761914472391064800,1.37706494140625,-0.8166351318359375,-0.5627593994140625,-0.086700439453125
1761914472401121000,1.38712109375,-0.8228302001953125,-0.5723876953125,-0.0647430419921875
1761914472411177000,1.397177001953125,-0.8240966796875,-0.5800628662109375,-0.0403900146484375
1761914472421231900,1.40723193359375,-0.8193817138671875,-0.5854034423828125,-0.017730712890625
1761914472431287800,1.417287841796875,-0.805206298828125,-0.591552734375,0.0039520263671875
1761914472441343700,1.42734375,-0.793701171875,-0.596435546875,0.0234832763671875
1761914472451399700,1.437399658203125,-0.7845916748046875,-0.60272216796875,0.040283203125
1761914472461454800,1.447454833984375,-0.76861572265625,-0.6071929931640625,0.05377197265625
1761914472471510800,1.4575107421875,-0.7536773681640625,-0.6064910888671875,0.06390380859375
1761914472481567000,1.46756689453125,-0.7409210205078125,-0.6049041748046875,0.06976318359375
1761914472491621600,1.47762158203125,-0.726593017578125,-0.6026611328125,0.07373046875
1761914472501677800,1.487677734375,-0.7227325439453125,-0.598388671875,0.077056884765625
1761914472511733800,1.497733642578125,-0.7251739501953125,-0.5909271240234375,0.082183837890625
1761914472521789700,1.507789794921875,-0.7257080078125,-0.58038330078125,0.0829925537109375
1761914472531844900,1.517844970703125,-0.7302093505859375,-0.5742034912109375,0.07904052734375
1761914472541900800,1.52790087890625,-0.733245849609375,-0.56982421875,0.0768585205078125
1761914472551957000,1.53795703125,-0.7267913818359375,-0.5648651123046875,0.07427978515625
1761914472562011600,1.54801171875,-0.7227325439453125,-0.5678558349609375,0.066741943359375
1761914472572067800,1.55806787109375,-0.7276153564453125,-0.5767822265625,0.050262451171875
1761914472582123800,1.568123779296875,-0.73040771484375,-0.5841217041015625,0.032806396484375
1761914472592179700,1.5781796875,-0.73272705078125,-0.5838623046875,0.0157623291015625
1761914472602235000,1.58823486328125,-0.7392730712890625,-0.5752105712890625,0.0016021728515625
1761914472612290800,1.598290771484375,-0.751556396484375,-0.5720977783203125,-0.0078277587890625
1761914472622346800,1.6083466796875,-0.759490966796875,-0.5768890380859375,-0.010406494140625
1761914472632401700,1.618401611328125,-0.768402099609375,-0.583343505859375,-0.0095062255859375
1761914472642457600,1.62845751953125,-0.7829132080078125,-0.5941925048828125,-0.005859375
1761914472652513800,1.638513671875,-0.799652099609375,-0.60491943359375,0.0024261474609375
1761914472662568700,1.648568603515625,-0.82073974609375,-0.6084747314453125,0.009796142578125
1761914472672625000,1.658625,-0.85760498046875,-0.614227294921875,0.016815185546875
1761914472682680800,1.668680908203125,-0.8992919921875,-0.619415283203125,0.0220489501953125
1761914472692736800,1.67873681640625,-0.9396209716796875,-0.620086669921875,0.025634765625
1761914472702792000,1.6887919921875,-0.98419189453125,-0.615570068359375,0.0301971435546875
1761914472712847600,1.69884765625,-1.0426483154296875,-0.6120452880859375,0.0358734130859375
1761914472722903800,1.70890380859375,-1.1003875732421875,-0.6023101806640625,0.037689208984375
1761914472732958700,1.718958740234375,-1.15191650390625,-0.585235595703125,0.04071044921875
1761914472743015000,1.729014892578125,-1.185638427734375,-0.5647735595703125,0.0381622314453125
1761914472753070800,1.73907080078125,-1.2013092041015625,-0.535919189453125,0.026458740234375
1761914472763126800,1.749126708984375,-1.1971588134765625,-0.5010833740234375,0.0077362060546875
1761914472773182000,1.759181884765625,-1.1656036376953125,-0.45916748046875,-0.012542724609375
1761914472783237600,1.769237548828125,-1.1092376708984375,-0.4196929931640625,-0.0333709716796875
1761914472793293800,1.7792939453125,-1.0400390625,-0.389923095703125,-0.04931640625
1761914472803348700,1.7893486328125,-0.97320556640625,-0.37310791015625,-0.0531005859375
1761914472813404700,1.79940478515625,-0.9227294921875,-0.3657684326171875,-0.0439605712890625
1761914472823460900,1.8094609375,-0.884307861328125,-0.3625946044921875,-0.028717041015625
1761914472833516800,1.819516845703125,-0.8557891845703125,-0.3675384521484375,-0.00982666015625
1761914472843572000,1.829572021484375,-0.8312225341796875,-0.3708648681640625,0.0094146728515625
1761914472853628000,1.8396279296875,-0.80743408203125,-0.3760528564453125,0.02825927734375
1761914472863683600,1.84968359375,-0.7893524169921875,-0.3868560791015625,0.0475616455078125
1761914472873739000,1.859739013671875,-0.7772979736328125,-0.400848388671875,0.0663299560546875
1761914472883795000,1.869794921875,-0.77386474609375,-0.41558837890625,0.0810699462890625
1761914472893851100,1.87985107421875,-0.778961181640625,-0.4275970458984375,0.0913848876953125
1761914472903907000,1.889906982421875,-0.7806396484375,-0.437591552734375,0.0994873046875
1761914472913962200,1.899962158203125,-0.784881591796875,-0.4498291015625,0.1070556640625
1761914472924018200,1.91001806640625,-0.788299560546875,-0.46533203125,0.1161346435546875
1761914472934074000,1.92007421875,-0.7856292724609375,-0.4913787841796875,0.1279754638671875
1761914472944129000,1.93012890625,-0.7888336181640625,-0.5195465087890625,0.1365966796875
1761914472954185000,1.94018505859375,-0.79998779296875,-0.5383453369140625,0.13897705078125
1761914472964241200,1.9502412109375,-0.8102264404296875,-0.5507659912109375,0.138519287109375
1761914472974297000,1.960297119140625,-0.8146209716796875,-0.5630035400390625,0.142364501953125
1761914472984352000,1.97035205078125,-0.8191070556640625,-0.582916259765625,0.15350341796875
1761914472994408200,1.980408203125,-0.843475341796875,-0.6049346923828125,0.1693572998046875
1761914473004464000,1.990464111328125,-0.8985137939453125,-0.620452880859375,0.184814453125
1761914473014519300,2.000519287109375,-0.960662841796875,-0.622406005859375,0.2032470703125
1761914473024575000,2.010574951171875,-1.010009765625,-0.6067657470703125,0.2183074951171875
1761914473034631000,2.020630859375,-1.048675537109375,-0.5626678466796875,0.2143096923828125
1761914473044687000,2.03068701171875,-1.054107666015625,-0.4984283447265625,0.18914794921875
1761914473054742000,2.040741943359375,-1.04620361328125,-0.43096923828125,0.1619873046875
1761914473064798200,2.050798095703125,-1.0331573486328125,-0.3720855712890625,0.137451171875
1761914473074854100,2.060854248046875,-0.999114990234375,-0.3238677978515625,0.112762451171875
1761914473084909300,2.070909423828125,-0.9534759521484375,-0.2902374267578125,0.0917205810546875
1761914473094965200,2.08096533203125,-0.9068756103515625,-0.2710418701171875,0.08489990234375
1761914473105021000,2.09102099609375,-0.871246337890625,-0.2682037353515625,0.090972900390625
1761914473115077000,2.1010771484375,-0.8409576416015625,-0.2741241455078125,0.10321044921875
1761914473125132000,2.111132080078125,-0.8111114501953125,-0.2848968505859375,0.116058349609375
1761914473135188200,2.121188232421875,-0.7817230224609375,-0.3014984130859375,0.126953125
1761914473145244200,2.131244140625,-0.7591400146484375,-0.3196258544921875,0.138458251953125
1761914473155299000,2.141299072265625,-0.7528839111328125,-0.3370513916015625,0.150390625
1761914473165355300,2.151355224609375,-0.7563934326171875,-0.36181640625,0.1653289794921875
1761914473175411000,2.161410888671875,-0.7653961181640625,-0.39111328125,0.18328857421875
1761914473185467000,2.171466796875,-0.7750701904296875,-0.4174652099609375,0.20135498046875
1761914473195522000,2.18152197265625,-0.793609619140625,-0.435791015625,0.2183837890625
1761914473205578000,2.191577880859375,-0.818695068359375,-0.4353179931640625,0.22808837890625
1761914473215634200,2.20163427734375,-0.842987060546875,-0.4229888916015625,0.2340087890625
1761914473225689000,2.211689208984375,-0.8626708984375,-0.4101104736328125,0.23724365234375
1761914473235745300,2.221745361328125,-0.8782806396484375,-0.3988037109375,0.23565673828125
1761914473245801200,2.23180126953125,-0.891021728515625,-0.3933258056640625,0.2319793701171875
1761914473255857000,2.24185693359375,-0.9034423828125,-0.39227294921875,0.2300262451171875
1761914473265912000,2.251912109375,-0.916290283203125,-0.3953094482421875,0.234619140625
1761914473275968000,2.261968017578125,-0.929779052734375,-0.399383544921875,0.2396392822265625
1761914473286024200,2.272024169921875,-0.950836181640625,-0.400299072265625,0.238433837890625
1761914473296079000,2.2820791015625,-0.9762420654296875,-0.3912353515625,0.2312164306640625
1761914473306135300,2.29213525390625,-0.9938507080078125,-0.3860626220703125,0.2231597900390625
1761914473316191200,2.302191162109375,-1.0187835693359375,-0.38739013671875,0.21527099609375
1761914473326247200,2.3122470703125,-1.04693603515625,-0.385986328125,0.208709716796875
1761914473336302000,2.322302001953125,-1.0760040283203125,-0.3773345947265625,0.202239990234375
1761914473346358000,2.33235791015625,-1.1067047119140625,-0.35906982421875,0.19140625
1761914473356414000,2.3424140625,-1.12530517578125,-0.337158203125,0.1732940673828125
1761914473366469000,2.35246923828125,-1.12603759765625,-0.315948486328125,0.15411376953125
1761914473376525000,2.362525146484375,-1.1099700927734375,-0.2941436767578125,0.1337890625
1761914473386581200,2.372581298828125,-1.0794525146484375,-0.27069091796875,0.1157073974609375
1761914473396637200,2.38263720703125,-1.045745849609375,-0.25347900390625,0.09991455078125
1761914473406692000,2.392692138671875,-1.0122222900390625,-0.244964599609375,0.0930633544921875
1761914473416748000,2.402748046875,-0.978515625,-0.2421112060546875,0.091156005859375
1761914473426804000,2.412803955078125,-0.94427490234375,-0.2442626953125,0.0892333984375
1761914473436859100,2.422859130859375,-0.91162109375,-0.253448486328125,0.0902557373046875
1761914473446915000,2.4329150390625,-0.89410400390625,-0.265350341796875,0.09521484375
1761914473456971300,2.44297119140625,-0.883880615234375,-0.280731201171875,0.102081298828125
1761914473467027200,2.453027099609375,-0.8782501220703125,-0.2969818115234375,0.102386474609375
1761914473477082000,2.46308203125,-0.8829193115234375,-0.3109893798828125,0.0987091064453125
1761914473487138000,2.473137939453125,-0.896087646484375,-0.3238067626953125,0.094696044921875
1761914473497194000,2.483194091796875,-0.91339111328125,-0.3377838134765625,0.09210205078125
1761914473507249200,2.493249267578125,-0.937835693359375,-0.349395751953125,0.09100341796875
1761914473517305000,2.50330517578125,-0.9592132568359375,-0.359130859375,0.087371826171875
1761914473527361300,2.513361328125,-0.967193603515625,-0.364105224609375,0.080078125
1761914473537416200,2.523416259765625,-0.9717864990234375,-0.3608245849609375,0.066741943359375
1761914473547472100,2.53347216796875,-0.97418212890625,-0.3551177978515625,0.0562286376953125
1761914473557528000,2.543528076171875,-0.96820068359375,-0.3584136962890625,0.0507049560546875
1761914473567584000,2.553583984375,-0.955596923828125,-0.361297607421875,0.0417633056640625
1761914473577639200,2.56363916015625,-0.9381103515625,-0.3584442138671875,0.027862548828125
1761914473587695000,2.573695068359375,-0.9179840087890625,-0.3526153564453125,0.014068603515625
1761914473597751000,2.5837509765625,-0.901336669921875,-0.3456573486328125,0.004547119140625
1761914473607806200,2.59380615234375,-0.8847198486328125,-0.34063720703125,-0.0035552978515625
1761914473617862000,2.60386181640625,-0.8653411865234375,-0.342132568359375,-0.0117645263671875
1761914473627918000,2.61391796875,-0.85003662109375,-0.3439788818359375,-0.0172576904296875
1761914473637974000,2.62397412109375,-0.837982177734375,-0.349700927734375,-0.021697998046875
1761914473648029200,2.634029296875,-0.830535888671875,-0.35693359375,-0.0243377685546875
1761914473658085000,2.644085205078125,-0.830718994140625,-0.36492919921875,-0.02532958984375
1761914473668141000,2.65414111328125,-0.834136962890625,-0.3706207275390625,-0.0257110595703125
1761914473678196200,2.6641962890625,-0.8374481201171875,-0.3755035400390625,-0.0261077880859375
1761914473688252200,2.674252197265625,-0.843902587890625,-0.385101318359375,-0.025634765625
1761914473698308000,2.68430810546875,-0.8477630615234375,-0.3953399658203125,-0.026641845703125
1761914473708364000,2.694364013671875,-0.85064697265625,-0.3988037109375,-0.027740478515625
1761914473718419200,2.704419189453125,-0.849700927734375,-0.4011383056640625,-0.0319061279296875
1761914473728475100,2.71447509765625,-0.8491668701171875,-0.4078369140625,-0.0321502685546875
1761914473738531000,2.724531005859375,-0.8530426025390625,-0.418792724609375,-0.0296630859375
1761914473748586200,2.734586181640625,-0.85321044921875,-0.431915283203125,-0.0247955322265625
1761914473758642200,2.74464208984375,-0.8470001220703125,-0.45062255859375,-0.0190277099609375
1761914473768698000,2.754697998046875,-0.8459930419921875,-0.4652862548828125,-0.0128936767578125
1761914473778754000,2.764754150390625,-0.842803955078125,-0.4756622314453125,-0.0082550048828125
1761914473788809000,2.77480908203125,-0.842437744140625,-0.4881591796875,-0.003326416015625
1761914473798865200,2.784865234375,-0.8449554443359375,-0.5025482177734375,0.002105712890625
1761914473808921000,2.794921142578125,-0.8408203125,-0.5138702392578125,0.0041656494140625
1761914473818976300,2.804976318359375,-0.843414306640625,-0.5221710205078125,0.0100860595703125
1761914473829032200,2.8150322265625,-0.859527587890625,-0.5264739990234375,0.0184478759765625
1761914473839088000,2.825088134765625,-0.8765411376953125,-0.528472900390625,0.02716064453125
1761914473849144300,2.835144287109375,-0.887786865234375,-0.540863037109375,0.037200927734375
1761914473859199000,2.845198974609375,-0.8886566162109375,-0.5731964111328125,0.0457611083984375
1761914473869259000,2.855259033203125,-0.89288330078125,-0.6035003662109375,0.048095703125
1761914473879315200,2.865315185546875,-0.9028167724609375,-0.614410400390625,0.052734375
1761914473889369900,2.875369873046875,-0.9020843505859375,-0.626129150390625,0.061279296875
1761914473899426000,2.885426025390625,-0.8981781005859375,-0.6553497314453125,0.07208251953125
1761914473909482000,2.89548193359375,-0.910308837890625,-0.6879119873046875,0.084320068359375
1761914473919538000,2.905537841796875,-0.920318603515625,-0.710723876953125,0.0936737060546875
1761914473929593000,2.915593017578125,-0.924072265625,-0.725067138671875,0.0990447998046875
1761914473939649000,2.92564892578125,-0.9276580810546875,-0.732269287109375,0.0994873046875
1761914473949705200,2.935705322265625,-0.925994873046875,-0.7231903076171875,0.091400146484375
1761914473959760000,2.945759765625,-0.924407958984375,-0.700836181640625,0.0771484375
1761914473969816000,2.955816162109375,-0.9279327392578125,-0.669677734375,0.05908203125
1761914473979872000,2.9658720703125,-0.9390411376953125,-0.6328582763671875,0.0440521240234375
1761914473989928000,2.975927978515625,-0.96002197265625,-0.5978851318359375,0.033599853515625
1761914473999983000,2.985983154296875,-0.973876953125,-0.5703887939453125,0.0248260498046875
1761914474010039000,2.9960390625,-0.975494384765625,-0.54290771484375,0.01507568359375
1761914474020095200,3.00609521484375,-0.968475341796875,-0.51751708984375,0.0037078857421875
1761914474030150100,3.016150146484375,-0.94793701171875,-0.4986724853515625,-0.009185791015625
1761914474040206000,3.0262060546875,-0.925048828125,-0.4794769287109375,-0.0260009765625
1761914474050262000,3.036261962890625,-0.9059600830078125,-0.466552734375,-0.0412139892578125
1761914474060318000,3.04631787109375,-0.8968658447265625,-0.4603271484375,-0.046051025390625
1761914474070373000,3.056373046875,-0.88995361328125,-0.44927978515625,-0.0482330322265625
1761914474080429000,3.066428955078125,-0.8769989013671875,-0.434539794921875,-0.05108642578125
1761914474090485000,3.076485107421875,-0.866973876953125,-0.431884765625,-0.0514678955078125
1761914474100540200,3.0865400390625,-0.8530731201171875,-0.437286376953125,-0.050506591796875
1761914474110596000,3.09659619140625,-0.8399200439453125,-0.4383087158203125,-0.055145263671875
1761914474120652000,3.106652099609375,-0.824920654296875,-0.437225341796875,-0.0665283203125
1761914474130708000,3.1167080078125,-0.8061981201171875,-0.434417724609375,-0.073150634765625
1761914474140763100,3.12676318359375,-0.7866973876953125,-0.4351806640625,-0.0777435302734375
1761914474150819000,3.136819091796875,-0.767578125,-0.4418487548828125,-0.0801544189453125
1761914474160875000,3.146875,-0.75189208984375,-0.453643798828125,-0.08203125
1761914474170930200,3.15693017578125,-0.7339324951171875,-0.4642333984375,-0.084320068359375
1761914474180986000,3.166986083984375,-0.718841552734375,-0.469635009765625,-0.0868072509765625
1761914474191042000,3.1770419921875,-0.7113494873046875,-0.4677276611328125,-0.091094970703125
1761914474201098000,3.187097900390625,-0.7104644775390625,-0.453948974609375,-0.0995941162109375
1761914474211153200,3.197153076171875,-0.7108612060546875,-0.4378204345703125,-0.105224609375
1761914474221209000,3.207208984375,-0.7122344970703125,-0.423309326171875,-0.108245849609375
1761914474231265000,3.21726513671875,-0.7215728759765625,-0.417083740234375,-0.11212158203125
1761914474241320200,3.2273203125,-0.728118896484375,-0.416259765625,-0.11822509765625
1761914474251376000,3.237376220703125,-0.7331695556640625,-0.416107177734375,-0.1313934326171875
1761914474261432000,3.24743212890625,-0.738250732421875,-0.4168853759765625,-0.1501007080078125
1761914474271488000,3.257488037109375,-0.726837158203125,-0.4161224365234375,-0.1743927001953125
1761914474281543000,3.26754296875,-0.702301025390625,-0.41876220703125,-0.195953369140625
1761914474291599000,3.27759912109375,-0.6878662109375,-0.427947998046875,-0.21038818359375
1761914474301655000,3.287655029296875,-0.692718505859375,-0.43804931640625,-0.21337890625
1761914474311710200,3.297710205078125,-0.70098876953125,-0.4549560546875,-0.2027740478515625
1761914474321766100,3.30776611328125,-0.712188720703125,-0.481170654296875,-0.1835479736328125
1761914474331822000,3.317822021484375,-0.72589111328125,-0.5027923583984375,-0.1647186279296875
1761914474341878300,3.327878173828125,-0.730072021484375,-0.5144195556640625,-0.1468048095703125
1761914474351933000,3.337932861328125,-0.7317352294921875,-0.5225830078125,-0.1291351318359375
1761914474361989000,3.347989013671875,-0.7283172607421875,-0.5263519287109375,-0.1143951416015625
1761914474372045000,3.358045166015625,-0.7277374267578125,-0.527557373046875,-0.0950469970703125
1761914474382100200,3.368100341796875,-0.7310943603515625,-0.5358734130859375,-0.0708770751953125
1761914474392156200,3.37815625,-0.7388763427734375,-0.550933837890625,-0.0510406494140625
1761914474402212000,3.388212158203125,-0.752685546875,-0.56573486328125,-0.0363311767578125
1761914474412268300,3.398268310546875,-0.769287109375,-0.5749053955078125,-0.02783203125
1761914474422323000,3.408322998046875,-0.7823486328125,-0.5799102783203125,-0.021697998046875
1761914474432379000,3.41837890625,-0.7902069091796875,-0.5872039794921875,-0.0150909423828125
1761914474442435000,3.42843505859375,-0.8025665283203125,-0.6028289794921875,-0.00531005859375
1761914474452490000,3.438489990234375,-0.8214569091796875,-0.6248016357421875,0.0120391845703125
1761914474462546200,3.448546142578125,-0.839141845703125,-0.6486663818359375,0.0269317626953125
1761914474472602000,3.45860205078125,-0.85406494140625,-0.664337158203125,0.0357818603515625
1761914474482658000,3.468657958984375,-0.8706207275390625,-0.6670684814453125,0.034027099609375
1761914474492713000,3.478712890625,-0.8753662109375,-0.657989501953125,0.022613525390625
1761914474502769000,3.488768798828125,-0.87811279296875,-0.641510009765625,0.0067291259765625
1761914474512825000,3.4988251953125,-0.8916473388671875,-0.6208648681640625,-0.0057830810546875
1761914474522880000,3.5088798828125,-0.91485595703125,-0.5990753173828125,-0.013092041015625
1761914474532936200,3.518936279296875,-0.9381866455078125,-0.5693817138671875,-0.0174713134765625
1761914474542992100,3.5289921875,-0.96234130859375,-0.53961181640625,-0.022003173828125
1761914474553048000,3.539048095703125,-0.9738311767578125,-0.5027008056640625,-0.0343475341796875
1761914474563103000,3.54910302734375,-0.9717559814453125,-0.465057373046875,-0.045318603515625
1761914474573159000,3.559158935546875,-0.9566802978515625,-0.4416961669921875,-0.0470428466796875
1761914474583215000,3.569215087890625,-0.9353790283203125,-0.4336395263671875,-0.039764404296875
1761914474593270000,3.57927001953125,-0.908294677734375,-0.4358367919921875,-0.0259246826171875
1761914474603326200,3.589326171875,-0.873199462890625,-0.4448394775390625,-0.0067596435546875
1761914474613382100,3.599382080078125,-0.8326873779296875,-0.4571685791015625,0.0073089599609375
1761914474623438000,3.60943798828125,-0.795684814453125,-0.4772796630859375,0.0195465087890625
1761914474633493000,3.619492919921875,-0.7711029052734375,-0.499542236328125,0.0352783203125
1761914474643549000,3.629548828125,-0.763336181640625,-0.5208587646484375,0.0543975830078125
1761914474653604900,3.63960498046875,-0.7656707763671875,-0.53326416015625,0.0691680908203125
1761914474663660000,3.649659912109375,-0.7691192626953125,-0.541717529296875,0.0786285400390625
1761914474673716000,3.659716064453125,-0.7687225341796875,-0.55108642578125,0.084014892578125
1761914474683772200,3.669772216796875,-0.7691497802734375,-0.557861328125,0.081268310546875
1761914474693828000,3.679828125,-0.7703094482421875,-0.5572509765625,0.072021484375
1761914474703883300,3.68988330078125,-0.7625732421875,-0.547882080078125,0.0579071044921875
1761914474713939000,3.69993896484375,-0.764007568359375,-0.5365753173828125,0.0488433837890625
1761914474723995000,3.709994873046875,-0.7701873779296875,-0.533660888671875,0.0464324951171875
1761914474734050000,3.720050048828125,-0.77752685546875,-0.5356292724609375,0.048248291015625
1761914474744106000,3.73010595703125,-0.787078857421875,-0.539825439453125,0.0511627197265625
1761914474754162200,3.740162109375,-0.7838897705078125,-0.5478363037109375,0.047943115234375
1761914474764218000,3.750218017578125,-0.77972412109375,-0.5561065673828125,0.0412139892578125
1761914474774273300,3.760273193359375,-0.769317626953125,-0.5782012939453125,0.0381317138671875
1761914474784329200,3.7703291015625,-0.77972412109375,-0.59930419921875,0.0345611572265625
1761914474794385000,3.780385009765625,-0.8066864013671875,-0.601165771484375,0.0274658203125
1761914474804440000,3.790440185546875,-0.839630126953125,-0.605438232421875,0.0272216796875
1761914474814496000,3.80049609375,-0.88671875,-0.621673583984375,0.0297393798828125
1761914474824552000,3.810552001953125,-0.95159912109375,-0.6311798095703125,0.0342559814453125
1761914474834608000,3.820608154296875,-1.0159149169921875,-0.6232452392578125,0.03778076171875
1761914474844663000,3.8306630859375,-1.0803680419921875,-0.612701416015625,0.0439453125
1761914474854719200,3.84071923828125,-1.151641845703125,-0.595306396484375,0.0503082275390625
1761914474864775200,3.850775146484375,-1.2069244384765625,-0.555328369140625,0.045257568359375
1761914474874826800,3.86082666015625,-1.24102783203125,-0.504119873046875,0.030792236328125
1761914474884882700,3.870882568359375,-1.2623443603515625,-0.4652099609375,0.0096588134765625
1761914474894938600,3.880938720703125,-1.260284423828125,-0.4419708251953125,-0.0198822021484375
1761914474904994800,3.890994873046875,-1.238677978515625,-0.41790771484375,-0.047607421875
1761914474915049700,3.9010498046875,-1.20086669921875,-0.3963165283203125,-0.069976806640625
1761914474925105700,3.911105712890625,-1.14501953125,-0.384765625,-0.0885009765625
1761914474935161600,3.92116162109375,-1.0796966552734375,-0.3763275146484375,-0.097625732421875
1761914474945216800,3.931216796875,-1.0230255126953125,-0.3729095458984375,-0.09130859375
1761914474955272700,3.941272705078125,-0.961212158203125,-0.37518310546875,-0.075592041015625
1761914474965328600,3.95132861328125,-0.8993682861328125,-0.3795166015625,-0.0582275390625
1761914474975384800,3.961384765625,-0.834686279296875,-0.3901214599609375,-0.043121337890625
1761914474985439700,3.971439697265625,-0.7797088623046875,-0.412750244140625,-0.022064208984375
1761914474995495700,3.98149560546875,-0.735870361328125,-0.4471435546875,0.006378173828125
1761914475005551600,3.991551513671875,-0.7079010009765625,-0.4890899658203125,0.036376953125
1761914475015604700,4.001604736328125,-0.7099609375,-0.5216217041015625,0.0617828369140625
1761914475025660000,4.011659912109375,-0.7211151123046875,-0.541259765625,0.08050537109375
1761914475035715600,4.021715576171875,-0.7283172607421875,-0.55633544921875,0.0972442626953125
1761914475045771500,4.031771484375,-0.7352752685546875,-0.5726776123046875,0.11322021484375
1761914475055826700,4.04182666015625,-0.74664306640625,-0.5898895263671875,0.1336669921875
1761914475065882600,4.051882568359375,-0.7724456787109375,-0.6025543212890625,0.15484619140625
1761914475075938800,4.061938720703125,-0.8055877685546875,-0.598419189453125,0.1678619384765625
1761914475085994800,4.071994873046875,-0.8282928466796875,-0.5758209228515625,0.1709747314453125
1761914475096049700,4.082049560546875,-0.8330841064453125,-0.54901123046875,0.1658782958984375
1761914475106105900,4.09210595703125,-0.832000732421875,-0.52178955078125,0.15948486328125
1761914475116161500,4.10216162109375,-0.829010009765625,-0.49652099609375,0.157318115234375
1761914475126217700,4.1122177734375,-0.818695068359375,-0.4678497314453125,0.15740966796875
1761914475136272600,4.122272705078125,-0.8052520751953125,-0.445343017578125,0.1593780517578125
1761914475146328600,4.13232861328125,-0.7969512939453125,-0.4320068359375,0.15887451171875
1761914475156384800,4.142384765625,-0.78997802734375,-0.4248046875,0.159332275390625
1761914475166439700,4.152439697265625,-0.7832489013671875,-0.421234130859375,0.155059814453125
1761914475176495900,4.162495849609375,-0.77783203125,-0.4191131591796875,0.15203857421875
1761914475186551600,4.172551513671875,-0.7752838134765625,-0.4209136962890625,0.15142822265625
1761914475196607500,4.182607421875,-0.7698516845703125,-0.43170166015625,0.1534576416015625
1761914475206662700,4.19266259765625,-0.7625732421875,-0.446380615234375,0.1509857177734375
1761914475216718600,4.202718505859375,-0.7537841796875,-0.45843505859375,0.1483612060546875
1761914475226774800,4.21277490234375,-0.7499542236328125,-0.4720306396484375,0.1509857177734375
1761914475236829700,4.22282958984375,-0.74420166015625,-0.488739013671875,0.157623291015625
1761914475246886000,4.232885986328125,-0.7335357666015625,-0.4996185302734375,0.1638336181640625
1761914475256941800,4.24294189453125,-0.728546142578125,-0.503509521484375,0.17266845703125
1761914475266997500,4.25299755859375,-0.7275390625,-0.5099029541015625,0.1819305419921875
1761914475277052700,4.263052734375,-0.726165771484375,-0.5150909423828125,0.193328857421875
1761914475287108600,4.273108642578125,-0.732177734375,-0.518890380859375,0.2078399658203125
1761914475297164800,4.283164794921875,-0.747222900390625,-0.522796630859375,0.2227325439453125
1761914475307219700,4.2932197265625,-0.76171875,-0.5280609130859375,0.23577880859375
1761914475317275600,4.303275634765625,-0.7830963134765625,-0.5275421142578125,0.245574951171875
1761914475327331800,4.313331787109375,-0.8030853271484375,-0.514556884765625,0.2481842041015625
1761914475337387800,4.3233876953125,-0.82177734375,-0.495635986328125,0.2498321533203125
1761914475347442700,4.333442626953125,-0.841278076171875,-0.474822998046875,0.2488555908203125
1761914475357498600,4.34349853515625,-0.86798095703125,-0.459625244140625,0.248046875
1761914475367554600,4.353554443359375,-0.89422607421875,-0.4441986083984375,0.244781494140625
1761914475377610800,4.36361083984375,-0.91302490234375,-0.4303131103515625,0.2347412109375
1761914475387665700,4.373665771484375,-0.9216461181640625,-0.4165496826171875,0.2136993408203125
1761914475397721900,4.383721923828125,-0.9209136962890625,-0.400909423828125,0.1839599609375
1761914475407777800,4.39377783203125,-0.9173736572265625,-0.3866424560546875,0.156158447265625
1761914475417832700,4.403832763671875,-0.9050750732421875,-0.376983642578125,0.132049560546875
1761914475427888600,4.413888671875,-0.8813018798828125,-0.3750457763671875,0.107452392578125
1761914475437944600,4.423944580078125,-0.8564453125,-0.38616943359375,0.086639404296875
1761914475448000800,4.434000732421875,-0.8343048095703125,-0.401458740234375,0.0695343017578125
1761914475458055700,4.4440556640625,-0.813568115234375,-0.423614501953125,0.057830810546875
1761914475468112000,4.45411181640625,-0.8010101318359375,-0.4437255859375,0.0486297607421875
1761914475478167800,4.464167724609375,-0.796142578125,-0.4533538818359375,0.0377349853515625
1761914475488222700,4.47422265625,-0.7950286865234375,-0.46112060546875,0.028594970703125
1761914475498278700,4.484278564453125,-0.80377197265625,-0.479888916015625,0.0283203125
1761914475508334600,4.49433447265625,-0.820648193359375,-0.5069427490234375,0.03515625
1761914475518390500,4.504390625,-0.835845947265625,-0.5280609130859375,0.04144287109375
1761914475528445700,4.51444580078125,-0.848175048828125,-0.5430908203125,0.044189453125
1761914475538501600,4.524501708984375,-0.86468505859375,-0.54840087890625,0.0455474853515625
1761914475548557800,4.534557861328125,-0.8821258544921875,-0.542449951171875,0.0484771728515625
1761914475558613800,4.54461376953125,-0.9019927978515625,-0.533843994140625,0.054931640625
1761914475568668700,4.554668701171875,-0.9155120849609375,-0.53228759765625,0.0709381103515625
1761914475578724600,4.564724609375,-0.9127655029296875,-0.5531005859375,0.090576171875
1761914475588780500,4.574780517578125,-0.915008544921875,-0.572723388671875,0.1040496826171875
1761914475598835700,4.584835693359375,-0.9039459228515625,-0.577117919921875,0.1190948486328125
1761914475608892700,4.594892578125,-0.8885345458984375,-0.582061767578125,0.1324920654296875
1761914475618948600,4.604948486328125,-0.8736724853515625,-0.5991058349609375,0.1495361328125
1761914475629004800,4.6150048828125,-0.86041259765625,-0.617034912109375,0.1710205078125
1761914475639059700,4.625059814453125,-0.8603973388671875,-0.631134033203125,0.1960601806640625
1761914475649116000,4.635115966796875,-0.87408447265625,-0.64794921875,0.2224884033203125
1761914475659171600,4.645171630859375,-0.9004058837890625,-0.6490478515625,0.23931884765625
1761914475669226800,4.655226806640625,-0.9290924072265625,-0.62884521484375,0.2435455322265625
1761914475679282700,4.66528271484375,-0.9577178955078125,-0.593292236328125,0.2327728271484375
1761914475689338600,4.675338623046875,-0.990142822265625,-0.542083740234375,0.2121734619140625
1761914475699394800,4.685394775390625,-1.033294677734375,-0.486358642578125,0.191864013671875
1761914475709449700,4.69544970703125,-1.06884765625,-0.435455322265625,0.1702728271484375
1761914475719505700,4.705505615234375,-1.096466064453125,-0.381988525390625,0.147796630859375
1761914475729561900,4.715561767578125,-1.0987091064453125,-0.32989501953125,0.127227783203125
1761914475739616500,4.725616455078125,-1.074066162109375,-0.2964019775390625,0.11181640625
1761914475749672700,4.735672607421875,-1.0353240966796875,-0.2892608642578125,0.1073150634765625
1761914475759728600,4.745728759765625,-0.990081787109375,-0.306427001953125,0.11407470703125
1761914475769784600,4.75578466796875,-0.9607391357421875,-0.3369903564453125,0.127471923828125
1761914475779839700,4.76583984375,-0.9440155029296875,-0.3647003173828125,0.139801025390625
1761914475789895700,4.775895751953125,-0.925079345703125,-0.382537841796875,0.1420745849609375
1761914475799952000,4.785951904296875,-0.9048919677734375,-0.3975067138671875,0.1350250244140625
1761914475810007600,4.796007568359375,-0.89898681640625,-0.412689208984375,0.131805419921875
1761914475820062700,4.806062744140625,-0.906494140625,-0.4171905517578125,0.1340484619140625
1761914475830118700,4.81611865234375,-0.9234771728515625,-0.41534423828125,0.1357574462890625
1761914475840174600,4.826174560546875,-0.9405670166015625,-0.4063568115234375,0.1315460205078125
1761914475850229800,4.836229736328125,-0.956207275390625,-0.39056396484375,0.12310791015625
1761914475860285700,4.84628564453125,-0.9647979736328125,-0.3715972900390625,0.1091766357421875
1761914475870342000,4.856341796875,-0.9546051025390625,-0.35064697265625,0.0954132080078125
1761914475880402000,4.86640185546875,-0.9244537353515625,-0.3358001708984375,0.0850067138671875
1761914475890456800,4.876456787109375,-0.89501953125,-0.3188934326171875,0.0760650634765625
1761914475900513000,4.886512939453125,-0.8606719970703125,-0.3071441650390625,0.0706939697265625
1761914475910569000,4.89656884765625,-0.818572998046875,-0.3031768798828125,0.0652923583984375
1761914475920624000,4.9066240234375,-0.7835235595703125,-0.3040771484375,0.0603179931640625
1761914475930680000,4.91668017578125,-0.7613372802734375,-0.30548095703125,0.0545806884765625
1761914475940736000,4.926736083984375,-0.7403564453125,-0.308074951171875,0.0488739013671875
1761914475950792000,4.9367919921875,-0.727264404296875,-0.317718505859375,0.04412841796875
1761914475960846800,4.946846923828125,-0.7281036376953125,-0.3276519775390625,0.0389404296875
1761914475970903000,4.956903076171875,-0.730133056640625,-0.3434295654296875,0.0344696044921875
1761914475980959000,4.966958984375,-0.728668212890625,-0.36578369140625,0.0293731689453125
1761914475991015000,4.977014892578125,-0.72625732421875,-0.382781982421875,0.0274200439453125
1761914476001070000,4.987070068359375,-0.7253875732421875,-0.4000396728515625,0.034149169921875
1761914476011126000,4.9971259765625,-0.7299957275390625,-0.4154205322265625,0.0455169677734375
1761914476021181700,5.007181640625,-0.7321624755859375,-0.432098388671875,0.060546875
1761914476031236900,5.01723681640625,-0.730255126953125,-0.44647216796875,0.0811309814453125
1761914476041292800,5.027292724609375,-0.7340850830078125,-0.450775146484375,0.1009368896484375
1761914476051349000,5.037348876953125,-0.7377777099609375,-0.4505462646484375,0.119873046875
1761914476061405000,5.047405029296875,-0.74530029296875,-0.4556884765625,0.142791748046875
1761914476071460000,5.057460205078125,-0.754974365234375,-0.468505859375,0.16650390625
1761914476081516000,5.06751611328125,-0.76611328125,-0.4818572998046875,0.1836395263671875
1761914476091572000,5.077572021484375,-0.778411865234375,-0.4918975830078125,0.1952056884765625
1761914476101627000,5.087626953125,-0.7835845947265625,-0.5010528564453125,0.2036590576171875
1761914476111682800,5.097682861328125,-0.79058837890625,-0.50701904296875,0.2072296142578125
1761914476121739000,5.107739013671875,-0.7940216064453125,-0.50946044921875,0.209075927734375
1761914476131795000,5.117794921875,-0.796142578125,-0.5133056640625,0.2128143310546875
1761914476141850000,5.12785009765625,-0.7974090576171875,-0.5197296142578125,0.2176513671875
1761914476151906000,5.137906005859375,-0.7969970703125,-0.5320892333984375,0.2230987548828125
1761914476161962000,5.1479619140625,-0.8013458251953125,-0.5428314208984375,0.2305145263671875
1761914476172018200,5.15801806640625,-0.8074951171875,-0.54827880859375,0.2384490966796875
1761914476182072800,5.16807275390625,-0.8084716796875,-0.549652099609375,0.2420806884765625
1761914476192129000,5.17812890625,-0.80804443359375,-0.5558624267578125,0.2443695068359375
1761914476202185000,5.18818505859375,-0.81170654296875,-0.5661773681640625,0.2470855712890625
1761914476212240000,5.198239990234375,-0.8190460205078125,-0.57763671875,0.251800537109375
1761914476222296000,5.208296142578125,-0.841949462890625,-0.585052490234375,0.2546234130859375
1761914476232352000,5.21835205078125,-0.8618621826171875,-0.5867767333984375,0.2567596435546875
1761914476242408000,5.228407958984375,-0.8785247802734375,-0.588348388671875,0.25762939453125
1761914476252462800,5.238462890625,-0.8962554931640625,-0.5906524658203125,0.252227783203125
1761914476262518800,5.248518798828125,-0.9000244140625,-0.6028289794921875,0.248779296875
1761914476272575000,5.258574951171875,-0.9028472900390625,-0.6231842041015625,0.246795654296875
1761914476282630000,5.2686298828125,-0.9225616455078125,-0.626800537109375,0.2388153076171875
1761914476292686000,5.27868603515625,-0.9368133544921875,-0.6224365234375,0.23175048828125
1761914476302742000,5.288741943359375,-0.95587158203125,-0.6217498779296875,0.228851318359375
1761914476312798000,5.2987978515625,-0.971435546875,-0.6333770751953125,0.2332305908203125
1761914476322852900,5.308852783203125,-0.9898834228515625,-0.659423828125,0.2452392578125
1761914476332908800,5.31890869140625,-1.0244903564453125,-0.6693572998046875,0.2509918212890625
1761914476342965000,5.328965087890625,-1.0528564453125,-0.64703369140625,0.24859619140625
1761914476353021000,5.33902099609375,-1.06170654296875,-0.6139678955078125,0.240875244140625
1761914476363076000,5.349076171875,-1.053375244140625,-0.58026123046875,0.2264862060546875
1761914476373132000,5.359132080078125,-1.034423828125,-0.5373382568359375,0.2091064453125
1761914476383188000,5.36918798828125,-1.002593994140625,-0.490020751953125,0.1937103271484375
1761914476393243000,5.379242919921875,-0.96148681640625,-0.44500732421875,0.1803436279296875
1761914476403298800,5.389298828125,-0.915313720703125,-0.414337158203125,0.1675567626953125
1761914476413354800,5.399354736328125,-0.870361328125,-0.3990478515625,0.1614532470703125
1761914476423411000,5.409410888671875,-0.832061767578125,-0.3924407958984375,0.1607818603515625
1761914476433465900,5.4194658203125,-0.8140411376953125,-0.3917999267578125,0.1671600341796875
1761914476443522000,5.42952197265625,-0.806060791015625,-0.4041900634765625,0.1826934814453125
1761914476453578000,5.439577880859375,-0.798370361328125,-0.4205780029296875,0.194488525390625
1761914476463633000,5.4496328125,-0.7960662841796875,-0.4418792724609375,0.2072906494140625
1761914476473688800,5.459688720703125,-0.7991485595703125,-0.470855712890625,0.22271728515625
1761914476483744800,5.469744873046875,-0.80316162109375,-0.4965972900390625,0.240478515625
1761914476493801000,5.479801025390625,-0.8118743896484375,-0.5069732666015625,0.2541656494140625
1761914476503855900,5.48985595703125,-0.82269287109375,-0.5049591064453125,0.2625274658203125
1761914476513912000,5.499912109375,-0.8299407958984375,-0.4950714111328125,0.2630615234375
1761914476523968000,5.509968017578125,-0.8269805908203125,-0.481048583984375,0.2583160400390625
1761914476534024000,5.52002392578125,-0.811920166015625,-0.456756591796875,0.246551513671875
1761914476544078800,5.530078857421875,-0.7891845703125,-0.425689697265625,0.2362518310546875
1761914476554134800,5.540134765625,-0.7630615234375,-0.39678955078125,0.2313995361328125
1761914476564191000,5.55019091796875,-0.7339324951171875,-0.3755645751953125,0.2270355224609375
1761914476574246000,5.560245849609375,-0.7013092041015625,-0.360137939453125,0.219085693359375
1761914476584301800,5.5703017578125,-0.6690521240234375,-0.349212646484375,0.2152862548828125
1761914476594358000,5.58035791015625,-0.638641357421875,-0.3492889404296875,0.2172088623046875
1761914476604414000,5.5904140625,-0.615631103515625,-0.357208251953125,0.2267608642578125
1761914476614469000,5.60046923828125,-0.591644287109375,-0.375244140625,0.239593505859375
1761914476624524800,5.61052490234375,-0.5795135498046875,-0.4008331298828125,0.25482177734375
1761914476634580700,5.620580810546875,-0.5798797607421875,-0.4164581298828125,0.2670440673828125
1761914476644636000,5.630635986328125,-0.5712432861328125,-0.437591552734375,0.278472900390625
1761914476654691800,5.64069189453125,-0.572479248046875,-0.4627838134765625,0.2910308837890625
1761914476664748000,5.650748046875,-0.5936431884765625,-0.4856719970703125,0.2988128662109375
1761914476674804000,5.660803955078125,-0.61151123046875,-0.5092315673828125,0.30352783203125
1761914476684859100,5.670859130859375,-0.6470184326171875,-0.5199737548828125,0.30230712890625
1761914476694914800,5.680914794921875,-0.6855621337890625,-0.522430419921875,0.300537109375
1761914476704970800,5.690970703125,-0.7305450439453125,-0.5239715576171875,0.297821044921875
1761914476715027000,5.70102685546875,-0.7786102294921875,-0.5274200439453125,0.2921142578125
1761914476725081900,5.711081787109375,-0.820465087890625,-0.5205230712890625,0.281768798828125
1761914476735138000,5.721137939453125,-0.8556976318359375,-0.50482177734375,0.2636871337890625
1761914476745194000,5.731194091796875,-0.898284912109375,-0.4829864501953125,0.2436065673828125
1761914476755249000,5.741248779296875,-0.93511962890625,-0.4565277099609375,0.22479248046875
1761914476765305000,5.75130517578125,-0.9715423583984375,-0.430267333984375,0.2039794921875
1761914476775360800,5.76136083984375,-1.007476806640625,-0.41644287109375,0.1849822998046875
1761914476785417000,5.7714169921875,-1.0266876220703125,-0.415496826171875,0.1679229736328125
1761914476795472000,5.781471923828125,-1.029388427734375,-0.4253997802734375,0.1496429443359375
1761914476805527800,5.79152783203125,-1.01934814453125,-0.4385223388671875,0.13201904296875
1761914476815584000,5.801583984375,-1.0014190673828125,-0.454986572265625,0.1157379150390625
1761914476825640000,5.811639892578125,-0.9840087890625,-0.480255126953125,0.102508544921875
1761914476835695000,5.821695068359375,-0.957916259765625,-0.5128021240234375,0.095733642578125
1761914476845751000,5.8317509765625,-0.940643310546875,-0.5427093505859375,0.0966033935546875
1761914476855806700,5.841806640625,-0.924407958984375,-0.5668182373046875,0.1005859375
1761914476865862000,5.85186181640625,-0.9152069091796875,-0.5872039794921875,0.105560302734375
1761914476875913500,5.86191357421875,-0.916015625,-0.600189208984375,0.11517333984375
1761914476885969400,5.871969482421875,-0.9245452880859375,-0.601104736328125,0.124298095703125
1761914476896025300,5.882025390625,-0.925872802734375,-0.598052978515625,0.135467529296875
1761914476906080500,5.89208056640625,-0.9242706298828125,-0.58831787109375,0.1462249755859375
1761914476916136400,5.902136474609375,-0.9140472412109375,-0.58056640625,0.1623077392578125
1761914476926192600,5.912192626953125,-0.8979034423828125,-0.5908050537109375,0.191009521484375
1761914476936247300,5.922247314453125,-0.90899658203125,-0.598052978515625,0.2177734375
1761914476946303500,5.932303466796875,-0.90869140625,-0.58251953125,0.235198974609375
1761914476956359400,5.942359375,-0.8914337158203125,-0.56890869140625,0.2527618408203125
1761914476966415400,5.952415283203125,-0.8792572021484375,-0.58709716796875,0.2779083251953125
1761914476976470500,5.962470458984375,-0.883026123046875,-0.6313629150390625,0.3109588623046875
1761914476986526500,5.9725263671875,-0.9160919189453125,-0.6676177978515625,0.3436126708984375
1761914476996582400,5.98258251953125,-0.950714111328125,-0.6816864013671875,0.3615875244140625
1761914477006638600,5.992638671875,-0.9783782958984375,-0.670745849609375,0.3686676025390625
1761914477016693200,6.002693359375,-0.998046875,-0.6461944580078125,0.3668670654296875
1761914477026749400,6.01274951171875,-1.0010223388671875,-0.6158599853515625,0.3632965087890625
1761914477036805400,6.022805419921875,-1.0053253173828125,-0.5713653564453125,0.3549041748046875
1761914477046860500,6.032860595703125,-0.9951171875,-0.501068115234375,0.3347930908203125
1761914477056916500,6.04291650390625,-0.9573211669921875,-0.42156982421875,0.30108642578125
1761914477066972400,6.052972412109375,-0.8941497802734375,-0.3565826416015625,0.2631378173828125
1761914477077028600,6.063028564453125,-0.83203125,-0.31256103515625,0.2330322265625
1761914477087083300,6.073083251953125,-0.7814178466796875,-0.292755126953125,0.219940185546875
1761914477097139500,6.083139404296875,-0.7502899169921875,-0.2865753173828125,0.221954345703125
1761914477107195400,6.0931953125,-0.7305450439453125,-0.2771453857421875,0.220733642578125
1761914477117250600,6.10325048828125,-0.70941162109375,-0.2783203125,0.215301513671875
1761914477127306500,6.113306396484375,-0.696136474609375,-0.3103179931640625,0.2156219482421875
1761914477137362400,6.123362548828125,-0.695068359375,-0.35772705078125,0.223541259765625
1761914477147418600,6.133418701171875,-0.6959228515625,-0.4034271240234375,0.230743408203125
1761914477157473300,6.143473388671875,-0.70794677734375,-0.442230224609375,0.2335357666015625
1761914477167529500,6.153529541015625,-0.732696533203125,-0.4795074462890625,0.2435455322265625
1761914477177585400,6.16358544921875,-0.7635345458984375,-0.5082550048828125,0.2483673095703125
1761914477187641300,6.173641357421875,-0.798736572265625,-0.5180206298828125,0.2333984375
1761914477197696500,6.183696533203125,-0.8227996826171875,-0.516357421875,0.20654296875
1761914477207752400,6.19375244140625,-0.8422088623046875,-0.5076904296875,0.180694580078125
1761914477217808400,6.203808349609375,-0.859375,-0.502105712890625,0.159637451171875
1761914477227863600,6.213863525390625,-0.87164306640625,-0.5004119873046875,0.1442718505859375
1761914477237919200,6.223919189453125,-0.866607666015625,-0.4896392822265625,0.1333770751953125
1761914477247975400,6.233975341796875,-0.850433349609375,-0.476898193359375,0.1254425048828125
1761914477258031400,6.24403125,-0.8321075439453125,-0.4658203125,0.113494873046875
1761914477268086500,6.25408642578125,-0.8088531494140625,-0.45941162109375,0.0962066650390625
1761914477278142500,6.264142578125,-0.782562255859375,-0.4597320556640625,0.0755157470703125
1761914477288198400,6.274198486328125,-0.76055908203125,-0.4676361083984375,0.0608367919921875
1761914477298253600,6.284253662109375,-0.7562103271484375,-0.4815826416015625,0.051483154296875
1761914477308309500,6.2943095703125,-0.759368896484375,-0.488372802734375,0.04302978515625
1761914477318365400,6.304365478515625,-0.757659912109375,-0.4892730712890625,0.032196044921875
1761914477328421400,6.31442138671875,-0.7543792724609375,-0.4951019287109375,0.023406982421875
1761914477338476500,6.3244765625,-0.75396728515625,-0.506011962890625,0.0209197998046875
1761914477348532500,6.334532470703125,-0.75177001953125,-0.5161590576171875,0.024993896484375
1761914477358588400,6.34458837890625,-0.749725341796875,-0.52392578125,0.0319976806640625
1761914477368644400,6.354644287109375,-0.7465667724609375,-0.5366668701171875,0.042938232421875
1761914477378699500,6.364699462890625,-0.7470245361328125,-0.5478668212890625,0.0558929443359375
1761914477388755200,6.374755126953125,-0.7513580322265625,-0.556304931640625,0.06390380859375
1761914477398811400,6.384811279296875,-0.7565155029296875,-0.5551605224609375,0.06658935546875
1761914477408866300,6.3948662109375,-0.7569732666015625,-0.5550994873046875,0.068145751953125
1761914477418922500,6.404922607421875,-0.760345458984375,-0.5563507080078125,0.0672149658203125
1761914477428978400,6.414978515625,-0.7710418701171875,-0.5579986572265625,0.0639190673828125
1761914477439034400,6.425034423828125,-0.774658203125,-0.55389404296875,0.0599365234375
1761914477449089500,6.435089599609375,-0.7778167724609375,-0.542572021484375,0.0531158447265625
1761914477459145500,6.4451455078125,-0.7792816162109375,-0.531829833984375,0.0443115234375
1761914477469201400,6.455201416015625,-0.7805633544921875,-0.5314788818359375,0.0427703857421875
1761914477479256300,6.46525634765625,-0.78778076171875,-0.537200927734375,0.0484771728515625
1761914477489312500,6.4753125,-0.7967376708984375,-0.542724609375,0.053680419921875
1761914477499368400,6.485368408203125,-0.8045501708984375,-0.5485992431640625,0.0557098388671875
1761914477509424400,6.49542431640625,-0.8107757568359375,-0.554534912109375,0.0594329833984375
1761914477519479600,6.5054794921875,-0.8219451904296875,-0.5631866455078125,0.059661865234375
1761914477529535500,6.515535400390625,-0.8257598876953125,-0.5811309814453125,0.0594635009765625
1761914477539591400,6.52559130859375,-0.8250579833984375,-0.6059417724609375,0.061553955078125
1761914477549647400,6.5356474609375,-0.8348236083984375,-0.6293182373046875,0.0633697509765625
1761914477559702300,6.545702392578125,-0.8569488525390625,-0.6461944580078125,0.0610809326171875
1761914477569758500,6.555758544921875,-0.886993408203125,-0.640594482421875,0.047821044921875
1761914477579814400,6.565814453125,-0.92169189453125,-0.6166839599609375,0.02288818359375
1761914477589869600,6.57586962890625,-0.9553680419921875,-0.5910491943359375,-0.006866455078125
1761914477599925500,6.585925537109375,-0.9741363525390625,-0.5680389404296875,-0.032318115234375
1761914477609981400,6.5959814453125,-0.9831390380859375,-0.551666259765625,-0.044219970703125
1761914477620037600,6.60603759765625,-0.9667816162109375,-0.54833984375,-0.048553466796875
1761914477630092300,6.61609228515625,-0.9500274658203125,-0.5498504638671875,-0.04541015625
1761914477640148500,6.6261484375,-0.9463653564453125,-0.564697265625,-0.042083740234375
1761914477650204400,6.636204345703125,-0.9534759521484375,-0.5722808837890625,-0.0409393310546875
1761914477660259600,6.646259521484375,-0.947540283203125,-0.573333740234375,-0.0369720458984375
1761914477670315500,6.6563154296875,-0.941009521484375,-0.59234619140625,-0.0255889892578125
1761914477680371500,6.666371337890625,-0.958343505859375,-0.62542724609375,-0.01092529296875
1761914477690427600,6.676427734375,-0.9813079833984375,-0.6487579345703125,-0.000640869140625
1761914477700482300,6.686482421875,-0.999542236328125,-0.6459197998046875,0.0016326904296875
1761914477710538500,6.69653857421875,-1.0053558349609375,-0.6228485107421875,-0.0000457763671875
1761914477720594400,6.706594482421875,-1.00140380859375,-0.60223388671875,-0.0047760009765625
1761914477730650400,6.716650390625,-1.0023345947265625,-0.576507568359375,-0.0142822265625
1761914477740705500,6.72670556640625,-0.9913787841796875,-0.53564453125,-0.0298614501953125
1761914477750761500,6.736761474609375,-0.9752960205078125,-0.491241455078125,-0.04345703125
1761914477760817400,6.7468173828125,-0.9456787109375,-0.4594573974609375,-0.055145263671875
1761914477770872300,6.756872314453125,-0.9014892578125,-0.4531097412109375,-0.055206298828125
1761914477780928300,6.76692822265625,-0.870819091796875,-0.45452880859375,-0.0438079833984375
1761914477790984400,6.776984375,-0.853179931640625,-0.451568603515625,-0.03021240234375
1761914477801040400,6.787040283203125,-0.838531494140625,-0.4514312744140625,-0.016693115234375
1761914477811095600,6.797095458984375,-0.82012939453125,-0.4661712646484375,-0.0002899169921875
1761914477821151500,6.8071513671875,-0.8059844970703125,-0.4954833984375,0.0214691162109375
1761914477831207400,6.81720751953125,-0.812225341796875,-0.5239410400390625,0.0475616455078125
1761914477841262300,6.827262451171875,-0.8294525146484375,-0.5481719970703125,0.0696258544921875
1761914477851318300,6.837318359375,-0.853668212890625,-0.5684967041015625,0.085205078125
1761914477861374500,6.84737451171875,-0.86859130859375,-0.5792083740234375,0.0912933349609375
1761914477871430400,6.857430419921875,-0.8648681640625,-0.5802764892578125,0.0882415771484375
1761914477881485600,6.867485595703125,-0.852203369140625,-0.5694732666015625,0.0799102783203125
1761914477891541500,6.87754150390625,-0.8372650146484375,-0.546295166015625,0.0662994384765625
1761914477901597400,6.887597412109375,-0.8160247802734375,-0.5121002197265625,0.0555877685546875
1761914477911653600,6.897653564453125,-0.79736328125,-0.47528076171875,0.0493011474609375
1761914477921708500,6.90770849609375,-0.7826690673828125,-0.4456634521484375,0.042694091796875
1761914477931764500,6.917764404296875,-0.7551116943359375,-0.42626953125,0.035614013671875
1761914477941820400,6.9278203125,-0.7234344482421875,-0.4123992919921875,0.0361480712890625
1761914477951875300,6.937875244140625,-0.7006683349609375,-0.409881591796875,0.0454864501953125
1761914477961931500,6.947931640625,-0.6856536865234375,-0.4193572998046875,0.059295654296875
1761914477971987500,6.957987548828125,-0.672698974609375,-0.4356231689453125,0.073638916015625
1761914477982043400,6.96804345703125,-0.658538818359375,-0.4598236083984375,0.0869598388671875
1761914477992098600,6.9780986328125,-0.6529998779296875,-0.4832763671875,0.0954437255859375
1761914478002154500,6.988154541015625,-0.649932861328125,-0.5096893310546875,0.1070709228515625
1761914478012210400,6.99821044921875,-0.661224365234375,-0.5385589599609375,0.1203155517578125
1761914478022266400,7.008266357421875,-0.660003662109375,-0.567657470703125,0.1391448974609375
1761914478032321500,7.018321533203125,-0.65997314453125,-0.59259033203125,0.1523895263671875
1761914478042377500,7.02837744140625,-0.669281005859375,-0.6077117919921875,0.154327392578125
1761914478052433400,7.038433349609375,-0.680816650390625,-0.6135101318359375,0.151611328125
1761914478062488600,7.048488525390625,-0.6992034912109375,-0.61322021484375,0.1465301513671875
1761914478072544500,7.05854443359375,-0.736724853515625,-0.6012115478515625,0.1342926025390625
1761914478082600700,7.0686005859375,-0.791168212890625,-0.5773468017578125,0.1154327392578125
1761914478092656400,7.078656494140625,-0.8519744873046875,-0.5507659912109375,0.092132568359375
1761914478102711600,7.088711669921875,-0.9012451171875,-0.528076171875,0.0620880126953125
1761914478112767500,7.098767578125,-0.9312286376953125,-0.510406494140625,0.0283203125
1761914478122823400,7.108823486328125,-0.9449005126953125,-0.495574951171875,-0.00872802734375
1761914478132878600,7.118878662109375,-0.94854736328125,-0.4887542724609375,-0.041839599609375
1761914478142934500,7.1289345703125,-0.9363861083984375,-0.4871826171875,-0.06805419921875
1761914478152990500,7.138990478515625,-0.905181884765625,-0.4967041015625,-0.0858917236328125
1761914478163046400,7.14904638671875,-0.8637237548828125,-0.517791748046875,-0.0994720458984375
1761914478173101300,7.159101318359375,-0.8203277587890625,-0.5408172607421875,-0.10809326171875
1761914478183157500,7.169157470703125,-0.7825775146484375,-0.5619659423828125,-0.1160888671875
1761914478193213400,7.17921337890625,-0.7575531005859375,-0.58807373046875,-0.1215057373046875
1761914478203268600,7.1892685546875,-0.749053955078125,-0.626373291015625,-0.1290130615234375
1761914478213324500,7.199324462890625,-0.7444000244140625,-0.6544647216796875,-0.138763427734375
1761914478223380500,7.20938037109375,-0.7438201904296875,-0.67572021484375,-0.1457061767578125
1761914478233436700,7.219436767578125,-0.752288818359375,-0.6902618408203125,-0.1510772705078125
1761914478243491300,7.2294912109375,-0.7767791748046875,-0.6826934814453125,-0.157135009765625
1761914478253547500,7.239547607421875,-0.8035125732421875,-0.669281005859375,-0.15972900390625
1761914478263603500,7.249603515625,-0.81402587890625,-0.65570068359375,-0.1633758544921875
1761914478273659400,7.259659423828125,-0.80291748046875,-0.648162841796875,-0.1547088623046875
1761914478283714600,7.269714599609375,-0.77435302734375,-0.6618194580078125,-0.1276092529296875
1761914478293770500,7.2797705078125,-0.759246826171875,-0.6779937744140625,-0.0986175537109375
1761914478303826700,7.28982666015625,-0.766082763671875,-0.671417236328125,-0.0771331787109375
1761914478313881300,7.29988134765625,-0.7554779052734375,-0.6650848388671875,-0.048126220703125
1761914478323937500,7.3099375,-0.7248077392578125,-0.683990478515625,-0.014892578125
1761914478333993500,7.319993408203125,-0.7028961181640625,-0.7188262939453125,0.01690673828125
1761914478344049400,7.33004931640625,-0.7087554931640625,-0.7419586181640625,0.0475311279296875
1761914478354104600,7.3401044921875,-0.724395751953125,-0.752166748046875,0.071075439453125
1761914478364160500,7.350160400390625,-0.739166259765625,-0.758148193359375,0.0817718505859375
1761914478374216400,7.360216552734375,-0.75482177734375,-0.761260986328125,0.08837890625
1761914478384271400,7.370271240234375,-0.7749786376953125,-0.7556610107421875,0.0929718017578125
1761914478394327300,7.380327392578125,-0.8115081787109375,-0.739227294921875,0.095855712890625
1761914478404383500,7.390383544921875,-0.8466644287109375,-0.6994476318359375,0.089508056640625
1761914478414439400,7.400439453125,-0.871246337890625,-0.6435089111328125,0.0784759521484375
1761914478424494600,7.41049462890625,-0.8941497802734375,-0.5841217041015625,0.06805419921875
1761914478434550500,7.420550537109375,-0.9056854248046875,-0.5298614501953125,0.0553741455078125
1761914478444606500,7.4306064453125,-0.9028167724609375,-0.486236572265625,0.0395355224609375
1761914478454662700,7.44066259765625,-0.8888092041015625,-0.456298828125,0.0279693603515625
1761914478464717300,7.45071728515625,-0.873138427734375,-0.4440155029296875,0.0177001953125
1761914478474773500,7.4607734375,-0.860595703125,-0.4459686279296875,0.01373291015625
1761914478484829400,7.470829345703125,-0.8536224365234375,-0.4551849365234375,0.017333984375
1761914478494884600,7.480884521484375,-0.843902587890625,-0.4715423583984375,0.0289764404296875
1761914478504940500,7.4909404296875,-0.84100341796875,-0.4900360107421875,0.0334014892578125
1761914478514996500,7.50099658203125,-0.8301849365234375,-0.5132293701171875,0.026641845703125
1761914478525052700,7.511052734375,-0.8088531494140625,-0.5376129150390625,0.0240020751953125
1761914478535107300,7.521107421875,-0.808807373046875,-0.5524749755859375,0.024993896484375
1761914478545163500,7.53116357421875,-0.8238067626953125,-0.56219482421875,0.0214080810546875
1761914478555219500,7.541219482421875,-0.8289947509765625,-0.5648193359375,0.013092041015625
1761914478565274400,7.5512744140625,-0.82147216796875,-0.55810546875,-0.00445556640625
1761914478575330600,7.56133056640625,-0.815093994140625,-0.5445098876953125,-0.02923583984375
1761914478585386500,7.571386474609375,-0.813140869140625,-0.525054931640625,-0.0553131103515625
1761914478595442400,7.5814423828125,-0.8060302734375,-0.5069427490234375,-0.069061279296875
1761914478605497300,7.591497314453125,-0.7953948974609375,-0.4985809326171875,-0.0659942626953125
1761914478615553300,7.60155322265625,-0.7848052978515625,-0.49859619140625,-0.057373046875
1761914478625609500,7.611609375,-0.77117919921875,-0.49603271484375,-0.0504913330078125
1761914478635665400,7.62166552734375,-0.7572784423828125,-0.4963531494140625,-0.04669189453125
1761914478645720600,7.631720458984375,-0.745819091796875,-0.503173828125,-0.0459442138671875
1761914478655776500,7.641776611328125,-0.7383880615234375,-0.5144500732421875,-0.04296875
1761914478665832400,7.65183251953125,-0.73974609375,-0.5223846435546875,-0.0379486083984375
1761914478675887600,7.6618876953125,-0.7527923583984375,-0.522125244140625,-0.0326080322265625
1761914478685943300,7.671943359375,-0.767730712890625,-0.5240936279296875,-0.021026611328125
1761914478695999500,7.68199951171875,-0.77789306640625,-0.5278167724609375,-0.0068359375
1761914478706055400,7.692055419921875,-0.7861480712890625,-0.5331268310546875,0.009246826171875
1761914478716110600,7.702110595703125,-0.795196533203125,-0.5363006591796875,0.0299530029296875
1761914478726166500,7.71216650390625,-0.8009490966796875,-0.5384521484375,0.049346923828125
1761914478736222500,7.722222412109375,-0.798736572265625,-0.5332183837890625,0.0616912841796875
1761914478746277600,7.732277587890625,-0.792755126953125,-0.527496337890625,0.0676727294921875
1761914478756333600,7.74233349609375,-0.789306640625,-0.5248260498046875,0.0658111572265625
1761914478766389200,7.75238916015625,-0.78460693359375,-0.5203857421875,0.0641632080078125
1761914478776445400,7.762445556640625,-0.7777862548828125,-0.5199432373046875,0.063323974609375
1761914478786500400,7.772500244140625,-0.7674560546875,-0.5227203369140625,0.064483642578125
1761914478796556500,7.782556640625,-0.7600555419921875,-0.519622802734375,0.0619659423828125
1761914478806612500,7.792612548828125,-0.750030517578125,-0.513641357421875,0.05426025390625
1761914478816668400,7.80266845703125,-0.7378692626953125,-0.514129638671875,0.0504913330078125
1761914478826723600,7.8127236328125,-0.730712890625,-0.5236968994140625,0.0520172119140625
1761914478836779500,7.822779541015625,-0.7311248779296875,-0.5408935546875,0.0576934814453125
1761914478846835500,7.83283544921875,-0.7347259521484375,-0.5632476806640625,0.0648651123046875
1761914478856890400,7.842890380859375,-0.7416229248046875,-0.5846405029296875,0.0701446533203125
1761914478866946600,7.852946533203125,-0.749176025390625,-0.60198974609375,0.0756072998046875
1761914478877003000,7.8630029296875,-0.7611846923828125,-0.61669921875,0.0803070068359375
1761914478887059000,7.873058837890625,-0.77288818359375,-0.6319427490234375,0.0857696533203125
1761914478897114000,7.883114013671875,-0.7832489013671875,-0.64312744140625,0.0927886962890625
1761914478907170000,7.893170166015625,-0.7984619140625,-0.651214599609375,0.1009979248046875
1761914478917226000,7.90322607421875,-0.817169189453125,-0.6525726318359375,0.1058502197265625
1761914478927281200,7.91328125,-0.8376312255859375,-0.6411590576171875,0.106597900390625
1761914478937337000,7.923337158203125,-0.853240966796875,-0.61480712890625,0.099151611328125
1761914478947393300,7.933393310546875,-0.8658599853515625,-0.5796661376953125,0.084259033203125
1761914478957449000,7.943448974609375,-0.8804473876953125,-0.5431976318359375,0.0656280517578125
1761914478967504100,7.953504150390625,-0.89154052734375,-0.507293701171875,0.046295166015625
1761914478977560000,7.96356005859375,-0.8937530517578125,-0.4734649658203125,0.025543212890625
1761914478987616000,7.973615966796875,-0.889801025390625,-0.4560699462890625,0.010467529296875
1761914478997672200,7.983672119140625,-0.884002685546875,-0.449737548828125,0.00146484375
1761914479007727000,7.99372705078125,-0.888275146484375,-0.446624755859375,-0.003936767578125
1761914479017782000,8.003781982421875,-0.88543701171875,-0.4476165771484375,-0.005859375
1761914479027838000,8.013837890625,-0.8761138916015625,-0.4483489990234375,-0.008880615234375
1761914479037893000,8.02389306640625,-0.8598785400390625,-0.4542999267578125,-0.0106201171875
1761914479047949000,8.033948974609375,-0.8473358154296875,-0.4791107177734375,-0.004150390625
1761914479058005000,8.0440048828125,-0.8419036865234375,-0.5140533447265625,0.006134033203125
1761914479068061200,8.054061279296874,-0.81854248046875,-0.5735626220703125,0.03289794921875
1761914479078116000,8.0641162109375,-0.8059234619140625,-0.6575927734375,0.073455810546875
1761914479088172000,8.074172119140625,-0.8226776123046875,-0.7237396240234375,0.108245849609375
1761914479098228000,8.08422802734375,-0.8616485595703125,-0.7431640625,0.11236572265625
1761914479108284000,8.094283935546875,-0.8783416748046875,-0.7341766357421875,0.1012420654296875
1761914479118339000,8.104339111328125,-0.8843231201171875,-0.744110107421875,0.1004638671875
1761914479128395000,8.11439501953125,-0.898895263671875,-0.763641357421875,0.12054443359375
1761914479138451200,8.124451171875,-0.92352294921875,-0.7533111572265625,0.152740478515625
1761914479148506000,8.134506103515625,-0.9356536865234375,-0.7091522216796875,0.17822265625
1761914479158562000,8.14456201171875,-0.9369964599609375,-0.6544189453125,0.192352294921875
1761914479168618000,8.154617919921876,-0.924530029296875,-0.5886993408203125,0.18988037109375
1761914479178674000,8.164673828125,-0.892486572265625,-0.5262298583984375,0.1749114990234375
1761914479188729000,8.17472900390625,-0.85430908203125,-0.4853057861328125,0.1634063720703125
1761914479198785000,8.184784912109375,-0.8285980224609375,-0.4507904052734375,0.1576995849609375
1761914479208841000,8.194841064453126,-0.8040008544921875,-0.421142578125,0.158355712890625
1761914479218897200,8.204897216796875,-0.780609130859375,-0.406219482421875,0.1764984130859375
1761914479228952000,8.2149521484375,-0.7641448974609375,-0.4202423095703125,0.2088165283203125
1761914479239008000,8.225008056640625,-0.755218505859375,-0.452423095703125,0.2427215576171875
1761914479249064000,8.23506396484375,-0.773406982421875,-0.4933929443359375,0.277618408203125
1761914479259119000,8.245119140625,-0.7897186279296875,-0.5374908447265625,0.3125762939453125
1761914479269175000,8.255175048828125,-0.801910400390625,-0.5639190673828125,0.3344879150390625
1761914479279231000,8.26523095703125,-0.8216400146484375,-0.571136474609375,0.3510589599609375
1761914479289287200,8.275287109375,-0.8549346923828125,-0.5706634521484375,0.3605499267578125
1761914479299342000,8.285342041015625,-0.9009857177734375,-0.5648345947265625,0.3609771728515625
1761914479309398300,8.295398193359375,-0.9520263671875,-0.55059814453125,0.356414794921875
1761914479319454000,8.305453857421876,-1.000152587890625,-0.52398681640625,0.3434295654296875
1761914479329509000,8.315509033203124,-1.0307464599609375,-0.478424072265625,0.3130645751953125
1761914479339565000,8.32556494140625,-1.035614013671875,-0.4070281982421875,0.2793426513671875
1761914479349621000,8.33562109375,-1.0507659912109375,-0.3352203369140625,0.238067626953125
1761914479359677200,8.34567724609375,-1.058441162109375,-0.2845458984375,0.1923675537109375
1761914479369732000,8.355732177734374,-1.0514373779296875,-0.2453460693359375,0.154998779296875
1761914479379788300,8.365788330078125,-1.027862548828125,-0.217376708984375,0.1277008056640625
1761914479389844200,8.37584423828125,-0.990081787109375,-0.2159576416015625,0.1086273193359375
1761914479399900000,8.38589990234375,-0.9522552490234375,-0.237213134765625,0.105621337890625
1761914479409955000,8.395955078125,-0.9316253662109375,-0.2628631591796875,0.114532470703125
1761914479420011000,8.406010986328125,-0.9186859130859375,-0.292449951171875,0.1258697509765625
1761914479430067000,8.41606689453125,-0.90203857421875,-0.3165435791015625,0.1366424560546875
1761914479440122000,8.4261220703125,-0.8942108154296875,-0.313934326171875,0.1238861083984375
1761914479450178000,8.436177978515625,-0.87872314453125,-0.3023529052734375,0.093475341796875
1761914479460234200,8.446234130859375,-0.85955810546875,-0.303497314453125,0.0687408447265625
1761914479470290000,8.4562900390625,-0.8614044189453125,-0.3093414306640625,0.0491943359375
1761914479480345000,8.466344970703124,-0.8686981201171875,-0.3166046142578125,0.036376953125
1761914479490401000,8.476401123046875,-0.8713226318359375,-0.3240509033203125,0.0279541015625
1761914479500457000,8.48645703125,-0.8782196044921875,-0.33367919921875,0.01593017578125
1761914479510513200,8.49651318359375,-0.8789520263671875,-0.347869873046875,0.007476806640625
1761914479520568000,8.506568115234375,-0.8736419677734375,-0.3719024658203125,0.01251220703125
1761914479530624300,8.516624267578125,-0.8782806396484375,-0.3946685791015625,0.0233612060546875
1761914479540680200,8.52668017578125,-0.87335205078125,-0.3985748291015625,0.0232086181640625
1761914479550735000,8.536735107421874,-0.8584747314453125,-0.3956756591796875,0.015106201171875
1761914479560791000,8.546791015625,-0.8438720703125,-0.4030914306640625,0.0083465576171875
1761914479570848000,8.556847900390625,-0.8266754150390625,-0.421875,0.0078277587890625
1761914479580904000,8.566904052734374,-0.8162841796875,-0.4454345703125,0.0060577392578125
1761914479590959000,8.576958984375,-0.808319091796875,-0.461700439453125,0.00054931640625
1761914479601015000,8.58701513671875,-0.80096435546875,-0.472747802734375,-0.0023651123046875
1761914479611071200,8.5970712890625,-0.7953948974609375,-0.496246337890625,0.000946044921875
1761914479621126100,8.607126220703124,-0.7930145263671875,-0.52899169921875,0.0078582763671875
1761914479631182000,8.61718212890625,-0.7960968017578125,-0.5629730224609375,0.01666259765625
1761914479641238000,8.627238037109375,-0.8000640869140625,-0.5891265869140625,0.02392578125
1761914479651294000,8.6372939453125,-0.8104705810546875,-0.6108245849609375,0.0302276611328125
1761914479661349000,8.64734912109375,-0.8309326171875,-0.626922607421875,0.0427703857421875
1761914479671405000,8.657405029296875,-0.8547210693359375,-0.6385955810546875,0.062896728515625
1761914479681461000,8.6674609375,-0.8725738525390625,-0.647918701171875,0.08392333984375
1761914479691516200,8.67751611328125,-0.887908935546875,-0.6444854736328125,0.096588134765625
1761914479701572000,8.687572021484375,-0.887939453125,-0.6281585693359375,0.1042633056640625
1761914479711628000,8.6976279296875,-0.883056640625,-0.6158294677734375,0.11492919921875
1761914479721684000,8.70768408203125,-0.8956756591796875,-0.6022491455078125,0.1259002685546875
1761914479731739100,8.7177392578125,-0.89703369140625,-0.5825653076171875,0.128692626953125
1761914479741795000,8.727795166015625,-0.8792266845703125,-0.5688018798828125,0.134735107421875
1761914479751851000,8.73785107421875,-0.8645782470703125,-0.5708465576171875,0.1455230712890625
1761914479761907200,8.7479072265625,-0.8661346435546875,-0.5767364501953125,0.154754638671875
1761914479771962000,8.757962158203124,-0.87274169921875,-0.5730133056640625,0.1566925048828125
1761914479782018000,8.76801806640625,-0.86279296875,-0.571929931640625,0.1575775146484375
1761914479792074000,8.778073974609375,-0.8444671630859375,-0.5866546630859375,0.165283203125
1761914479802129200,8.788129150390626,-0.8360748291015625,-0.60565185546875,0.1768951416015625
1761914479812185000,8.79818505859375,-0.8484649658203125,-0.6129150390625,0.1842803955078125
1761914479822241000,8.808240966796875,-0.8602294921875,-0.61187744140625,0.1826171875
1761914479832297000,8.818296875,-0.8489837646484375,-0.6051177978515625,0.17535400390625
1761914479842352000,8.82835205078125,-0.840789794921875,-0.5949554443359375,0.1678466796875
1761914479852408000,8.838407958984375,-0.8405914306640625,-0.582916259765625,0.1661834716796875
1761914479862464000,8.848464111328125,-0.848297119140625,-0.569244384765625,0.1671142578125
1761914479872520000,8.85852001953125,-0.85693359375,-0.5492706298828125,0.165802001953125
1761914479882575000,8.8685751953125,-0.847808837890625,-0.53204345703125,0.1606292724609375
1761914479892631000,8.878631103515625,-0.8309478759765625,-0.5172119140625,0.154541015625
1761914479902687000,8.88868701171875,-0.817047119140625,-0.5027923583984375,0.1504058837890625
1761914479912742100,8.8987421875,-0.80865478515625,-0.4976806640625,0.1452178955078125
1761914479922798000,8.908798095703125,-0.7995452880859375,-0.5046539306640625,0.14471435546875
1761914479932854300,8.918854248046875,-0.790985107421875,-0.52117919921875,0.15618896484375
1761914479942910000,8.928909912109376,-0.789154052734375,-0.5269622802734375,0.1630706787109375
1761914479952965000,8.938965087890624,-0.8042144775390625,-0.527069091796875,0.1547088623046875
1761914479963021000,8.94902099609375,-0.824493408203125,-0.520172119140625,0.13946533203125
1761914479973077000,8.959076904296875,-0.8331756591796875,-0.5113677978515625,0.122161865234375
1761914479983132200,8.969132080078126,-0.8428192138671875,-0.5048370361328125,0.1038665771484375
1761914479993188000,8.97918798828125,-0.8565521240234375,-0.4952545166015625,0.0843505859375
1761914480003244300,8.989244384765625,-0.8788299560546875,-0.4852294921875,0.0622711181640625
1761914480013300200,8.99930029296875,-0.889434814453125,-0.473663330078125,0.0363311767578125
1761914480023355000,9.00935498046875,-0.8902130126953125,-0.456939697265625,0.0099639892578125
1761914480033411000,9.0194111328125,-0.8877716064453125,-0.434539794921875,-0.0173187255859375
1761914480043467000,9.029467041015625,-0.877105712890625,-0.425323486328125,-0.041290283203125
1761914480053523000,9.03952294921875,-0.8695526123046875,-0.4260101318359375,-0.055999755859375
1761914480063578000,9.049578125,-0.852569580078125,-0.427001953125,-0.06842041015625
1761914480073634000,9.059634033203125,-0.8235626220703125,-0.4330902099609375,-0.0760955810546875
1761914480083690200,9.069690185546875,-0.795623779296875,-0.4385528564453125,-0.0789794921875
1761914480093745000,9.079744873046875,-0.7810516357421875,-0.444366455078125,-0.0799713134765625
1761914480103801000,9.089801025390624,-0.7641143798828125,-0.4541015625,-0.0698394775390625
1761914480113857000,9.09985693359375,-0.7491607666015625,-0.458221435546875,-0.060699462890625
1761914480123913000,9.109912841796875,-0.7378997802734375,-0.457672119140625,-0.043487548828125
1761914480133968100,9.119968017578126,-0.6862640380859375,-0.4354095458984375,-0.0067901611328125
1761914480144024000,9.130024169921874,-0.726226806640625,-0.413360595703125,0.0091705322265625
1761914480154080300,9.140080322265625,-0.880126953125,-0.4451904296875,0.013031005859375
1761914480164136200,9.15013623046875,-0.9221649169921875,-0.4833221435546875,0.0455780029296875
1761914480174191000,9.160191162109374,-0.880645751953125,-0.50384521484375,0.0793304443359375
1761914480184247000,9.1702470703125,-0.8303985595703125,-0.502960205078125,0.099700927734375
1761914480194303000,9.180302978515625,-0.810394287109375,-0.4892730712890625,0.1187286376953125
1761914480204358100,9.190358154296876,-0.812042236328125,-0.486053466796875,0.1359405517578125
1761914480214414000,9.2004140625,-0.8091278076171875,-0.4874725341796875,0.148773193359375
1761914480224470000,9.210469970703125,-0.810455322265625,-0.4927520751953125,0.156036376953125
1761914480234526200,9.220526123046875,-0.796142578125,-0.52789306640625,0.1430816650390625
1761914480244580900,9.230580810546876,-0.7866058349609375,-0.537445068359375,0.1323089599609375
1761914480254637000,9.240636962890624,-0.766815185546875,-0.5318450927734375,0.1499786376953125
1761914480264693000,9.25069287109375,-0.741485595703125,-0.5441131591796875,0.146331787109375
1761914480274748200,9.260748046875,-0.7269439697265625,-0.5482177734375,0.1448211669921875
1761914480284804000,9.27080419921875,-0.721466064453125,-0.5496826171875,0.1589813232421875
1761914480294860000,9.280860107421875,-0.7381591796875,-0.5577850341796875,0.1709136962890625
1761914480304916200,9.290916259765625,-0.7705230712890625,-0.56927490234375,0.1769866943359375
1761914480314971000,9.300970947265625,-0.7900543212890625,-0.5605010986328125,0.1772613525390625
1761914480325027000,9.311027099609374,-0.802642822265625,-0.548980712890625,0.1843109130859375
1761914480335083000,9.3210830078125,-0.7915802001953125,-0.53790283203125,0.1750946044921875
1761914480345139000,9.331138916015625,-0.8556671142578125,-0.535247802734375,0.170867919921875
1761914480355194000,9.341194091796876,-0.85211181640625,-0.4664459228515625,0.1050262451171875
1761914480365250000,9.35125,-0.8319854736328125,-0.388580322265625,0.080352783203125
1761914480375306200,9.36130615234375,-0.864501953125,-0.3292236328125,0.065673828125
1761914480385361000,9.37136083984375,-0.9185333251953125,-0.277557373046875,0.0426483154296875
1761914480395417000,9.3814169921875,-0.9592132568359375,-0.25164794921875,0.0454254150390625
1761914480405473000,9.39147314453125,-1.0128936767578125,-0.2662811279296875,0.0626373291015625
1761914480415529000,9.401529052734375,-1.063262939453125,-0.2889556884765625,0.09515380859375
1761914480425584000,9.411584228515625,-1.0568695068359375,-0.2571563720703125,0.1114654541015625
1761914480435640000,9.42164013671875,-1.0268402099609375,-0.219390869140625,0.14666748046875
1761914480445696000,9.431696044921875,-1.0142669677734375,-0.166595458984375,0.1821441650390625
1761914480455752200,9.441752197265625,-1.032928466796875,-0.159576416015625,0.200439453125
1761914480465806800,9.451806884765626,-1.0538177490234375,-0.1565399169921875,0.2018890380859375
1761914480475863000,9.461863037109374,-1.0436553955078125,-0.1458282470703125,0.2293243408203125
1761914480485919000,9.4719189453125,-1.01568603515625,-0.1784210205078125,0.26300048828125
1761914480495974100,9.48197412109375,-0.9904022216796875,-0.1932830810546875,0.278045654296875
1761914480506030000,9.492030029296876,-0.9844970703125,-0.17633056640625,0.2706298828125
1761914480516086000,9.5020859375,-1.018310546875,-0.149566650390625,0.2623443603515625
1761914480526142200,9.51214208984375,-1.1020965576171875,-0.1597747802734375,0.2554931640625
1761914480536196900,9.52219677734375,-1.190948486328125,-0.18115234375,0.2835540771484375
1761914480546253000,9.532253173828124,-1.3533935546875,-0.1649017333984375,0.3184814453125
1761914480556309000,9.54230908203125,-1.5922698974609375,-0.1407623291015625,0.36419677734375
1761914480566364200,9.5523642578125,-1.4617767333984375,-0.1167755126953125,0.43023681640625
1761914480576420000,9.562420166015626,-1.244232177734375,-0.0635833740234375,0.401458740234375
1761914480586476000,9.57247607421875,-1.134521484375,-0.007049560546875,0.2954254150390625
1761914480596532200,9.5825322265625,-1.106536865234375,0.0301361083984375,0.21905517578125
1761914480606587100,9.592587158203125,-1.131591796875,0.039154052734375,0.1158447265625
1761914480616643000,9.60264306640625,-1.0904388427734375,-0.006103515625,0.0489349365234375
1761914480626699000,9.612698974609375,-1.033843994140625,-0.0754852294921875,-0.015594482421875
1761914480636755000,9.6227548828125,-0.9796600341796875,0.005889892578125,-0.00286865234375
1761914480646810000,9.63281005859375,-0.89166259765625,0.12286376953125,0.0843963623046875
1761914480656866000,9.642865966796874,-0.859527587890625,-0.0199432373046875,0.0985870361328125
1761914480666922000,9.652921875,-0.8541717529296875,-0.15802001953125,0.1324920654296875
1761914480676977200,9.66297705078125,-0.8755035400390625,-0.11297607421875,0.22186279296875
1761914480687033000,9.673033203125,-0.887969970703125,-0.10784912109375,0.283050537109375
1761914480697089000,9.683089111328124,-0.89178466796875,-0.1954803466796875,0.3001251220703125
1761914480707145000,9.69314501953125,-0.8963775634765625,-0.215576171875,0.343048095703125
1761914480717200100,9.7032001953125,-0.9280242919921875,-0.2213134765625,0.37493896484375
1761914480727256000,9.713256103515626,-0.9434661865234375,-0.2232818603515625,0.3623199462890625
1761914480737312000,9.72331201171875,-0.915557861328125,-0.192962646484375,0.347259521484375
1761914480747368200,9.7333681640625,-0.8739776611328125,-0.17047119140625,0.3376007080078125
1761914480757423000,9.743423095703125,-0.8612823486328125,-0.17047119140625,0.3152618408203125
1761914480767479000,9.75347900390625,-0.905548095703125,-0.1763458251953125,0.2977294921875
1761914480777535000,9.763534912109375,-0.9467926025390625,-0.1634063720703125,0.2997283935546875
1761914480787590100,9.773590087890625,-0.9734954833984375,-0.1516265869140625,0.299468994140625
1761914480797646000,9.78364599609375,-0.98138427734375,-0.14794921875,0.2904510498046875
1761914480807702000,9.793701904296874,-0.9651641845703125,-0.1365203857421875,0.2729949951171875
1761914480817758200,9.80375830078125,-0.9574737548828125,-0.12432861328125,0.2520904541015625
1761914480827813000,9.813813232421875,-0.962982177734375,-0.1212005615234375,0.2372283935546875
1761914480837869000,9.823869140625,-0.967742919921875,-0.1230621337890625,0.2316131591796875
1761914480847925000,9.833925048828124,-0.9766693115234375,-0.123291015625,0.2288818359375
1761914480857981000,9.84398095703125,-0.984527587890625,-0.119415283203125,0.228759765625
1761914480868036000,9.8540361328125,-0.988311767578125,-0.1209259033203125,0.232940673828125
1761914480878091300,9.86409130859375,-0.9908599853515625,-0.1338348388671875,0.2325897216796875
1761914480888147500,9.8741474609375,-0.987060546875,-0.1515350341796875,0.226104736328125
1761914480898202400,9.884202392578125,-0.9723358154296875,-0.1739044189453125,0.21392822265625
1761914480908258300,9.89425830078125,-0.9566192626953125,-0.1949462890625,0.1977386474609375
1761914480918314200,9.904314208984376,-0.952178955078125,-0.2109832763671875,0.181610107421875
1761914480928370200,9.9143701171875,-0.9605560302734375,-0.2243804931640625,0.167022705078125
1761914480938425300,9.92442529296875,-0.964202880859375,-0.232635498046875,0.1468505859375
1761914480948481300,9.934481201171875,-0.955657958984375,-0.2345123291015625,0.125244140625
1761914480958537200,9.944537109375,-0.9399261474609375,-0.2365875244140625,0.1043701171875
1761914480968593400,9.954593505859375,-0.923126220703125,-0.2462921142578125,0.0875091552734375
1761914480978648300,9.9646484375,-0.909820556640625,-0.259063720703125,0.075927734375
1761914480988704300,9.974704345703126,-0.9114837646484375,-0.2642822265625,0.0693206787109375
1761914480998760200,9.98476025390625,-0.9283599853515625,-0.2733154296875,0.069488525390625
1761914481008815400,9.9948154296875,-0.9351806640625,-0.2935638427734375,0.0700531005859375
1761914481018871300,10.004871337890625,-0.9221343994140625,-0.31182861328125,0.0657501220703125
1761914481028927200,10.01492724609375,-0.8988800048828125,-0.32647705078125,0.06103515625
1761914481038983400,10.0249833984375,-0.8858795166015625,-0.34442138671875,0.048736572265625
1761914481049038300,10.035038330078125,-0.8766937255859375,-0.3563232421875,0.037109375
1761914481059094500,10.045094482421876,-0.8720245361328125,-0.3668365478515625,0.0285186767578125
1761914481069150200,10.055150146484374,-0.8746795654296875,-0.3836822509765625,0.02191162109375
1761914481079206100,10.0652060546875,-0.86907958984375,-0.410064697265625,0.024139404296875
1761914481089261300,10.07526123046875,-0.8657989501953125,-0.43310546875,0.0303497314453125
1761914481099317200,10.085317138671876,-0.871429443359375,-0.4469146728515625,0.033905029296875
1761914481109373400,10.09537353515625,-0.8703460693359375,-0.454620361328125,0.03778076171875
1761914481119428400,10.105428466796875,-0.8610076904296875,-0.461273193359375,0.044342041015625
1761914481129484300,10.115484375,-0.8480072021484375,-0.472869873046875,0.0570220947265625
1761914481139540200,10.125540283203126,-0.83587646484375,-0.499969482421875,0.06658935546875
1761914481149596200,10.13559619140625,-0.841522216796875,-0.5276031494140625,0.06207275390625
1761914481159651300,10.1456513671875,-0.8485565185546875,-0.53094482421875,0.0535430908203125
1761914481169707300,10.155707275390625,-0.8464813232421875,-0.5208740234375,0.058380126953125
1761914481179763200,10.16576318359375,-0.8426361083984375,-0.521148681640625,0.0648651123046875
1761914481189818400,10.175818359375,-0.8589324951171875,-0.535552978515625,0.0687713623046875
1761914481199874300,10.185874267578125,-0.891082763671875,-0.54425048828125,0.076904296875
1761914481209930500,10.195930419921876,-0.911468505859375,-0.544647216796875,0.0870361328125
1761914481219986200,10.205986083984374,-0.9117431640625,-0.5488739013671875,0.0921783447265625
1761914481230041300,10.216041259765625,-0.9007110595703125,-0.5534210205078125,0.0893402099609375
1761914481240097300,10.22609716796875,-0.8911285400390625,-0.554595947265625,0.085723876953125
1761914481250153200,10.2361533203125,-0.89129638671875,-0.556793212890625,0.0854644775390625
1761914481260209400,10.24620947265625,-0.905609130859375,-0.5491790771484375,0.088287353515625
1761914481270264300,10.256264404296875,-0.928680419921875,-0.5324554443359375,0.087677001953125
1761914481280320500,10.266320556640625,-0.94818115234375,-0.5170135498046875,0.0867767333984375
1761914481290376400,10.27637646484375,-0.9565277099609375,-0.5063629150390625,0.0889434814453125
1761914481300431400,10.286431396484375,-0.9723358154296875,-0.5023956298828125,0.0952301025390625
1761914481310487300,10.2964873046875,-0.9994354248046875,-0.5050048828125,0.099334716796875
1761914481320543200,10.306543212890626,-1.0196533203125,-0.5039825439453125,0.0961151123046875
1761914481330599400,10.316599365234374,-1.0197601318359375,-0.4971466064453125,0.0845947265625
1761914481340654300,10.326654296875,-1.01422119140625,-0.487701416015625,0.07354736328125
1761914481350710300,10.336710205078125,-1.016845703125,-0.4782562255859375,0.0683135986328125
1761914481360766500,10.346766357421876,-1.024200439453125,-0.4704437255859375,0.069793701171875
1761914481370822400,10.356822509765625,-1.0336456298828125,-0.4681243896484375,0.069000244140625
1761914481380877300,10.366877197265625,-1.0423431396484375,-0.4680328369140625,0.059051513671875
1761914481390933200,10.376933349609375,-1.0446929931640625,-0.4612884521484375,0.04400634765625
1761914481400989200,10.3869892578125,-1.0431671142578125,-0.4453887939453125,0.0278472900390625
1761914481411044400,10.39704443359375,-1.0342864990234375,-0.4255523681640625,0.0065155029296875
1761914481421100300,10.407100341796875,-1.01202392578125,-0.4070892333984375,-0.01568603515625
1761914481431156500,10.417156494140626,-0.9999542236328125,-0.3914947509765625,-0.0318603515625
1761914481441212400,10.42721240234375,-0.9922027587890625,-0.372314453125,-0.0453033447265625
1761914481451267300,10.437267333984375,-0.967437744140625,-0.3586578369140625,-0.05291748046875
1761914481461323300,10.4473232421875,-0.937835693359375,-0.3535919189453125,-0.06072998046875
1761914481471379200,10.457379150390626,-0.913421630859375,-0.35577392578125,-0.0694580078125
1761914481481434400,10.467434326171874,-0.8968658447265625,-0.356536865234375,-0.0725860595703125
1761914481491490300,10.477490234375,-0.8777008056640625,-0.3582611083984375,-0.070465087890625
1761914481501546500,10.48754638671875,-0.855712890625,-0.3632965087890625,-0.064300537109375
1761914481511602400,10.4976025390625,-0.8410797119140625,-0.3720550537109375,-0.0600128173828125
1761914481521657300,10.5076572265625,-0.827362060546875,-0.3834381103515625,-0.05255126953125
1761914481531713300,10.51771337890625,-0.8141326904296875,-0.39306640625,-0.0453948974609375
1761914481541769200,10.527769287109376,-0.804168701171875,-0.402374267578125,-0.0370941162109375
1761914481551825400,10.537825439453124,-0.805572509765625,-0.4138031005859375,-0.022369384765625
1761914481561880300,10.54788037109375,-0.802764892578125,-0.4281158447265625,-0.0061798095703125
1761914481571936300,10.557936279296875,-0.7964630126953125,-0.438720703125,0.00274658203125
1761914481581992400,10.567992431640626,-0.79925537109375,-0.440704345703125,0.01348876953125
1761914481592047000,10.578047119140624,-0.8060150146484375,-0.438812255859375,0.0214385986328125
1761914481602103300,10.588103271484375,-0.8070068359375,-0.44036865234375,0.0249481201171875
1761914481612159200,10.5981591796875,-0.8055877685546875,-0.4394073486328125,0.0181884765625
1761914481622215200,10.608215087890626,-0.7930450439453125,-0.4337005615234375,0.001129150390625
1761914481632270300,10.618270263671874,-0.771636962890625,-0.4311676025390625,-0.01031494140625
1761914481642326300,10.628326171875,-0.7657470703125,-0.4340667724609375,-0.0084991455078125
1761914481652382500,10.638382568359376,-0.789947509765625,-0.43609619140625,0.0099334716796875
1761914481662438400,10.6484384765625,-0.8000946044921875,-0.4295501708984375,0.033599853515625
1761914481672493300,10.658493408203125,-0.8007354736328125,-0.4137420654296875,0.0550994873046875
1761914481682549200,10.66854931640625,-0.7878265380859375,-0.4144439697265625,0.0711669921875
1761914481692605200,10.678605224609376,-0.767974853515625,-0.4372711181640625,0.083770751953125
1761914481702660400,10.688660400390624,-0.7506561279296875,-0.452850341796875,0.0914306640625
1761914481712716300,10.69871630859375,-0.739898681640625,-0.447296142578125,0.0967254638671875
1761914481722772500,10.7087724609375,-0.7309112548828125,-0.4360198974609375,0.1045989990234375
1761914481732828400,10.718828369140626,-0.73211669921875,-0.4277801513671875,0.116607666015625
1761914481742883300,10.72888330078125,-0.70440673828125,-0.4054412841796875,0.1617584228515625
1761914481752939300,10.738939208984375,-0.8892364501953125,-0.458831787109375,0.1995849609375
1761914481762995200,10.7489951171875,-0.86474609375,-0.4956817626953125,0.2091827392578125
1761914481773051100,10.759051025390624,-0.8209228515625,-0.499053955078125,0.176971435546875
1761914481783106300,10.769106201171875,-0.8323211669921875,-0.46405029296875,0.148223876953125
1761914481793162200,10.779162353515625,-0.8198699951171875,-0.45068359375,0.1201629638671875
1761914481803218400,10.789218505859376,-0.7655029296875,-0.4150543212890625,0.0901947021484375
1761914481813273300,10.7992734375,-0.7269134521484375,-0.4093780517578125,0.06744384765625
