time,seconds_elapsed,z,y,x
1761914471146669000,0.1326689453125,-0.12063530087471008,-0.005100905429571867,0.012541013769805431
1761914471156725200,0.142725341796875,-0.11660300940275192,-0.03449661284685135,0.03090856969356537
1761914471166781000,0.152781005859375,-0.10405062139034271,-0.07225123792886734,0.059965986758470535
1761914471176836900,0.1628369140625,-0.08692116290330887,-0.10956718027591705,0.08534137904644012
1761914471186892000,0.17289208984375,-0.05742843821644783,-0.1506921947002411,0.10847073048353195
1761914471196948000,0.182947998046875,-0.027002090588212013,-0.20212183892726898,0.1195894256234169
1761914471207004200,0.193004150390625,0.003093031235039234,-0.2611159086227417,0.1339966058731079
1761914471217059000,0.20305908203125,0.036591336131095886,-0.2920759618282318,0.14609427750110626
1761914471227115300,0.213115234375,0.06969380378723145,-0.2928147315979004,0.15171316266059875
1761914471237171200,0.223171142578125,0.10006209462881088,-0.2761121690273285,0.14562171697616577
1761914471247227000,0.233226806640625,0.13648752868175507,-0.24836409091949463,0.1279451847076416
1761914471257282000,0.243281982421875,0.16790564358234406,-0.17657539248466492,0.11183333396911621
1761914471267338000,0.253337890625,0.19627639651298523,-0.08995421230792999,0.09972406178712845
1761914471277394200,0.263394287109375,0.2213529795408249,0.014930388890206814,0.0925348624587059
1761914471287449000,0.273448974609375,0.23955534398555756,0.10009264200925827,0.09356784075498581
1761914471297505000,0.283505126953125,0.25522086024284363,0.1753772646188736,0.10561198741197586
1761914471307561200,0.293561279296875,0.27389299869537354,0.22904132306575775,0.12944278120994568
1761914471317617200,0.3036171875,0.2876003086566925,0.2516385316848755,0.15424692630767822
1761914471327672000,0.313672119140625,0.308626651763916,0.25684335827827454,0.1776450276374817
1761914471337728000,0.32372802734375,0.3290802538394928,0.25577542185783386,0.19484026730060577
1761914471347784000,0.333783935546875,0.3530828356742859,0.2573905885219574,0.203642338514328
1761914471357840100,0.343840087890625,0.36330750584602356,0.2551857829093933,0.2028535157442093
1761914471367895000,0.35389501953125,0.3782525956630707,0.24071376025676727,0.19865894317626953
1761914471377951200,0.363951171875,0.39183926582336426,0.22280026972293854,0.1863522082567215
1761914471388007200,0.374007080078125,0.40810686349868774,0.20728862285614014,0.1655748188495636
1761914471398062000,0.38406201171875,0.431479811668396,0.20101848244667053,0.13420039415359497
1761914471408118000,0.394117919921875,0.4444456994533539,0.19253811240196228,0.08825372904539108
1761914471418174000,0.404174072265625,0.44605186581611633,0.1885918378829956,0.03397398442029953
1761914471428229000,0.41422900390625,0.4447505474090576,0.20435883104801178,-0.016856718808412552
1761914471438285000,0.42428515625,0.43487581610679626,0.23272494971752167,-0.05910404026508331
1761914471448341200,0.43434130859375,0.4279614984989166,0.268299400806427,-0.08920764923095703
1761914471458397200,0.444397216796875,0.42528051137924194,0.3060518503189087,-0.11415161192417145
1761914471468452000,0.4544521484375,0.422617644071579,0.32867833971977234,-0.13842886686325073
1761914471478508000,0.464508056640625,0.424484521150589,0.35050082206726074,-0.15916398167610168
1761914471488564000,0.47456396484375,0.4360824525356293,0.3747286796569824,-0.179413303732872
1761914471498620200,0.4846201171875,0.45915529131889343,0.3972265422344208,-0.19627803564071655
1761914471508675000,0.494675048828125,0.4833050072193146,0.42889899015426636,-0.20469556748867035
1761914471518731000,0.50473095703125,0.5162028074264526,0.4490852355957031,-0.20459090173244476
1761914471528787200,0.514787109375,0.5533092617988586,0.4548836946487427,-0.1935715675354004
1761914471538841900,0.524841796875,0.5977137088775635,0.4371393322944641,-0.1707802414894104
1761914471548898000,0.53489794921875,0.6423179507255554,0.41746678948402405,-0.1602030098438263
1761914471558954000,0.5449541015625,0.6805207133293152,0.3936309814453125,-0.15483486652374268
1761914471569010000,0.555010009765625,0.7081069946289062,0.3715057373046875,-0.1564813107252121
1761914471579065000,0.565065185546875,0.7396864891052246,0.3592562675476074,-0.16792598366737366
1761914471589121000,0.57512109375,0.7612952589988708,0.35095202922821045,-0.18421806395053864
1761914471599177200,0.58517724609375,0.7816237211227417,0.32461631298065186,-0.20745867490768433
1761914471609232000,0.59523193359375,0.795017659664154,0.27003559470176697,-0.2305644303560257
1761914471619288000,0.6052880859375,0.7999229431152344,0.1966697722673416,-0.2457127571105957
1761914471629344000,0.615343994140625,0.80826336145401,0.11864477396011353,-0.24316835403442383
1761914471639400000,0.62539990234375,0.8101720809936523,0.046963926404714584,-0.23686543107032776
1761914471649455000,0.635455078125,0.8163331747055054,-0.015304031781852245,-0.22336462140083313
1761914471659511000,0.645510986328125,0.816439688205719,-0.05134086310863495,-0.20664024353027344
1761914471669567200,0.655567138671875,0.8166599869728088,-0.07713301479816437,-0.18643146753311157
1761914471679622100,0.6656220703125,0.80671226978302,-0.09342943131923676,-0.16955769062042236
1761914471689678000,0.675677978515625,0.7965837717056274,-0.1020626351237297,-0.15670770406723022
1761914471699734000,0.685734130859375,0.7794809937477112,-0.0993877500295639,-0.14721646904945374
1761914471709790000,0.6957900390625,0.7690567374229431,-0.07977624237537384,-0.1326199471950531
1761914471719845000,0.70584521484375,0.7465988397598267,-0.05284209921956062,-0.11964716017246246
1761914471729901000,0.715901123046875,0.7219969630241394,-0.051409605890512466,-0.08819498121738434
1761914471739957000,0.72595703125,0.7027279138565063,-0.04003870487213135,-0.04854824021458626
1761914471750012200,0.73601220703125,0.6774643659591675,-0.022645635530352592,0.00480734184384346
1761914471760068000,0.746068115234375,0.6516380906105042,0.006385748274624348,0.06523153930902481
1761914471770124000,0.7561240234375,0.6309467554092407,0.047971662133932114,0.139247864484787
1761914471780180000,0.766179931640625,0.6279035806655884,0.10380083322525024,0.18841487169265747
1761914471790235100,0.776235107421875,0.6204189658164978,0.16802002489566803,0.2111961990594864
1761914471800291000,0.786291015625,0.6162689924240112,0.22997580468654633,0.20391298830509186
1761914471810347000,0.796346923828125,0.6081963181495667,0.2809491753578186,0.1739288866519928
1761914471820402200,0.806402099609375,0.5975591540336609,0.33712881803512573,0.1381189525127411
1761914471830458000,0.8164580078125,0.5881901979446411,0.40517154335975647,0.10277152061462402
1761914471840514000,0.82651416015625,0.572582483291626,0.4572552442550659,0.07444693893194199
1761914471850570000,0.836570068359375,0.557002067565918,0.483109712600708,0.06296628713607788
1761914471860625200,0.846625244140625,0.5448375344276428,0.507777214050293,0.06924841552972794
1761914471870679800,0.8566796875,0.5438039302825928,0.5351422429084778,0.10050389915704727
1761914471880736000,0.866736083984375,0.5564097166061401,0.5710802674293518,0.15610244870185852
1761914471890790700,0.876790771484375,0.5772185921669006,0.5970412492752075,0.2215273380279541
1761914471900846600,0.8868466796875,0.5965272784233093,0.6033241748809814,0.3033233880996704
1761914471910902800,0.89690283203125,0.6105599999427795,0.5858222246170044,0.4005400538444519
1761914471920958700,0.906958740234375,0.631588876247406,0.5570028424263,0.5092103481292725
1761914471931014000,0.917013916015625,0.6657499074935913,0.5257919430732727,0.6263642907142639
1761914471941069800,0.92706982421875,0.7122644186019897,0.4382312297821045,0.7246330380439758
1761914471951125800,0.937125732421875,0.7549002170562744,0.3610290586948395,0.7909322381019592
1761914471961181000,0.947180908203125,0.7979193329811096,0.3399277627468109,0.8272159695625305
1761914471971236600,0.957236572265625,0.8367432951927185,0.37156322598457336,0.8522011041641235
1761914471981292800,0.967292724609375,0.8801480531692505,0.40826717019081116,0.8415088057518005
1761914471991348700,0.9773486328125,0.9377499222755432,0.4833744466304779,0.7879201769828796
1761914472001404000,0.98740380859375,1.0068459510803223,0.5262359380722046,0.6859602928161621
1761914472011459800,0.9974599609375,1.074244737625122,0.5071226358413696,0.5532507300376892
1761914472021515800,1.007515869140625,1.1537880897521973,0.4647122919559479,0.42425471544265747
1761914472031571000,1.017571044921875,1.2370659112930298,0.4233965575695038,0.30025047063827515
1761914472041627000,1.027626953125,1.3159674406051636,0.38487234711647034,0.1885358989238739
1761914472051682800,1.037682861328125,1.3736493587493896,0.362087219953537,0.10130681097507477
1761914472061738800,1.04773876953125,1.3991302251815796,0.38446947932243347,0.05475395545363426
1761914472071794000,1.0577939453125,1.356123685836792,0.343807578086853,0.03660190850496292
1761914472081849900,1.067849853515625,1.2454009056091309,0.11183638870716095,0.013727221637964249
1761914472091905800,1.07790576171875,1.1608052253723145,-0.06538248807191849,0.027758415788412094
1761914472101961000,1.0879609375,1.0689514875411987,-0.17990054190158844,0.0810975432395935
1761914472112017000,1.098016845703125,0.9724138975143433,-0.27547362446784973,0.1423991620540619
1761914472122072600,1.108072509765625,0.8965558409690857,-0.31396058201789856,0.23249097168445587
1761914472132128800,1.118128662109375,0.918517529964447,-0.29782208800315857,0.37246403098106384
1761914472142183700,1.12818359375,0.9624050855636597,-0.22177846729755402,0.5330995321273804
1761914472152239900,1.138239990234375,1.0104389190673828,-0.11170230060815811,0.7082576155662537
1761914472162295800,1.1482958984375,1.0398874282836914,-0.0037880863528698683,0.8669335246086121
1761914472172351700,1.158351806640625,1.0579997301101685,0.06808449327945709,0.9747944474220276
1761914472182407000,1.168406982421875,1.072683334350586,0.11547118425369263,1.0502843856811523
1761914472192462800,1.178462890625,1.0638703107833862,0.16726255416870117,1.0689884424209595
1761914472202518800,1.188518798828125,1.0183156728744507,0.2399308979511261,1.0466173887252808
1761914472212573700,1.19857373046875,0.9594494700431824,0.3454165756702423,0.9838026762008667
1761914472222630000,1.2086298828125,0.892534613609314,0.4930424988269806,0.8821226954460144
1761914472232685800,1.218685791015625,0.8263729810714722,0.6712711453437805,0.7350513935089111
1761914472242741000,1.228740966796875,0.7500699758529663,0.8790009021759033,0.5549197196960449
1761914472252797000,1.238796875,0.6683311462402344,1.082166314125061,0.36160561442375183
1761914472262852900,1.248852783203125,0.6042810678482056,1.2502084970474243,0.1801319718360901
1761914472272908800,1.25890869140625,0.5558255910873413,1.3691253662109375,0.027970708906650543
1761914472282963700,1.268963623046875,0.5443287491798401,1.436705470085144,-0.10526137799024582
1761914472293019600,1.27901953125,0.568557620048523,1.4583581686019897,-0.2040267288684845
1761914472303075800,1.289075927734375,0.6197544932365417,1.4489611387252808,-0.27891695499420166
1761914472313131800,1.2991318359375,0.6775102615356445,1.4152485132217407,-0.33877483010292053
1761914472323187000,1.30918701171875,0.7285707592964172,1.405210018157959,-0.39548152685165405
1761914472333243000,1.319242919921875,0.7752695679664612,1.405098557472229,-0.451341450214386
1761914472343298800,1.329298828125,0.7992886304855347,1.3992643356323242,-0.4950207471847534
1761914472353353700,1.339353759765625,0.8008614778518677,1.3689519166946411,-0.5147128105163574
1761914472363409700,1.34940966796875,0.7785657644271851,1.3093581199645996,-0.5066929459571838
1761914472373465900,1.3594658203125,0.7273462414741516,1.2494999170303345,-0.46847450733184814
1761914472383521800,1.369521728515625,0.648855984210968,1.176693320274353,-0.4049381613731384
1761914472393577000,1.379576904296875,0.5512006282806396,1.0812628269195557,-0.33090195059776306
1761914472403633000,1.3896328125,0.4329126179218292,0.9619633555412292,-0.25835826992988586
1761914472413688800,1.399688720703125,0.31112536787986755,0.8274566531181335,-0.19619408249855042
1761914472423743700,1.40974365234375,0.19534417986869812,0.6919198632240295,-0.15034429728984833
1761914472433799700,1.419799560546875,0.10350848734378815,0.5528687834739685,-0.12224545329809189
1761914472443856000,1.42985595703125,0.038257844746112823,0.4137364327907562,-0.12115541845560074
1761914472453911800,1.439911865234375,0.002068125642836094,0.2968394458293915,-0.13532856106758118
1761914472463966700,1.449966796875,-0.016967616975307465,0.2150878608226776,-0.15951193869113922
1761914472474023000,1.46002294921875,-0.014633849263191223,0.1588405817747116,-0.19087767601013184
1761914472484078800,1.470078857421875,-0.004650191403925419,0.14312686026096344,-0.2208411693572998
1761914472494133800,1.4801337890625,0.011622997000813484,0.12856951355934143,-0.25197190046310425
1761914472504189700,1.490189697265625,0.019630854949355125,0.10620376467704773,-0.288605272769928
1761914472514245600,1.50024560546875,0.010157400742173195,0.08134172111749649,-0.3323351740837097
1761914472524301800,1.5103017578125,-0.0021426749881356955,0.04266756400465965,-0.37996232509613037
1761914472534356700,1.520356689453125,-0.012987176887691021,-0.021341949701309204,-0.4167732298374176
1761914472544413000,1.530412841796875,-0.019842153415083885,-0.08187533915042877,-0.4513472020626068
1761914472554468900,1.54046875,-0.016061222180724144,-0.1277633011341095,-0.48916497826576233
1761914472564523800,1.550523681640625,0.016421087086200714,-0.1812816560268402,-0.5423547625541687
1761914472574579700,1.560579833984375,0.07321720570325851,-0.233232319355011,-0.5879551768302917
1761914472584635600,1.5706357421875,0.1402425616979599,-0.2738977074623108,-0.6135910153388977
1761914472594691800,1.58069189453125,0.19941937923431396,-0.3196360170841217,-0.6067768931388855
1761914472604746800,1.590746826171875,0.23259703814983368,-0.365084707736969,-0.5753151178359985
1761914472614803000,1.600802978515625,0.222631573677063,-0.3828808069229126,-0.549219012260437
1761914472624859000,1.61085888671875,0.18290333449840546,-0.37645620107650757,-0.5434601902961731
1761914472634914000,1.6209140625,0.12848255038261414,-0.34019216895103455,-0.5697954893112183
1761914472644969700,1.6309697265625,0.07235643267631531,-0.2910752296447754,-0.6163832545280457
1761914472655025700,1.641025634765625,0.028515834361314774,-0.240792915225029,-0.6688708662986755
1761914472665080800,1.651080810546875,0.0005417232168838382,-0.2170897126197815,-0.7274460196495056
1761914472675136800,1.66113671875,-0.004637546371668577,-0.24054650962352753,-0.7615110874176025
1761914472685192700,1.671192626953125,-0.005684168543666601,-0.2834013104438782,-0.7628802061080933
1761914472695249000,1.681248779296875,-0.012879723682999611,-0.3478204607963562,-0.7345717549324036
1761914472705303800,1.6913037109375,-0.025305500254034996,-0.4556369483470917,-0.6912897825241089
1761914472715360000,1.701360107421875,-0.05093781277537346,-0.6098325848579407,-0.617927610874176
1761914472725415700,1.711415771484375,-0.08585264533758163,-0.8043243288993835,-0.5109676122665405
1761914472735470800,1.721470947265625,-0.1256745308637619,-1.012594223022461,-0.38084888458251953
1761914472745526800,1.73152685546875,-0.16137313842773438,-1.2011420726776123,-0.23012623190879822
1761914472755582700,1.741582763671875,-0.19979208707809448,-1.3396724462509155,-0.05452609062194824
1761914472765639000,1.751638916015625,-0.2320384383201599,-1.384297251701355,0.12383672595024109
1761914472775693800,1.76169384765625,-0.2581467926502228,-1.2792972326278687,0.2927776277065277
1761914472785750000,1.77175,-0.27155473828315735,-1.0232678651809692,0.4335901439189911
1761914472795806000,1.781805908203125,-0.25428199768066406,-0.648806631565094,0.5294376611709595
1761914472805860900,1.79186083984375,-0.2059253603219986,-0.22811666131019592,0.5549443960189819
1761914472815916800,1.801916748046875,-0.1209869310259819,0.16813497245311737,0.5176112651824951
1761914472825972700,1.81197265625,-0.019076544791460037,0.5161563158035278,0.434044748544693
1761914472836029000,1.82202880859375,0.09090039879083633,0.8106338381767273,0.3338610529899597
1761914472846083800,1.832083740234375,0.1986609399318695,1.0583288669586182,0.2385140359401703
1761914472856139800,1.842139892578125,0.29675576090812683,1.2558749914169312,0.16948355734348297
1761914472866196000,1.852196044921875,0.38985908031463623,1.4027179479599,0.12453685700893402
1761914472876251100,1.862251220703125,0.47270166873931885,1.4891910552978516,0.10822363942861557
1761914472886307000,1.87230712890625,0.5421993136405945,1.5053150653839111,0.11765788495540619
1761914472896363000,1.882363037109375,0.5941029191017151,1.4789679050445557,0.1356109082698822
1761914472906419000,1.8924189453125,0.6337656378746033,1.409609079360962,0.16381695866584778
1761914472916474000,1.90247412109375,0.6678288578987122,1.311418890953064,0.19587865471839905
1761914472926530000,1.912530029296875,0.7003034353256226,1.2131011486053467,0.2385891079902649
1761914472936586200,1.922586181640625,0.7482627034187317,1.1294804811477661,0.2876567840576172
1761914472946641200,1.93264111328125,0.800609290599823,1.0363476276397705,0.3265828788280487
1761914472956697000,1.942697021484375,0.8422844409942627,0.9373711943626404,0.3401116728782654
1761914472966753000,1.9527529296875,0.8606152534484863,0.8535753488540649,0.3451743423938751
1761914472976809000,1.96280908203125,0.8476172685623169,0.7988404631614685,0.3348641097545624
1761914472986864000,1.972864013671875,0.7923638820648193,0.7533374428749084,0.2748447060585022
1761914472996920000,1.982920166015625,0.6821313500404358,0.6348960995674133,0.14066115021705627
1761914473006976000,1.99297607421875,0.5134267210960388,0.4041648805141449,-0.05254373699426651
1761914473017031200,2.00303125,0.3062170743942261,0.07952463626861572,-0.24993950128555298
1761914473027087000,2.013087158203125,0.10692578554153442,-0.2916283905506134,-0.41042080521583557
1761914473037143000,2.02314306640625,-0.03773607313632965,-0.5972111225128174,-0.4773329794406891
1761914473047199000,2.033198974609375,-0.11732703447341919,-0.792701005935669,-0.4578455686569214
1761914473057254100,2.043254150390625,-0.1349419504404068,-0.8776118755340576,-0.3707461953163147
1761914473067310000,2.05331005859375,-0.08775153011083603,-0.8402022123336792,-0.23113398253917694
1761914473077366000,2.063365966796875,0.006881074979901314,-0.6721920371055603,-0.07036204636096954
1761914473087421200,2.073421142578125,0.12765170633792877,-0.40399277210235596,0.07686281949281693
1761914473097477000,2.08347705078125,0.2658161222934723,-0.08146605640649796,0.17452436685562134
1761914473107533300,2.093533203125,0.40440303087234497,0.2560456693172455,0.20987144112586975
1761914473117589000,2.103589111328125,0.5409212112426758,0.6039876341819763,0.17880642414093018
1761914473127644200,2.11364404296875,0.6705146431922913,0.9425976276397705,0.1097535789012909
1761914473137700000,2.1237001953125,0.7956142425537109,1.258874773979187,0.017070841044187546
1761914473147756000,2.133756103515625,0.91792231798172,1.5138005018234253,-0.09285885095596313
1761914473157811200,2.143811279296875,1.0331361293792725,1.671983242034912,-0.20362454652786255
1761914473167867100,2.1538671875,1.142640233039856,1.7359014749526978,-0.2896028459072113
1761914473177923300,2.16392333984375,1.2357611656188965,1.723694920539856,-0.33797281980514526
1761914473187979300,2.173979248046875,1.3102617263793945,1.6344733238220215,-0.3615383207798004
1761914473198034200,2.1840341796875,1.3435215950012207,1.454498529434204,-0.3629472553730011
1761914473208090000,2.194090087890625,1.3346023559570312,1.2088834047317505,-0.372821182012558
1761914473218146000,2.20414599609375,1.2869101762771606,0.9329136610031128,-0.3939555287361145
1761914473228201200,2.214201171875,1.225946068763733,0.6660478711128235,-0.4224790632724762
1761914473238257200,2.224257080078125,1.1801875829696655,0.44275274872779846,-0.4507352113723755
1761914473248313000,2.23431298828125,1.1617803573608398,0.26752445101737976,-0.47055283188819885
1761914473258369300,2.244369384765625,1.191460371017456,0.14387467503547668,-0.4627756178379059
1761914473268424000,2.254423828125,1.2531849145889282,0.06901668757200241,-0.44285356998443604
1761914473278480100,2.264480224609375,1.338523030281067,0.02323356457054615,-0.421768456697464
1761914473288536000,2.2745361328125,1.426535725593567,-0.01094651035964489,-0.4176118075847626
1761914473298591200,2.28459130859375,1.5091389417648315,-0.030858835205435753,-0.425499826669693
1761914473308647200,2.294647216796875,1.5785834789276123,-0.05210446938872337,-0.45626574754714966
1761914473318703000,2.304703125,1.6219637393951416,-0.08039388805627823,-0.49596256017684937
1761914473328759300,2.31475927734375,1.6294251680374146,-0.13011910021305084,-0.5386402010917664
1761914473338814000,2.32481396484375,1.6038936376571655,-0.18534955382347107,-0.5707312822341919
1761914473348870100,2.3348701171875,1.551705241203308,-0.22384048998355865,-0.5826787948608398
1761914473358926000,2.344926025390625,1.4955826997756958,-0.19423656165599823,-0.5660116672515869
1761914473368981200,2.354981201171875,1.4581849575042725,-0.07980932295322418,-0.5085065364837646
1761914473379037200,2.365037109375,1.4549275636672974,0.12405891716480255,-0.41226211190223694
1761914473389093000,2.375093017578125,1.4849141836166382,0.38399994373321533,-0.307692289352417
1761914473399149000,2.385149169921875,1.5538201332092285,0.674370527267456,-0.2142169326543808
1761914473409204000,2.395203857421875,1.6497706174850464,0.9582136869430542,-0.15690384805202484
1761914473419260000,2.405260009765625,1.7645695209503174,1.2178993225097656,-0.12773126363754272
1761914473429316000,2.415316162109375,1.8782804012298584,1.4453068971633911,-0.12045151740312576
1761914473439371000,2.42537109375,1.9770736694335938,1.6123319864273071,-0.13054198026657104
1761914473449427200,2.43542724609375,2.05256724357605,1.7175925970077515,-0.16484615206718445
1761914473459483100,2.445483154296875,2.1114695072174072,1.7603322267532349,-0.19311809539794922
1761914473469539000,2.4555390625,2.152569055557251,1.745904803276062,-0.2190583497285843
1761914473479594000,2.465593994140625,2.1753804683685303,1.6662707328796387,-0.22183027863502502
1761914473489650000,2.47564990234375,2.174159288406372,1.5341461896896362,-0.19819499552249908
1761914473499706000,2.4857060546875,2.1503491401672363,1.3426356315612793,-0.1539914608001709
1761914473509761000,2.495760986328125,2.098454475402832,1.0999248027801514,-0.08351650834083557
1761914473519817200,2.505817138671875,2.024961471557617,0.851813018321991,0.007540026679635048
1761914473529873200,2.515873046875,1.928583025932312,0.5972435474395752,0.10382342338562012
1761914473539928300,2.52592822265625,1.8069578409194946,0.3515876829624176,0.1944187432527542
1761914473549984300,2.535984375,1.6670441627502441,0.13536427915096283,0.2591492831707001
1761914473560040000,2.5460400390625,1.528139352798462,-0.020307021215558052,0.2957567572593689
1761914473570096000,2.55609619140625,1.414697527885437,-0.11666897684335709,0.31432777643203735
1761914473580151000,2.566151123046875,1.3326432704925537,-0.16072410345077515,0.32842475175857544
1761914473590207000,2.57620703125,1.2758654356002808,-0.152815580368042,0.3405357599258423
1761914473600263200,2.58626318359375,1.2340655326843262,-0.10116124153137207,0.356052041053772
1761914473610318000,2.596318115234375,1.2028173208236694,-0.009519737213850021,0.36088407039642334
1761914473620374300,2.606374267578125,1.1674485206604004,0.11635752767324448,0.3601473569869995
1761914473630430200,2.61643017578125,1.1342809200286865,0.2580573856830597,0.3463923931121826
1761914473640486000,2.62648583984375,1.1057806015014648,0.40352731943130493,0.31906551122665405
1761914473650541000,2.636541015625,1.079362392425537,0.5208486318588257,0.29052066802978516
1761914473660597000,2.646596923828125,1.052835464477539,0.5941103100776672,0.2651045024394989
1761914473670653200,2.656653076171875,1.0268981456756592,0.6218463182449341,0.25506916642189026
1761914473680708000,2.6667080078125,0.9975622892379761,0.6239169239997864,0.2580738961696625
1761914473690764300,2.676764404296875,0.967070996761322,0.601311206817627,0.2745783030986786
1761914473700820200,2.6868203125,0.9186254143714905,0.5647119283676147,0.3098748028278351
1761914473710876000,2.6968759765625,0.861577033996582,0.5265461802482605,0.35622283816337585
1761914473720931000,2.70693115234375,0.7963511347770691,0.4862448275089264,0.39889734983444214
1761914473730987000,2.716987060546875,0.7288568019866943,0.4313858449459076,0.4353344440460205
1761914473741043200,2.727043212890625,0.6626928448677063,0.37716490030288696,0.4649476706981659
1761914473751098000,2.73709814453125,0.6126278042793274,0.3405328691005707,0.5028484463691711
1761914473761154000,2.747154052734375,0.5657530426979065,0.3130562901496887,0.5312293171882629
1761914473771210200,2.757210205078125,0.5187464356422424,0.2912388741970062,0.5498844981193542
1761914473781266200,2.76726611328125,0.47021543979644775,0.2717261016368866,0.53841632604599
1761914473791321000,2.777321044921875,0.42623573541641235,0.25392019748687744,0.4974195957183838
1761914473801377000,2.787376953125,0.3942486345767975,0.2560429573059082,0.44931912422180176
1761914473811433000,2.797432861328125,0.37036511301994324,0.25785788893699646,0.42027947306632996
1761914473821488000,2.807488037109375,0.3536596894264221,0.2297075390815735,0.4311191439628601
1761914473831544000,2.8175439453125,0.34179452061653137,0.1455191671848297,0.4720335602760315
1761914473841600300,2.827600341796875,0.3338373005390167,0.03637827932834625,0.5319784879684448
1761914473851656200,2.83765625,0.35352203249931335,-0.07003951072692871,0.5928298234939575
1761914473861711000,2.847711181640625,0.38676947355270386,-0.16487333178520203,0.6329703330993652
1761914473871771100,2.857771240234375,0.41880011558532715,-0.26723355054855347,0.6388423442840576
1761914473881827000,2.8678271484375,0.4214978814125061,-0.34275588393211365,0.6275328397750854
1761914473891882200,2.87788232421875,0.4099368453025818,-0.3712972402572632,0.6194730997085571
1761914473901938000,2.88793798828125,0.39908769726753235,-0.38604921102523804,0.6005775332450867
1761914473911993900,2.897993896484375,0.37819015979766846,-0.40802720189094543,0.5523080229759216
1761914473922050000,2.908050048828125,0.3307170867919922,-0.4101499319076538,0.4662875235080719
1761914473932105000,2.91810498046875,0.26719990372657776,-0.3876528739929199,0.3315368890762329
1761914473942161200,2.9281611328125,0.19601552188396454,-0.3377729654312134,0.17084026336669922
1761914473952217000,2.938217041015625,0.14145055413246155,-0.240731343626976,0.01759772002696991
1761914473962272300,2.948272216796875,0.12015340477228165,-0.11682156473398209,-0.10497761517763138
1761914473972328000,2.958327880859375,0.14920078217983246,-0.0025538483168929815,-0.16790170967578888
1761914473982383900,2.9683837890625,0.21577505767345428,0.0798509493470192,-0.1624029129743576
1761914473992440000,2.978440185546875,0.31842100620269775,0.13366465270519257,-0.0886669009923935
1761914474002495000,2.988494873046875,0.44631874561309814,0.17670483887195587,0.030545972287654877
1761914474012551200,2.99855126953125,0.5730620622634888,0.22640715539455414,0.16474692523479462
1761914474022607000,3.008607177734375,0.6883421540260315,0.2911909520626068,0.3013552129268646
1761914474032662300,3.018662353515625,0.7868524789810181,0.3764898478984833,0.41380906105041504
1761914474042718200,3.02871826171875,0.8593662977218628,0.4569074213504791,0.4987136423587799
1761914474052774000,3.03877392578125,0.9063359498977661,0.5085753798484802,0.5645219087600708
1761914474062830000,3.048830078125,0.9274690747261047,0.5259589552879333,0.6340004205703735
1761914474072885000,3.058885009765625,0.931854248046875,0.5184525847434998,0.7147202491760254
1761914474082941000,3.06894091796875,0.931905210018158,0.48978206515312195,0.808650016784668
1761914474092997000,3.0789970703125,0.9375742673873901,0.45755675435066223,0.8969958424568176
1761914474103052000,3.089052001953125,0.9495046734809875,0.41193196177482605,0.9835301637649536
1761914474113108200,3.099108154296875,0.9469472169876099,0.36903297901153564,1.0431759357452393
1761914474123164200,3.1091640625,0.9290823936462402,0.331758588552475,1.0718647241592407
1761914474133219800,3.1192197265625,0.8884143233299255,0.30000144243240356,1.06637704372406
1761914474143275000,3.12927490234375,0.830595850944519,0.281027227640152,1.0191231966018677
1761914474153331000,3.1393310546875,0.7579221725463867,0.26665812730789185,0.9303216338157654
1761914474163387100,3.14938720703125,0.6716483235359192,0.2743261158466339,0.8071565628051758
1761914474173442000,3.159442138671875,0.5678033828735352,0.3022506833076477,0.6568810343742371
1761914474183498200,3.169498291015625,0.4552780091762543,0.34623050689697266,0.48789268732070923
1761914474193554200,3.17955419921875,0.33249616622924805,0.38700857758522034,0.3114776909351349
1761914474203609900,3.18960986328125,0.22304153442382812,0.4205547869205475,0.15622349083423615
1761914474213665000,3.1996650390625,0.1360509842634201,0.443118691444397,0.02499569207429886
1761914474223721000,3.209720947265625,0.09063039720058441,0.4426470100879669,-0.08317328989505768
1761914474233777200,3.219777099609375,0.0901920348405838,0.4219220280647278,-0.1753024309873581
1761914474243832000,3.22983203125,0.12426020205020905,0.3881036341190338,-0.2622215747833252
1761914474253888300,3.23988818359375,0.19670458137989044,0.35622188448905945,-0.3493836224079132
1761914474263944200,3.249944091796875,0.28521549701690674,0.36679404973983765,-0.42871421575546265
1761914474274000100,3.260000244140625,0.3762620687484741,0.46194347739219666,-0.47485587000846863
1761914474284055000,3.270054931640625,0.4636651575565338,0.6125806570053101,-0.49241408705711365
1761914474294111000,3.280111083984375,0.5170887112617493,0.748056173324585,-0.49029475450515747
1761914474304167000,3.2901669921875,0.528643012046814,0.8395712375640869,-0.4878431260585785
1761914474314222000,3.30022216796875,0.49470794200897217,0.8795593976974487,-0.5009791254997253
1761914474324278000,3.310278076171875,0.4402787387371063,0.8656318187713623,-0.5169683694839478
1761914474334334200,3.320334228515625,0.36189472675323486,0.8169947862625122,-0.5433112978935242
1761914474344390100,3.33039013671875,0.28558987379074097,0.7514826655387878,-0.5561403632164001
1761914474354445000,3.340445068359375,0.22573265433311462,0.678684651851654,-0.541196346282959
1761914474364501000,3.3505009765625,0.18534855544567108,0.5993309020996094,-0.5156646370887756
1761914474374557000,3.360556884765625,0.15391579270362854,0.5037263631820679,-0.4795668423175812
1761914474384612000,3.370612060546875,0.13718679547309875,0.39295291900634766,-0.444819837808609
1761914474394668000,3.38066796875,0.12652084231376648,0.2709687054157257,-0.42073580622673035
1761914474404724200,3.39072412109375,0.11885099112987518,0.14701130986213684,-0.4071206748485565
1761914474414780200,3.4007802734375,0.10209331661462784,0.0310351625084877,-0.38580313324928284
1761914474424835000,3.4108349609375,0.08960060775279999,-0.053282517939805984,-0.34853845834732056
1761914474434891000,3.42089111328125,0.0759311318397522,-0.12145597487688065,-0.2961077392101288
1761914474444947000,3.430947021484375,0.05414924770593643,-0.19433610141277313,-0.25597262382507324
1761914474455002000,3.441002197265625,0.022886136546730995,-0.2779417932033539,-0.23919764161109924
1761914474465058000,3.45105810546875,-0.012874343432486057,-0.3801535964012146,-0.2667161822319031
1761914474475114000,3.461114013671875,-0.07432731986045837,-0.48055556416511536,-0.34533748030662537
1761914474485170200,3.471170166015625,-0.15471680462360382,-0.5365188121795654,-0.4648922085762024
1761914474495224800,3.481224853515625,-0.25027981400489807,-0.5223361253738403,-0.6085601449012756
1761914474505281000,3.491281005859375,-0.3431207537651062,-0.46247944235801697,-0.7619447708129883
1761914474515337000,3.5013369140625,-0.4250667691230774,-0.3790322244167328,-0.9072513580322266
1761914474525392100,3.51139208984375,-0.48988887667655945,-0.2915591299533844,-1.020588994026184
1761914474535448000,3.521447998046875,-0.5297060608863831,-0.20998837053775787,-1.0872048139572144
1761914474545504000,3.53150390625,-0.5400515794754028,-0.10873670130968094,-1.0783435106277466
1761914474555560200,3.541560302734375,-0.5121747255325317,0.007476196624338627,-0.9881651401519775
1761914474565615000,3.551614990234375,-0.44456470012664795,0.14577199518680573,-0.831736147403717
1761914474575671000,3.561671142578125,-0.3433246314525604,0.2873629331588745,-0.6360329389572144
1761914474585727000,3.57172705078125,-0.22696204483509064,0.40807491540908813,-0.45431262254714966
1761914474595782100,3.5817822265625,-0.10956324636936188,0.5117020010948181,-0.3011965751647949
1761914474605838000,3.591838134765625,-0.008447876200079918,0.5988020300865173,-0.19826294481754303
1761914474615894000,3.60189404296875,0.07877544313669205,0.6685177683830261,-0.1403983235359192
1761914474625950200,3.6119501953125,0.1457505077123642,0.7184093594551086,-0.11509498953819275
1761914474636005000,3.622005126953125,0.19320671260356903,0.7128473520278931,-0.108053058385849
1761914474646061000,3.63206103515625,0.21834568679332733,0.6334447264671326,-0.11072632670402527
1761914474656117000,3.642116943359375,0.22509680688381195,0.5046699643135071,-0.11152767390012741
1761914474666172000,3.652171875,0.22153852880001068,0.35592201352119446,-0.1012466549873352
1761914474676228000,3.66222802734375,0.21798214316368103,0.20935280621051788,-0.06874144077301025
1761914474686284000,3.672283935546875,0.20416778326034546,0.07385310530662537,-0.014247906394302845
1761914474696340000,3.682340087890625,0.1935092806816101,-0.027018120512366295,0.057741593569517136
1761914474706395100,3.69239501953125,0.1793670654296875,-0.11116929352283478,0.1362496316432953
1761914474716451000,3.702451171875,0.16468878090381622,-0.1944146454334259,0.21622756123542786
1761914474726507000,3.712507080078125,0.15352599322795868,-0.2813631594181061,0.29587629437446594
1761914474736562000,3.72256201171875,0.1318577229976654,-0.36287346482276917,0.3548429310321808
1761914474746618000,3.7326181640625,0.1148502454161644,-0.4005465507507324,0.37958237528800964
1761914474756674000,3.742674072265625,0.09871388971805573,-0.37405073642730713,0.3707289695739746
1761914474766730000,3.75272998046875,0.08497478067874908,-0.27051421999931335,0.33785197138786316
1761914474776785200,3.76278515625,0.0759996548295021,-0.13612790405750275,0.2703770697116852
1761914474786841000,3.772841064453125,0.05269428715109825,-0.023319393396377563,0.15352533757686615
1761914474796897300,3.782897216796875,-0.00020381712238304317,0.05415356159210205,0.007077583111822605
1761914474806952000,3.792951904296875,-0.07387097179889679,0.09767096489667892,-0.15989725291728973
1761914474817008000,3.803008056640625,-0.16153159737586975,0.08005894720554352,-0.3166602551937103
1761914474827064000,3.81306396484375,-0.27175965905189514,0.004329086747020483,-0.4585113227367401
1761914474837120000,3.8231201171875,-0.3803497850894928,-0.09510829299688339,-0.5697795152664185
1761914474847175200,3.833175048828125,-0.46945667266845703,-0.21536466479301453,-0.6420503854751587
1761914474857231000,3.843231201171875,-0.5256426930427551,-0.32858097553253174,-0.648967444896698
1761914474867287000,3.853287109375,-0.5552669763565063,-0.40283554792404175,-0.5965090990066528
1761914474877338600,3.863338623046875,-0.5426720976829529,-0.4358678162097931,-0.49909546971321106
1761914474887394600,3.87339453125,-0.46553248167037964,-0.405670702457428,-0.3585445284843445
1761914474897450800,3.88345068359375,-0.36301887035369873,-0.3033009171485901,-0.1787944734096527
1761914474907506700,3.893506591796875,-0.2641284167766571,-0.1308506429195404,0.01604977250099182
1761914474917561900,3.903561767578125,-0.16991056501865387,0.10574857145547867,0.22085031867027283
1761914474927617800,3.91361767578125,-0.09879858791828156,0.389549195766449,0.4181894361972809
1761914474937673500,3.923673583984375,-0.044582486152648926,0.6514636278152466,0.5879486203193665
1761914474947728600,3.933728759765625,0.004353715572506189,0.876251220703125,0.7387514710426331
1761914474957784600,3.94378466796875,0.04369765892624855,1.0528132915496826,0.856503963470459
1761914474967840800,3.9538408203125,0.08976500481367111,1.1889091730117798,0.9450929164886475
1761914474977896700,3.963896728515625,0.14817558228969574,1.3001012802124023,0.9988703727722168
1761914474987951900,3.973951904296875,0.21810416877269745,1.3786765336990356,1.0042959451675415
1761914474998007800,3.9840078125,0.28473591804504395,1.424914002418518,0.9549317955970764
1761914475008063700,3.994063720703125,0.34084680676460266,1.397458791732788,0.8475534319877625
1761914475018118700,4.00411865234375,0.3657175302505493,1.2976360321044922,0.6902703046798706
1761914475028173600,4.014173583984375,0.36581653356552124,1.148986577987671,0.5212597846984863
1761914475038229800,4.024229736328125,0.31570836901664734,0.9866214394569397,0.36936452984809875
1761914475048285700,4.03428564453125,0.24653102457523346,0.8130926489830017,0.24229738116264343
1761914475058340900,4.0443408203125,0.16666974127292633,0.601624608039856,0.1455647200345993
1761914475068396500,4.054396484375,0.0693599209189415,0.33489692211151123,0.06279000639915466
1761914475078452500,4.064452392578125,-0.041678715497255325,0.047496575862169266,-0.002442796714603901
1761914475088508700,4.0745087890625,-0.1525190770626068,-0.20619021356105804,-0.05971965193748474
1761914475098563600,4.0845634765625,-0.24922190606594086,-0.3920056223869324,-0.1117897778749466
1761914475108619800,4.094619873046875,-0.3261733055114746,-0.5088133811950684,-0.16967758536338806
1761914475118675700,4.10467578125,-0.3780128061771393,-0.5532740354537964,-0.22922292351722717
1761914475128731000,4.11473095703125,-0.4052634537220001,-0.5285587906837463,-0.29915544390678406
1761914475138786800,4.124786865234375,-0.3960702121257782,-0.44246596097946167,-0.3625762462615967
1761914475148842500,4.134842529296875,-0.33664757013320923,-0.32627812027931213,-0.41199150681495667
1761914475158898700,4.144898681640625,-0.23211772739887238,-0.18473003804683685,-0.433376669883728
1761914475168953600,4.15495361328125,-0.09441586583852768,-0.036513641476631165,-0.43751078844070435
1761914475179009800,4.165009765625,0.05537549406290054,0.0873209536075592,-0.44029244780540466
1761914475189065700,4.175065673828125,0.19609293341636658,0.19501882791519165,-0.45420050621032715
1761914475199120600,4.18512060546875,0.3116496205329895,0.27967727184295654,-0.47728559374809265
1761914475209176800,4.1951767578125,0.3896942436695099,0.35380086302757263,-0.5012535452842712
1761914475219232800,4.205232666015625,0.4293700158596039,0.41966986656188965,-0.5190335512161255
1761914475229288700,4.215288818359375,0.4365609288215637,0.4817192256450653,-0.5370994806289673
1761914475239343600,4.225343505859375,0.432399719953537,0.5599631667137146,-0.5511305928230286
1761914475249399600,4.235399658203125,0.4067577123641968,0.6390136480331421,-0.5669630765914917
1761914475259455700,4.245455810546875,0.37897878885269165,0.699843168258667,-0.582573413848877
1761914475269511700,4.25551171875,0.3523321747779846,0.7440276741981506,-0.6031236052513123
1761914475279566800,4.26556689453125,0.33651140332221985,0.7482160329818726,-0.6227596402168274
1761914475289622800,4.275622802734375,0.3299298584461212,0.699113130569458,-0.628783106803894
1761914475299678700,4.2856787109375,0.33213576674461365,0.6152632832527161,-0.6237409114837646
1761914475309733600,4.295733642578125,0.33556926250457764,0.48935332894325256,-0.6092782616615295
1761914475319789600,4.30578955078125,0.3321801424026489,0.344110906124115,-0.575754702091217
1761914475329845800,4.315845703125,0.32857874035835266,0.17687398195266724,-0.5149463415145874
1761914475339901700,4.325901611328125,0.3285110890865326,0.006696389522403479,-0.4433659017086029
1761914475349956900,4.335956787109375,0.33129751682281494,-0.19083525240421295,-0.3742683529853821
1761914475360012800,4.3460126953125,0.3474450707435608,-0.41187068819999695,-0.3224563002586365
1761914475370068700,4.35606884765625,0.37026625871658325,-0.6350089907646179,-0.27044105529785156
1761914475380123600,4.36612353515625,0.3988443911075592,-0.8055927157402039,-0.1904708743095398
1761914475390179600,4.3761796875,0.4299832284450531,-0.9020572900772095,-0.057035159319639206
1761914475400235800,4.38623583984375,0.4636618196964264,-0.9276007413864136,0.12090341746807098
1761914475410291700,4.396291748046875,0.48208945989608765,-0.8972745537757874,0.31713640689849854
1761914475420346600,4.4063466796875,0.4911268949508667,-0.803233802318573,0.4960632622241974
1761914475430402800,4.41640283203125,0.5037525296211243,-0.6698544025421143,0.6354782581329346
1761914475440458800,4.426458740234375,0.5011911392211914,-0.5078105926513672,0.7043963074684143
1761914475450514700,4.4365146484375,0.4914604723453522,-0.31279581785202026,0.7022210955619812
1761914475460569600,4.446569580078125,0.4663676619529724,-0.09312792867422104,0.661297619342804
1761914475470625500,4.45662548828125,0.41978341341018677,0.13191819190979004,0.6065830588340759
1761914475480681700,4.466681640625,0.3520408570766449,0.335933119058609,0.5457080006599426
1761914475490736600,4.476736572265625,0.2780907154083252,0.488945871591568,0.49294814467430115
1761914475500792800,4.486792724609375,0.1943630576133728,0.5744215846061707,0.44396382570266724
1761914475510848800,4.496848876953125,0.10158702731132507,0.6052559614181519,0.3939253091812134
1761914475520904700,4.50690478515625,-0.001598477247171104,0.6043300032615662,0.3441508412361145
1761914475530959600,4.516959716796875,-0.11233680695295334,0.5701277852058411,0.3052150011062622
1761914475541015600,4.527015625,-0.23798368871212006,0.5115537047386169,0.2815357744693756
1761914475551071700,4.53707177734375,-0.3620813190937042,0.41233816742897034,0.2775726914405823
1761914475561126700,4.547126708984375,-0.4724544584751129,0.2890111804008484,0.29059502482414246
1761914475571182800,4.557182861328125,-0.5369431376457214,0.19393466413021088,0.31989786028862
1761914475581238800,4.56723876953125,-0.5527369976043701,0.12263625115156174,0.3226590156555176
1761914475591294700,4.577294677734375,-0.5590733885765076,0.09796742349863052,0.2814539670944214
1761914475601352700,4.587352783203125,-0.5711454749107361,0.14543506503105164,0.19277575612068176
1761914475611408600,4.59740869140625,-0.5716869831085205,0.26652657985687256,0.07850389182567596
1761914475621464800,4.60746484375,-0.5492487549781799,0.4423505961894989,-0.051839470863342285
1761914475631519700,4.617519775390625,-0.5054877400398254,0.6177604794502258,-0.20685338973999023
1761914475641575700,4.62757568359375,-0.4404037594795227,0.7453680038452148,-0.3990660011768341
1761914475651631600,4.637631591796875,-0.35637322068214417,0.7802596688270569,-0.6283712387084961
1761914475661687600,4.6476875,-0.25924721360206604,0.7537556290626526,-0.8571828603744507
1761914475671742700,4.65774267578125,-0.15608687698841095,0.7124031782150269,-1.0526468753814697
1761914475681798700,4.667798583984375,-0.06005115061998367,0.6788218021392822,-1.178162693977356
1761914475691854600,4.6778544921875,0.022808033972978592,0.6227949261665344,-1.2434042692184448
1761914475701909800,4.68790966796875,0.10363097488880157,0.5502173900604248,-1.2466171979904175
1761914475711965700,4.697965576171875,0.1847415715456009,0.467675119638443,-1.1783424615859985
1761914475722021600,4.708021728515625,0.25180289149284363,0.40676090121269226,-1.0229544639587402
1761914475732077600,4.71807763671875,0.3127063512802124,0.42483046650886536,-0.7779361009597778
1761914475742132700,4.7281328125,0.38169845938682556,0.5249615907669067,-0.47305554151535034
1761914475752188700,4.738188720703125,0.48014867305755615,0.6897279024124146,-0.167938232421875
1761914475762244600,4.74824462890625,0.6050474643707275,0.8379921913146973,0.0680932030081749
1761914475772300800,4.75830078125,0.7400044798851013,0.9309344291687012,0.21313723921775818
1761914475782355700,4.768355712890625,0.8772336840629578,0.9659843444824219,0.29239824414253235
1761914475792412000,4.778411865234375,0.9977502226829529,0.9747461080551147,0.32668766379356384
1761914475802467600,4.788467529296875,1.0833810567855835,0.946252167224884,0.3361496031284332
1761914475812522800,4.798522705078125,1.0860100984573364,0.8702342510223389,0.3307996988296509
1761914475822578700,4.80857861328125,1.0002580881118774,0.7223286628723145,0.3202783465385437
1761914475832634600,4.818634521484375,0.8329833745956421,0.522610604763031,0.3281063139438629
1761914475842690800,4.82869091796875,0.6053635478019714,0.26851949095726013,0.34653541445732117
1761914475852745700,4.838745849609375,0.3550785779953003,-0.00767736230045557,0.3867343068122864
1761914475862801700,4.8488017578125,0.10757450759410858,-0.25458648800849915,0.44724026322364807
1761914475872862000,4.858862060546875,-0.10111964493989944,-0.41814836859703064,0.5233857035636902
1761914475882916900,4.868916748046875,-0.24929553270339966,-0.513492226600647,0.5898200869560242
1761914475892973000,4.87897314453125,-0.346712201833725,-0.5544326901435852,0.6332206726074219
1761914475903029000,4.889029052734375,-0.4016928970813751,-0.5323622822761536,0.6520412564277649
1761914475913085000,4.8990849609375,-0.4221601188182831,-0.4627824127674103,0.6388164162635803
1761914475923140000,4.90914013671875,-0.4243505597114563,-0.38219091296195984,0.5860261917114258
1761914475933195800,4.91919580078125,-0.42387494444847107,-0.2839156687259674,0.506172239780426
1761914475943252000,4.929251953125,-0.41796883940696716,-0.1739194095134735,0.41452518105506897
1761914475953307000,4.939306884765625,-0.4121803343296051,-0.07835514098405838,0.3189920485019684
1761914475963362800,4.94936279296875,-0.3918984830379486,-0.0002627404755912721,0.21938686072826385
1761914475973419000,4.9594189453125,-0.34619593620300293,0.0777469053864479,0.12625020742416382
1761914475983475000,4.969474853515625,-0.29498815536499023,0.17000466585159302,0.0387326143682003
1761914475993530000,4.979530029296875,-0.2571786344051361,0.2748468518257141,-0.04634469747543335
1761914476003586000,4.9895859375,-0.24591320753097534,0.3823307156562805,-0.15042263269424438
1761914476013641700,4.999641845703125,-0.2547725737094879,0.49144336581230164,-0.2775111496448517
1761914476023698000,5.009697998046875,-0.26952382922172546,0.613540530204773,-0.41114485263824463
1761914476033752800,5.0197529296875,-0.2843228876590729,0.7320717573165894,-0.521149754524231
1761914476043809000,5.02980908203125,-0.29875296354293823,0.8362391591072083,-0.5922287106513977
1761914476053865000,5.039864990234375,-0.29362383484840393,0.8963834047317505,-0.6177484393119812
1761914476063920000,5.049920166015625,-0.2764195501804352,0.9024322628974915,-0.6121760606765747
1761914476073976000,5.05997607421875,-0.2421068400144577,0.8560974597930908,-0.5854141712188721
1761914476084031700,5.07003173828125,-0.19734735786914825,0.7490745782852173,-0.5510469079017639
1761914476094088000,5.080087890625,-0.14690937101840973,0.6175246834754944,-0.5048190355300903
1761914476104142800,5.090142822265625,-0.09600384533405304,0.46217530965805054,-0.44002777338027954
1761914476114199000,5.100198974609375,-0.051820848137140274,0.30782267451286316,-0.3546046018600464
1761914476124255000,5.1102548828125,-0.028787432238459587,0.15229059755802155,-0.25220179557800293
1761914476134310000,5.120309814453125,-0.026803432032465935,0.0037877042777836323,-0.14744341373443604
1761914476144366000,5.130365966796875,-0.034872278571128845,-0.13400983810424805,-0.049704328179359436
1761914476154422000,5.140422119140625,-0.05006027966737747,-0.2592321038246155,0.03554796054959297
1761914476164478000,5.15047802734375,-0.05823884531855583,-0.37663915753364563,0.11098812520503998
1761914476174532900,5.160532958984375,-0.05943193659186363,-0.4634722173213959,0.16748744249343872
1761914476184588800,5.1705888671875,-0.048260774463415146,-0.5102280378341675,0.2152230143547058
1761914476194645000,5.18064501953125,-0.023597946390509605,-0.5308145880699158,0.25531455874443054
1761914476204701000,5.190700927734375,0.009544827044010162,-0.5278680920600891,0.29810914397239685
1761914476214756000,5.200756103515625,0.044152386486530304,-0.5433923006057739,0.34396475553512573
1761914476224812000,5.21081201171875,0.07032566517591476,-0.5823764801025391,0.40514370799064636
1761914476234868000,5.220867919921875,0.09341328591108322,-0.624674379825592,0.4815729856491089
1761914476244923000,5.2309228515625,0.11188790202140808,-0.6656140685081482,0.5492108464241028
1761914476254978800,5.240978759765625,0.13076335191726685,-0.6597650051116943,0.6094166040420532
1761914476265035000,5.251034912109375,0.1598711758852005,-0.5987751483917236,0.6555819511413574
1761914476275091000,5.261091064453125,0.18649040162563324,-0.5298369526863098,0.6620064973831177
1761914476285146000,5.27114599609375,0.1907418668270111,-0.46091359853744507,0.6327101588249207
1761914476295202000,5.2812021484375,0.16381476819515228,-0.40260857343673706,0.5653534531593323
1761914476305258000,5.291258056640625,0.11818603426218033,-0.33858269453048706,0.49323293566703796
1761914476315314200,5.301314208984375,0.07610439509153366,-0.28467291593551636,0.42960670590400696
1761914476325368800,5.311368896484375,0.03972268104553223,-0.3009064793586731,0.3816855251789093
1761914476335425000,5.321425048828125,-0.022066859528422356,-0.4029552638530731,0.3463039994239807
1761914476345481000,5.33148095703125,-0.12214099615812302,-0.5491020679473877,0.32783737778663635
1761914476355536000,5.341535888671875,-0.22849273681640625,-0.6891981959342957,0.34218037128448486
1761914476365592000,5.351592041015625,-0.31692299246788025,-0.7707391381263733,0.37482860684394836
1761914476375648000,5.36164794921875,-0.37814366817474365,-0.8044770956039429,0.4187527894973755
1761914476385704000,5.371703857421875,-0.41502845287323,-0.7791789174079895,0.4643479585647583
1761914476395758800,5.3817587890625,-0.41151008009910583,-0.6780635118484497,0.5188116431236267
1761914476405814800,5.391814697265625,-0.3647279441356659,-0.5143824219703674,0.5723446607589722
1761914476415871000,5.40187109375,-0.28271159529685974,-0.30997201800346375,0.6196882724761963
1761914476425926000,5.41192578125,-0.19336546957492828,-0.1268831491470337,0.621950089931488
1761914476435982000,5.421982177734375,-0.11789321154356003,0.006186723709106445,0.5827465057373047
1761914476446038000,5.4320380859375,-0.06433358043432236,0.08438432216644287,0.5192351937294006
1761914476456094000,5.442093994140625,-0.03522747382521629,0.11785383522510529,0.4520152509212494
1761914476466148900,5.45214892578125,-0.03265831992030144,0.098235122859478,0.3955833911895752
1761914476476204800,5.462204833984375,-0.057453904300928116,0.03959287330508232,0.3517700433731079
1761914476486261000,5.472260986328125,-0.1214081197977066,-0.05008481442928314,0.3165681064128876
1761914476496317000,5.48231689453125,-0.21786616742610931,-0.18749360740184784,0.27183330059051514
1761914476506372000,5.4923720703125,-0.33121272921562195,-0.34825798869132996,0.21011163294315338
1761914476516428000,5.502427978515625,-0.432558536529541,-0.4822740852832794,0.1388036608695984
1761914476526484000,5.51248388671875,-0.5124616622924805,-0.5454956889152527,0.062246836721897125
1761914476536539000,5.522538818359375,-0.5709428787231445,-0.5194429755210876,0.003430688753724098
1761914476546594800,5.5325947265625,-0.6120463609695435,-0.40830662846565247,-0.047253262251615524
1761914476556650800,5.542650634765625,-0.6223379373550415,-0.23848938941955566,-0.09790488332509995
1761914476566707000,5.55270703125,-0.5889682769775391,-0.03161901980638504,-0.1452510952949524
1761914476576761900,5.562761962890625,-0.5196546316146851,0.200128972530365,-0.1952180117368698
1761914476586818000,5.572818115234375,-0.42070889472961426,0.438173770904541,-0.25987502932548523
1761914476596874000,5.5828740234375,-0.3192422688007355,0.6557160019874573,-0.33199456334114075
1761914476606929000,5.592928955078125,-0.22029972076416016,0.8559710383415222,-0.4067377746105194
1761914476616984800,5.60298486328125,-0.11905355006456375,1.002955436706543,-0.472073495388031
1761914476627040800,5.613040771484375,-0.035533357411623,1.0670948028564453,-0.5409702658653259
1761914476637097000,5.623096923828125,0.02977157197892666,1.0812164545059204,-0.6105518937110901
1761914476647151900,5.63315185546875,0.07490922510623932,1.0372707843780518,-0.6841627359390259
1761914476657208000,5.6432080078125,0.09632065892219543,0.916552722454071,-0.7773048281669617
1761914476667264000,5.653263916015625,0.10179292410612106,0.7454110383987427,-0.875084400177002
1761914476677320000,5.66331982421875,0.07500044256448746,0.5178009867668152,-0.9546107053756714
1761914476687374800,5.673374755859375,0.020364362746477127,0.24884304404258728,-1.0259217023849487
1761914476697430800,5.6834306640625,-0.07166148722171783,-0.0512579046189785,-1.0790884494781494
1761914476707487000,5.693487060546875,-0.17376628518104553,-0.35741356015205383,-1.1179513931274414
1761914476717542000,5.7035419921875,-0.28064218163490295,-0.6516658663749695,-1.1442548036575317
1761914476727597800,5.713597900390625,-0.3636412024497986,-0.8958209753036499,-1.1398192644119263
1761914476737654000,5.723654052734375,-0.41054630279541016,-1.08357572555542,-1.1017783880233765
1761914476747710000,5.7337099609375,-0.4174734354019165,-1.2214685678482056,-1.0041404962539673
1761914476757765000,5.74376513671875,-0.38949134945869446,-1.314069151878357,-0.8416752219200134
1761914476767820800,5.75382080078125,-0.32996678352355957,-1.3698782920837402,-0.6174061298370361
1761914476777876700,5.763876708984375,-0.23516875505447388,-1.3740410804748535,-0.3532876670360565
1761914476787932000,5.773931884765625,-0.12715761363506317,-1.309818983078003,-0.07405443489551544
1761914476797987800,5.78398779296875,-0.017400085926055908,-1.181868553161621,0.18374644219875336
1761914476808044000,5.7940439453125,0.05911039933562279,-0.996709942817688,0.3959657549858093
1761914476818100000,5.804099853515625,0.11535066366195679,-0.7998421788215637,0.5392215847969055
1761914476828155100,5.814155029296875,0.14505210518836975,-0.6066152453422546,0.6310396790504456
1761914476838210800,5.8242109375,0.13488060235977173,-0.4338439404964447,0.6715379953384399
1761914476848266800,5.834266845703125,0.07658641040325165,-0.2895120680332184,0.6792311072349548
1761914476858323000,5.844322998046875,-0.036448799073696136,-0.1798018217086792,0.6677408814430237
1761914476868377900,5.8543779296875,-0.19967874884605408,-0.11327925324440002,0.6467549204826355
1761914476878429400,5.864429443359375,-0.40384185314178467,-0.09974845498800278,0.6281601190567017
1761914476888485400,5.8744853515625,-0.623255729675293,-0.10261561721563339,0.613175094127655
1761914476898540500,5.88454052734375,-0.8257606029510498,-0.10952446609735489,0.6194161176681519
1761914476908596500,5.894596435546875,-0.9868312478065491,-0.09112735092639923,0.6441491842269897
1761914476918652400,5.90465234375,-1.0869271755218506,-0.0014344784431159496,0.6752675175666809
1761914476928708600,5.91470849609375,-1.120394229888916,0.07016807049512863,0.6861966252326965
1761914476938763300,5.92476318359375,-1.1144933700561523,0.13181912899017334,0.6655421257019043
1761914476948819500,5.9348193359375,-1.094032645225525,0.22109094262123108,0.6371957063674927
1761914476958875400,5.94487548828125,-1.0509238243103027,0.34674596786499023,0.6083883047103882
1761914476968930600,5.9549306640625,-0.9799143075942993,0.482150137424469,0.5670051574707031
1761914476978986500,5.964986572265625,-0.8995761871337891,0.5419100522994995,0.48579123616218567
1761914476989042400,5.97504248046875,-0.832109808921814,0.5020214915275574,0.3616943359375
1761914476999098600,5.9850986328125,-0.7900554537773132,0.3786100745201111,0.21830639243125916
1761914477009153300,5.9951533203125,-0.7591843605041504,0.1972634643316269,0.10737109929323196
1761914477019209500,6.00520947265625,-0.7262493968009949,0.011864995583891869,0.046595748513936996
1761914477029265400,6.015265380859375,-0.676693856716156,-0.18709444999694824,0.041525356471538544
1761914477039321300,6.0253212890625,-0.6276444792747498,-0.3818763792514801,0.08186164498329163
1761914477049376500,6.03537646484375,-0.5709359049797058,-0.5411280989646912,0.16515414416790009
1761914477059432400,6.045432373046875,-0.4910476803779602,-0.5989298820495605,0.2763083875179291
1761914477069488600,6.055488525390625,-0.3730185329914093,-0.5738860368728638,0.40654468536376953
1761914477079543300,6.065543212890625,-0.22627471387386322,-0.4901737570762634,0.515814483165741
1761914477089599500,6.075599609375,-0.06610288470983505,-0.3649945557117462,0.5851017236709595
1761914477099655400,6.085655517578125,0.08949946612119675,-0.24715560674667358,0.6136182546615601
1761914477109711400,6.09571142578125,0.2407318502664566,-0.1327318251132965,0.5949324369430542
1761914477119766500,6.1057666015625,0.3982878625392914,-0.012896689586341381,0.5431452989578247
1761914477129822500,6.115822509765625,0.5623247027397156,0.08336859196424484,0.4758334159851074
1761914477139878400,6.12587841796875,0.7163691520690918,0.16486960649490356,0.41600900888442993
1761914477149933300,6.135933349609375,0.8419989347457886,0.20836302638053894,0.38341379165649414
1761914477159989200,6.1459892578125,0.9180891513824463,0.19462721049785614,0.3569437563419342
1761914477170045400,6.15604541015625,0.9335975646972656,0.10933307558298111,0.32294824719429016
1761914477180101400,6.166101318359375,0.8721191883087158,-0.05205719918012619,0.26285743713378906
1761914477190156500,6.176156494140625,0.7373786568641663,-0.26067298650741577,0.1976693570613861
1761914477200212500,6.18621240234375,0.5420296788215637,-0.48770594596862793,0.1372060775756836
1761914477210268400,6.196268310546875,0.3316851854324341,-0.7208675742149353,0.08832162618637085
1761914477220324600,6.20632470703125,0.1324469894170761,-0.9302018284797668,0.0788983479142189
1761914477230379300,6.216379150390625,-0.025628922507166862,-1.0885446071624756,0.09337129443883896
1761914477240435500,6.226435546875,-0.14090095460414886,-1.164382815361023,0.12203098833560944
1761914477250491400,6.236491455078125,-0.20734043419361115,-1.1754543781280518,0.13132862746715546
1761914477260546600,6.246546630859375,-0.21729640662670135,-1.111809253692627,0.10185139626264572
1761914477270602500,6.2566025390625,-0.17581981420516968,-0.9890023469924927,0.04583766311407089
1761914477280658400,6.266658447265625,-0.09382540732622147,-0.8190808892250061,-0.026216059923171997
1761914477290714600,6.276714599609375,0.019766129553318024,-0.6477376222610474,-0.11197064816951752
1761914477300769300,6.286769287109375,0.11975441128015518,-0.49854734539985657,-0.18950577080249786
1761914477310825500,6.296825439453125,0.19962021708488464,-0.3777602016925812,-0.24512030184268951
1761914477320881400,6.30688134765625,0.24291104078292847,-0.2723439931869507,-0.2703484296798706
1761914477330937300,6.316937255859375,0.25894567370414734,-0.1955871731042862,-0.2687414586544037
1761914477340992500,6.326992431640625,0.24798665940761566,-0.13458196818828583,-0.2634890377521515
1761914477351048400,6.33704833984375,0.21351923048496246,-0.11342581361532211,-0.26786166429519653
1761914477361104400,6.3471044921875,0.17965959012508392,-0.1302572637796402,-0.2942034900188446
1761914477371159600,6.35715966796875,0.15384690463542938,-0.17628361284732819,-0.33275142312049866
1761914477381215200,6.36721533203125,0.14541572332382202,-0.24063672125339508,-0.3762231171131134
1761914477391271400,6.377271484375,0.14876970648765564,-0.32128310203552246,-0.4110066592693329
1761914477401327400,6.387327392578125,0.16028721630573273,-0.3777077794075012,-0.4355010986328125
1761914477411382500,6.397382568359375,0.18485327064990997,-0.4144679009914398,-0.4521096348762512
1761914477421438500,6.4074384765625,0.22471697628498077,-0.43642112612724304,-0.46194928884506226
1761914477431494400,6.417494384765625,0.26832330226898193,-0.43442240357398987,-0.4559430480003357
1761914477441549600,6.427549560546875,0.3002624809741974,-0.40373992919921875,-0.4252364933490753
1761914477451605200,6.437605224609375,0.3045347332954407,-0.33516645431518555,-0.37365958094596863
1761914477461661400,6.447661376953125,0.29455551505088806,-0.23232793807983398,-0.31070494651794434
1761914477471717400,6.45771728515625,0.28010866045951843,-0.12126132845878601,-0.24771134555339813
1761914477481772500,6.4677724609375,0.2721475660800934,-0.01745450682938099,-0.1888585239648819
1761914477491828500,6.477828369140625,0.29478976130485535,0.06957945972681046,-0.1292969435453415
1761914477501884400,6.487884521484375,0.3401707410812378,0.12822678685188293,-0.07713467627763748
1761914477511940400,6.4979404296875,0.3923836350440979,0.15071238577365875,-0.03663119673728943
1761914477521995500,6.50799560546875,0.4466109871864319,0.16203592717647552,-0.003407406620681286
1761914477532051200,6.51805126953125,0.4980584681034088,0.180172860622406,0.03143073618412018
1761914477542107400,6.528107421875,0.5436076521873474,0.19300903379917145,0.04746004939079285
1761914477552162300,6.538162353515625,0.5762447118759155,0.17921333014965057,0.049905359745025635
1761914477562218500,6.548218505859375,0.5802915096282959,0.11055087298154831,0.034682292491197586
1761914477572274400,6.5582744140625,0.5432186722755432,0.0022038985043764114,0.0076980795711278915
1761914477582330400,6.568330322265625,0.4876101016998291,-0.14065366983413696,-0.025315947830677032
1761914477592385500,6.578385498046875,0.4252644181251526,-0.2613492012023926,-0.03297839313745499
1761914477602441500,6.58844140625,0.37104055285453796,-0.3433380722999573,-0.018577247858047485
1761914477612497400,6.598497314453125,0.33623915910720825,-0.3143756687641144,0.04473860561847687
1761914477622552300,6.60855224609375,0.3197772800922394,-0.19280904531478882,0.1512199193239212
1761914477632608500,6.6186083984375,0.33661723136901855,-0.03061986155807972,0.25684913992881775
1761914477642664400,6.62866455078125,0.36371108889579773,0.10888667404651642,0.33092382550239563
1761914477652720400,6.638720458984375,0.38089191913604736,0.23569947481155396,0.37369394302368164
1761914477662775600,6.648775634765625,0.39403727650642395,0.3590024709701538,0.40375977754592896
1761914477672831500,6.65883154296875,0.41842594742774963,0.4231873154640198,0.4098469614982605
1761914477682887700,6.6688876953125,0.444125771522522,0.39460501074790955,0.39766427874565125
1761914477692943400,6.678943359375,0.44360193610191345,0.2871014475822449,0.37694570422172546
1761914477702998300,6.688998291015625,0.39942631125450134,0.1410406082868576,0.366767555475235
1761914477713054500,6.699054443359375,0.32350918650627136,-0.004977857694029808,0.383320152759552
1761914477723110400,6.7091103515625,0.24816562235355377,-0.15454208850860596,0.4247932434082031
1761914477733165600,6.71916552734375,0.17609064280986786,-0.29169967770576477,0.46793457865715027
1761914477743221500,6.729221435546875,0.10527070611715317,-0.3944464325904846,0.5192658305168152
1761914477753277400,6.73927734375,0.05296968296170235,-0.43565645813941956,0.573732316493988
1761914477763333400,6.74933349609375,0.03321794047951698,-0.36739087104797363,0.6511706113815308
1761914477773388300,6.75938818359375,0.05642366036772728,-0.23269030451774597,0.725413978099823
1761914477783444500,6.769444580078125,0.10372859239578247,-0.0874931737780571,0.7653757333755493
1761914477793500400,6.77950048828125,0.13335706293582916,0.043237943202257156,0.7500921487808228
1761914477803555600,6.7895556640625,0.1526276022195816,0.1611245721578598,0.6943523287773132
1761914477813611500,6.799611572265625,0.17591774463653564,0.27874869108200073,0.6303113102912903
1761914477823667500,6.80966748046875,0.18851761519908905,0.34390154480934143,0.569452702999115
1761914477833723600,6.8197236328125,0.18131695687770844,0.3278333842754364,0.49788105487823486
1761914477843778300,6.8297783203125,0.157871812582016,0.2145092785358429,0.4052339494228363
1761914477853834500,6.83983447265625,0.1150021106004715,0.041767872869968414,0.2883339524269104
1761914477863890400,6.849890380859375,0.0583496168255806,-0.12476368993520737,0.1518661081790924
1761914477873945600,6.859945556640625,-0.004598456434905529,-0.22404126822948456,0.01280355453491211
1761914477884001500,6.87000146484375,-0.06047558784484863,-0.24375075101852417,-0.12206032127141953
1761914477894057500,6.880057373046875,-0.09964296221733093,-0.17883381247520447,-0.22356989979743958
1761914477904113400,6.890113525390625,-0.11800885200500488,-0.06274420022964478,-0.29458415508270264
1761914477914168600,6.90016845703125,-0.10581450164318085,0.07524295896291733,-0.32770881056785583
1761914477924224300,6.910224365234375,-0.05237763002514839,0.23140092194080353,-0.3149418532848358
1761914477934280400,6.920280517578125,0.04094725847244263,0.42575228214263916,-0.27106332778930664
1761914477944336400,6.93033642578125,0.1537970006465912,0.6140044331550598,-0.20459766685962677
1761914477954391600,6.9403916015625,0.28049394488334656,0.7670941352844238,-0.14055262506008148
1761914477964447500,6.950447509765625,0.4136500358581543,0.8509253263473511,-0.09880779683589935
1761914477974503400,6.96050341796875,0.5388619899749756,0.8965457677841187,-0.07431817054748535
1761914477984558600,6.97055859375,0.6480387449264526,0.8823091387748718,-0.04225960373878479
1761914477994614300,6.9806142578125,0.7209460139274597,0.837544322013855,-0.00880071148276329
1761914478004670500,6.99067041015625,0.7584205269813538,0.7374832630157471,0.007725939154624939
1761914478014726400,7.000726318359375,0.7517399787902832,0.6250360608100891,0.00201239250600338
1761914478024781600,7.010781494140625,0.7171805500984192,0.5162960290908813,-0.030941389501094818
1761914478034837500,7.02083740234375,0.6694623231887817,0.40584996342658997,-0.0908001959323883
1761914478044893400,7.0308935546875,0.623162567615509,0.29445570707321167,-0.1652783751487732
1761914478054949600,7.04094970703125,0.584830105304718,0.18318486213684082,-0.24142800271511078
1761914478065004500,7.051004638671875,0.5589370131492615,0.041269298642873764,-0.3001996576786041
1761914478075060500,7.061060546875,0.5516753792762756,-0.15743741393089294,-0.3428911864757538
1761914478085116400,7.071116455078125,0.537519633769989,-0.424665629863739,-0.36678969860076904
1761914478095171300,7.08117138671875,0.5377638339996338,-0.7177592515945435,-0.3579314947128296
1761914478105227500,7.0912275390625,0.539184033870697,-0.9657843708992004,-0.29422852396965027
1761914478115283500,7.101283447265625,0.5460978746414185,-1.1039211750030518,-0.1530008316040039
1761914478125339400,7.11133935546875,0.5516018867492676,-1.141226053237915,0.060810573399066925
1761914478135394600,7.12139453125,0.5314212441444397,-1.0797803401947021,0.3057260811328888
1761914478145450500,7.131450439453125,0.49945878982543945,-0.9267365336418152,0.5334532260894775
1761914478155506400,7.14150634765625,0.4595145583152771,-0.7027068734169006,0.7090916037559509
1761914478165561300,7.151561279296875,0.4294205904006958,-0.4491097927093506,0.812129020690918
1761914478175617500,7.161617431640625,0.4157412648200989,-0.20515969395637512,0.8286880254745483
1761914478185673500,7.171673583984375,0.4252614974975586,-0.0014954209327697754,0.7593386173248291
1761914478195729400,7.1817294921875,0.4606916606426239,0.145509734749794,0.6303878426551819
1761914478205784600,7.19178466796875,0.49243342876434326,0.2515222132205963,0.47675755620002747
1761914478215840500,7.201840576171875,0.49768197536468506,0.33768025040626526,0.3272053301334381
1761914478225896700,7.211896728515625,0.4497039020061493,0.40378570556640625,0.22017523646354675
1761914478235951400,7.221951416015625,0.3409646451473236,0.39433470368385315,0.15583297610282898
1761914478246007600,7.232007568359375,0.16891229152679443,0.30606958270072937,0.11481435596942902
1761914478256063500,7.2420634765625,-0.0434630885720253,0.19176936149597168,0.1215529590845108
1761914478266119400,7.252119384765625,-0.2528108060359955,0.11080509424209595,0.16696509718894958
1761914478276174600,7.262174560546875,-0.4113144278526306,0.11354336142539978,0.24701890349388123
1761914478286230500,7.27223046875,-0.49734917283058167,0.1511704921722412,0.32083722949028015
1761914478296286500,7.282286376953125,-0.5415922999382019,0.15997996926307678,0.3361448049545288
1761914478306342400,7.29234228515625,-0.5490673780441284,0.15875732898712158,0.31383687257766724
1761914478316397300,7.302397216796875,-0.506824791431427,0.232827827334404,0.2828555405139923
1761914478326453500,7.31245361328125,-0.4056512117385864,0.3842693567276001,0.25232940912246704
1761914478336509400,7.322509521484375,-0.2879253923892975,0.5394677519798279,0.18840955197811127
1761914478346564600,7.332564697265625,-0.1893596202135086,0.6280530095100403,0.06534967571496964
1761914478356620500,7.34262060546875,-0.13022440671920776,0.6675631403923035,-0.10830440372228622
1761914478366676500,7.352676513671875,-0.10105865448713303,0.6673754453659058,-0.2995299994945526
1761914478376732700,7.362732666015625,-0.10510373115539551,0.640159010887146,-0.4941468834877014
1761914478386787300,7.372787353515625,-0.13676229119300842,0.5740724802017212,-0.6646516919136047
1761914478396843500,7.382843505859375,-0.18886251747608185,0.4698003828525543,-0.7997008562088013
1761914478406899500,7.3928994140625,-0.2579134702682495,0.3594115078449249,-0.8815456032752991
1761914478416954600,7.40295458984375,-0.3077015280723572,0.24684341251850128,-0.9072679877281189
1761914478427010600,7.413010498046875,-0.3311285376548767,0.15898293256759644,-0.8572506308555603
1761914478437066500,7.42306640625,-0.2912250757217407,0.11834656447172165,-0.7282819747924805
1761914478447122700,7.433122802734375,-0.1860748678445816,0.1323760449886322,-0.5418702363967896
1761914478457177300,7.44317724609375,-0.033735934644937515,0.20028026401996613,-0.3145821690559387
1761914478467233500,7.453233642578125,0.14963319897651672,0.28894057869911194,-0.07929915934801102
1761914478477289500,7.46328955078125,0.33610641956329346,0.36399564146995544,0.12478339672088623
1761914478487345400,7.473345458984375,0.48717740178108215,0.4188756048679352,0.27745887637138367
1761914478497400600,7.483400634765625,0.5885250568389893,0.4340817332267761,0.36191463470458984
1761914478507456500,7.49345654296875,0.6567513942718506,0.41703060269355774,0.3998241126537323
1761914478517512400,7.503512451171875,0.7161704897880554,0.40049129724502563,0.41950541734695435
1761914478527567400,7.5135673828125,0.7338733077049255,0.35743632912635803,0.420886367559433
1761914478537623300,7.523623291015625,0.7031646370887756,0.24986089766025543,0.4005563259124756
1761914478547679500,7.533679443359375,0.6269980072975159,0.10271749645471573,0.36047816276550293
1761914478557735400,7.5437353515625,0.5079104900360107,-0.03540974482893944,0.29797589778900146
1761914478567790600,7.55379052734375,0.36873936653137207,-0.15336918830871582,0.21452727913856506
1761914478577846500,7.563846435546875,0.22797051072120667,-0.24690286815166473,0.12404025346040726
1761914478587902500,7.57390234375,0.09741868078708649,-0.30331090092658997,0.04342783987522125
1761914478597958700,7.583958740234375,0.0006623151712119579,-0.2998863458633423,-0.02109070122241974
1761914478608013300,7.594013427734375,-0.06279850751161575,-0.257429301738739,-0.06752029061317444
1761914478618069500,7.604069580078125,-0.08090587705373764,-0.1745738387107849,-0.1170114055275917
1761914478628125400,7.61412548828125,-0.0669434517621994,-0.06103946641087532,-0.18518196046352386
1761914478638180600,7.6241806640625,-0.021830033510923386,0.0871952697634697,-0.272236168384552
1761914478648236500,7.634236572265625,0.04554717242717743,0.2468767911195755,-0.37378236651420593
1761914478658292500,7.64429248046875,0.10880070924758911,0.40865638852119446,-0.46687051653862
1761914478668348700,7.6543486328125,0.14532470703125,0.5338731408119202,-0.5414347052574158
1761914478678403300,7.6644033203125,0.15680240094661713,0.6064589023590088,-0.5829254388809204
1761914478688459500,7.67445947265625,0.15027491748332977,0.6342858076095581,-0.5883268713951111
1761914478698515500,7.684515380859375,0.1362597793340683,0.6174242496490479,-0.5577892065048218
1761914478708570400,7.6945703125,0.1247052475810051,0.5664697289466858,-0.5146515965461731
1761914478718626600,7.70462646484375,0.12289482355117798,0.4806227385997772,-0.4713512659072876
1761914478728682500,7.7146826171875,0.14206770062446594,0.3839680552482605,-0.43465879559516907
1761914478738738400,7.724738525390625,0.17285038530826569,0.2991112172603607,-0.4004949629306793
1761914478748793300,7.73479345703125,0.21757593750953674,0.23992227017879486,-0.36797425150871277
1761914478758849300,7.744849365234375,0.28369957208633423,0.19872263073921204,-0.34397703409194946
1761914478768905500,7.754905517578125,0.35319921374320984,0.1933552324771881,-0.3174918591976166
1761914478778961400,7.76496142578125,0.41375496983528137,0.22589799761772156,-0.28568387031555176
1761914478789016600,7.7750166015625,0.4773399233818054,0.27792888879776,-0.25556570291519165
1761914478799072500,7.785072509765625,0.5265538096427917,0.3423371911048889,-0.2203563153743744
1761914478809128400,7.79512841796875,0.5727130770683289,0.40776973962783813,-0.18491214513778687
1761914478819183600,7.80518359375,0.6138916611671448,0.467214971780777,-0.1438768208026886
1761914478829239300,7.8152392578125,0.6368615627288818,0.5096146464347839,-0.11233219504356384
1761914478839295500,7.82529541015625,0.6478574872016907,0.5339215993881226,-0.09839454293251038
1761914478849351400,7.835351318359375,0.646113932132721,0.5462640523910522,-0.09791352599859238
1761914478859406600,7.845406494140625,0.6342394351959229,0.5528149008750916,-0.12071098387241364
1761914478869462500,7.855462646484375,0.6148073077201843,0.5411533713340759,-0.14065991342067719
1761914478879519000,7.86551904296875,0.5954357385635376,0.5192941427230835,-0.15152667462825775
1761914478889574100,7.87557421875,0.5776330232620239,0.4985913336277008,-0.14866845309734344
1761914478899630000,7.885630126953125,0.5574648976325989,0.45660844445228577,-0.1291418820619583
1761914478909686000,7.89568603515625,0.536908745765686,0.39651086926460266,-0.11229273676872253
1761914478919742200,7.9057421875,0.5104877948760986,0.3074958026409149,-0.10819359868764877
1761914478929797000,7.915797119140625,0.4869110584259033,0.19361279904842377,-0.12042387574911118
1761914478939853000,7.92585302734375,0.47120293974876404,0.08477499336004257,-0.15047471225261688
1761914478949909000,7.935908935546875,0.46332240104675293,-0.016359899193048477,-0.19556884467601776
1761914478959965000,7.94596484375,0.4738815724849701,-0.0937361791729927,-0.2439105361700058
1761914478970020000,7.95602001953125,0.4845854341983795,-0.11747830361127853,-0.28063544631004333
1761914478980076000,7.966075927734375,0.5090998411178589,-0.0681682750582695,-0.2810700833797455
1761914478990132000,7.976132080078125,0.5637215971946716,0.046700503677129745,-0.22405381500720978
1761914479000187100,7.986187255859375,0.6511984467506409,0.18617716431617737,-0.11069530248641968
1761914479010243000,7.9962431640625,0.7604678273200989,0.3389185667037964,0.05687086284160614
1761914479020296200,8.006296142578124,0.8776149153709412,0.49746453762054443,0.2553381621837616
1761914479030352100,8.01635205078125,0.9788551330566406,0.6515853404998779,0.4497314989566803
1761914479040407300,8.0264072265625,1.0612972974777222,0.78719162940979,0.6102966070175171
1761914479050463000,8.036462890625,1.118361234664917,0.8807605504989624,0.729282021522522
1761914479060519000,8.046518798828124,1.1611465215682983,0.9930689930915833,0.8361717462539673
1761914479070575000,8.0565751953125,1.1983898878097534,1.1170434951782227,0.9293270111083984
1761914479080630000,8.066630126953125,1.1888962984085083,1.1823320388793945,0.9760889410972595
1761914479090686200,8.076686279296876,1.0910812616348267,1.107077956199646,0.9269471764564514
1761914479100742100,8.0867421875,0.9102164506912231,0.9131447672843933,0.7818573713302612
1761914479110797000,8.096797119140625,0.7014994621276855,0.6860355138778687,0.584783673286438
1761914479120853000,8.10685302734375,0.5056108832359314,0.4619786739349365,0.39781346917152405
1761914479130909000,8.116908935546874,0.32877621054649353,0.244584858417511,0.24484911561012268
1761914479140964900,8.12696484375,0.1777200996875763,0.05269743129611015,0.14838194847106934
1761914479151020000,8.13702001953125,0.05436336621642113,-0.07690561562776566,0.08491464704275131
1761914479161076000,8.147075927734376,-0.016946231946349144,-0.11763839423656464,0.0412750281393528
1761914479171132200,8.157132080078124,-0.021006951108574867,-0.038784317672252655,0.004588930867612362
1761914479181188000,8.16718798828125,0.055073704570531845,0.17886145412921906,-0.008794784545898438
1761914479191243300,8.1772431640625,0.1918468326330185,0.4943650960922241,0.0014249561354517937
1761914479201299000,8.187298828125,0.3534759283065796,0.8662264943122864,0.02713191509246826
1761914479211355000,8.19735498046875,0.5068320035934448,1.255167007446289,0.05700179189443588
1761914479221410000,8.20741015625,0.6427368521690369,1.6036486625671387,0.07118552178144455
1761914479231466000,8.217466064453125,0.7593293786048889,1.889923334121704,0.059302300214767456
1761914479241522200,8.227522216796874,0.8457487225532532,2.04307222366333,-0.011110078543424606
1761914479251578000,8.237578125,0.9129374027252197,2.0786237716674805,-0.13240380585193634
1761914479261633300,8.24763330078125,0.9507479071617126,2.019385576248169,-0.2831629514694214
1761914479271689200,8.257689208984376,0.9488430619239807,1.8838064670562744,-0.43639829754829407
1761914479281745000,8.267744873046874,0.9149362444877625,1.6573296785354614,-0.5901599526405334
1761914479291800000,8.277800048828125,0.8639733791351318,1.3366498947143555,-0.7641476988792419
1761914479301856000,8.28785595703125,0.7989411354064941,0.9467485547065735,-0.9645431041717529
1761914479311912000,8.297911865234376,0.7399395108222961,0.5518161654472351,-1.1770710945129395
1761914479321968000,8.307968017578125,0.7378446459770203,0.23560893535614014,-1.3404622077941895
1761914479332023000,8.31802294921875,0.7693740129470825,0.08176935464143753,-1.4299176931381226
1761914479342079200,8.328079345703125,0.8276711106300354,0.04868756979703903,-1.4447225332260132
1761914479352135000,8.338135009765624,0.9314746260643005,0.0984283834695816,-1.3809312582015991
1761914479362190800,8.34819091796875,1.076549768447876,0.201975017786026,-1.2676489353179932
1761914479372246000,8.35824609375,1.2293380498886108,0.3527084290981293,-1.1166155338287354
1761914479382302000,8.368302001953126,1.3758786916732788,0.5359813570976257,-0.9428058862686157
1761914479392358100,8.378358154296874,1.501564621925354,0.7423525452613831,-0.7643355131149292
1761914479402413000,8.3884130859375,1.58810293674469,0.8966542482376099,-0.6234399080276489
1761914479412469200,8.39846923828125,1.6361100673675537,0.9651190638542175,-0.5219552516937256
1761914479422525200,8.408525146484376,1.6723923683166504,0.9823084473609924,-0.44781872630119324
1761914479432580900,8.418580810546874,1.692948818206787,0.9409197568893433,-0.35864466428756714
1761914479442636000,8.428635986328125,1.7001597881317139,0.8682724833488464,-0.2661677300930023
1761914479452692000,8.43869189453125,1.6755876541137695,0.8176435828208923,-0.17000225186347961
1761914479462748200,8.448748046875,1.604489803314209,0.754087507724762,-0.08381330221891403
1761914479472804000,8.45880419921875,1.4729702472686768,0.6583109498023987,-0.020896095782518387
1761914479482859000,8.46885888671875,1.2947331666946411,0.5340065956115723,0.027552399784326553
1761914479492915200,8.478915283203126,1.0941983461380005,0.3799826502799988,0.06148599460721016
1761914479502971100,8.48897119140625,0.9005571603775024,0.2123720794916153,0.10431148111820221
1761914479513026000,8.499026123046875,0.7472881078720093,0.07595265656709671,0.1665639877319336
1761914479523082000,8.50908203125,0.634114682674408,-0.028141789138317108,0.2436758130788803
1761914479533138000,8.519137939453126,0.5677536129951477,-0.08690828830003738,0.33049437403678894
1761914479543194000,8.529194091796874,0.5300467014312744,-0.07867059856653214,0.41425424814224243
1761914479553249000,8.5392490234375,0.5239982008934021,-0.026213031262159348,0.4771326184272766
1761914479563305200,8.54930517578125,0.545595645904541,0.07965853810310364,0.5147196650505066
1761914479573364000,8.559364013671875,0.5932598114013672,0.20571599900722504,0.5308181643486023
1761914479583419100,8.569419189453125,0.6561577916145325,0.3317253291606903,0.5372781753540039
1761914479593475000,8.57947509765625,0.7059920430183411,0.45163634419441223,0.5277439951896667
1761914479603531000,8.589531005859374,0.7322869896888733,0.5512180924415588,0.509874165058136
1761914479613587200,8.599587158203125,0.7344561815261841,0.623681902885437,0.46953240036964417
1761914479623641900,8.609641845703125,0.7094829082489014,0.6658916473388672,0.39481180906295776
1761914479633698000,8.619697998046876,0.6576862335205078,0.6757810115814209,0.29239603877067566
1761914479643754000,8.62975390625,0.5752707123756409,0.6366927027702332,0.17061471939086914
1761914479653809200,8.63980908203125,0.45135489106178284,0.5440014004707336,0.04371057450771332
1761914479663865000,8.649864990234375,0.2983618676662445,0.39189016819000244,-0.0742458924651146
1761914479673921000,8.659921142578124,0.12912717461585999,0.2275124341249466,-0.1601938009262085
1761914479683977200,8.669977294921875,-0.01793070323765278,0.06875687092542648,-0.18797031044960022
1761914479694032000,8.680031982421875,-0.13036367297172546,-0.04686959832906723,-0.17161650955677032
1761914479704088000,8.690088134765626,-0.19533760845661163,-0.10637713968753815,-0.12872175872325897
1761914479714144000,8.70014404296875,-0.22457949817180634,-0.15494851768016815,-0.08102071285247803
1761914479724200000,8.710199951171875,-0.20709052681922913,-0.20174318552017212,-0.03596828132867813
1761914479734255000,8.720255126953125,-0.14930814504623413,-0.19258281588554382,0.016610048711299896
1761914479744311000,8.73031103515625,-0.0534609816968441,-0.1319226622581482,0.08528684824705124
1761914479754367200,8.7403671875,0.0736021101474762,-0.07063189893960953,0.14084181189537048
1761914479764422100,8.750422119140625,0.1990242302417755,-0.036323197185993195,0.1574849784374237
1761914479774478000,8.76047802734375,0.3083035945892334,0.00018601167539600283,0.14442768692970276
1761914479784534000,8.770533935546876,0.3961615562438965,0.08435308933258057,0.14995135366916656
1761914479794590000,8.78058984375,0.4756786823272705,0.1929166615009308,0.18284854292869568
1761914479804645000,8.79064501953125,0.53040611743927,0.25357362627983093,0.20518901944160461
1761914479814701000,8.800701171875,0.5679556131362915,0.24782142043113708,0.2102646827697754
1761914479824757000,8.810757080078124,0.5937153100967407,0.21979671716690063,0.22038708627223969
1761914479834812200,8.820812255859375,0.6012459993362427,0.19928999245166779,0.23760856688022614
1761914479844867800,8.830867919921875,0.5781340599060059,0.16063900291919708,0.25465652346611023
1761914479854924000,8.840924072265626,0.5295919179916382,0.08798959106206894,0.2594049572944641
1761914479864980000,8.85097998046875,0.4592958688735962,-0.010661352425813675,0.2523270845413208
1761914479875035100,8.86103515625,0.39320313930511475,-0.094835564494133,0.25638672709465027
1761914479885091000,8.871091064453125,0.33031710982322693,-0.13959157466888428,0.26659461855888367
1761914479895147000,8.88114697265625,0.2786867618560791,-0.15571346879005432,0.27849626541137695
1761914479905203200,8.891203125,0.23614168167114258,-0.15426097810268402,0.28459039330482483
1761914479915258000,8.901258056640625,0.21544098854064941,-0.12475083023309708,0.28609323501586914
1761914479925314000,8.91131396484375,0.2154335379600525,-0.0698162093758583,0.2718573212623596
1761914479935370000,8.921369873046874,0.22776350378990173,-0.0024465229362249374,0.24101388454437256
1761914479945425200,8.931425048828125,0.2588777244091034,0.033203352242708206,0.17075809836387634
1761914479955481000,8.941481201171875,0.30267229676246643,0.01073113176971674,0.07277382165193558
1761914479965537000,8.951537109375,0.3528941869735718,-0.03142537549138069,-0.03210252523422241
1761914479975593200,8.96159326171875,0.405472069978714,-0.07498934119939804,-0.12932279706001282
1761914479985648000,8.971648193359375,0.45442309975624084,-0.12159252911806107,-0.22024443745613098
1761914479995704000,8.9817041015625,0.4835490882396698,-0.19770097732543945,-0.298035591840744
1761914480005760000,8.991760009765626,0.5037345290184021,-0.2877109944820404,-0.3539324104785919
1761914480015816000,9.00181591796875,0.502814769744873,-0.3747447729110718,-0.3912690579891205
1761914480025871000,9.01187109375,0.49898114800453186,-0.45638155937194824,-0.4142768979072571
1761914480035927000,9.021927001953125,0.4906219244003296,-0.5167489051818848,-0.4339892268180847
1761914480045983000,9.03198291015625,0.4964268207550049,-0.5566542744636536,-0.44888612627983093
1761914480056038100,9.0420380859375,0.5043761134147644,-0.5655828714370728,-0.46174076199531555
1761914480066094000,9.052093994140625,0.5214480757713318,-0.5096546411514282,-0.48507776856422424
1761914480076150300,9.062150390625,0.5383737683296204,-0.3815748989582062,-0.5011942982673645
1761914480086206000,9.0722060546875,0.5380187630653381,-0.20946064591407776,-0.5018928647041321
1761914480096261000,9.08226123046875,0.5347583889961243,-0.01574021391570568,-0.4761146605014801
1761914480106317000,9.092317138671875,0.5308592319488525,0.20423902571201324,-0.4365677833557129
1761914480116373000,9.102373046875,0.5090256929397583,0.42539456486701965,-0.39528653025627136
1761914480126428200,9.11242822265625,0.4276227056980133,0.7288825511932373,-0.3172343373298645
1761914480136484000,9.122484130859375,0.27123957872390747,1.0239499807357788,-0.1958806812763214
1761914480146540300,9.132540283203125,0.162596195936203,0.9620604515075684,-0.16398799419403076
1761914480156596000,9.142595947265624,0.11204232275485992,0.7172501683235168,-0.1773078888654709
1761914480166651100,9.152651123046875,0.10532236844301224,0.49501579999923706,-0.17205694317817688
1761914480176707000,9.16270703125,0.1094517931342125,0.3758683502674103,-0.14023616909980774
1761914480186763000,9.172762939453126,0.11416932195425034,0.31295037269592285,-0.1024419292807579
1761914480196819000,9.18281884765625,0.1292288899421692,0.25188276171684265,-0.07602178305387497
1761914480206874000,9.1928740234375,0.16218525171279907,0.20111067593097687,-0.076002337038517
1761914480216930000,9.202929931640625,0.22330224514007568,0.1544926017522812,-0.0946541428565979
1761914480226986200,9.212986328125,0.32731491327285767,0.1345556378364563,-0.12677399814128876
1761914480237041000,9.223041015625,0.46258190274238586,0.12898769974708557,-0.16705599427223206
1761914480247097000,9.23309716796875,0.5833770036697388,0.18121494352817535,-0.22982057929039001
1761914480257153000,9.243153076171875,0.6975956559181213,0.30388718843460083,-0.29584673047065735
1761914480267209000,9.253208984375,0.7969083786010742,0.4926072955131531,-0.3587021231651306
1761914480277264100,9.26326416015625,0.8759253025054932,0.7222670316696167,-0.4368637204170227
1761914480287320000,9.273320068359375,0.9701236486434937,0.933692991733551,-0.5514709949493408
1761914480297376300,9.283376220703126,1.073568344116211,1.0809862613677979,-0.7232650518417358
1761914480307431000,9.293430908203124,1.1891015768051147,1.1525357961654663,-0.9858146905899048
1761914480317487000,9.303487060546875,1.2987037897109985,1.1973096132278442,-1.3343453407287598
1761914480327543000,9.31354296875,1.4178262948989868,1.2660887241363525,-1.7412611246109009
1761914480337599000,9.323598876953126,1.5549086332321167,1.3479442596435547,-2.0649657249450684
1761914480347654100,9.333654052734374,1.6596801280975342,1.455284595489502,-2.285562753677368
1761914480357710000,9.3437099609375,1.7017326354980469,1.6841602325439453,-2.418156147003174
1761914480367766000,9.35376611328125,1.7001469135284424,1.9380571842193604,-2.4871320724487305
1761914480377822200,9.363822265625,1.6664189100265503,2.129556179046631,-2.5178091526031494
1761914480387876900,9.373876953125,1.6368751525878906,2.2593820095062256,-2.507723093032837
1761914480397933000,9.38393310546875,1.6479321718215942,2.278290033340454,-2.4671528339385986
1761914480407989000,9.393989013671876,1.7565162181854248,2.168694496154785,-2.3976447582244873
1761914480418045000,9.404044921875,1.893592119216919,1.9974033832550049,-2.299778461456299
1761914480428100000,9.41410009765625,2.0062332153320312,1.8442891836166382,-2.1738569736480713
1761914480438156000,9.424156005859375,2.0427868366241455,1.6990478038787842,-2.0363805294036865
1761914480448212200,9.434212158203126,1.9907902479171753,1.5595602989196777,-1.858812689781189
1761914480458267000,9.444266845703124,1.8809045553207397,1.3737882375717163,-1.628524661064148
1761914480468323000,9.454322998046875,1.7760937213897705,1.1799991130828857,-1.3513612747192383
1761914480478379000,9.46437890625,1.6854580640792847,1.0607714653015137,-1.0227454900741577
1761914480488435000,9.47443505859375,1.5836137533187866,1.0095075368881226,-0.6626171469688416
1761914480498490000,9.484489990234374,1.417140245437622,0.9975087642669678,-0.3140186369419098
1761914480508546000,9.494546142578125,1.1521044969558716,0.9899839758872986,-0.012986622750759125
1761914480518602200,9.504602294921876,0.7991774082183838,0.8772097229957581,0.2513732314109802
1761914480528657000,9.514656982421876,0.4568464159965515,0.6318619847297668,0.4979310631752014
1761914480538713000,9.524713134765625,0.153423011302948,0.11557892709970474,0.6121938824653625
1761914480548769000,9.53476904296875,-0.0453510619699955,-1.037566900253296,0.42059510946273804
1761914480558825000,9.544824951171876,-0.04070505127310753,-2.0627450942993164,0.12700366973876953
1761914480568880000,9.554880126953124,0.13563616573810577,-2.3362648487091064,-0.05030985176563263
1761914480578936000,9.56493603515625,0.3688514828681946,-2.3039209842681885,-0.09014733880758286
1761914480588992000,9.574991943359375,0.6132367253303528,-1.964882254600525,-0.04301684349775314
1761914480599048200,9.585048095703126,0.8836843967437744,-1.6912986040115356,0.049495477229356766
1761914480609102800,9.595102783203124,1.1696141958236694,-1.3387866020202637,0.18276190757751465
1761914480619159000,9.605158935546875,1.3969874382019043,-0.9389212131500244,0.41998639702796936
1761914480629215000,9.615215087890626,1.3879292011260986,-0.6069139838218689,0.7701579928398132
1761914480639270100,9.625270263671876,1.2608956098556519,-0.01251218281686306,0.9345986843109131
1761914480649326000,9.635326171875,1.256915807723999,0.5315761566162109,1.091989517211914
1761914480659382000,9.645382080078125,1.3403819799423218,0.8986440896987915,1.3398041725158691
1761914480669438200,9.655438232421876,1.3733255863189697,1.054690957069397,1.4865427017211914
1761914480679492900,9.665492919921874,1.4290045499801636,1.0573807954788208,1.4662286043167114
1761914480689549000,9.675549072265625,1.5559953451156616,0.9129878878593445,1.3593205213546753
1761914480699605000,9.68560498046875,1.6589323282241821,0.7022709846496582,1.21649169921875
1761914480709661000,9.695660888671876,1.7155474424362183,0.46619802713394165,1.048359990119934
1761914480719716000,9.705716064453124,1.733572006225586,0.2415647953748703,0.8989239931106567
1761914480729772000,9.71577197265625,1.6982887983322144,0.10453024506568909,0.7844783663749695
1761914480739828200,9.725828125,1.6322386264801025,0.1585996001958847,0.6581993699073792
1761914480749883100,9.735883056640626,1.5925899744033813,0.3416096270084381,0.5455915927886963
1761914480759939000,9.74593896484375,1.6311074495315552,0.4994474947452545,0.434120237827301
1761914480769995000,9.7559951171875,1.690641164779663,0.6045249104499817,0.3160979747772217
1761914480780051000,9.766051025390626,1.7589797973632812,0.6659068465232849,0.17879576981067657
1761914480790106000,9.776106201171874,1.8379517793655396,0.7191445231437683,0.02694951742887497
1761914480800162000,9.786162109375,1.9182618856430054,0.8067179918289185,-0.12765562534332275
1761914480810218000,9.796218017578125,1.9818115234375,0.9057638645172119,-0.27254945039749146
1761914480820274200,9.806274169921876,2.030278444290161,0.9918789267539978,-0.38163918256759644
1761914480830329000,9.8163291015625,2.064314842224121,1.0532426834106445,-0.43686699867248535
1761914480840385000,9.826385009765625,2.086724281311035,1.0813350677490234,-0.43758127093315125
1761914480850441000,9.83644091796875,2.090819835662842,1.0576467514038086,-0.36845865845680237
1761914480860496100,9.84649609375,2.0816638469696045,0.9975140690803528,-0.26605871319770813
1761914480870552000,9.856552001953125,2.0740182399749756,0.8939775824546814,-0.15738895535469055
1761914480880607500,9.866607421875,2.065150737762451,0.7707375884056091,-0.06272520869970322
1761914480890663400,9.876663330078125,2.0583674907684326,0.6579873561859131,0.004745444282889366
1761914480900718300,9.88671826171875,2.0574400424957275,0.5638332366943359,0.04394620656967163
1761914480910774300,9.896774169921875,2.045905351638794,0.48436424136161804,0.05041928589344025
1761914480920830200,9.906830322265625,2.02559757232666,0.3873231112957001,0.025103343650698662
1761914480930885400,9.916885498046875,1.9993619918823242,0.30298560857772827,-0.008440767414867878
1761914480940941300,9.92694140625,1.9671876430511475,0.2506534457206726,-0.019382204860448837
1761914480950997200,9.936997314453125,1.9356392621994019,0.2656654417514801,0.002471695654094219
1761914480961053400,9.947053466796875,1.9044438600540161,0.33558547496795654,0.056071050465106964
1761914480971108000,9.957108154296876,1.8870608806610107,0.4431987702846527,0.12302719056606293
1761914480981164300,9.967164306640624,1.8746342658996582,0.538451611995697,0.1805170178413391
1761914480991220200,9.97722021484375,1.8584520816802979,0.5833392143249512,0.2285657674074173
1761914481001276200,9.987276123046875,1.8381493091583252,0.5724689364433289,0.27526596188545227
1761914481011331300,9.997331298828126,1.824720025062561,0.556098461151123,0.3341412842273712
1761914481021387300,10.00738720703125,1.8073256015777588,0.5633870959281921,0.39519202709198
1761914481031443500,10.017443359375,1.7792739868164062,0.5985511541366577,0.4621036946773529
1761914481041498400,10.027498291015625,1.74347722530365,0.6507146954536438,0.528946042060852
1761914481051554300,10.03755419921875,1.699166178703308,0.7099133133888245,0.5728631615638733
1761914481061610200,10.0476103515625,1.6555079221725464,0.7556374669075012,0.6001328229904175
1761914481071666200,10.057666259765625,1.6287049055099487,0.8033552169799805,0.623486340045929
1761914481081721300,10.067721435546876,1.6031538248062134,0.8588560223579407,0.6397604942321777
1761914481091777300,10.07777734375,1.5708656311035156,0.8977831602096558,0.6498112082481384
1761914481101833200,10.087833251953125,1.5338523387908936,0.9138787984848022,0.640866219997406
1761914481111889400,10.097889404296875,1.4901655912399292,0.9252440929412842,0.5959246158599854
1761914481121944300,10.1079443359375,1.4746853113174438,0.9418433308601379,0.5244559645652771
1761914481132000300,10.118000244140624,1.480807900428772,0.9632093906402588,0.43848299980163574
1761914481142056200,10.12805615234375,1.5019216537475586,0.9567642211914062,0.36134010553359985
1761914481152111400,10.138111328125,1.4937368631362915,0.9196573495864868,0.3060307800769806
1761914481162167300,10.148167236328124,1.440105676651001,0.877976655960083,0.26098522543907166
1761914481172223200,10.15822314453125,1.3615669012069702,0.8556428551673889,0.21909105777740479
1761914481182279400,10.168279541015625,1.2766046524047852,0.8257923126220703,0.2007046788930893
1761914481192334300,10.178334228515626,1.1824698448181152,0.7435030341148376,0.19540472328662872
1761914481202390300,10.188390380859374,1.0803120136260986,0.6247561573982239,0.2005872279405594
1761914481212446200,10.1984462890625,0.9814195036888123,0.5206196308135986,0.20372363924980164
1761914481222502100,10.208502197265625,0.9033932089805603,0.45901384949684143,0.18413537740707397
1761914481232557300,10.218557373046876,0.8489251732826233,0.43878260254859924,0.14077672362327576
1761914481242613200,10.22861328125,0.7995415329933167,0.4354064464569092,0.06848631799221039
1761914481252669400,10.23866943359375,0.7542629837989807,0.43773242831230164,-0.023780230432748795
1761914481262724400,10.248724365234375,0.7146468758583069,0.4308055639266968,-0.1026657223701477
1761914481272780500,10.258780517578124,0.6822370290756226,0.41721758246421814,-0.15372464060783386
1761914481282836200,10.268836181640625,0.6513022184371948,0.4238148033618927,-0.17005617916584015
1761914481292892200,10.27889208984375,0.6357616186141968,0.4230392873287201,-0.1683347076177597
1761914481302947300,10.288947265625,0.6355709433555603,0.3788856267929077,-0.1758459210395813
1761914481313003300,10.299003173828124,0.6388128399848938,0.31114625930786133,-0.18727993965148926
1761914481323059200,10.30905908203125,0.6374583840370178,0.27182069420814514,-0.1843402087688446
1761914481333114400,10.3191142578125,0.636085569858551,0.28033962845802307,-0.15426753461360931
1761914481343170300,10.32917041015625,0.6256583333015442,0.2955940067768097,-0.10555186867713928
1761914481353226500,10.3392265625,0.6104181408882141,0.2811966836452484,-0.052857764065265656
1761914481363282200,10.3492822265625,0.5742262005805969,0.21936416625976562,-0.02535775862634182
1761914481373337300,10.35933740234375,0.533504068851471,0.11544894427061081,-0.033271607011556625
1761914481383393300,10.369393310546876,0.49725133180618286,0.001440365333110094,-0.061404697597026825
1761914481393449200,10.37944921875,0.4557283818721771,-0.07593777775764465,-0.0850469097495079
1761914481403505400,10.38950537109375,0.40949732065200806,-0.10750971734523773,-0.08997084200382233
1761914481413560300,10.399560302734375,0.36605557799339294,-0.06835433095693588,-0.06963200867176056
1761914481423616500,10.409616455078124,0.3259025812149048,0.005398084409534931,-0.04714068025350571
1761914481433672400,10.41967236328125,0.2972978353500366,0.06813789904117584,-0.02399780973792076
1761914481443727400,10.429727294921875,0.2813596725463867,0.1472606509923935,-0.005671303253620863
1761914481453783300,10.439783203125,0.2849200367927551,0.26165488362312317,0.013880028389394283
1761914481463839200,10.449839111328124,0.3114536702632904,0.3950957953929901,0.027114123106002808
1761914481473895400,10.4598955078125,0.3388613164424896,0.516548216342926,0.03542877733707428
1761914481483950300,10.469950439453125,0.3518017828464508,0.6136744022369385,0.05822340026497841
1761914481494006300,10.48000634765625,0.35208648443222046,0.6938576698303223,0.0860891118645668
1761914481504062500,10.4900625,0.33458268642425537,0.7468261122703552,0.09624285995960236
1761914481514118100,10.5001181640625,0.3046186864376068,0.7711130976676941,0.08880012482404709
1761914481524173300,10.51017333984375,0.2675059139728546,0.7774719595909119,0.06706184893846512
1761914481534229200,10.520229248046874,0.21620012819766998,0.7656750082969666,0.034252241253852844
1761914481544285200,10.53028515625,0.16443686187267303,0.7275794744491577,0.002650601789355278
1761914481554340400,10.54034033203125,0.11518143117427826,0.6753565073013306,-0.03941056504845619
1761914481564396300,10.550396240234376,0.07569688558578491,0.6303349137306213,-0.08261255919933319
1761914481574452500,10.560452392578124,0.043334685266017914,0.5712025761604309,-0.12778189778327942
1761914481584508400,10.57050830078125,0.024553470313549042,0.4963778853416443,-0.17373661696910858
1761914481594563300,10.580563232421875,0.01431228592991829,0.42873066663742065,-0.21670672297477722
1761914481604619300,10.590619384765626,0.004680500831454992,0.3757689893245697,-0.24508324265480042
1761914481614675200,10.60067529296875,-0.021749509498476982,0.3700146973133087,-0.2695997655391693
1761914481624731400,10.6107314453125,-0.06542092561721802,0.43371719121932983,-0.28694531321525574
1761914481634786300,10.620786376953125,-0.1289394497871399,0.5261746644973755,-0.30864235758781433
1761914481644842500,10.630842529296874,-0.20829662680625916,0.5729351043701172,-0.3250119984149933
1761914481654898400,10.6408984375,-0.28355303406715393,0.5842980146408081,-0.3135553300380707
1761914481664953300,10.650953369140625,-0.33455690741539,0.564073383808136,-0.27618539333343506
1761914481675009300,10.66100927734375,-0.3605959713459015,0.5373607873916626,-0.21986645460128784
1761914481685065200,10.671065185546874,-0.3600524067878723,0.5593705177307129,-0.2004690021276474
1761914481695121400,10.681121337890625,-0.33527490496635437,0.6313855648040771,-0.22830834984779358
1761914481705176300,10.69117626953125,-0.31085485219955444,0.7095357775688171,-0.2777301073074341
1761914481715232300,10.701232177734376,-0.30320626497268677,0.7590394020080566,-0.3072480261325836
1761914481725288400,10.711288330078125,-0.29763245582580566,0.7323141098022461,-0.3123287260532379
1761914481735343000,10.721343017578125,-0.3264574408531189,0.6831678748130798,-0.14263075590133667
1761914481745399300,10.7313994140625,-0.32674598693847656,0.1740892082452774,-0.03341396152973175
1761914481755455200,10.741455322265624,-0.27508971095085144,-0.3230164349079132,0.02213505282998085
1761914481765511200,10.75151123046875,-0.19604524970054626,-0.686309278011322,0.05221483111381531
1761914481775566300,10.76156640625,-0.21552228927612305,-0.937291145324707,0.0486118420958519
1761914481785622300,10.771622314453126,-0.31124842166900635,-1.0407402515411377,0.021984398365020752
1761914481795678500,10.781678466796874,-0.4248200058937073,-0.9289026856422424,0.07190749049186707
1761914481805734400,10.791734375,-0.4763851463794708,-0.654265284538269,0.19368603825569153
1761914481815789300,10.801789306640625,-0.4031226634979248,-0.3170316517353058,0.2916259169578552
