time,seconds_elapsed,z,y,x
1761914471093879000,0.079879150390625,-0.11522379517555237,0.06647063791751862,0.23695501685142517
1761914471103935000,0.08993505859375,-0.12361328303813934,0.08750561624765396,0.17798997461795807
1761914471113990100,0.099990234375,-0.12696672976016998,0.0837034210562706,0.11153531819581985
1761914471124046000,0.110046142578125,-0.13200676441192627,0.07780984044075012,0.0607277937233448
1761914471134102000,0.12010205078125,-0.12891297042369843,0.051235757768154144,0.03407088667154312
1761914471144157200,0.1301572265625,-0.12314057350158691,0.007016896735876799,0.02345845475792885
1761914471154212900,0.140212890625,-0.11889655888080597,-0.02828223817050457,0.038171619176864624
1761914471164269000,0.15026904296875,-0.10855124145746231,-0.06019036844372749,0.06320000439882278
1761914471174325000,0.160324951171875,-0.09162339568138123,-0.09988398849964142,0.08858579397201538
1761914471184380200,0.170380126953125,-0.0655028447508812,-0.14136537909507751,0.11370179802179337
1761914471194436000,0.18043603515625,-0.03326554596424103,-0.18793874979019165,0.12673130631446838
1761914471204492000,0.190491943359375,-0.004768656101077795,-0.24755653738975525,0.14321894943714142
1761914471214547200,0.200547119140625,0.028304608538746834,-0.28737345337867737,0.15432032942771912
1761914471224603100,0.21060302734375,0.06239253655076027,-0.2960290014743805,0.16198517382144928
1761914471234659000,0.2206591796875,0.09343007951974869,-0.2768110930919647,0.1596653014421463
1761914471244715000,0.230715087890625,0.12628896534442902,-0.2609841823577881,0.14489194750785828
1761914471254770000,0.24077001953125,0.1593340039253235,-0.19383151829242706,0.12547962367534637
1761914471264826000,0.250826171875,0.1895262598991394,-0.11432604491710663,0.11040773242712021
1761914471274882000,0.260882080078125,0.2133820503950119,-0.011816978454589844,0.1070481538772583
1761914471284937200,0.270937255859375,0.23487801849842072,0.08022426813840866,0.10610726475715637
1761914471294993200,0.2809931640625,0.25151240825653076,0.15744848549365997,0.11241069436073303
1761914471305049000,0.291049072265625,0.26785168051719666,0.21699383854866028,0.13554264605045319
1761914471315105000,0.30110498046875,0.2816905379295349,0.24919624626636505,0.1632927805185318
1761914471325160000,0.311159912109375,0.30097582936286926,0.2579103708267212,0.18141239881515503
1761914471335216000,0.321216064453125,0.32256951928138733,0.2575889229774475,0.20408709347248077
1761914471345272000,0.33127197265625,0.3457355499267578,0.2580810785293579,0.2135479599237442
1761914471355328000,0.341327880859375,0.3634144365787506,0.256842702627182,0.21939361095428467
1761914471365383200,0.351383056640625,0.37448573112487793,0.2489680051803589,0.21540072560310364
1761914471375439000,0.361439208984375,0.38820260763168335,0.22634126245975494,0.19907554984092712
1761914471385495000,0.3714951171875,0.4029812812805176,0.20928823947906494,0.18263745307922363
1761914471395550000,0.381550048828125,0.4255310595035553,0.20252087712287903,0.1531943529844284
1761914471405606100,0.391606201171875,0.44154998660087585,0.19522488117218018,0.1120154857635498
1761914471415662000,0.401662109375,0.4476419687271118,0.1891920268535614,0.060442570596933365
1761914471425717000,0.411717041015625,0.4448903799057007,0.2003251016139984,0.0035635759122669697
1761914471435773200,0.421773193359375,0.438740074634552,0.22512899339199066,-0.0377335287630558
1761914471445829000,0.4318291015625,0.42737796902656555,0.2589609920978546,-0.07098788768053055
1761914471455885000,0.441885009765625,0.4273369610309601,0.2995070815086365,-0.09576034545898438
1761914471465940000,0.45193994140625,0.4223712086677551,0.32638370990753174,-0.12185852974653244
1761914471475996000,0.461995849609375,0.42439308762550354,0.3429003655910492,-0.14177072048187256
1761914471486052000,0.472052001953125,0.43267205357551575,0.36932238936424255,-0.16128157079219818
1761914471496108000,0.48210791015625,0.44915223121643066,0.39080291986465454,-0.181113600730896
1761914471506163200,0.4921630859375,0.4768834710121155,0.4199568033218384,-0.19063226878643036
1761914471516219100,0.50221923828125,0.5051918029785156,0.4451460540294647,-0.1927257776260376
1761914471526275000,0.512275146484375,0.5469040870666504,0.45551586151123047,-0.18607266247272491
1761914471536330000,0.522330078125,0.5839031338691711,0.4424639642238617,-0.1655266433954239
1761914471546386000,0.532385986328125,0.6287811398506165,0.41997358202934265,-0.1493910849094391
1761914471556442000,0.542442138671875,0.6693195104598999,0.39993035793304443,-0.14445172250270844
1761914471566498000,0.552498046875,0.700319230556488,0.37490490078926086,-0.1432596892118454
1761914471576553200,0.56255322265625,0.7311950922012329,0.36084020137786865,-0.15241935849189758
1761914471586609200,0.572609130859375,0.7564914226531982,0.3533324897289276,-0.17055416107177734
1761914471596665000,0.5826650390625,0.7792883515357971,0.33402031660079956,-0.19189167022705078
1761914471606720000,0.592719970703125,0.7928435802459717,0.2894480526447296,-0.21411176025867462
1761914471616776000,0.60277587890625,0.7994527220726013,0.215990349650383,-0.23160259425640106
1761914471626832100,0.61283203125,0.8059694766998291,0.13535836338996887,-0.2364943027496338
1761914471636888000,0.62288818359375,0.8101423978805542,0.06452706456184387,-0.22812344133853912
1761914471646943000,0.63294287109375,0.8132804036140442,-0.003367567202076316,-0.21557889878749847
1761914471656999200,0.642999267578125,0.8174357414245605,-0.0448891781270504,-0.1960776299238205
1761914471667055000,0.65305517578125,0.8168647289276123,-0.07159855216741562,-0.17709967494010925
1761914471677110000,0.663110107421875,0.8114345669746399,-0.08902761340141296,-0.16304484009742737
1761914471687166000,0.673166015625,0.7944158911705017,-0.10221292078495026,-0.15102334320545197
1761914471697222000,0.683221923828125,0.7826375365257263,-0.09975029528141022,-0.13599778711795807
1761914471707278000,0.693278076171875,0.7678945064544678,-0.08289248496294022,-0.12716753780841827
1761914471717333000,0.7033330078125,0.752701461315155,-0.05763772875070572,-0.11583045870065689
1761914471727389200,0.71338916015625,0.7243608832359314,-0.049260225147008896,-0.08633968234062195
1761914471737445000,0.723445068359375,0.7065669894218445,-0.04218447208404541,-0.0475803017616272
1761914471747500000,0.7335,0.6820099949836731,-0.027364246547222137,-0.001484445994719863
1761914471757556000,0.743555908203125,0.6511356830596924,-0.0012373046483844519,0.060503825545310974
1761914471767612000,0.75361181640625,0.63643479347229,0.036196086555719376,0.1322363317012787
1761914471777668000,0.763668212890625,0.6269211769104004,0.08851015567779541,0.1904493123292923
1761914471787723000,0.773722900390625,0.6207767128944397,0.15353550016880035,0.21750275790691376
1761914471797779200,0.783779296875,0.6153857111930847,0.21596825122833252,0.21825404465198517
1761914471807835100,0.793835205078125,0.6106905341148376,0.27089062333106995,0.19225439429283142
1761914471817890000,0.80389013671875,0.6011894345283508,0.32000890374183655,0.1588578224182129
1761914471827946000,0.813946044921875,0.5880246162414551,0.390284925699234,0.11847124993801117
1761914471838002000,0.824001953125,0.5718280673027039,0.44911521673202515,0.09123936295509338
1761914471848058000,0.83405810546875,0.5588289499282837,0.4779282212257385,0.075839102268219
1761914471858113000,0.844113037109375,0.545203685760498,0.5024250149726868,0.07751742750406265
1761914471868168000,0.85416796875,0.5396730899810791,0.5279032588005066,0.10100304335355759
1761914471878224000,0.864223876953125,0.5507129430770874,0.5652753710746765,0.15352244675159454
1761914471888278800,0.87427880859375,0.5676618218421936,0.5936132669448853,0.2132752537727356
1761914471898334700,0.884334716796875,0.5882248878479004,0.6038991808891296,0.292072594165802
1761914471908390700,0.894390625,0.6066555976867676,0.5926297903060913,0.38419294357299805
1761914471918446800,0.90444677734375,0.6244140863418579,0.5650181174278259,0.4898543953895569
1761914471928501800,0.914501708984375,0.6590713858604431,0.5379856824874878,0.6093555092811584
1761914471938558000,0.924557861328125,0.7015120387077332,0.45815080404281616,0.7129966616630554
1761914471948614000,0.93461376953125,0.7435239553451538,0.3787592947483063,0.7901460528373718
1761914471958668800,0.944668701171875,0.7833477854728699,0.3343851864337921,0.8354631662368774
1761914471968724700,0.954724853515625,0.8300614953041077,0.35737544298171997,0.8602036833763123
1761914471978780700,0.96478076171875,0.8680781126022339,0.3997889459133148,0.8595426678657532
1761914471988836900,0.9748369140625,0.9189586043357849,0.46563878655433655,0.8144809603691101
1761914471998891800,0.984891845703125,0.9878575205802917,0.5228562951087952,0.7253723740577698
1761914472008948000,0.994947998046875,1.0546014308929443,0.5151525735855103,0.599379301071167
1761914472019004000,1.00500390625,1.1327265501022339,0.4747907519340515,0.46911555528640747
1761914472029058800,1.015058837890625,1.2151806354522705,0.4331623613834381,0.34091630578041077
1761914472039114800,1.02511474609375,1.2950555086135864,0.39303597807884216,0.22632953524589539
1761914472049170700,1.035170654296875,1.3610116243362427,0.3622972369194031,0.1309036910533905
1761914472059226600,1.0452265625,1.3987147808074951,0.38041603565216064,0.07516799122095108
1761914472069281800,1.05528173828125,1.3761024475097656,0.37088486552238464,0.051006194204092026
1761914472079337700,1.065337646484375,1.2673453092575073,0.1740599423646927,0.029102224856615067
1761914472089394000,1.075393798828125,1.1813135147094727,-0.029210083186626434,0.031077757477760315
1761914472099448800,1.08544873046875,1.0930633544921875,-0.15030188858509064,0.07483349740505219
1761914472109504800,1.0955048828125,0.9966134428977966,-0.2551572024822235,0.1346891075372696
1761914472119560700,1.105560791015625,0.902809202671051,-0.3091677129268646,0.21844631433486938
1761914472129616600,1.11561669921875,0.9099797606468201,-0.30801960825920105,0.34503594040870667
1761914472139671800,1.125671875,0.9529581069946289,-0.24262595176696777,0.5046053528785706
1761914472149727700,1.135727783203125,0.998890221118927,-0.14021410048007965,0.6737624406814575
1761914472159784000,1.145783935546875,1.0337797403335571,-0.027933629229664803,0.8417471647262573
1761914472169839900,1.15583984375,1.05195152759552,0.053413424640893936,0.9639633893966675
1761914472179895000,1.16589501953125,1.0697423219680786,0.10527902096509933,1.045896053314209
1761914472189950700,1.17595068359375,1.0691007375717163,0.15789775550365448,1.0807733535766602
1761914472200006700,1.186006591796875,1.0317304134368896,0.21779277920722961,1.0660336017608643
1761914472210061800,1.196061767578125,0.9747957587242126,0.31386125087738037,1.013993501663208
1761914472220117800,1.20611767578125,0.9097033143043518,0.4527323246002197,0.9231538772583008
1761914472230174000,1.216174072265625,0.8431285619735718,0.6213346719741821,0.7836567163467407
1761914472240228900,1.226228759765625,0.7685496807098389,0.8256784677505493,0.6143822073936462
1761914472250284800,1.236284912109375,0.6903102397918701,1.0313903093338013,0.42140263319015503
1761914472260341000,1.246341064453125,0.6190072894096375,1.2171053886413574,0.23248784244060516
1761914472270396700,1.256396728515625,0.5666943192481995,1.3457269668579102,0.07413574308156967
1761914472280451800,1.266451904296875,0.5458585619926453,1.4272609949111938,-0.0665164440870285
1761914472290507800,1.2765078125,0.5581706166267395,1.4561065435409546,-0.16869820654392242
1761914472300563700,1.286563720703125,0.6048558354377747,1.4499261379241943,-0.2491360604763031
1761914472310620000,1.296619873046875,0.6623603701591492,1.4225863218307495,-0.3127344846725464
1761914472320674800,1.3066748046875,0.7169727683067322,1.4029351472854614,-0.3709471821784973
1761914472330731000,1.31673095703125,0.7661024928092957,1.4062187671661377,-0.4284999668598175
1761914472340786700,1.32678662109375,0.7969903945922852,1.4032349586486816,-0.47141972184181213
1761914472350841900,1.336841796875,0.8025084137916565,1.3814125061035156,-0.5030063986778259
1761914472360897800,1.346897705078125,0.7883598804473877,1.327059030532837,-0.5013299584388733
1761914472370953700,1.35695361328125,0.7406834363937378,1.265360713005066,-0.4692116975784302
1761914472381010000,1.367010009765625,0.6745107769966125,1.1990251541137695,-0.4133968949317932
1761914472391064800,1.37706494140625,0.5751333236694336,1.1049108505249023,-0.33861321210861206
1761914472401121000,1.38712109375,0.46481481194496155,0.9932535886764526,-0.26589319109916687
1761914472411177000,1.397177001953125,0.3387426435947418,0.8608425855636597,-0.19677084684371948
1761914472421231900,1.40723193359375,0.22224292159080505,0.725867748260498,-0.1473018378019333
1761914472431287800,1.417287841796875,0.12270381301641464,0.5876935720443726,-0.1188073456287384
1761914472441343700,1.42734375,0.05326668173074722,0.44516175985336304,-0.10763831436634064
1761914472451399700,1.437399658203125,0.008596151135861874,0.32506251335144043,-0.1201021745800972
1761914472461454800,1.447454833984375,-0.013848970644176006,0.23144041001796722,-0.14400270581245422
1761914472471510800,1.4575107421875,-0.01932709291577339,0.1690787672996521,-0.17230652272701263
1761914472481567000,1.46756689453125,-0.008344748988747597,0.14512524008750916,-0.20424075424671173
1761914472491621600,1.47762158203125,0.007616374175995588,0.13531334698200226,-0.23434965312480927
1761914472501677800,1.487677734375,0.01684582605957985,0.11649838089942932,-0.26817765831947327
1761914472511733800,1.497733642578125,0.015806926414370537,0.08919352293014526,-0.31225430965423584
1761914472521789700,1.507789794921875,0.000013848437447450124,0.05271540954709053,-0.3593813478946686
1761914472531844900,1.517844970703125,-0.010597516782581806,-0.0043718451634049416,-0.40004220604896545
1761914472541900800,1.52790087890625,-0.016878316178917885,-0.06732285022735596,-0.4329964220523834
1761914472551957000,1.53795703125,-0.01943228766322136,-0.11503683775663376,-0.467803955078125
1761914472562011600,1.54801171875,0.00609251344576478,-0.16518469154834747,-0.5186452865600586
1761914472572067800,1.55806787109375,0.05705289915204048,-0.22007670998573303,-0.568672776222229
1761914472582123800,1.568123779296875,0.1230846494436264,-0.2653352618217468,-0.5986589193344116
1761914472592179700,1.5781796875,0.18874993920326233,-0.31230756640434265,-0.5976426601409912
1761914472602235000,1.58823486328125,0.22951148450374603,-0.35173913836479187,-0.5708101987838745
1761914472612290800,1.598290771484375,0.22773942351341248,-0.3819103538990021,-0.5413351655006409
1761914472622346800,1.6083466796875,0.1951276808977127,-0.37994787096977234,-0.5309743881225586
1761914472632401700,1.618401611328125,0.1391752064228058,-0.35175883769989014,-0.5485429763793945
1761914472642457600,1.62845751953125,0.08810136467218399,-0.30774930119514465,-0.5899927020072937
1761914472652513800,1.638513671875,0.03863714262843132,-0.2518143951892853,-0.6475750207901001
1761914472662568700,1.648568603515625,0.009041165933012962,-0.22072358429431915,-0.7040167450904846
1761914472672625000,1.658625,-0.004698082339018583,-0.23210354149341583,-0.7408394813537598
1761914472682680800,1.668680908203125,-0.00418382603675127,-0.27040860056877136,-0.7547680735588074
1761914472692736800,1.67873681640625,-0.01062121894210577,-0.3256361484527588,-0.7314164042472839
1761914472702792000,1.6887919921875,-0.02184164896607399,-0.42047184705734253,-0.6926935315132141
1761914472712847600,1.69884765625,-0.04157620668411255,-0.5680389404296875,-0.6243261694908142
1761914472722903800,1.70890380859375,-0.0748625248670578,-0.7535837888717651,-0.5299229621887207
1761914472732958700,1.718958740234375,-0.11523658037185669,-0.9609286785125732,-0.40516960620880127
1761914472743015000,1.729014892578125,-0.15498824417591095,-1.1557344198226929,-0.25862357020378113
1761914472753070800,1.73907080078125,-0.18942958116531372,-1.3101940155029297,-0.08847740292549133
1761914472763126800,1.749126708984375,-0.2222389280796051,-1.3839739561080933,0.08955810964107513
1761914472773182000,1.759181884765625,-0.25549861788749695,-1.3183965682983398,0.2667904198169708
1761914472783237600,1.769237548828125,-0.273317813873291,-1.1005486249923706,0.41238489747047424
1761914472793293800,1.7792939453125,-0.26244521141052246,-0.747548520565033,0.5208365321159363
1761914472803348700,1.7893486328125,-0.21879173815250397,-0.33349061012268066,0.568672239780426
1761914472813404700,1.79940478515625,-0.144765704870224,0.0758950337767601,0.5437032580375671
1761914472823460900,1.8094609375,-0.045591454952955246,0.4366995692253113,0.4701738953590393
1761914472833516800,1.819516845703125,0.06470256298780441,0.742009699344635,0.37410035729408264
1761914472843572000,1.829572021484375,0.1708098202943802,0.9998689293861389,0.2732693552970886
1761914472853628000,1.8396279296875,0.2733638882637024,1.2117185592651367,0.19618548452854156
1761914472863683600,1.84968359375,0.36590394377708435,1.3727141618728638,0.14319205284118652
1761914472873739000,1.859739013671875,0.45504313707351685,1.4722650051116943,0.1219426840543747
1761914472883795000,1.869794921875,0.5235838294029236,1.509131908416748,0.12282179296016693
1761914472893851100,1.87985107421875,0.5817350745201111,1.4907033443450928,0.14357393980026245
1761914472903907000,1.889906982421875,0.6224161386489868,1.429800033569336,0.1685493290424347
1761914472913962200,1.899962158203125,0.6563349962234497,1.3371316194534302,0.19725288450717926
1761914472924018200,1.91001806640625,0.6883800029754639,1.237326741218567,0.2394661158323288
1761914472934074000,1.92007421875,0.7344515919685364,1.1535465717315674,0.28963181376457214
1761914472944129000,1.93012890625,0.788938045501709,1.0621051788330078,0.3309406340122223
1761914472954185000,1.94018505859375,0.8321531414985657,0.9622307419776917,0.3481515944004059
1761914472964241200,1.9502412109375,0.8547516465187073,0.8708339333534241,0.35538339614868164
1761914472974297000,1.960297119140625,0.8551516532897949,0.8103287816047668,0.3516365885734558
1761914472984352000,1.97035205078125,0.8147424459457397,0.7686964273452759,0.3042137026786804
1761914472994408200,1.980408203125,0.7140752673149109,0.6778889894485474,0.19336067140102386
1761914473004464000,1.990464111328125,0.5579527616500854,0.471840500831604,0.010294981300830841
1761914473014519300,2.000519287109375,0.356329083442688,0.16890886425971985,-0.19190499186515808
1761914473024575000,2.010574951171875,0.1535288393497467,-0.19996212422847748,-0.36789679527282715
1761914473034631000,2.020630859375,-0.010778877884149551,-0.5320029258728027,-0.4579257667064667
1761914473044687000,2.03068701171875,-0.10341453552246094,-0.7525632381439209,-0.46119850873947144
1761914473054742000,2.040741943359375,-0.13416419923305511,-0.86649489402771,-0.38604170083999634
1761914473064798200,2.050798095703125,-0.10343398153781891,-0.860080897808075,-0.25861769914627075
1761914473074854100,2.060854248046875,-0.018747322261333466,-0.7245230674743652,-0.0978677049279213
1761914473084909300,2.070909423828125,0.09365005791187286,-0.47563043236732483,0.053352970629930496
1761914473094965200,2.08096533203125,0.22943611443042755,-0.16453967988491058,0.17155976593494415
1761914473105021000,2.09102099609375,0.36920681595802307,0.170803964138031,0.21818293631076813
1761914473115077000,2.1010771484375,0.5082509517669678,0.5137138962745667,0.20239491760730743
1761914473125132000,2.111132080078125,0.6357396841049194,0.8584678173065186,0.1408090442419052
1761914473135188200,2.121188232421875,0.7643330693244934,1.1849969625473022,0.0522160679101944
1761914473145244200,2.131244140625,0.8872076272964478,1.4555208683013916,-0.05307812988758087
1761914473155299000,2.141299072265625,1.0036425590515137,1.6409136056900024,-0.1641431301832199
1761914473165355300,2.151355224609375,1.1148865222930908,1.7258293628692627,-0.2610449194908142
1761914473175411000,2.161410888671875,1.214833378791809,1.7333353757858276,-0.31822776794433594
1761914473185467000,2.171466796875,1.29231858253479,1.6663804054260254,-0.34670016169548035
1761914473195522000,2.18152197265625,1.3386647701263428,1.5094459056854248,-0.35246431827545166
1761914473205578000,2.191577880859375,1.3386746644973755,1.276539921760559,-0.3580479025840759
1761914473215634200,2.20163427734375,1.2993717193603516,1.0050569772720337,-0.3771020174026489
1761914473225689000,2.211689208984375,1.2406774759292603,0.7339820861816406,-0.40276503562927246
1761914473235745300,2.221745361328125,1.1880873441696167,0.49330559372901917,-0.43461138010025024
1761914473245801200,2.23180126953125,1.162384271621704,0.3067285120487213,-0.4563819169998169
1761914473255857000,2.24185693359375,1.17911958694458,0.17037147283554077,-0.45544448494911194
1761914473265912000,2.251912109375,1.2322512865066528,0.08274947106838226,-0.4375546872615814
1761914473275968000,2.261968017578125,1.313080072402954,0.0355534665286541,-0.415467768907547
1761914473286024200,2.272024169921875,1.4068888425827026,-0.005967078730463982,-0.40430355072021484
1761914473296079000,2.2820791015625,1.4889065027236938,-0.028805015608668327,-0.41177424788475037
1761914473306135300,2.29213525390625,1.5647916793823242,-0.0461973212659359,-0.4367426931858063
1761914473316191200,2.302191162109375,1.6142628192901611,-0.07498582452535629,-0.4729595482349396
1761914473326247200,2.3122470703125,1.6331135034561157,-0.11603152751922607,-0.5163094401359558
1761914473336302000,2.322302001953125,1.6149914264678955,-0.1715501844882965,-0.5523401498794556
1761914473346358000,2.33235791015625,1.568322777748108,-0.21782048046588898,-0.5720800161361694
1761914473356414000,2.3424140625,1.5071231126785278,-0.20740431547164917,-0.5605261921882629
1761914473366469000,2.35246923828125,1.4662762880325317,-0.11506347358226776,-0.514123797416687
1761914473376525000,2.362525146484375,1.450702428817749,0.06659074127674103,-0.4256399869918823
1761914473386581200,2.372581298828125,1.4729973077774048,0.31836998462677,-0.32195940613746643
1761914473396637200,2.38263720703125,1.5320169925689697,0.6028704047203064,-0.22627441585063934
1761914473406692000,2.392692138671875,1.6222339868545532,0.8885791301727295,-0.15619918704032898
1761914473416748000,2.402748046875,1.7346347570419312,1.1574678421020508,-0.11802411079406738
1761914473426804000,2.412803955078125,1.8483392000198364,1.3948372602462769,-0.10723298043012619
1761914473436859100,2.422859130859375,1.9551684856414795,1.5784238576889038,-0.11421898007392883
1761914473446915000,2.4329150390625,2.0341811180114746,1.6975553035736084,-0.14360536634922028
1761914473456971300,2.44297119140625,2.097761869430542,1.7556554079055786,-0.17290227115154266
1761914473467027200,2.453027099609375,2.142895221710205,1.7529724836349487,-0.20291583240032196
1761914473477082000,2.46308203125,2.1702075004577637,1.69101083278656,-0.2119109183549881
1761914473487138000,2.473137939453125,2.175823450088501,1.5715023279190063,-0.19385388493537903
1761914473497194000,2.483194091796875,2.155998468399048,1.399070143699646,-0.15660426020622253
1761914473507249200,2.493249267578125,2.1117441654205322,1.1663117408752441,-0.09272780269384384
1761914473517305000,2.50330517578125,2.048415422439575,0.9144496321678162,-0.005119660869240761
1761914473527361300,2.513361328125,1.9570894241333008,0.6604405045509338,0.09330358356237411
1761914473537416200,2.523416259765625,1.8374836444854736,0.4087747037410736,0.1846020668745041
1761914473547472100,2.53347216796875,1.6993191242218018,0.18698373436927795,0.2554298937320709
1761914473557528000,2.543528076171875,1.5575265884399414,0.012496350333094597,0.3001864552497864
1761914473567584000,2.553583984375,1.440393090248108,-0.09923896938562393,0.321770578622818
1761914473577639200,2.56363916015625,1.3522192239761353,-0.15374907851219177,0.33711543679237366
1761914473587695000,2.573695068359375,1.2902922630310059,-0.15889377892017365,0.34959688782691956
1761914473597751000,2.5837509765625,1.2440235614776611,-0.11620783060789108,0.36458754539489746
1761914473607806200,2.59380615234375,1.207068920135498,-0.034389931708574295,0.3725658357143402
1761914473617862000,2.60386181640625,1.1772969961166382,0.0826493427157402,0.37632542848587036
1761914473627918000,2.61391796875,1.1435397863388062,0.22401924431324005,0.36151158809661865
1761914473637974000,2.62397412109375,1.1119909286499023,0.37212109565734863,0.33860015869140625
1761914473648029200,2.634029296875,1.0847430229187012,0.4982239007949829,0.30779245495796204
1761914473658085000,2.644085205078125,1.0590174198150635,0.5788050293922424,0.2842476963996887
1761914473668141000,2.65414111328125,1.0316110849380493,0.6209200024604797,0.26934465765953064
1761914473678196200,2.6641962890625,1.0040497779846191,0.6250316500663757,0.26624900102615356
1761914473688252200,2.674252197265625,0.9735531210899353,0.6106857657432556,0.2796367108821869
1761914473698308000,2.68430810546875,0.9337748289108276,0.57487553358078,0.31160634756088257
1761914473708364000,2.694364013671875,0.8764505982398987,0.5355574488639832,0.35570991039276123
1761914473718419200,2.704419189453125,0.8135754466056824,0.49575117230415344,0.40002650022506714
1761914473728475100,2.71447509765625,0.7474587559700012,0.4456200897693634,0.4384516477584839
1761914473738531000,2.724531005859375,0.6811151504516602,0.39096614718437195,0.47017577290534973
1761914473748586200,2.734586181640625,0.6203692555427551,0.3491430878639221,0.5048072338104248
1761914473758642200,2.74464208984375,0.5763011574745178,0.32094791531562805,0.5355542302131653
1761914473768698000,2.754697998046875,0.531617283821106,0.29605457186698914,0.557023823261261
1761914473778754000,2.764754150390625,0.4804803431034088,0.2768457233905792,0.55387943983078
1761914473788809000,2.77480908203125,0.4341953992843628,0.2582155764102936,0.5231398940086365
1761914473798865200,2.784865234375,0.4001966714859009,0.25369539856910706,0.4730122983455658
1761914473808921000,2.794921142578125,0.3739925026893616,0.25892478227615356,0.44010868668556213
1761914473818976300,2.804976318359375,0.3565402626991272,0.24451307952404022,0.43517038226127625
1761914473829032200,2.8150322265625,0.3454018831253052,0.17327244579792023,0.4726455807685852
1761914473839088000,2.825088134765625,0.3375900089740753,0.06823098659515381,0.5294761061668396
1761914473849144300,2.835144287109375,0.34447669982910156,-0.045455630868673325,0.5873809456825256
1761914473859199000,2.845198974609375,0.37642183899879456,-0.1407214254140854,0.6386752724647522
1761914473869259000,2.855259033203125,0.41371914744377136,-0.24034735560417175,0.6530390381813049
1761914473879315200,2.865315185546875,0.42325618863105774,-0.3323041796684265,0.6438956260681152
1761914473889369900,2.875369873046875,0.4136648178100586,-0.36624056100845337,0.6331076622009277
1761914473899426000,2.885426025390625,0.40057137608528137,-0.38191142678260803,0.6202283501625061
1761914473909482000,2.89548193359375,0.38324591517448425,-0.4054287075996399,0.5821360945701599
1761914473919538000,2.905537841796875,0.34266841411590576,-0.40860533714294434,0.5004976987838745
1761914473929593000,2.915593017578125,0.2839411795139313,-0.3945337235927582,0.37997475266456604
1761914473939649000,2.92564892578125,0.21558448672294617,-0.35608914494514465,0.21936963498592377
1761914473949705200,2.935705322265625,0.15351872146129608,-0.26856568455696106,0.06350120902061462
1761914473959760000,2.945759765625,0.12207956612110138,-0.14569248259067535,-0.07038175314664841
1761914473969816000,2.955816162109375,0.13842391967773438,-0.030488666146993637,-0.14737986028194427
1761914473979872000,2.9658720703125,0.19360674917697906,0.06311371922492981,-0.16041098535060883
1761914473989928000,2.975927978515625,0.2890123724937439,0.11873091012239456,-0.10191677510738373
1761914473999983000,2.985983154296875,0.4101180136203766,0.16670961678028107,0.0073236930184066296
1761914474010039000,2.9960390625,0.5422875285148621,0.21267977356910706,0.14579209685325623
1761914474020095200,3.00609521484375,0.6593632698059082,0.2716815769672394,0.2814553678035736
1761914474030150100,3.016150146484375,0.7647770643234253,0.35121288895606995,0.39853939414024353
1761914474040206000,3.0262060546875,0.843258798122406,0.4369203448295593,0.49022695422172546
1761914474050262000,3.036261962890625,0.895642876625061,0.5003549456596375,0.558434247970581
1761914474060318000,3.04631787109375,0.921868622303009,0.5252086520195007,0.6254494786262512
1761914474070373000,3.056373046875,0.9310837388038635,0.5196692943572998,0.7065912485122681
1761914474080429000,3.066428955078125,0.9316091537475586,0.4986598789691925,0.7961850166320801
1761914474090485000,3.076485107421875,0.9369581341743469,0.4626768231391907,0.88398277759552
1761914474100540200,3.0865400390625,0.9473358988761902,0.42463862895965576,0.9756932854652405
1761914474110596000,3.09659619140625,0.950554370880127,0.3778895139694214,1.0434304475784302
1761914474120652000,3.106652099609375,0.936279296875,0.340933620929718,1.0818641185760498
1761914474130708000,3.1167080078125,0.89735347032547,0.3068542182445526,1.0854040384292603
1761914474140763100,3.12676318359375,0.8479390144348145,0.28823551535606384,1.0443087816238403
1761914474150819000,3.136819091796875,0.7738264799118042,0.2744816243648529,0.9687586426734924
1761914474160875000,3.146875,0.6967092752456665,0.27002161741256714,0.8500895500183105
1761914474170930200,3.15693017578125,0.5972104072570801,0.2916949689388275,0.706223726272583
1761914474180986000,3.166986083984375,0.48566338419914246,0.336490660905838,0.5437333583831787
1761914474191042000,3.1770419921875,0.35970383882522583,0.37727272510528564,0.36518970131874084
1761914474201098000,3.187097900390625,0.25017815828323364,0.41157370805740356,0.20473156869411469
1761914474211153200,3.197153076171875,0.15453924238681793,0.4393315613269806,0.06644773483276367
1761914474221209000,3.207208984375,0.10028985142707825,0.44424429535865784,-0.047517452389001846
1761914474231265000,3.21726513671875,0.08780601620674133,0.4281572103500366,-0.14273984730243683
1761914474241320200,3.2273203125,0.11301124095916748,0.39641499519348145,-0.2269093096256256
1761914474251376000,3.237376220703125,0.1765824854373932,0.36210307478904724,-0.31713932752609253
1761914474261432000,3.24743212890625,0.2622433304786682,0.35787397623062134,-0.39968669414520264
1761914474271488000,3.257488037109375,0.35572507977485657,0.43010371923446655,-0.45699870586395264
1761914474281543000,3.26754296875,0.44398170709609985,0.5732978582382202,-0.47662726044654846
1761914474291599000,3.27759912109375,0.5077846646308899,0.7185091376304626,-0.47838547825813293
1761914474301655000,3.287655029296875,0.5290819406509399,0.8216906785964966,-0.47599929571151733
1761914474311710200,3.297710205078125,0.5048559904098511,0.8755927681922913,-0.48415789008140564
1761914474321766100,3.30776611328125,0.45573022961616516,0.8707367777824402,-0.5006489753723145
1761914474331822000,3.317822021484375,0.3827130198478699,0.8299080729484558,-0.5272699594497681
1761914474341878300,3.327878173828125,0.29979071021080017,0.7700868248939514,-0.5454846024513245
1761914474351933000,3.337932861328125,0.24166429042816162,0.7001064419746399,-0.535730242729187
1761914474361989000,3.347989013671875,0.19111882150173187,0.6216632723808289,-0.510914146900177
1761914474372045000,3.358045166015625,0.15799230337142944,0.527662992477417,-0.47701317071914673
1761914474382100200,3.368100341796875,0.1401350051164627,0.4213850498199463,-0.4418085813522339
1761914474392156200,3.37815625,0.13098491728305817,0.2994668781757355,-0.4151516556739807
1761914474402212000,3.388212158203125,0.12070377916097641,0.17894631624221802,-0.39878547191619873
1761914474412268300,3.398268310546875,0.1062910184264183,0.05799326300621033,-0.38202354311943054
1761914474422323000,3.408322998046875,0.09175548702478409,-0.03596785292029381,-0.3475382626056671
1761914474432379000,3.41837890625,0.07994116842746735,-0.10700740665197372,-0.2971046566963196
1761914474442435000,3.42843505859375,0.05734504759311676,-0.17399096488952637,-0.25203463435173035
1761914474452490000,3.438489990234375,0.030241791158914566,-0.25862595438957214,-0.22923904657363892
1761914474462546200,3.448546142578125,-0.001023452845402062,-0.355286180973053,-0.24355299770832062
1761914474472602000,3.45860205078125,-0.05413993448019028,-0.4577292203903198,-0.30988195538520813
1761914474482658000,3.468657958984375,-0.13487659394741058,-0.5309277772903442,-0.4210606813430786
1761914474492713000,3.478712890625,-0.2256978452205658,-0.5327547192573547,-0.5602558255195618
1761914474502769000,3.488768798828125,-0.3183518648147583,-0.4799745976924896,-0.7123987674713135
1761914474512825000,3.4988251953125,-0.40527158975601196,-0.40097326040267944,-0.8605440258979797
1761914474522880000,3.5088798828125,-0.4740740954875946,-0.3135925531387329,-0.985515296459198
1761914474532936200,3.518936279296875,-0.5234568119049072,-0.228485107421875,-1.0661669969558716
1761914474542992100,3.5289921875,-0.5419521927833557,-0.13699673116207123,-1.0760140419006348
1761914474553048000,3.539048095703125,-0.5238035917282104,-0.025164209306240082,-1.0041755437850952
1761914474563103000,3.54910302734375,-0.46362730860710144,0.11030840128660202,-0.8622375726699829
1761914474573159000,3.559158935546875,-0.3677774965763092,0.2522338330745697,-0.6744138598442078
1761914474583215000,3.569215087890625,-0.2563244700431824,0.38070979714393616,-0.4846463203430176
1761914474593270000,3.57927001953125,-0.13935443758964539,0.4921170175075531,-0.3213271498680115
1761914474603326200,3.589326171875,-0.033428795635700226,0.576744556427002,-0.20736703276634216
1761914474613382100,3.599382080078125,0.05729338154196739,0.6554723978042603,-0.14356036484241486
1761914474623438000,3.60943798828125,0.1312115490436554,0.7130840420722961,-0.10799943655729294
1761914474633493000,3.619492919921875,0.18218791484832764,0.7184561491012573,-0.09499042481184006
1761914474643549000,3.629548828125,0.21311627328395844,0.6583262085914612,-0.09592306613922119
1761914474653604900,3.63960498046875,0.2223648875951767,0.5422416925430298,-0.10049545019865036
1761914474663660000,3.649659912109375,0.2255028933286667,0.39148229360580444,-0.09213125705718994
1761914474673716000,3.659716064453125,0.21762126684188843,0.2461668998003006,-0.06495210528373718
1761914474683772200,3.669772216796875,0.20610842108726501,0.10326939821243286,-0.01990819349884987
1761914474693828000,3.679828125,0.19680733978748322,-0.006312756799161434,0.050632283091545105
1761914474703883300,3.68988330078125,0.18534056842327118,-0.09018421918153763,0.12712226808071136
1761914474713939000,3.69993896484375,0.17097307741641998,-0.17078958451747894,0.20705172419548035
1761914474723995000,3.709994873046875,0.1585979014635086,-0.25705230236053467,0.290205180644989
1761914474734050000,3.720050048828125,0.13850754499435425,-0.34442874789237976,0.3537586033344269
1761914474744106000,3.73010595703125,0.1185479536652565,-0.3947960436344147,0.3850100040435791
1761914474754162200,3.740162109375,0.0988919585943222,-0.3853548765182495,0.3884609341621399
1761914474764218000,3.750218017578125,0.08651305735111237,-0.30372607707977295,0.359273225069046
1761914474774273300,3.760273193359375,0.0788431465625763,-0.1687898188829422,0.3042120933532715
1761914474784329200,3.7703291015625,0.06034749746322632,-0.050033338367938995,0.20133577287197113
1761914474794385000,3.780385009765625,0.016336895525455475,0.03778519481420517,0.055027298629283905
1761914474804440000,3.790440185546875,-0.05410398170351982,0.0899549201130867,-0.10522868484258652
1761914474814496000,3.80049609375,-0.13720445334911346,0.09238798916339874,-0.2646889090538025
1761914474824552000,3.810552001953125,-0.2410118132829666,0.028537901118397713,-0.41254550218582153
1761914474834608000,3.820608154296875,-0.35572826862335205,-0.06689061969518661,-0.535721480846405
1761914474844663000,3.8306630859375,-0.45077863335609436,-0.18169230222702026,-0.6171106100082397
1761914474854719200,3.84071923828125,-0.5134750604629517,-0.3023180365562439,-0.6449430584907532
1761914474864775200,3.850775146484375,-0.5496718883514404,-0.38959169387817383,-0.6027562022209167
1761914474874826800,3.86082666015625,-0.5491539239883423,-0.43394291400909424,-0.5165475010871887
1761914474884882700,3.870882568359375,-0.4896027147769928,-0.4183218777179718,-0.3839505910873413
1761914474894938600,3.880938720703125,-0.3908234238624573,-0.3358842730522156,-0.21507582068443298
1761914474904994800,3.890994873046875,-0.2874211370944977,-0.17998893558979034,-0.0232350155711174
1761914474915049700,3.9010498046875,-0.19396202266216278,0.040767934173345566,0.17998893558979034
1761914474925105700,3.911105712890625,-0.11388368904590607,0.31667888164520264,0.3838033080101013
1761914474935161600,3.92116162109375,-0.05624596029520035,0.5907399654388428,0.5635470151901245
1761914474945216800,3.931216796875,-0.009333314374089241,0.8268811702728271,0.7141079902648926
1761914474955272700,3.941272705078125,0.032704416662454605,1.0142159461975098,0.8420166969299316
1761914474965328600,3.95132861328125,0.07855898886919022,1.1600332260131836,0.9367554783821106
1761914474975384800,3.961384765625,0.13388855755329132,1.2766131162643433,1.0009959936141968
1761914474985439700,3.971439697265625,0.19902628660202026,1.3592808246612549,1.0213062763214111
1761914474995495700,3.98149560546875,0.2655584514141083,1.419047236442566,0.9857538938522339
1761914475005551600,3.991551513671875,0.32558128237724304,1.4144903421401978,0.8914231061935425
1761914475015604700,4.001604736328125,0.36517077684402466,1.3276257514953613,0.7457979917526245
1761914475025660000,4.011659912109375,0.36946380138397217,1.1901943683624268,0.575332522392273
1761914475035715600,4.021715576171875,0.3291163742542267,1.0318888425827026,0.4173088073730469
1761914475045771500,4.031771484375,0.26570838689804077,0.8603834509849548,0.28319254517555237
1761914475055826700,4.04182666015625,0.18827377259731293,0.6577538847923279,0.18043768405914307
1761914475065882600,4.051882568359375,0.09704559296369553,0.4054817259311676,0.09477098286151886
1761914475075938800,4.061938720703125,-0.013317669741809368,0.11752742528915405,0.02172766625881195
1761914475085994800,4.071994873046875,-0.12674249708652496,-0.147304505109787,-0.037467215210199356
1761914475096049700,4.082049560546875,-0.22760306298732758,-0.34764745831489563,-0.0874859094619751
1761914475106105900,4.09210595703125,-0.30739590525627136,-0.4851920008659363,-0.14460858702659607
1761914475116161500,4.10216162109375,-0.3669143617153168,-0.5493733882904053,-0.20221301913261414
1761914475126217700,4.1122177734375,-0.4030587673187256,-0.5407844185829163,-0.268644243478775
1761914475136272600,4.122272705078125,-0.40266889333724976,-0.46991264820098877,-0.33518731594085693
1761914475146328600,4.13232861328125,-0.35571175813674927,-0.3577885031700134,-0.3900439143180847
1761914475156384800,4.142384765625,-0.26204174757003784,-0.22071319818496704,-0.4199770390987396
1761914475166439700,4.152439697265625,-0.12830443680286407,-0.07009546458721161,-0.4252985715866089
1761914475176495900,4.162495849609375,0.016806144267320633,0.06071474775671959,-0.4266088306903839
1761914475186551600,4.172551513671875,0.16059181094169617,0.17054297029972076,-0.43543481826782227
1761914475196607500,4.182607421875,0.28347378969192505,0.26057353615760803,-0.45951274037361145
1761914475206662700,4.19266259765625,0.37270647287368774,0.3374382257461548,-0.4827016592025757
1761914475216718600,4.202718505859375,0.4231794774532318,0.402648389339447,-0.502544641494751
1761914475226774800,4.21277490234375,0.4378545582294464,0.4621069133281708,-0.5217974185943604
1761914475236829700,4.22282958984375,0.43394559621810913,0.5444928407669067,-0.5361568927764893
1761914475246886000,4.232885986328125,0.41437268257141113,0.6194992065429688,-0.5494114756584167
1761914475256941800,4.24294189453125,0.38627395033836365,0.6836336851119995,-0.5674504041671753
1761914475266997500,4.25299755859375,0.3611938953399658,0.7335221767425537,-0.5851233601570129
1761914475277052700,4.263052734375,0.33916768431663513,0.7511022090911865,-0.6070351004600525
1761914475287108600,4.273108642578125,0.33008575439453125,0.7143151760101318,-0.6171321868896484
1761914475297164800,4.283164794921875,0.3301430344581604,0.6386989951133728,-0.6151058077812195
1761914475307219700,4.2932197265625,0.3337441384792328,0.5241332650184631,-0.6028006672859192
1761914475317275600,4.303275634765625,0.33423149585723877,0.3813835680484772,-0.5741338729858398
1761914475327331800,4.313331787109375,0.32947057485580444,0.2232610434293747,-0.5203100442886353
1761914475337387800,4.3233876953125,0.3287544548511505,0.05300169810652733,-0.4492473006248474
1761914475347442700,4.333442626953125,0.3300516903400421,-0.1412106603384018,-0.3786833882331848
1761914475357498600,4.34349853515625,0.34295281767845154,-0.3551466464996338,-0.32446569204330444
1761914475367554600,4.353554443359375,0.36310631036758423,-0.5814650058746338,-0.2728560268878937
1761914475377610800,4.36361083984375,0.3923608660697937,-0.7691736221313477,-0.20179037749767303
1761914475387665700,4.373665771484375,0.42021939158439636,-0.8857945203781128,-0.08528932929039001
1761914475397721900,4.383721923828125,0.4550713896751404,-0.9288772940635681,0.08524458855390549
1761914475407777800,4.39377783203125,0.4777146279811859,-0.912668764591217,0.2805081009864807
1761914475417832700,4.403832763671875,0.4878503680229187,-0.8289046287536621,0.4663868844509125
1761914475427888600,4.413888671875,0.49887770414352417,-0.707278847694397,0.6178653240203857
1761914475437944600,4.423944580078125,0.5060482621192932,-0.5512306690216064,0.7038739919662476
1761914475448000800,4.434000732421875,0.4980052709579468,-0.3663782477378845,0.7178465723991394
1761914475458055700,4.4440556640625,0.47385385632514954,-0.1502038836479187,0.6841660737991333
1761914475468112000,4.45411181640625,0.4331599473953247,0.07625962048768997,0.6346496343612671
1761914475478167800,4.464167724609375,0.372763991355896,0.2889567017555237,0.5689052939414978
1761914475488222700,4.47422265625,0.29799574613571167,0.45546525716781616,0.5166303515434265
1761914475498278700,4.484278564453125,0.21313118934631348,0.5588651299476624,0.4656832814216614
1761914475508334600,4.49433447265625,0.12852469086647034,0.6040635108947754,0.4157186448574066
1761914475518390500,4.504390625,0.025286713615059853,0.608717143535614,0.36560994386672974
1761914475528445700,4.51444580078125,-0.08224267512559891,0.5831795334815979,0.32499831914901733
1761914475538501600,4.524501708984375,-0.20802004635334015,0.5296366810798645,0.2961216866970062
1761914475548557800,4.534557861328125,-0.3318716883659363,0.44267863035202026,0.2862565219402313
1761914475558613800,4.54461376953125,-0.4481793940067291,0.3205079734325409,0.29565614461898804
1761914475568668700,4.554668701171875,-0.52571040391922,0.21466276049613953,0.3245658278465271
1761914475578724600,4.564724609375,-0.5504727363586426,0.13585823774337769,0.33611515164375305
1761914475588780500,4.574780517578125,-0.5575162768363953,0.0979771614074707,0.3053726851940155
1761914475598835700,4.584835693359375,-0.5694325566291809,0.12963548302650452,0.22668321430683136
1761914475608892700,4.594892578125,-0.5727546215057373,0.22859854996204376,0.11996501684188843
1761914475618948600,4.604948486328125,-0.556419312953949,0.3965468108654022,-0.003599528456106782
1761914475629004800,4.6150048828125,-0.5205254554748535,0.5756281614303589,-0.15360793471336365
1761914475639059700,4.625059814453125,-0.46095457673072815,0.7222519516944885,-0.3365740180015564
1761914475649116000,4.635115966796875,-0.37639254331588745,0.7779359817504883,-0.5569103956222534
1761914475659171600,4.645171630859375,-0.2844511568546295,0.7634145617485046,-0.7901894450187683
1761914475669226800,4.655226806640625,-0.18223878741264343,0.7226572632789612,-0.9989194869995117
1761914475679282700,4.66528271484375,-0.08218222111463547,0.6865893006324768,-1.1410510540008545
1761914475689338600,4.675338623046875,0.0022442457266151905,0.638395369052887,-1.2206870317459106
1761914475699394800,4.685394775390625,0.08154013007879257,0.5724312663078308,-1.2415515184402466
1761914475709449700,4.69544970703125,0.16345949470996857,0.48714277148246765,-1.1907235383987427
1761914475719505700,4.705505615234375,0.23499013483524323,0.41439905762672424,-1.062865138053894
1761914475729561900,4.715561767578125,0.2966071665287018,0.41051483154296875,-0.8366072773933411
1761914475739616500,4.725616455078125,0.359579473733902,0.4968806207180023,-0.5414323806762695
1761914475749672700,4.735672607421875,0.4545091688632965,0.6468070149421692,-0.2306305468082428
1761914475759728600,4.745728759765625,0.5705324411392212,0.8070882558822632,0.03003832697868347
1761914475769784600,4.75578466796875,0.707495927810669,0.9137654304504395,0.1957165002822876
1761914475779839700,4.76583984375,0.8462849259376526,0.9609196186065674,0.2894587218761444
1761914475789895700,4.775895751953125,0.9738631248474121,0.9750669002532959,0.33250364661216736
1761914475799952000,4.785951904296875,1.066443920135498,0.9578314423561096,0.3493662476539612
1761914475810007600,4.796007568359375,1.094826102256775,0.8971100449562073,0.34690362215042114
1761914475820062700,4.806062744140625,1.0257015228271484,0.7642571926116943,0.33236756920814514
1761914475830118700,4.81611865234375,0.8809220194816589,0.5778816938400269,0.3343212604522705
1761914475840174600,4.826174560546875,0.6657599210739136,0.33581024408340454,0.3536891043186188
1761914475850229800,4.836229736328125,0.417522132396698,0.06416647136211395,0.3844723105430603
1761914475860285700,4.84628564453125,0.16539402306079865,-0.19816634058952332,0.44288021326065063
1761914475870342000,4.856341796875,-0.054851263761520386,-0.38470932841300964,0.51577228307724
1761914475880402000,4.86640185546875,-0.22061333060264587,-0.49292635917663574,0.5880230069160461
1761914475890456800,4.876456787109375,-0.32646840810775757,-0.550676167011261,0.6355082392692566
1761914475900513000,4.886512939453125,-0.3954189717769623,-0.5451954007148743,0.6621001958847046
1761914475910569000,4.89656884765625,-0.4203735888004303,-0.48057273030281067,0.6559605598449707
1761914475920624000,4.9066240234375,-0.42379334568977356,-0.4030316174030304,0.6143949627876282
1761914475930680000,4.91668017578125,-0.42321091890335083,-0.30942443013191223,0.5392941236495972
1761914475940736000,4.926736083984375,-0.4152693748474121,-0.20095254480838776,0.44762757420539856
1761914475950792000,4.9367919921875,-0.4144781529903412,-0.09871059656143188,0.3528192937374115
1761914475960846800,4.946846923828125,-0.3981439173221588,-0.020924722775816917,0.25394731760025024
1761914475970903000,4.956903076171875,-0.3594859838485718,0.0573359951376915,0.15939179062843323
1761914475980959000,4.966958984375,-0.30807286500930786,0.1481575071811676,0.07151412963867188
1761914475991015000,4.977014892578125,-0.2657424509525299,0.25072968006134033,-0.01167316734790802
1761914476001070000,4.987070068359375,-0.2516689896583557,0.3550254702568054,-0.11016085743904114
1761914476011126000,4.9971259765625,-0.25427863001823425,0.46462252736091614,-0.23488707840442657
1761914476021181700,5.007181640625,-0.2682993710041046,0.5849044919013977,-0.36714044213294983
1761914476031236900,5.01723681640625,-0.2842913866043091,0.704433262348175,-0.48380956053733826
1761914476041292800,5.027292724609375,-0.2973214387893677,0.8139064908027649,-0.5696163177490234
1761914476051349000,5.037348876953125,-0.2962002456188202,0.886894166469574,-0.6009098291397095
1761914476061405000,5.047405029296875,-0.2815680205821991,0.9072742462158203,-0.6004903316497803
1761914476071460000,5.057460205078125,-0.2552187144756317,0.8720893859863281,-0.5812088251113892
1761914476081516000,5.06751611328125,-0.20901793241500854,0.7758709788322449,-0.5472292900085449
1761914476091572000,5.077572021484375,-0.16136039793491364,0.6499407291412354,-0.5052639842033386
1761914476101627000,5.087626953125,-0.10813046246767044,0.5045132040977478,-0.44613727927207947
1761914476111682800,5.097682861328125,-0.06133073568344116,0.34511318802833557,-0.3675609827041626
1761914476121739000,5.107739013671875,-0.03334197774529457,0.19160830974578857,-0.26781731843948364
1761914476131795000,5.117794921875,-0.028011128306388855,0.04062439128756523,-0.16268132627010345
1761914476141850000,5.12785009765625,-0.03381069377064705,-0.10191038250923157,-0.061043381690979004
1761914476151906000,5.137906005859375,-0.04651983082294464,-0.2281908243894577,0.02713974192738533
1761914476161962000,5.1479619140625,-0.05843587964773178,-0.34820646047592163,0.10538128018379211
1761914476172018200,5.15801806640625,-0.061221811920404434,-0.4458374083042145,0.16434793174266815
1761914476182072800,5.16807275390625,-0.05347947031259537,-0.5029693841934204,0.2171594798564911
1761914476192129000,5.17812890625,-0.033476199954748154,-0.5259268879890442,0.25713273882865906
1761914476202185000,5.18818505859375,-0.0017478326335549355,-0.5252427458763123,0.29714593291282654
1761914476212240000,5.198239990234375,0.035414449870586395,-0.5366035103797913,0.33865609765052795
1761914476222296000,5.208296142578125,0.06315766274929047,-0.5747207999229431,0.39836281538009644
1761914476232352000,5.21835205078125,0.08799030631780624,-0.6108332872390747,0.47260111570358276
1761914476242408000,5.228407958984375,0.1056436076760292,-0.6551195383071899,0.5482540726661682
1761914476252462800,5.238462890625,0.12438347190618515,-0.6715142130851746,0.6075091361999512
1761914476262518800,5.248518798828125,0.14979135990142822,-0.6170610785484314,0.6580519080162048
1761914476272575000,5.258574951171875,0.18004406988620758,-0.5486660599708557,0.6749568581581116
1761914476282630000,5.2686298828125,0.1916743665933609,-0.47928908467292786,0.6522680521011353
1761914476292686000,5.27868603515625,0.17316485941410065,-0.41659802198410034,0.5978085398674011
1761914476302742000,5.288741943359375,0.128234401345253,-0.35485875606536865,0.5208637118339539
1761914476312798000,5.2987978515625,0.0883578285574913,-0.2953498959541321,0.4553816318511963
1761914476322852900,5.308852783203125,0.05047515779733658,-0.2875817120075226,0.40098869800567627
1761914476332908800,5.31890869140625,-0.0017712684348225594,-0.3729301691055298,0.3614724576473236
1761914476342965000,5.328965087890625,-0.09514062851667404,-0.512552797794342,0.3442782759666443
1761914476353021000,5.33902099609375,-0.20183990895748138,-0.6543586254119873,0.3477523624897003
1761914476363076000,5.349076171875,-0.297414630651474,-0.7518985271453857,0.378895103931427
1761914476373132000,5.359132080078125,-0.36671915650367737,-0.8037489056587219,0.4186569154262543
1761914476383188000,5.36918798828125,-0.41083306074142456,-0.7915226221084595,0.4646449089050293
1761914476393243000,5.379242919921875,-0.417332261800766,-0.7130826711654663,0.517267644405365
1761914476403298800,5.389298828125,-0.38096198439598083,-0.5615208745002747,0.5714437961578369
1761914476413354800,5.399354736328125,-0.30545899271965027,-0.36052995920181274,0.6200869679450989
1761914476423411000,5.409410888671875,-0.21719171106815338,-0.16586114466190338,0.6353045105934143
1761914476433465900,5.4194658203125,-0.13494449853897095,-0.020497284829616547,0.6051644682884216
1761914476443522000,5.42952197265625,-0.07525720447301865,0.07015006244182587,0.5448307991027832
1761914476453578000,5.439577880859375,-0.041600439697504044,0.11230097711086273,0.48100417852401733
1761914476463633000,5.4496328125,-0.02967320755124092,0.10881649702787399,0.4205767810344696
1761914476473688800,5.459688720703125,-0.048528920859098434,0.060807157307863235,0.3726513385772705
1761914476483744800,5.469744873046875,-0.1025942862033844,-0.023427560925483704,0.3356246054172516
1761914476493801000,5.479801025390625,-0.19072601199150085,-0.14910133183002472,0.2960020899772644
1761914476503855900,5.48985595703125,-0.30588242411613464,-0.30787739157676697,0.23869407176971436
1761914476513912000,5.499912109375,-0.4097244143486023,-0.45372673869132996,0.167179137468338
1761914476523968000,5.509968017578125,-0.49493277072906494,-0.538113534450531,0.0906263068318367
1761914476534024000,5.52002392578125,-0.5577953457832336,-0.5317277908325195,0.028369588777422905
1761914476544078800,5.530078857421875,-0.6043780446052551,-0.4402514100074768,-0.025585787370800972
1761914476554134800,5.540134765625,-0.6230859756469727,-0.28247910737991333,-0.07329551875591278
1761914476564191000,5.55019091796875,-0.6021801233291626,-0.08592130243778229,-0.12062441557645798
1761914476574246000,5.560245849609375,-0.5403327345848083,0.14171531796455383,-0.17076295614242554
1761914476584301800,5.5703017578125,-0.4499570429325104,0.37863385677337646,-0.2301517128944397
1761914476594358000,5.58035791015625,-0.3447943925857544,0.6054661870002747,-0.3028394877910614
1761914476604414000,5.5904140625,-0.24270372092723846,0.8063090443611145,-0.37736406922340393
1761914476614469000,5.60046923828125,-0.14211639761924744,0.9708542823791504,-0.44397851824760437
1761914476624524800,5.61052490234375,-0.0544443316757679,1.0588427782058716,-0.5122060179710388
1761914476634580700,5.620580810546875,0.011346397921442986,1.0833989381790161,-0.5841782093048096
1761914476644636000,5.630635986328125,0.06786826252937317,1.0535537004470825,-0.6514672636985779
1761914476654691800,5.64069189453125,0.09429001808166504,0.9495207667350769,-0.740446925163269
1761914476664748000,5.650748046875,0.1023082584142685,0.7911335229873657,-0.8420955538749695
1761914476674804000,5.660803955078125,0.08629707247018814,0.5768042206764221,-0.9267073273658752
1761914476684859100,5.670859130859375,0.03764910623431206,0.3153212070465088,-0.9992587566375732
1761914476694914800,5.680914794921875,-0.04909723997116089,0.02684546262025833,-1.056337833404541
1761914476704970800,5.690970703125,-0.1466890424489975,-0.2814721465110779,-1.0965951681137085
1761914476715027000,5.70102685546875,-0.2555321753025055,-0.5807318091392517,-1.1269432306289673
1761914476725081900,5.711081787109375,-0.34660056233406067,-0.8391756415367126,-1.1326618194580078
1761914476735138000,5.721137939453125,-0.4024105668067932,-1.0414429903030396,-1.1064491271972656
1761914476745194000,5.731194091796875,-0.422823429107666,-1.1928703784942627,-1.0248078107833862
1761914476755249000,5.741248779296875,-0.39962249994277954,-1.2937372922897339,-0.8765469789505005
1761914476765305000,5.75130517578125,-0.34721335768699646,-1.3572107553482056,-0.6675998568534851
1761914476775360800,5.76136083984375,-0.26281270384788513,-1.3775554895401,-0.40646496415138245
1761914476785417000,5.7714169921875,-0.1545080840587616,-1.3343555927276611,-0.12891191244125366
1761914476795472000,5.781471923828125,-0.04199405387043953,-1.2185202836990356,0.1347074806690216
1761914476805527800,5.79152783203125,0.04325399547815323,-1.0452512502670288,0.3610104024410248
1761914476815584000,5.801583984375,0.10179214179515839,-0.8522083759307861,0.5191880464553833
1761914476825640000,5.811639892578125,0.1390841156244278,-0.6572449803352356,0.6255826354026794
1761914476835695000,5.821695068359375,0.14260801672935486,-0.47500166296958923,0.6781942248344421
1761914476845751000,5.8317509765625,0.0949813723564148,-0.3216318190097809,0.6909893751144409
1761914476855806700,5.841806640625,-0.0028644960839301348,-0.20472703874111176,0.6846861839294434
1761914476865862000,5.85186181640625,-0.15585164725780487,-0.12367001175880432,0.663564145565033
1761914476875913500,5.86191357421875,-0.35222381353378296,-0.09860540181398392,0.6439741849899292
1761914476885969400,5.871969482421875,-0.5707058310508728,-0.10294449329376221,0.6276074647903442
1761914476896025300,5.882025390625,-0.7788446545600891,-0.10806255042552948,0.6275584697723389
1761914476906080500,5.89208056640625,-0.9529533386230469,-0.0989588052034378,0.6442668437957764
1761914476916136400,5.902136474609375,-1.0685094594955444,-0.026095516979694366,0.6794368624687195
1761914476926192600,5.912192626953125,-1.1169739961624146,0.05781163275241852,0.698914110660553
1761914476936247300,5.922247314453125,-1.1181238889694214,0.11592020839452744,0.6852505207061768
1761914476946303500,5.932303466796875,-1.100796103477478,0.19441474974155426,0.6569400429725647
1761914476956359400,5.942359375,-1.0658037662506104,0.31233713030815125,0.6270409822463989
1761914476966415400,5.952415283203125,-1.00232994556427,0.45420026779174805,0.5916175246238708
1761914476976470500,5.962470458984375,-0.9193181395530701,0.5404406189918518,0.5259231925010681
1761914476986526500,5.9725263671875,-0.8443349599838257,0.5222629308700562,0.4060431122779846
1761914476996582400,5.98258251953125,-0.7989799976348877,0.416585236787796,0.26598188281059265
1761914477006638600,5.992638671875,-0.7643805146217346,0.24511495232582092,0.1399853378534317
1761914477016693200,6.002693359375,-0.7348564267158508,0.05596340075135231,0.06758463382720947
1761914477026749400,6.01274951171875,-0.6892420649528503,-0.13647209107875824,0.048416003584861755
1761914477036805400,6.022805419921875,-0.6400923728942871,-0.33298808336257935,0.07908602803945541
1761914477046860500,6.032860595703125,-0.5870139598846436,-0.5078307390213013,0.1514771431684494
1761914477056916500,6.04291650390625,-0.514422595500946,-0.5923642516136169,0.2598384916782379
1761914477066972400,6.052972412109375,-0.40471339225769043,-0.5906568765640259,0.38422703742980957
1761914477077028600,6.063028564453125,-0.266815185546875,-0.5156100988388062,0.5008103847503662
1761914477087083300,6.073083251953125,-0.10425955802202225,-0.39921557903289795,0.5840871334075928
1761914477097139500,6.083139404296875,0.05175507441163063,-0.27665236592292786,0.6229671835899353
1761914477107195400,6.0931953125,0.20072324573993683,-0.16032522916793823,0.6153721213340759
1761914477117250600,6.10325048828125,0.3578025996685028,-0.038960449397563934,0.5701492428779602
1761914477127306500,6.113306396484375,0.5223755836486816,0.06198267638683319,0.5001861453056335
1761914477137362400,6.123362548828125,0.6794437766075134,0.14675694704055786,0.4399922788143158
1761914477147418600,6.133418701171875,0.8125834465026855,0.2027488499879837,0.4033924639225006
1761914477157473300,6.143473388671875,0.9053714275360107,0.20706157386302948,0.37442445755004883
1761914477167529500,6.153529541015625,0.937248945236206,0.14178936183452606,0.3459653854370117
1761914477177585400,6.16358544921875,0.8971643447875977,-0.003626426449045539,0.29218897223472595
1761914477187641300,6.173641357421875,0.7794451713562012,-0.20755238831043243,0.225890651345253
1761914477197696500,6.183696533203125,0.5985729098320007,-0.4300922453403473,0.15995371341705322
1761914477207752400,6.19375244140625,0.38442304730415344,-0.661106288433075,0.10982184112071991
1761914477217808400,6.203808349609375,0.18159721791744232,-0.8822192549705505,0.08587123453617096
1761914477227863600,6.213863525390625,0.00939243659377098,-1.0543813705444336,0.09766397625207901
1761914477237919200,6.223919189453125,-0.11780333518981934,-1.1530358791351318,0.1265385001897812
1761914477247975400,6.233975341796875,-0.1943894475698471,-1.1772875785827637,0.14159175753593445
1761914477258031400,6.24403125,-0.22067245841026306,-1.1316086053848267,0.12459039688110352
1761914477268086500,6.25408642578125,-0.19234921038150787,-1.0243782997131348,0.0733698233962059
1761914477278142500,6.264142578125,-0.11862970888614655,-0.8620316982269287,0.0019494339358061552
1761914477288198400,6.274198486328125,-0.011411112733185291,-0.689348042011261,-0.07858402281999588
1761914477298253600,6.284253662109375,0.09618619084358215,-0.5343483686447144,-0.16069647669792175
1761914477308309500,6.2943095703125,0.18029068410396576,-0.4062441885471344,-0.22232069075107574
1761914477318365400,6.304365478515625,0.23672625422477722,-0.29679545760154724,-0.25532498955726624
1761914477328421400,6.31442138671875,0.2565425634384155,-0.20959876477718353,-0.2583348751068115
1761914477338476500,6.3244765625,0.2537081837654114,-0.14479580521583557,-0.25314703583717346
1761914477348532500,6.334532470703125,0.2246280461549759,-0.11204478144645691,-0.25333958864212036
1761914477358588400,6.34458837890625,0.18987566232681274,-0.12236106395721436,-0.27472397685050964
1761914477368644400,6.354644287109375,0.15844157338142395,-0.16221126914024353,-0.3126426041126251
1761914477378699500,6.364699462890625,0.14234009385108948,-0.2263103723526001,-0.3555479943752289
1761914477388755200,6.374755126953125,0.14540113508701324,-0.3004855215549469,-0.39190465211868286
1761914477398811400,6.384811279296875,0.1537991464138031,-0.36495691537857056,-0.420285701751709
1761914477408866300,6.3948662109375,0.1759156435728073,-0.4041011333465576,-0.43836697936058044
1761914477418922500,6.404922607421875,0.21230080723762512,-0.4327005445957184,-0.4484182596206665
1761914477428978400,6.414978515625,0.2565865218639374,-0.43625161051750183,-0.4467969238758087
1761914477439034400,6.425034423828125,0.29240548610687256,-0.41367653012275696,-0.4213744103908539
1761914477449089500,6.435089599609375,0.3058896064758301,-0.3568041920661926,-0.378034383058548
1761914477459145500,6.4451455078125,0.29733288288116455,-0.25981879234313965,-0.31400907039642334
1761914477469201400,6.455201416015625,0.2790215015411377,-0.1492728441953659,-0.25579288601875305
1761914477479256300,6.46525634765625,0.27453356981277466,-0.04141109064221382,-0.19095690548419952
1761914477489312500,6.4753125,0.28854605555534363,0.04807351902127266,-0.13087493181228638
1761914477499368400,6.485368408203125,0.32771074771881104,0.11812850087881088,-0.07924874871969223
1761914477509424400,6.49542431640625,0.37921470403671265,0.14873355627059937,-0.03495931625366211
1761914477519479600,6.5054794921875,0.4346292316913605,0.1594676822423935,-0.00009880327706923708
1761914477529535500,6.515535400390625,0.4847826659679413,0.17667171359062195,0.034458909183740616
1761914477539591400,6.52559130859375,0.5317049026489258,0.19114971160888672,0.05655542016029358
1761914477549647400,6.5356474609375,0.570166826248169,0.187242329120636,0.06082579866051674
1761914477559702300,6.545702392578125,0.5844938158988953,0.13160888850688934,0.05028900131583214
1761914477569758500,6.555758544921875,0.5528234839439392,0.03419845178723335,0.027722973376512527
1761914477579814400,6.565814453125,0.5017626881599426,-0.10470963269472122,-0.005250155925750732
1761914477589869600,6.57586962890625,0.441390722990036,-0.23597577214241028,-0.02322143316268921
1761914477599925500,6.585925537109375,0.3812946379184723,-0.3277035653591156,-0.011226555332541466
1761914477609981400,6.5959814453125,0.3421131372451782,-0.3320043087005615,0.03724963217973709
1761914477620037600,6.60603759765625,0.32404598593711853,-0.23163776099681854,0.13324594497680664
1761914477630092300,6.61609228515625,0.32813820242881775,-0.06814150512218475,0.24289919435977936
1761914477640148500,6.6261484375,0.3535311818122864,0.07674457877874374,0.32648995518684387
1761914477650204400,6.636204345703125,0.3784452974796295,0.2030162364244461,0.3774074614048004
1761914477660259600,6.646259521484375,0.3906806707382202,0.33396199345588684,0.40794965624809265
1761914477670315500,6.6563154296875,0.4124903678894043,0.41486191749572754,0.4207054078578949
1761914477680371500,6.666371337890625,0.4390237033367157,0.4114581048488617,0.41368159651756287
1761914477690427600,6.676427734375,0.44903719425201416,0.319343626499176,0.393198698759079
1761914477700482300,6.686482421875,0.41505417227745056,0.1774272471666336,0.37667855620384216
1761914477710538500,6.69653857421875,0.34334802627563477,0.0337531715631485,0.38635915517807007
1761914477720594400,6.706594482421875,0.2669225037097931,-0.11747043579816818,0.42232435941696167
1761914477730650400,6.716650390625,0.1950957179069519,-0.2572283446788788,0.4695424735546112
1761914477740705500,6.72670556640625,0.12236346304416656,-0.3732422888278961,0.5172383189201355
1761914477750761500,6.736761474609375,0.06070942059159279,-0.4351200461387634,0.5706091523170471
1761914477760817400,6.7468173828125,0.035722311586141586,-0.39018717408180237,0.6419160962104797
1761914477770872300,6.756872314453125,0.05103442072868347,-0.26815423369407654,0.7190225720405579
1761914477780928300,6.76692822265625,0.09113790094852448,-0.12360529601573944,0.7734695672988892
1761914477790984400,6.776984375,0.1218143180012703,0.0133877107873559,0.772359311580658
1761914477801040400,6.787040283203125,0.14943262934684753,0.13262328505516052,0.7216538190841675
1761914477811095600,6.797095458984375,0.17123806476593018,0.251345157623291,0.6592540740966797
1761914477821151500,6.8071513671875,0.18757948279380798,0.336306631565094,0.596695601940155
1761914477831207400,6.81720751953125,0.1834917962551117,0.3424356281757355,0.5290318727493286
1761914477841262300,6.827262451171875,0.16292420029640198,0.24883991479873657,0.44233959913253784
1761914477851318300,6.837318359375,0.12556192278862,0.08553087711334229,0.3315425217151642
1761914477861374500,6.84737451171875,0.07647639513015747,-0.08743637055158615,0.1978805959224701
1761914477871430400,6.857430419921875,0.011331750079989433,-0.2041374146938324,0.05819033458828926
1761914477881485600,6.867485595703125,-0.04867752268910408,-0.24746918678283691,-0.07793527841567993
1761914477891541500,6.87754150390625,-0.09397629648447037,-0.2022487074136734,-0.19109351933002472
1761914477901597400,6.887597412109375,-0.11603099852800369,-0.09408069401979446,-0.26783543825149536
1761914477911653600,6.897653564453125,-0.11570795625448227,0.0368347130715847,-0.3096412122249603
1761914477921708500,6.90770849609375,-0.07040412724018097,0.18756616115570068,-0.3112473487854004
1761914477931764500,6.917764404296875,0.013599432073533535,0.37380367517471313,-0.27398866415023804
1761914477941820400,6.9278203125,0.12314483523368835,0.5702240467071533,-0.2112472653388977
1761914477951875300,6.937875244140625,0.2486092746257782,0.7327240109443665,-0.1444152295589447
1761914477961931500,6.947931640625,0.38085120916366577,0.834454357624054,-0.09809194505214691
1761914477971987500,6.957987548828125,0.5100531578063965,0.8906460404396057,-0.06645838916301727
1761914477982043400,6.96804345703125,0.6243517398834229,0.8915360569953918,-0.04098684713244438
1761914477992098600,6.9780986328125,0.7037211656570435,0.8562830090522766,-0.0035864789970219135
1761914478002154500,6.988154541015625,0.7522847056388855,0.7670774459838867,0.018272479996085167
1761914478012210400,6.99821044921875,0.7555081844329834,0.6514784693717957,0.017254620790481567
1761914478022266400,7.008266357421875,0.7265833020210266,0.5454867482185364,-0.009363674558699131
1761914478032321500,7.018321533203125,0.6825295686721802,0.433732271194458,-0.06326258927583694
1761914478042377500,7.02837744140625,0.6315212249755859,0.32095539569854736,-0.1369093805551529
1761914478052433400,7.038433349609375,0.5903186798095703,0.21260866522789001,-0.2157384157180786
1761914478062488600,7.048488525390625,0.5660322308540344,0.08456441760063171,-0.2771032452583313
1761914478072544500,7.05854443359375,0.555824339389801,-0.10034950822591782,-0.32208189368247986
1761914478082600700,7.0686005859375,0.5438150763511658,-0.3517308831214905,-0.3525671064853668
1761914478092656400,7.078656494140625,0.5374296307563782,-0.6464919447898865,-0.35375648736953735
1761914478102711600,7.088711669921875,0.5377057790756226,-0.9106090664863586,-0.3060571253299713
1761914478112767500,7.098767578125,0.5427719354629517,-1.078018069267273,-0.18302281200885773
1761914478122823400,7.108823486328125,0.5479965209960938,-1.139437198638916,0.012405270710587502
1761914478132878600,7.118878662109375,0.5400238037109375,-1.1031380891799927,0.25633031129837036
1761914478142934500,7.1289345703125,0.5077188611030579,-0.9718055725097656,0.4930911958217621
1761914478152990500,7.138990478515625,0.46884283423423767,-0.7617972493171692,0.6843966841697693
1761914478163046400,7.14904638671875,0.4360752999782562,-0.5134281516075134,0.8054767847061157
1761914478173101300,7.159101318359375,0.4167160093784332,-0.2638532221317291,0.8458183407783508
1761914478183157500,7.169157470703125,0.4194808900356293,-0.0471896156668663,0.7956563830375671
1761914478193213400,7.17921337890625,0.4505855441093445,0.1129009872674942,0.6787047386169434
1761914478203268600,7.1892685546875,0.48606792092323303,0.2257268726825714,0.5252104997634888
1761914478213324500,7.199324462890625,0.4986729025840759,0.31921127438545227,0.3728875517845154
1761914478223380500,7.20938037109375,0.46704229712486267,0.39096349477767944,0.25273823738098145
1761914478233436700,7.219436767578125,0.3739994168281555,0.4035605192184448,0.18039268255233765
1761914478243491300,7.2294912109375,0.21539993584156036,0.33290526270866394,0.13571442663669586
1761914478253547500,7.239547607421875,0.008963135071098804,0.22106340527534485,0.12953269481658936
1761914478263603500,7.249603515625,-0.20408202707767487,0.1250833421945572,0.16453701257705688
1761914478273659400,7.259659423828125,-0.3771398365497589,0.10487262159585953,0.2366468906402588
1761914478283714600,7.269714599609375,-0.48102015256881714,0.1432650089263916,0.3171161711215973
1761914478293770500,7.2797705078125,-0.5304505228996277,0.16327467560768127,0.3491598665714264
1761914478303826700,7.28982666015625,-0.549763023853302,0.15536801517009735,0.3338086009025574
1761914478313881300,7.29988134765625,-0.5237122178077698,0.2062719464302063,0.30008819699287415
1761914478323937500,7.3099375,-0.4351988732814789,0.3461155891418457,0.272865355014801
1761914478333993500,7.319993408203125,-0.31568872928619385,0.5070477724075317,0.22354653477668762
1761914478344049400,7.33004931640625,-0.2091076821088791,0.6109597682952881,0.11286582797765732
1761914478354104600,7.3401044921875,-0.14276035130023956,0.6600216031074524,-0.04963972419500351
1761914478364160500,7.350160400390625,-0.10697705298662186,0.6699088215827942,-0.2417239397764206
1761914478374216400,7.360216552734375,-0.10425103455781937,0.6491311192512512,-0.43468141555786133
1761914478384271400,7.370271240234375,-0.12630973756313324,0.594301164150238,-0.6146879196166992
1761914478394327300,7.380327392578125,-0.17771993577480316,0.5002194046974182,-0.7608054876327515
1761914478404383500,7.390383544921875,-0.24070101976394653,0.3898777365684509,-0.8547018766403198
1761914478414439400,7.400439453125,-0.298794150352478,0.2733553647994995,-0.8956213593482971
1761914478424494600,7.41049462890625,-0.3303337097167969,0.17882300913333893,-0.8669710755348206
1761914478434550500,7.420550537109375,-0.308916300535202,0.122480109333992,-0.7552080154418945
1761914478444606500,7.4306064453125,-0.22288234531879425,0.12346840649843216,-0.5824871063232422
1761914478454662700,7.44066259765625,-0.07981626689434052,0.1805090606212616,-0.3638932704925537
1761914478464717300,7.45071728515625,0.10513600707054138,0.26502367854118347,-0.12330275774002075
1761914478474773500,7.4607734375,0.2905799150466919,0.3436950445175171,0.0908002108335495
1761914478484829400,7.470829345703125,0.4557856321334839,0.40877631306648254,0.25556784868240356
1761914478494884600,7.480884521484375,0.5649965405464172,0.4358510673046112,0.3569527864456177
1761914478504940500,7.4909404296875,0.6423821449279785,0.4192878007888794,0.4051232635974884
1761914478514996500,7.50099658203125,0.7053227424621582,0.40546679496765137,0.4273153841495514
1761914478525052700,7.511052734375,0.730958104133606,0.3769712448120117,0.4337783455848694
1761914478535107300,7.521107421875,0.713474452495575,0.27971288561820984,0.41990938782691956
1761914478545163500,7.53116357421875,0.6468546390533447,0.14024631679058075,0.38260969519615173
1761914478555219500,7.541219482421875,0.5407684445381165,-0.0057196710258722305,0.32776108384132385
1761914478565274400,7.5512744140625,0.40366119146347046,-0.12388785928487778,0.24824096262454987
1761914478575330600,7.56133056640625,0.26254960894584656,-0.22665338218212128,0.15805408358573914
1761914478585386500,7.571386474609375,0.128046914935112,-0.29381752014160156,0.0745256319642067
1761914478595442400,7.5814423828125,0.02165522798895836,-0.30650585889816284,0.002624811604619026
1761914478605497300,7.591497314453125,-0.05246533825993538,-0.2722930312156677,-0.046006374061107635
1761914478615553300,7.60155322265625,-0.08061015605926514,-0.20088836550712585,-0.09181620925664902
1761914478625609500,7.611609375,-0.07551553100347519,-0.09170834720134735,-0.15539757907390594
1761914478635665400,7.62166552734375,-0.03602271527051926,0.04717044159770012,-0.23654383420944214
1761914478645720600,7.631720458984375,0.028866801410913467,0.20860514044761658,-0.33539023995399475
1761914478655776500,7.641776611328125,0.09704825282096863,0.36964675784111023,-0.4328899085521698
1761914478665832400,7.65183251953125,0.14039573073387146,0.5070871710777283,-0.5140553116798401
1761914478675887600,7.6618876953125,0.157188281416893,0.5921951532363892,-0.5655750036239624
1761914478685943300,7.671943359375,0.15052612125873566,0.6301404237747192,-0.5815147757530212
1761914478695999500,7.68199951171875,0.13879436254501343,0.6258851885795593,-0.557692289352417
1761914478706055400,7.692055419921875,0.12690788507461548,0.5823217630386353,-0.513749361038208
1761914478716110600,7.702110595703125,0.12487722188234329,0.502917468547821,-0.4721076190471649
1761914478726166500,7.71216650390625,0.13866068422794342,0.40442922711372375,-0.4310632348060608
1761914478736222500,7.722222412109375,0.15741465985774994,0.3197753429412842,-0.39571085572242737
1761914478746277600,7.732277587890625,0.20114029943943024,0.25207698345184326,-0.36296141147613525
1761914478756333600,7.74233349609375,0.26303696632385254,0.20769940316677094,-0.33821454644203186
1761914478766389200,7.75238916015625,0.33447757363319397,0.192583829164505,-0.31264418363571167
1761914478776445400,7.762445556640625,0.3994552493095398,0.21705348789691925,-0.2808596193790436
1761914478786500400,7.772500244140625,0.46105122566223145,0.26749563217163086,-0.24996110796928406
1761914478796556500,7.782556640625,0.5184175968170166,0.32555651664733887,-0.21275034546852112
1761914478806612500,7.792612548828125,0.562916100025177,0.3890686631202698,-0.1830742210149765
1761914478816668400,7.80266845703125,0.6036518216133118,0.4546431303024292,-0.14199788868427277
1761914478826723600,7.8127236328125,0.6336666941642761,0.4985405504703522,-0.10996858030557632
1761914478836779500,7.822779541015625,0.6449129581451416,0.5312223434448242,-0.0891575738787651
1761914478846835500,7.83283544921875,0.6488035321235657,0.5457858443260193,-0.087354876101017
1761914478856890400,7.842890380859375,0.6383746266365051,0.5550006628036499,-0.1025247797369957
1761914478866946600,7.852946533203125,0.6192203760147095,0.5445535778999329,-0.12473234534263611
1761914478877003000,7.8630029296875,0.6018688082695007,0.5267383456230164,-0.13609018921852112
1761914478887059000,7.873058837890625,0.583765983581543,0.5018380880355835,-0.1380729228258133
1761914478897114000,7.883114013671875,0.5609647631645203,0.4700165092945099,-0.12353365868330002
1761914478907170000,7.893170166015625,0.5400592088699341,0.4137495160102844,-0.10734882950782776
1761914478917226000,7.90322607421875,0.5171642899513245,0.3325110971927643,-0.09502878040075302
1761914478927281200,7.91328125,0.48999953269958496,0.2242586612701416,-0.1037149429321289
1761914478937337000,7.923337158203125,0.4732615649700165,0.11426185816526413,-0.13071087002754211
1761914478947393300,7.933393310546875,0.463807076215744,0.006761233322322369,-0.17105697095394135
1761914478957449000,7.943448974609375,0.4707414209842682,-0.07805351912975311,-0.22213347256183624
1761914478967504100,7.953504150390625,0.48186010122299194,-0.11650237441062927,-0.2631818354129791
1761914478977560000,7.96356005859375,0.5015291571617126,-0.09030912071466446,-0.27763479948043823
1761914478987616000,7.973615966796875,0.5465325713157654,0.014451110735535622,-0.23232512176036835
1761914478997672200,7.983672119140625,0.6214060187339783,0.15177008509635925,-0.13579031825065613
1761914479007727000,7.99372705078125,0.7314949631690979,0.30052706599235535,0.02094496227800846
1761914479017782000,8.003781982421875,0.8498227000236511,0.46152740716934204,0.21500444412231445
1761914479027838000,8.013837890625,0.9545648097991943,0.6185092926025391,0.4176577031612396
1761914479037893000,8.02389306640625,1.043342113494873,0.7599300742149353,0.5895112156867981
1761914479047949000,8.033948974609375,1.1066190004348755,0.8612377643585205,0.7171266674995422
1761914479058005000,8.0440048828125,1.1492669582366943,0.9587840437889099,0.8235886693000793
1761914479068061200,8.054061279296874,1.1891003847122192,1.0899218320846558,0.9208713173866272
1761914479078116000,8.0641162109375,1.1980477571487427,1.1742242574691772,0.9837520122528076
1761914479088172000,8.074172119140625,1.1243213415145874,1.1398601531982422,0.9584439992904663
1761914479098228000,8.08422802734375,0.9608490467071533,0.9629255533218384,0.8382107615470886
1761914479108284000,8.094283935546875,0.7548128366470337,0.7401217818260193,0.6482073068618774
1761914479118339000,8.104339111328125,0.5491110682487488,0.5208644866943359,0.45460373163223267
1761914479128395000,8.11439501953125,0.37107688188552856,0.2962303161621094,0.2888658940792084
1761914479138451200,8.124451171875,0.21173807978630066,0.093266561627388,0.18022063374519348
1761914479148506000,8.134506103515625,0.08238568902015686,-0.05182458087801933,0.10814777761697769
1761914479158562000,8.14456201171875,-0.005072789266705513,-0.11415001004934311,0.0642322525382042
1761914479168618000,8.154617919921876,-0.028498752042651176,-0.07081558555364609,0.021219268441200256
1761914479178674000,8.164673828125,0.02935788780450821,0.11562912911176682,0.005255748517811298
1761914479188729000,8.17472900390625,0.1527075171470642,0.40856966376304626,0.007400392089039087
1761914479198785000,8.184784912109375,0.31150302290916443,0.7702999114990234,0.028369056060910225
1761914479208841000,8.194841064453126,0.46961063146591187,1.1606274843215942,0.06155923381447792
1761914479218897200,8.204897216796875,0.6104529500007629,1.5240511894226074,0.08067859709262848
1761914479228952000,8.2149521484375,0.7337762713432312,1.8265117406845093,0.07871691882610321
1761914479239008000,8.225008056640625,0.822706401348114,2.0185461044311523,0.022884277626872063
1761914479249064000,8.23506396484375,0.8971579670906067,2.078730344772339,-0.08777059614658356
1761914479259119000,8.245119140625,0.9425691366195679,2.042402744293213,-0.23300209641456604
1761914479269175000,8.255175048828125,0.9517461061477661,1.92578125,-0.38333994150161743
1761914479279231000,8.26523095703125,0.9245635271072388,1.7219663858413696,-0.5381255149841309
1761914479289287200,8.275287109375,0.8774678707122803,1.423160195350647,-0.7060855031013489
1761914479299342000,8.285342041015625,0.815472424030304,1.0459094047546387,-0.9008890390396118
1761914479309398300,8.295398193359375,0.7495826482772827,0.6461795568466187,-1.114337682723999
1761914479319454000,8.305453857421876,0.7350031733512878,0.3032083511352539,-1.2957922220230103
1761914479329509000,8.315509033203124,0.7641168236732483,0.107192762196064,-1.4025729894638062
1761914479339565000,8.32556494140625,0.8107360005378723,0.04784315451979637,-1.4376300573349
1761914479349621000,8.33562109375,0.9001473784446716,0.08212416619062424,-1.393864393234253
1761914479359677200,8.34567724609375,1.0359560251235962,0.1757582426071167,-1.290216088294983
1761914479369732000,8.355732177734374,1.1909059286117554,0.31236642599105835,-1.1465801000595093
1761914479379788300,8.365788330078125,1.3398590087890625,0.48395949602127075,-0.9774395227432251
1761914479389844200,8.37584423828125,1.471557855606079,0.6907417178153992,-0.7963365316390991
1761914479399900000,8.38589990234375,1.5687181949615479,0.867554783821106,-0.6403046250343323
1761914479409955000,8.395955078125,1.627350926399231,0.9531804919242859,-0.5352250933647156
1761914479420011000,8.406010986328125,1.6623315811157227,0.9861123561859131,-0.45410943031311035
1761914479430067000,8.41606689453125,1.6880888938903809,0.958098828792572,-0.3719991147518158
1761914479440122000,8.4261220703125,1.699540138244629,0.88623046875,-0.2817315459251404
1761914479450178000,8.436177978515625,1.6862879991531372,0.8333123922348022,-0.18147365748882294
1761914479460234200,8.446234130859375,1.6286017894744873,0.7765993475914001,-0.08970778435468674
1761914479470290000,8.4562900390625,1.5117430686950684,0.6875110268592834,-0.0215364508330822
1761914479480345000,8.466344970703124,1.3420286178588867,0.5675736665725708,0.030107302591204643
1761914479490401000,8.476401123046875,1.1409869194030762,0.42039063572883606,0.06578859686851501
1761914479500457000,8.48645703125,0.9477958679199219,0.25217151641845703,0.10270720720291138
1761914479510513200,8.49651318359375,0.7811229825019836,0.10867268592119217,0.16062696278095245
1761914479520568000,8.506568115234375,0.6554760932922363,-0.003905792022123933,0.23625674843788147
1761914479530624300,8.516624267578125,0.5785493850708008,-0.07679811120033264,0.3198208808898926
1761914479540680200,8.52668017578125,0.5327813625335693,-0.09067850559949875,0.40667030215263367
1761914479550735000,8.536735107421874,0.5237508416175842,-0.04700319468975067,0.4745910167694092
1761914479560791000,8.546791015625,0.5382238030433655,0.04860641807317734,0.5172767043113708
1761914479570848000,8.556847900390625,0.5800101161003113,0.17437979578971863,0.5390597581863403
1761914479580904000,8.566904052734374,0.640995979309082,0.3042325973510742,0.5477190017700195
1761914479590959000,8.576958984375,0.6968933343887329,0.4249805808067322,0.5425812602043152
1761914479601015000,8.58701513671875,0.72624272108078,0.5284571647644043,0.5279751420021057
1761914479611071200,8.5970712890625,0.7364506125450134,0.6072534322738647,0.4941929578781128
1761914479621126100,8.607126220703124,0.7206178307533264,0.6605603694915771,0.4293319284915924
1761914479631182000,8.61718212890625,0.6766727566719055,0.6772538423538208,0.32954540848731995
1761914479641238000,8.627238037109375,0.597439169883728,0.6504722833633423,0.21153540909290314
1761914479651294000,8.6372939453125,0.4878711402416229,0.5685960650444031,0.08571836352348328
1761914479661349000,8.64734912109375,0.3374115824699402,0.4330283999443054,-0.035901010036468506
1761914479671405000,8.657405029296875,0.17047639191150665,0.26710787415504456,-0.12896543741226196
1761914479681461000,8.6674609375,0.017060209065675735,0.10573388636112213,-0.17517608404159546
1761914479691516200,8.67751611328125,-0.10815629363059998,-0.02322888933122158,-0.17044124007225037
1761914479701572000,8.687572021484375,-0.18426331877708435,-0.09328893572092056,-0.130179300904274
1761914479711628000,8.6976279296875,-0.22319979965686798,-0.13965536653995514,-0.08114705234766006
1761914479721684000,8.70768408203125,-0.21479752659797668,-0.19054198265075684,-0.03862568736076355
1761914479731739100,8.7177392578125,-0.16933976113796234,-0.20023003220558167,0.014257232658565044
1761914479741795000,8.727795166015625,-0.08346612751483917,-0.1507897824048996,0.08077793568372726
1761914479751851000,8.73785107421875,0.03837775066494942,-0.08336466550827026,0.14269056916236877
1761914479761907200,8.7479072265625,0.1676158905029297,-0.04235757514834404,0.16770990192890167
1761914479771962000,8.757962158203124,0.2808407247066498,-0.010290187783539295,0.16061604022979736
1761914479782018000,8.76801806640625,0.37441888451576233,0.059176769107580185,0.15605485439300537
1761914479792074000,8.778073974609375,0.45725464820861816,0.16640043258666992,0.18492324650287628
1761914479802129200,8.788129150390626,0.5200852751731873,0.24456366896629333,0.21162649989128113
1761914479812185000,8.79818505859375,0.5596705079078674,0.25113368034362793,0.2166457623243332
1761914479822241000,8.808240966796875,0.5860179662704468,0.2277631163597107,0.22667016088962555
1761914479832297000,8.818296875,0.601688802242279,0.2067590355873108,0.24465635418891907
1761914479842352000,8.82835205078125,0.5882166624069214,0.17216244339942932,0.26122280955314636
1761914479852408000,8.838407958984375,0.542892336845398,0.11136780679225922,0.27321183681488037
1761914479862464000,8.848464111328125,0.4774264693260193,0.01631132885813713,0.26803117990493774
1761914479872520000,8.85852001953125,0.4072069227695465,-0.07541486620903015,0.2665259540081024
1761914479882575000,8.8685751953125,0.3424801230430603,-0.1303550750017166,0.27754318714141846
1761914479892631000,8.878631103515625,0.2875063419342041,-0.1553933173418045,0.2886104881763458
1761914479902687000,8.88868701171875,0.24689313769340515,-0.1563320755958557,0.2939152419567108
1761914479912742100,8.8987421875,0.21839278936386108,-0.1379549354314804,0.29882264137268066
1761914479922798000,8.908798095703125,0.21343745291233063,-0.08858073502779007,0.2910076081752777
1761914479932854300,8.918854248046875,0.2274797558784485,-0.018183797597885132,0.259943425655365
1761914479942910000,8.928909912109376,0.24821460247039795,0.030772026628255844,0.2039259672164917
1761914479952965000,8.938965087890624,0.2888544499874115,0.021026454865932465,0.10879598557949066
1761914479963021000,8.94902099609375,0.33807870745658875,-0.0209478922188282,0.0068179587833583355
1761914479973077000,8.959076904296875,0.3951161503791809,-0.06602349132299423,-0.09311476349830627
1761914479983132200,8.969132080078126,0.4432789087295532,-0.10657517611980438,-0.18853822350502014
1761914479993188000,8.97918798828125,0.4792400896549225,-0.17663443088531494,-0.26701653003692627
1761914480003244300,8.989244384765625,0.497731477022171,-0.2652692198753357,-0.33031612634658813
1761914480013300200,8.99930029296875,0.5049142837524414,-0.3538736402988434,-0.3720649182796478
1761914480023355000,9.00935498046875,0.5012567043304443,-0.43601247668266296,-0.395707905292511
1761914480033411000,9.0194111328125,0.4921300709247589,-0.5067499876022339,-0.4192497432231903
1761914480043467000,9.029467041015625,0.4952928423881531,-0.5485280752182007,-0.4369216561317444
1761914480053523000,9.03952294921875,0.5019068121910095,-0.5698245763778687,-0.4503874182701111
1761914480063578000,9.049578125,0.5179829597473145,-0.5332785844802856,-0.46558287739753723
1761914480073634000,9.059634033203125,0.5356490612030029,-0.4225113093852997,-0.4878807067871094
1761914480083690200,9.069690185546875,0.5408827066421509,-0.25539207458496094,-0.4920536279678345
1761914480093745000,9.079744873046875,0.5350234508514404,-0.06681019067764282,-0.4729478359222412
1761914480103801000,9.089801025390624,0.5304667949676514,0.14629435539245605,-0.4371131360530853
1761914480113857000,9.09985693359375,0.5123687386512756,0.369407594203949,-0.39442452788352966
1761914480123913000,9.109912841796875,0.461603045463562,0.6316235065460205,-0.3387572765350342
1761914480133968100,9.119968017578126,0.30863478779792786,0.98343425989151,-0.2067800760269165
1761914480144024000,9.130024169921874,0.1806832253932953,1.004217267036438,-0.15583913028240204
1761914480154080300,9.140080322265625,0.11828669905662537,0.7849320769309998,-0.1610293686389923
1761914480164136200,9.15013623046875,0.10564520210027695,0.5420371890068054,-0.16368986666202545
1761914480174191000,9.160191162109374,0.10856881737709045,0.3952900767326355,-0.13857118785381317
1761914480184247000,9.1702470703125,0.11228259652853012,0.3291243612766266,-0.10095883905887604
1761914480194303000,9.180302978515625,0.12510785460472107,0.26860669255256653,-0.0702051892876625
1761914480204358100,9.190358154296876,0.14838175475597382,0.2145804762840271,-0.05993177741765976
1761914480214414000,9.2004140625,0.20218585431575775,0.16524861752986908,-0.07431177794933319
1761914480224470000,9.210469970703125,0.296889990568161,0.1340605914592743,-0.1075296550989151
1761914480234526200,9.220526123046875,0.4297686815261841,0.12719577550888062,-0.1423235833644867
1761914480244580900,9.230580810546876,0.5504245162010193,0.15722450613975525,-0.20115122199058533
1761914480254637000,9.240636962890624,0.6712513566017151,0.26583966612815857,-0.2666569948196411
1761914480264693000,9.25069287109375,0.7703545093536377,0.44156354665756226,-0.33310526609420776
1761914480274748200,9.260748046875,0.8552014827728271,0.6639244556427002,-0.4053560197353363
1761914480284804000,9.27080419921875,0.9452645182609558,0.8880608677864075,-0.5086033344268799
1761914480294860000,9.280860107421875,1.0450645685195923,1.0505679845809937,-0.6636291146278381
1761914480304916200,9.290916259765625,1.161115288734436,1.1397796869277954,-0.8977513313293457
1761914480314971000,9.300970947265625,1.2712087631225586,1.1891334056854248,-1.229912281036377
1761914480325027000,9.311027099609374,1.387337327003479,1.2462939023971558,-1.6254936456680298
1761914480335083000,9.3210830078125,1.5207445621490479,1.3319976329803467,-1.9846196174621582
1761914480345139000,9.331138916015625,1.6384949684143066,1.4162129163742065,-2.222482919692993
1761914480355194000,9.341194091796876,1.6966909170150757,1.6188671588897705,-2.382490634918213
1761914480365250000,9.35125,1.7042739391326904,1.8745359182357788,-2.4633307456970215
1761914480375306200,9.36130615234375,1.6763509511947632,2.085827112197876,-2.501448392868042
1761914480385361000,9.37136083984375,1.6438881158828735,2.234590530395508,-2.501011610031128
1761914480395417000,9.3814169921875,1.6311196088790894,2.290149211883545,-2.471605062484741
1761914480405473000,9.39147314453125,1.720810890197754,2.2031044960021973,-2.407707929611206
1761914480415529000,9.401529052734375,1.8589740991592407,2.0395374298095703,-2.3150432109832764
1761914480425584000,9.411584228515625,1.9830166101455688,1.8805840015411377,-2.198826789855957
1761914480435640000,9.42164013671875,2.0418179035186768,1.7361769676208496,-2.062607765197754
1761914480445696000,9.431696044921875,2.011115074157715,1.5929380655288696,-1.9008629322052002
1761914480455752200,9.441752197265625,1.9077926874160767,1.4265539646148682,-1.6799806356430054
1761914480465806800,9.451806884765626,1.799195408821106,1.2248873710632324,-1.4150158166885376
1761914480475863000,9.461863037109374,1.7040574550628662,1.0795091390609741,-1.0972236394882202
1761914480485919000,9.4719189453125,1.6122063398361206,1.0202852487564087,-0.7408088445663452
1761914480495974100,9.48197412109375,1.4658373594284058,0.9976925849914551,-0.38461798429489136
1761914480506030000,9.492030029296876,1.2275686264038086,0.9969687461853027,-0.07154902070760727
1761914480516086000,9.5020859375,0.8898587822914124,0.9191860556602478,0.1981959044933319
1761914480526142200,9.51214208984375,0.5371225476264954,0.7054628729820251,0.45221540331840515
1761914480536196900,9.52219677734375,0.21989507973194122,0.2979366183280945,0.6247442960739136
1761914480546253000,9.532253173828124,-0.008686698973178864,-0.705259382724762,0.5030087828636169
1761914480556309000,9.54230908203125,-0.07023555040359497,-1.9161931276321411,0.20956015586853027
1761914480566364200,9.5523642578125,0.08356893062591553,-2.269721746444702,-0.0103770075365901
1761914480576420000,9.562420166015626,0.30857354402542114,-2.3615710735321045,-0.07810945063829422
1761914480586476000,9.57247607421875,0.5466310977935791,-2.0436391830444336,-0.04915422946214676
1761914480596532200,9.5825322265625,0.8119277954101562,-1.7553291320800781,0.031920116394758224
1761914480606587100,9.592587158203125,1.0999702215194702,-1.4395160675048828,0.15665166079998016
1761914480616643000,9.60264306640625,1.3541319370269775,-1.0351911783218384,0.35802552103996277
1761914480626699000,9.612698974609375,1.4145097732543945,-0.7044950723648071,0.7061326503753662
1761914480636755000,9.6227548828125,1.2908700704574585,-0.17738623917102814,0.9162033200263977
1761914480646810000,9.63281005859375,1.2422666549682617,0.41590824723243713,1.0510112047195435
1761914480656866000,9.642865966796874,1.3227769136428833,0.8271368145942688,1.2858269214630127
1761914480666922000,9.652921875,1.3680325746536255,1.0314292907714844,1.4775396585464478
1761914480676977200,9.66297705078125,1.4067634344100952,1.0725939273834229,1.4946824312210083
1761914480687033000,9.673033203125,1.5234277248382568,0.958854079246521,1.4016720056533813
1761914480697089000,9.683089111328124,1.6370402574539185,0.7568621039390564,1.2669466733932495
1761914480707145000,9.69314501953125,1.7040857076644897,0.5275919437408447,1.1016291379928589
1761914480717200100,9.7032001953125,1.7319753170013428,0.28920358419418335,0.944135844707489
1761914480727256000,9.713256103515626,1.7094053030014038,0.126682311296463,0.8248481154441833
1761914480737312000,9.72331201171875,1.6499310731887817,0.1254013329744339,0.7005634307861328
1761914480747368200,9.7333681640625,1.5939128398895264,0.29508861899375916,0.5834946036338806
1761914480757423000,9.743423095703125,1.6119823455810547,0.4654307961463928,0.47377049922943115
1761914480767479000,9.75347900390625,1.6729894876480103,0.5817630290985107,0.35798585414886475
1761914480777535000,9.763534912109375,1.741747260093689,0.654528796672821,0.22826379537582397
1761914480787590100,9.773590087890625,1.8170462846755981,0.7025001049041748,0.07714644819498062
1761914480797646000,9.78364599609375,1.8995097875595093,0.7800388336181641,-0.0772700235247612
1761914480807702000,9.793701904296874,1.9652498960494995,0.8808378577232361,-0.22562193870544434
1761914480817758200,9.80375830078125,2.017102003097534,0.9749749898910522,-0.3440186381340027
1761914480827813000,9.813813232421875,2.057405710220337,1.0386285781860352,-0.41734182834625244
1761914480837869000,9.823869140625,2.0821967124938965,1.0809986591339111,-0.43140465021133423
1761914480847925000,9.833925048828124,2.0903830528259277,1.0712554454803467,-0.3801356256008148
1761914480857981000,9.84398095703125,2.084641695022583,1.0153764486312866,-0.2810535132884979
1761914480868036000,9.8540361328125,2.0739636421203613,0.9212454557418823,-0.17217975854873657
1761914480878091300,9.86409130859375,2.0616583824157715,0.802683413028717,-0.07031571120023727
1761914480888147500,9.8741474609375,2.05941104888916,0.6850936412811279,-0.000019707391402334906
1761914480898202400,9.884202392578125,2.0598642826080322,0.5860595107078552,0.0479065403342247
1761914480908258300,9.89425830078125,2.0489249229431152,0.5012663006782532,0.06444929540157318
1761914480918314200,9.904314208984376,2.0301215648651123,0.4144621789455414,0.043003395199775696
1761914480928370200,9.9143701171875,2.0030832290649414,0.3204600214958191,0.009102151729166508
1761914480938425300,9.92442529296875,1.975590705871582,0.25962385535240173,-0.010912834666669369
1761914480948481300,9.934481201171875,1.9396708011627197,0.2602294385433197,0.0070395334623754025
1761914480958537200,9.944537109375,1.912601351737976,0.314301460981369,0.05167943984270096
1761914480968593400,9.954593505859375,1.8908922672271729,0.4164246618747711,0.11766272038221359
1761914480978648300,9.9646484375,1.8804854154586792,0.5156369805335999,0.17728210985660553
1761914480988704300,9.974704345703126,1.8645578622817993,0.5767953991889954,0.2316654473543167
1761914480998760200,9.98476025390625,1.846137285232544,0.5788156986236572,0.2756955027580261
1761914481008815400,9.9948154296875,1.8292896747589111,0.5599421262741089,0.33020612597465515
1761914481018871300,10.004871337890625,1.8094898462295532,0.561876118183136,0.3899347186088562
1761914481028927200,10.01492724609375,1.787308931350708,0.5861207246780396,0.4572053551673889
1761914481038983400,10.0249833984375,1.7515016794204712,0.6365194916725159,0.5243167877197266
1761914481049038300,10.035038330078125,1.709815502166748,0.6981026530265808,0.5743951201438904
1761914481059094500,10.045094482421876,1.66618812084198,0.7468478083610535,0.6067216396331787
1761914481069150200,10.055150146484374,1.6310898065567017,0.7857525944709778,0.6288506388664246
1761914481079206100,10.0652060546875,1.6118217706680298,0.845285177230835,0.6477974057197571
1761914481089261300,10.07526123046875,1.5813405513763428,0.8925621509552002,0.6608154773712158
1761914481099317200,10.085317138671876,1.5454142093658447,0.9091600179672241,0.6568111777305603
1761914481109373400,10.09537353515625,1.4998619556427002,0.9217538833618164,0.6219367980957031
1761914481119428400,10.105428466796875,1.4734359979629517,0.9368079304695129,0.5584315657615662
1761914481129484300,10.115484375,1.4777023792266846,0.9638003706932068,0.4720003008842468
1761914481139540200,10.125540283203126,1.4965060949325562,0.9618086218833923,0.39069825410842896
1761914481149596200,10.13559619140625,1.4985377788543701,0.9322413802146912,0.3287033140659332
1761914481159651300,10.1456513671875,1.4574981927871704,0.8879751563072205,0.28076401352882385
1761914481169707300,10.155707275390625,1.3815765380859375,0.8609091639518738,0.239096999168396
1761914481179763200,10.16576318359375,1.2965344190597534,0.8360463976860046,0.21397247910499573
1761914481189818400,10.175818359375,1.2081941366195679,0.7703092098236084,0.20771244168281555
1761914481199874300,10.185874267578125,1.1086100339889526,0.653562068939209,0.2145780771970749
1761914481209930500,10.195930419921876,1.0034407377243042,0.5427221059799194,0.21502016484737396
1761914481219986200,10.205986083984374,0.9181575179100037,0.47299525141716003,0.20289479196071625
1761914481230041300,10.216041259765625,0.8580837845802307,0.443710058927536,0.16566726565361023
1761914481240097300,10.22609716796875,0.8138407468795776,0.43887004256248474,0.09970714896917343
1761914481250153200,10.2361533203125,0.7668502926826477,0.43631765246391296,0.01067847665399313
1761914481260209400,10.24620947265625,0.7236809730529785,0.43238765001296997,-0.07456903904676437
1761914481270264300,10.256264404296875,0.6849192380905151,0.42119303345680237,-0.13290798664093018
1761914481280320500,10.266320556640625,0.6553546786308289,0.42081886529922485,-0.1555648297071457
1761914481290376400,10.27637646484375,0.6388428211212158,0.42679792642593384,-0.1592879295349121
1761914481300431400,10.286431396484375,0.6320839524269104,0.3934815227985382,-0.16219237446784973
1761914481310487300,10.2964873046875,0.6375338435173035,0.3266098201274872,-0.1742631494998932
1761914481320543200,10.306543212890626,0.6377549171447754,0.27780285477638245,-0.17735294997692108
1761914481330599400,10.316599365234374,0.635542631149292,0.27650588750839233,-0.1497495472431183
1761914481340654300,10.326654296875,0.6286777853965759,0.2929525077342987,-0.10544413328170776
1761914481350710300,10.336710205078125,0.6143473386764526,0.2891250252723694,-0.05192524939775467
1761914481360766500,10.346766357421876,0.5835058093070984,0.23602718114852905,-0.02016598917543888
1761914481370822400,10.356822509765625,0.5430158972740173,0.14288924634456635,-0.017610419541597366
1761914481380877300,10.366877197265625,0.5075372457504272,0.02767051011323929,-0.0429123118519783
1761914481390933200,10.376933349609375,0.4658302664756775,-0.06148679554462433,-0.06742564588785172
1761914481400989200,10.3869892578125,0.42095574736595154,-0.10648330301046371,-0.07974383234977722
1761914481411044400,10.39704443359375,0.3780423700809479,-0.08219926804304123,-0.06771646440029144
1761914481421100300,10.407100341796875,0.3347835838794708,-0.012830311432480812,-0.03901184722781181
1761914481431156500,10.417156494140626,0.30252498388290405,0.05342008173465729,-0.021229654550552368
1761914481441212400,10.42721240234375,0.28279975056648254,0.12364630401134491,0.0008711199625395238
1761914481451267300,10.437267333984375,0.2796492278575897,0.230149045586586,0.022904517129063606
1761914481461323300,10.4473232421875,0.30237823724746704,0.36338087916374207,0.03510525822639465
1761914481471379200,10.457379150390626,0.3293643295764923,0.489470899105072,0.0469970703125
1761914481481434400,10.467434326171874,0.3506283164024353,0.5878150463104248,0.06394276022911072
1761914481491490300,10.477490234375,0.3567858338356018,0.6753789782524109,0.08946463465690613
1761914481501546500,10.48754638671875,0.3394315838813782,0.7380514144897461,0.10893101245164871
1761914481511602400,10.4976025390625,0.31326231360435486,0.7673118114471436,0.10292957723140717
1761914481521657300,10.5076572265625,0.2763144075870514,0.7750459313392639,0.08358703553676605
1761914481531713300,10.51771337890625,0.22847072780132294,0.7683067917823792,0.057006027549505234
1761914481541769200,10.527769287109376,0.17362451553344727,0.7395230531692505,0.02239212393760681
1761914481551825400,10.537825439453124,0.1268298476934433,0.6864590644836426,-0.018581140786409378
1761914481561880300,10.54788037109375,0.08348637074232101,0.6430380940437317,-0.059653475880622864
1761914481571936300,10.557936279296875,0.04951402172446251,0.589749813079834,-0.10313277691602707
1761914481581992400,10.567992431640626,0.027364779263734818,0.5187933444976807,-0.1517530381679535
1761914481592047000,10.578047119140624,0.015324361622333527,0.4423167109489441,-0.19444245100021362
1761914481602103300,10.588103271484375,0.006281065288931131,0.3892870247364044,-0.22678041458129883
1761914481612159200,10.5981591796875,-0.013702495954930782,0.3668440580368042,-0.2529726028442383
1761914481622215200,10.608215087890626,-0.05422835052013397,0.409339040517807,-0.27017104625701904
1761914481632270300,10.618270263671874,-0.11082025617361069,0.5046280026435852,-0.29282015562057495
1761914481642326300,10.628326171875,-0.18944555521011353,0.5640700459480286,-0.31025612354278564
1761914481652382500,10.638382568359376,-0.2668098509311676,0.5852605104446411,-0.3099863529205322
1761914481662438400,10.6484384765625,-0.32545799016952515,0.5746086835861206,-0.27592960000038147
1761914481672493300,10.658493408203125,-0.35513973236083984,0.541472852230072,-0.2213238626718521
1761914481682549200,10.66854931640625,-0.3660741150379181,0.5470931529998779,-0.18992678821086884
1761914481692605200,10.678605224609376,-0.34384259581565857,0.6102431416511536,-0.2065851390361786
1761914481702660400,10.688660400390624,-0.314296692609787,0.6925390362739563,-0.2544024586677551
1761914481712716300,10.69871630859375,-0.3039660155773163,0.7516353726387024,-0.2913319766521454
1761914481722772500,10.7087724609375,-0.2996719181537628,0.7462952136993408,-0.2979224920272827
1761914481732828400,10.718828369140626,-0.308167427778244,0.7102919816970825,-0.19607603549957275
1761914481742883300,10.72888330078125,-0.33905234932899475,0.3339207172393799,-0.03195447102189064
1761914481752939300,10.738939208984375,-0.29277274012565613,-0.21765056252479553,0.022953253239393234
1761914481762995200,10.7489951171875,-0.2092890441417694,-0.6118437051773071,0.05697460100054741
1761914481773051100,10.759051025390624,-0.20426924526691437,-0.8840429782867432,0.06296564638614655
1761914481783106300,10.769106201171875,-0.2845292091369629,-1.030583381652832,0.03694257140159607
1761914481793162200,10.779162353515625,-0.40071946382522583,-0.9741108417510986,0.061516355723142624
1761914481803218400,10.789218505859376,-0.47199922800064087,-0.7348103523254395,0.17634759843349457
1761914481813273300,10.7992734375,-0.4317719042301178,-0.4027509093284607,0.281870037317276
