time,seconds_elapsed,z,y,x
1761914934269410600,0.12441064453125,-4.122164685925841,-4.336909260368347,0.4249028440080583
1761914934279465500,0.134465576171875,-4.795888707631826,-4.286035982221365,0.8054352158918976
1761914934289519600,0.14451953125,-4.971598325759172,-4.58614354891181,1.1410118631094694
1761914934299574500,0.154574462890625,-4.925455583265424,-5.077122062504292,1.344115391857922
1761914934309629400,0.16462939453125,-4.981458040994405,-5.577549956965446,1.5097690415255725
1761914934319684600,0.1746845703125,-4.844570028692484,-6.073687460756301,1.7006942028328775
1761914934329738500,0.184738525390625,-4.516887057334184,-6.40670594792366,1.737367544583231
1761914934339793400,0.19479345703125,-4.3249113640606405,-6.580531067478656,1.7028955122694371
1761914934349848000,0.20484814453125,-4.008869146135449,-6.7212529588550325,1.649316190034151
1761914934359902200,0.214902099609375,-3.6906069140732285,-6.674087303054332,1.4538288353778421
1761914934369957000,0.22495703125,-3.0770722803920507,-6.137813019186258,1.165803043886274
1761914934380012000,0.235011962890625,-2.3970669864594933,-5.18896798800826,0.8170568262331187
1761914934390066200,0.245066162109375,-1.6857839262098073,-4.028634169313311,0.4658887882605195
1761914934400121000,0.25512109375,-1.1883745027869939,-2.7787387376368042,0.19019392442330718
1761914934410176000,0.265176025390625,-0.9117448423177004,-1.6618717202246187,-0.1262477411482483
1761914934420230100,0.275230224609375,-0.6355220090836287,-0.7436912919014692,-0.5616632113423198
1761914934430285300,0.285285400390625,-0.5991214929252863,-0.036001872229576105,-1.1136789619605987
1761914934440340000,0.295340087890625,-0.610039777302742,0.70066405107975,-1.5174293470203875
1761914934450394000,0.30539404296875,-0.5091045373916626,2.0556717160910365,-1.4070508637204766
1761914934460449300,0.31544921875,-0.6584434504657983,3.160240977466106,-1.2935925345838069
1761914934470504000,0.32550390625,0.21163667155504226,3.466455628859997,-1.8364333373606203
1761914934480559000,0.33555908203125,1.1608452753484249,4.351784173417091,-1.923844786570966
1761914934490613200,0.34561328125,1.9009692301571368,5.2815147542804475,-2.1692839206151664
1761914934500668200,0.355668212890625,2.7384172486424445,5.887762738084793,-2.255214337487519
1761914934510723000,0.36572314453125,3.5536779852390286,6.221524737095833,-2.1102435564950106
1761914934520777200,0.375777099609375,4.106317128452658,6.202209795773029,-1.797833849853277
1761914934530832100,0.38583203125,4.312534113046526,5.9665983743906015,-1.3853877518363296
1761914934540887000,0.395886962890625,4.3991532428354025,5.816310782289505,-1.0148235239982604
1761914934550941200,0.405941162109375,4.498756941881775,5.875688853931426,-0.8502956634901464
1761914934560996000,0.41599609375,4.710404134830832,6.035576049026846,-0.7459769916858524
1761914934571051000,0.426051025390625,4.9144665717393154,6.032023909503221,-0.6409790323805064
1761914934581105200,0.436105224609375,5.022618318900466,5.847828202581406,-0.5888307658616453
1761914934591160000,0.44616015625,4.976683666199445,5.614731978890299,-0.5402502748269588
1761914934601215200,0.45621533203125,4.887687870407104,5.416987054565548,-0.47923977967761455
1761914934611270100,0.466270263671875,4.7900323828190565,5.207442971375584,-0.42340142646916207
1761914934621324000,0.476323974609375,4.716924476510286,5.046691268405318,-0.45711248434782026
1761914934631379200,0.486379150390625,4.644264898490905,5.0710646621614694,-0.599989215670526
1761914934641434000,0.49643408203125,4.437683172237873,5.1378533023208375,-0.7902342857591808
1761914934651488000,0.506488037109375,3.7969834682554002,5.0520180163860315,-0.9533364973783492
1761914934661543200,0.516543212890625,3.277294408485293,4.731367427882552,-1.0291918026991187
1761914934671598000,0.52659814453125,3.156513481375575,4.14600265763104,-0.9130030256852507
1761914934681652000,0.53665185546875,3.218312058162689,3.0154917302697894,-0.6310365342326462
1761914934691707100,0.54670703125,3.097787736162543,1.6114105300098656,-0.3654395783007145
1761914934701762300,0.55676220703125,2.316213580590486,0.6583563567042351,-0.3120372200675309
1761914934711816200,0.566816162109375,1.0531143839478492,0.16569325102567672,-0.41774888060018417
1761914934721871000,0.57687109375,-0.28964813199639317,0.12693185095489024,-0.7128020865105092
1761914934731926300,0.58692626953125,-1.3461585881233216,0.3401929088413715,-1.0915601421982049
1761914934741981000,0.59698095703125,-1.7867454696059226,-0.20491291625797747,-0.9964128380388021
1761914934752035000,0.60703515625,-2.3797499409556386,-2.008795398625731,-0.38987244715914127
1761914934762090200,0.61709033203125,-3.5720261273562905,-3.615681144687533,0.33155615952983497
1761914934772145200,0.627145263671875,-4.4454526371955865,-4.258472852513194,0.9630692252330482
1761914934782199000,0.637198974609375,-4.409052121037244,-4.88381658193171,1.6098326131686567
1761914934792254200,0.647254150390625,-4.035263816586137,-6.220218330672383,2.4371638729177416
1761914934802309000,0.65730908203125,-3.8230835396736857,-7.816754532155394,3.3713404734045267
1761914934812363300,0.66736328125,-4.151404224413633,-8.58880214996934,3.9908655796721577
1761914934822418200,0.677418212890625,-4.269629621821641,-8.738255629333853,4.213371728026867
1761914934832473000,0.68747314453125,-4.29590972598195,-8.866246049430966,4.229182752881944
1761914934842527200,0.69752734375,-4.572087551030516,-8.763020068234205,4.0708606151461595
1761914934852582100,0.70758203125,-4.9543590216666455,-8.211126190429926,3.6506533816084263
1761914934862637000,0.717636962890625,-5.100179697486758,-7.388932439699769,3.1231925187930463
1761914934872691200,0.727691162109375,-5.082434781959653,-6.823634890443087,2.7490032323256135
1761914934882746000,0.73774609375,-5.054264918529987,-6.0436851212024685,2.687770764988661
1761914934892801000,0.747801025390625,-4.406700589475036,-4.751323589718342,2.7287428268462417
1761914934902856200,0.757856201171875,-3.0797879690915346,-3.108665104007721,2.503108609598875
1761914934912910300,0.767910400390625,-1.6164017624258995,-1.5173603734374046,1.9586517499275504
1761914934922965000,0.777965087890625,-0.3017512422442436,-0.006869885769486427,1.1193864528872073
1761914934933020200,0.788020263671875,0.1852349868416786,1.3673732255876063,0.18682167151123283
1761914934943074300,0.79807421875,0.02894260136783123,1.9876643477916716,-0.7550524977408349
1761914934953129000,0.80812890625,-0.2891945430099964,2.3978069911718367,-1.7964556933678686
1761914934963184000,0.81818408203125,0.1435860486358404,2.954917142319679,-2.4858991161227224
1761914934973238300,0.82823828125,0.9295289208114147,3.6454701337516306,-2.8900007257729765
1761914934983293200,0.838293212890625,1.6673440141558646,4.201032470935583,-2.9599750102311373
1761914934993348000,0.84834814453125,2.3457383657604454,4.5838381945788855,-2.7009152009829878
1761914935003402200,0.85840234375,2.7418472230911255,4.817613048183918,-2.310564761048555
1761914935013457200,0.86845703125,3.023476883804798,4.803890227779746,-1.8245339329913257
1761914935023512000,0.878511962890625,3.436228832900524,4.8630035110056395,-1.2925168681763113
1761914935033567200,0.888567138671875,3.898647606962919,5.097170578798651,-0.9127440094228834
1761914935043621000,0.89862109375,4.407580294919014,5.249587584143876,-0.6680112700823694
1761914935053676000,0.908676025390625,4.818519641634822,5.240095533177256,-0.44524968566186723
1761914935063731200,0.918731201171875,5.064126387330889,5.251833901765942,-0.31336035843007265
1761914935073785000,0.92878515625,5.262424269363284,5.3640989294648165,-0.23900405949540435
1761914935083840300,0.93884033203125,5.277054267740249,5.570267398741841,-0.18471059764139353
1761914935093895200,0.948895263671875,5.216371543240547,5.650379630854726,-0.12856420139707625
1761914935103949000,0.958948974609375,5.092448226451873,5.530132956752181,-0.12781082574650646
1761914935114004200,0.969004150390625,4.93249381133914,5.411263416221738,-0.14683825536482034
1761914935124059100,0.97905908203125,4.565677099466323,5.297881951713562,-0.2670965468399227
1761914935134113000,0.989113037109375,4.230770606595278,4.905994511470198,-0.2537092420004308
1761914935144168200,0.999168212890625,4.127726996228098,3.835172621396184,0.034317134013026954
1761914935154223000,1.00922314453125,4.017116165477037,2.2866057933121917,0.3459863975510001
1761914935164277000,1.019277099609375,3.8800978047937154,0.7899287269413471,0.5033522574752569
1761914935174332200,1.029332275390625,3.2263807983279227,0.15637071140706538,0.23437837245613335
1761914935184387300,1.03938720703125,1.7421499565541743,0.5506985305398703,-0.3344946971997618
1761914935194441000,1.04944091796875,-0.11042729087769984,0.7802841157615185,-0.8172413890197873
1761914935204496100,1.05949609375,-1.9094705165207384,-0.37311844236552716,-0.5655952170290053
1761914935214551300,1.06955126953125,-3.50393634147048,-1.7478344319313763,0.0976705390267074
1761914935224606000,1.07960595703125,-4.564440835669637,-2.203554585137963,0.6949183470346033
1761914935234660000,1.08966015625,-4.666011450874805,-2.770038713830709,1.5171554985150695
1761914935244715300,1.09971533203125,-4.78351671731472,-4.092627041274309,2.5193372753441334
1761914935254770000,1.10977001953125,-5.696586670756339,-5.815877651569247,3.616439854100346
1761914935264824000,1.119823974609375,-6.211225461399555,-7.593367217051982,4.525961175149679
1761914935274879200,1.129879150390625,-6.127459967476129,-8.50237532788217,4.858688570415973
1761914935284934100,1.13993408203125,-5.493588063687086,-8.577613231956958,4.814231296791136
1761914935294988000,1.149988037109375,-5.001861362075806,-9.510250640177727,4.949926592177152
1761914935305043200,1.160043212890625,-4.803578093090653,-10.310585025799273,5.103326178818941
1761914935315098000,1.17009814453125,-4.836963060820103,-9.740455234080553,4.7112914390593765
1761914935325152300,1.18015234375,-4.818773908656835,-8.619148772916198,3.895425430046022
1761914935335207200,1.190207275390625,-4.624374787628651,-7.457988440269231,3.0788883899033066
1761914935345262000,1.200261962890625,-4.214453093522787,-6.323112887957691,2.602160519981384
1761914935355317000,1.21031689453125,-3.2585259951293466,-5.087966112601757,2.4886978069305417
1761914935365371000,1.220370849609375,-1.9941309134572742,-3.890191328784823,2.2072356117382643
1761914935375426000,1.230426025390625,-0.9340478595405817,-2.8165812692970036,1.5152888278603553
1761914935385481200,1.240481201171875,-0.21345044297873972,-1.6725106031388044,0.4322134227497503
1761914935395535000,1.25053515625,0.38457682496905327,-0.3754594525337219,-1.003269425935298
1761914935405590000,1.260590087890625,0.6673112320542335,0.7368699214488268,-2.1224271846331653
1761914935415645200,1.270645263671875,0.708051238721609,1.7356331220060586,-2.766187299099564
1761914935425699000,1.280698974609375,0.8806599682241678,2.683765621000528,-3.23131854699105
1761914935435754000,1.29075390625,1.2252736161172388,3.4293864196598527,-3.3730598445430395
1761914935445809200,1.30080908203125,1.7806828085660933,3.9366479595333335,-3.214795866735279
1761914935455863000,1.310863037109375,2.406961773008108,4.15379725703001,-2.8011054677456615
1761914935465918000,1.32091796875,2.89603708332777,4.201805793395638,-2.254281440551579
1761914935475973000,1.33097314453125,3.2326100481063125,4.272922233626246,-1.7310156913384793
1761914935486027000,1.341027099609375,3.5717350354552266,4.5617111184448005,-1.346051036095619
1761914935496082200,1.351082275390625,3.9551942545711993,5.0469204009860755,-1.1676081936120986
1761914935506137000,1.36113720703125,4.37966762112081,5.47614300788939,-1.1220769340801984
1761914935516192000,1.37119189453125,4.791646247756481,5.656781899112462,-1.0696927399136125
1761914935526246100,1.38124609375,5.055705180466175,5.69007743499279,-0.9842545635376125
1761914935536300800,1.39130078125,5.00050994746685,5.723828313425183,-0.8851507037721574
1761914935546356000,1.40135595703125,4.812054245012998,5.839208258274197,-0.7827341392621397
1761914935556410000,1.41141015625,4.768271217387914,5.938316282758116,-0.7499269714206457
1761914935566465000,1.421465087890625,4.868682725685835,5.804057449916005,-0.7085938211657107
1761914935576520000,1.43152001953125,4.673493331062794,5.666498406484723,-0.798272776916623
1761914935586574000,1.441573974609375,4.347182817101478,5.70501606092751,-1.040379843928665
1761914935596629000,1.45162890625,4.019357806923985,5.815848425474763,-1.3430492239311336
1761914935606684000,1.461683837890625,3.7714556437671183,5.922827037203311,-1.64782565921545
1761914935616738000,1.471738037109375,3.7396208280891177,5.680101984423398,-1.7395035336986182
1761914935626793000,1.48179296875,3.8605502237588163,4.751350477725267,-1.4236135837256907
1761914935636847900,1.491847900390625,3.6858810545951126,3.2156402086049316,-0.8759491601847111
1761914935646903000,1.501903076171875,3.163971396166086,1.676873474523425,-0.3543858309753239
1761914935656957000,1.51195703125,2.6661966465622187,0.5706418328940868,-0.05860927922651171
1761914935667012000,1.52201220703125,1.7225842553406954,0.6409457876980305,-0.4337188954092562
1761914935677067000,1.53206689453125,0.38272856675386424,1.4404887306809424,-1.28151075938493
1761914935687121000,1.542120849609375,-0.8260773141652346,1.1355436608314513,-1.5275135186612605
1761914935697176000,1.552176025390625,-1.3907131846427916,-0.293662043812871,-1.099741695088148
1761914935707231000,1.56223095703125,-2.2564707672893998,-1.5551444529086351,-0.3147805274263024
1761914935717284900,1.572284912109375,-2.397125438648462,-3.38955534453094,0.916988003668189
1761914935727340000,1.582340087890625,-2.4661188953757285,-5.613178904229402,2.148062122757733
1761914935737395000,1.59239501953125,-2.8710440963685513,-7.193236264598369,2.9686817560389636
1761914935747448800,1.60244873046875,-2.603434777700901,-8.857368330970406,3.884268952998519
1761914935757504000,1.61250390625,-2.754789122250676,-11.157630893713236,5.156922159928083
1761914935767559200,1.62255908203125,-3.968175316697359,-12.599251258772611,5.996773147901893
1761914935777612800,1.63261279296875,-5.158781524059176,-12.510914803671836,5.901124908483028
1761914935787668000,1.64266796875,-5.887905945947766,-11.347706890845298,4.95125462591052
1761914935797723100,1.65272314453125,-6.7014294834882016,-10.124379732620715,4.095033225633204
1761914935807777000,1.662777099609375,-7.640584310778975,-9.219586024615168,3.831210732027888
1761914935817832000,1.67283203125,-7.9055586047679185,-8.081251271760463,3.747193016909063
1761914935827887000,1.68288720703125,-7.48148972736597,-6.812490980616212,3.718407651929557
1761914935837942000,1.69294189453125,-6.753940007448196,-5.735083282411098,3.502913428163528
1761914935847996000,1.702995849609375,-4.998017546129226,-4.498287570804357,3.033653702165186
1761914935858051000,1.713051025390625,-2.2209879504978653,-2.8057506632030007,2.0182361577965318
1761914935868106200,1.723106201171875,0.3563257129967212,-0.9475333640575409,0.695102617560327
1761914935878160000,1.733159912109375,1.4948130260646342,0.6067465809762478,-0.32347192953452464
1761914935888215000,1.743215087890625,1.5350854152202604,0.8778133466213941,-0.41627829659096893
1761914935898270200,1.753270263671875,1.3041378939956425,0.5103542451918125,-0.6632493163775652
1761914935908324000,1.763323974609375,1.151089020487666,1.3426707460075615,-1.6088031239904463
1761914935918379000,1.77337890625,1.6843898415029048,2.5645558887302875,-2.2171337592877447
1761914935928434200,1.78343408203125,2.4415397499144076,3.7828824621886015,-2.4317303035616873
1761914935938488000,1.793488037109375,3.095971626651287,4.857150108802318,-2.475408994029462
1761914935948543000,1.80354296875,3.514611464741826,5.596552763599157,-2.2744177812598645
1761914935958598000,1.813597900390625,3.5683056455284357,6.5043772176027295,-1.8766151256233452
1761914935968652000,1.823652099609375,3.7160219258368015,6.755940241354703,-1.4080693931132555
1761914935978707200,1.833707275390625,4.000715650296211,6.014300036764144,-0.9376988563288002
1761914935988761900,1.843761962890625,4.2542426675975324,5.389074965289235,-0.6546393089424818
1761914935998816000,1.85381591796875,4.3382022227883335,5.408155513334274,-0.6341533510789275
1761914936008871200,1.86387109375,4.543167746016383,5.490275578138232,-0.6659989804118871
1761914936018925800,1.87392578125,4.585181425881386,5.419862902262807,-0.6998734852239489
1761914936028981000,1.88398095703125,4.302686088249087,5.444879270097613,-0.7197821546562015
1761914936039035100,1.89403515625,4.106104947006703,5.475586543050408,-0.8119076267763972
1761914936049089800,1.90408984375,4.03095004504025,5.6019695279508825,-0.9566644727572798
1761914936059145000,1.91414501953125,3.973066595870256,5.779329251372814,-1.1321636630043386
1761914936069199000,1.92419921875,3.989801457571983,5.713981457671522,-1.29209016719684
1761914936079254000,1.93425390625,3.9140906752884383,5.5428878089070315,-1.3558559524036944
1761914936089309000,1.944308837890625,3.6677222975701094,5.424037557598949,-1.3594237278878687
1761914936099363000,1.954363037109375,3.5338644467443228,5.315820343986153,-1.364836546716839
1761914936109418000,1.96441796875,3.920207112342119,5.030217687988281,-1.2726210582256317
1761914936119473000,1.974472900390625,4.698724802953005,4.007429468721151,-0.8365836567409336
1761914936129527000,1.984527099609375,5.084090147951245,2.6904356002837417,-0.39436902792602774
1761914936139582000,1.99458203125,4.844357262724638,1.7420061641693114,-0.14705635509490966
1761914936149636900,2.004636962890625,4.123495642268657,1.251155660870671,-0.0554760957673192
1761914936159692000,2.014692138671875,2.882912813338637,1.194323766580224,-0.31430005043298004
1761914936169746000,2.024745849609375,1.6139596299707888,0.9074357469469309,-0.39506110184341664
1761914936179801000,2.034801025390625,0.5426689533412457,-0.14846914450228213,0.00978285060673952
1761914936189856000,2.04485595703125,-0.22605331944227217,-1.364477504146099,0.38330315177142615
1761914936199910000,2.054909912109375,-1.399334297993779,-1.647311279952526,0.4745423425763845
1761914936209965000,2.064965087890625,-2.5742332331359385,-2.2024317185878752,0.9052171941146254
1761914936220020000,2.07502001953125,-3.421655533146858,-3.6499890724807975,1.4634201089352368
1761914936230073900,2.085073974609375,-4.597570367333293,-5.13652468406558,2.0724851959869266
1761914936240129000,2.09512890625,-5.412250673693419,-7.1027417546808715,3.045832507997751
1761914936250184000,2.105183837890625,-5.992718319553137,-9.101441291227935,4.0020103662818665
1761914936260237800,2.11523779296875,-6.863355490934849,-10.50050554010868,4.784737199020386
1761914936270293000,2.12529296875,-7.894216542020439,-11.166837113475799,5.229810286006331
1761914936280348200,2.13534814453125,-8.67225726276934,-10.706225681096315,4.793614917480945
1761914936290402000,2.145402099609375,-8.944258094394206,-9.396417924770713,3.441017820742726
1761914936300457000,2.15545703125,-8.882011773839592,-8.111087607097625,2.1897794500246643
1761914936310512000,2.16551220703125,-8.845113245031238,-7.388523274376988,1.7940505319222806
1761914936320566000,2.17556591796875,-8.523501118019222,-7.040970065900683,1.9443328633263706
1761914936330621000,2.185620849609375,-7.639651998364925,-6.814963508209586,2.196523079065978
1761914936340676000,2.195676025390625,-6.053932374450564,-6.0215592141121626,2.4175436650380493
1761914936350735400,2.2057353515625,-4.225426907479763,-4.510003143039346,2.710987974447012
1761914936360789200,2.215789306640625,-2.3409978932350874,-2.5987112563103434,2.854535152377188
1761914936370844400,2.225844482421875,-1.0270903003752232,-1.018677276816964,2.5017794068217274
1761914936380899300,2.2358994140625,-0.39483343056738374,-0.2964356001794338,1.887445001064986
1761914936390953200,2.245953125,-0.09852174902856349,0.7351812377095222,0.824857563111931
1761914936401008400,2.25600830078125,0.01882861911058426,1.1821353161364794,-0.1020383788473904
1761914936411063600,2.2660634765625,-0.09614040684998035,2.024104026916623,-1.0247951751753688
1761914936421117200,2.2761171875,0.34547581768035884,3.5065649364084,-1.678675263248384
1761914936431172400,2.28617236328125,0.8411930502325295,4.798831190824508,-1.86462395131737
1761914936441227500,2.2962275390625,1.2490958057314157,5.772786697861552,-1.8001631695836782
1761914936451281400,2.306281494140625,2.0497411569982766,6.35784225603342,-1.4801711911194027
1761914936461336300,2.31633642578125,2.794852837091684,6.616323096349835,-1.048181603720784
1761914936471391500,2.3263916015625,3.345744259855151,6.658330930995941,-0.533622892576456
1761914936481445400,2.3364453125,3.9807062969684597,6.512026855573057,-0.019115281431702897
1761914936491500300,2.346500244140625,4.092124352449178,6.366672628220916,0.29524434456825255
1761914936501555500,2.356555419921875,4.0476574342131615,6.391820513480901,0.43683059768900273
1761914936511610400,2.3666103515625,4.153972613596916,6.367399188929796,0.4520383228886872
1761914936521664300,2.376664306640625,4.496765475803613,6.207738788327575,0.3378422540619969
1761914936531719400,2.386719482421875,4.672766770353913,6.19786329100132,0.2564016228895634
1761914936541774300,2.3967744140625,4.633018112811446,6.353806716907024,0.1284841949634254
1761914936551828500,2.406828369140625,4.508441885071993,6.464988041022419,0.015838278188183903
1761914936561883400,2.41688330078125,4.357799488183856,6.431866692665219,-0.07802380846627056
1761914936571938300,2.426938232421875,4.204075491893291,6.394460798856616,-0.2348789423894137
1761914936581992400,2.436992431640625,4.014252592739463,6.400611138179898,-0.439781410318613
1761914936592047400,2.44704736328125,3.7071459609419106,6.341049526664614,-0.6428470912747085
1761914936602102300,2.457102294921875,3.4497254433333873,6.20315905932188,-0.7750069060109556
1761914936612156400,2.467156494140625,3.2701509664714337,5.90080459048748,-0.9219552706867455
1761914936622211600,2.477211669921875,3.182667913329601,5.317910009741783,-0.8034381968557834
1761914936632266200,2.487266357421875,3.3121254833698273,4.327545804217458,-0.538136278347671
1761914936642320400,2.4973203125,3.594543371851742,2.8572867891728877,-0.17638254895284772
1761914936652375600,2.50737548828125,3.2408690501466393,1.1481950526118279,-0.13480667598322033
1761914936662430200,2.51743017578125,2.0862445490092036,-0.21425825223028658,-0.3595826689660549
1761914936672485400,2.5274853515625,0.1994070123180747,-1.1121581090688706,-0.7849224430866539
1761914936682539500,2.53753955078125,-1.7721613561972975,-1.9114339255481958,-0.9591330548278987
1761914936692594200,2.54759423828125,-3.3022181296005844,-2.6429566407501697,-0.6431818761870265
1761914936702649300,2.5576494140625,-4.088579227188229,-3.1080209608852862,-0.42444092558473345
1761914936712703500,2.567703369140625,-4.084485235872864,-4.126584840455651,-0.06845043589174747
1761914936722758400,2.57775830078125,-4.296898152497411,-5.884950018751621,0.6847521961987019
1761914936732813300,2.587813232421875,-5.2815854814291,-7.56220752415657,1.8582056087076664
1761914936742867200,2.5978671875,-6.378756449246406,-8.929074553787707,3.1363886849746105
1761914936752922400,2.60792236328125,-6.853176042225956,-9.615648704716563,3.800091663403809
1761914936762977300,2.617977294921875,-7.409356219047307,-10.148098461860418,4.070295967000723
1761914936773031200,2.62803125,-7.846217358005046,-11.149483827614784,4.354021723210812
1761914936783086300,2.63808642578125,-7.983299431574344,-11.780851639628409,4.296322106175125
1761914936793141200,2.648141357421875,-7.7903721366643905,-11.592841342854499,3.825882815003395
1761914936803195100,2.658195068359375,-7.300243517899513,-10.882286012357472,3.379964801625907
1761914936813250300,2.668250244140625,-6.843922476190328,-9.915350028693675,2.9655279681831597
1761914936823305500,2.678305419921875,-6.280522284987568,-9.023152182888984,2.667221313434839
1761914936833359400,2.688359375,-5.014751823309064,-8.031528917214274,2.510686059115827
1761914936843414300,2.698414306640625,-3.0804262669950724,-6.341600146284699,2.297452181497216
1761914936853469400,2.708469482421875,-1.0503978184655307,-4.2196576764285565,2.011048292119056
1761914936863524400,2.7185244140625,0.47723874205350875,-2.1449679561346766,1.5493259758882223
1761914936873578200,2.728578125,1.1205965593293308,-0.797692931202054,0.8320562424443662
1761914936883633400,2.73863330078125,0.8077963920652866,-0.20826456477344035,-0.08951075957715511
1761914936893688300,2.748688232421875,0.4459054461568594,0.4371253428518772,-1.1819527991764247
1761914936903742200,2.7587421875,0.5649368992507457,1.6956237677007913,-2.1175138397589324
1761914936913797400,2.76879736328125,0.875560599258542,3.175518041574955,-2.7091137050077316
1761914936923852500,2.7788525390625,1.239705169312656,4.573124492862821,-2.9924177286744116
1761914936933906400,2.788906494140625,1.817161066135764,5.698894363176822,-2.9994416359618303
1761914936943961300,2.79896142578125,2.7393270569637416,6.498243829414248,-2.8135420477315782
1761914936954016500,2.8090166015625,3.522537581565976,6.881334215217828,-2.538103642873466
1761914936964070400,2.8190703125,3.5736037519365547,6.631306145948171,-2.030875713008642
1761914936974125300,2.829125244140625,3.5372944211930033,6.490996342504024,-1.5076206313200293
1761914936984180500,2.839180419921875,3.749664083197713,6.772783239606023,-1.1711420668266712
1761914936994234400,2.849234375,3.7115658232107758,6.997326739007234,-0.9977348073575645
1761914937004289300,2.859289306640625,3.5662577730879184,7.051414303025603,-0.8910216416321695
1761914937014344400,2.869344482421875,3.445034947429597,6.915428792521357,-0.681478216029331
1761914937024399400,2.8793994140625,3.3693016610532998,6.726469816720486,-0.4539163917202502
1761914937034453500,2.88945361328125,3.464830658006668,6.737712510746717,-0.4183755611311644
1761914937044508400,2.89950830078125,3.6119931038245556,6.96639442512691,-0.49748679950796065
1761914937054563300,2.909563232421875,3.5061247914254663,6.998085448420047,-0.5777651089027523
1761914937064617500,2.919617431640625,3.347499871350825,7.0025576253980395,-0.526003503613919
1761914937074672400,2.92967236328125,3.2404189682915803,7.134160975295305,-0.4704787463992834
1761914937084727300,2.939727294921875,3.236504717457294,7.247017539146542,-0.4090209458738565
1761914937094781400,2.949781494140625,3.36407895796895,7.237929392805695,-0.26077859586477276
1761914937104836400,2.95983642578125,3.373372563754022,7.086145424667,-0.10531433177813887
1761914937114891300,2.969891357421875,3.2133354387938975,6.693694505321979,0.10955313839167356
1761914937124945400,2.9799453125,3.137954619117081,6.319705125340819,0.23264380374848842
1761914937135000600,2.99000048828125,3.272370980608463,5.703277108305692,0.4166869504570961
1761914937145055200,3.00005517578125,3.53192967928946,4.549381798225641,0.689499244595319
1761914937155110400,3.0101103515625,3.4015570402309296,3.306148162525892,0.8123859118126332
1761914937165164300,3.020164306640625,3.0082720081493255,2.6141274366289378,0.7476283390894531
1761914937175219200,3.03021923828125,2.47140385004133,1.9097925880819557,0.8645280408516526
1761914937185274400,3.0402744140625,2.246131451843679,0.15960194841325281,1.4524221834503113
1761914937195328300,3.050328369140625,2.227706445097923,-1.9115268645286558,2.018538794004917
1761914937205383400,3.060383544921875,1.8686039608642457,-2.7218711875110864,2.092041398719698
1761914937215438300,3.070438232421875,1.1043982887223363,-2.8114620265871286,2.326890603557974
1761914937225492200,3.0804921875,0.2079834097445011,-4.717884845975041,3.6176983297288414
1761914937235547400,3.09054736328125,-0.9888874109700322,-7.075714047023654,4.921726333609223
1761914937245602300,3.100602294921875,-1.2207824421778322,-8.565295602175594,5.479769381693005
1761914937255656200,3.11065625,-1.1111468861997127,-9.264850230708717,5.13684207945168
1761914937265711400,3.12071142578125,-1.4900608631014822,-9.615978375062346,4.272120561854541
1761914937275766300,3.130766357421875,-2.1228443871319294,-9.88675287976265,3.2845155919104814
1761914937285820200,3.140820068359375,-2.7464287056624888,-10.222032297599315,2.6409160748332736
1761914937295875300,3.150875244140625,-2.535675246682763,-10.29091469516754,2.2549885659076274
1761914937305930500,3.160930419921875,-2.000754715511203,-9.62438146174848,1.7629453456930815
1761914937315984100,3.170984130859375,-1.6493834100514648,-8.792657666128873,1.4077429376378654
1761914937326039300,3.181039306640625,-1.5283715967953204,-8.259356260591744,1.2624173518583177
1761914937336094500,3.191094482421875,-1.4907114359647036,-7.635908720183372,1.2387570748075842
1761914937346149400,3.2011494140625,-1.2046902622938156,-6.37561522861123,1.3654961796693503
1761914937356203300,3.211203369140625,-0.880918911421299,-5.2566714049249885,1.8479250377118586
1761914937366258200,3.221258056640625,-0.2942781298846006,-4.022455772939324,2.1985084076642987
1761914937376313000,3.23131298828125,0.11985270634889603,-2.2425737593621013,1.977881058793515
1761914937386367200,3.2413671875,0.16805355041623116,-1.1245119792073965,1.5692543729342519
1761914937396422100,3.251422119140625,-0.25608371604681013,-0.8400169921904802,1.0694264901928603
1761914937406477300,3.261477294921875,-0.6684937198370695,-0.40495033543407916,0.42546033176034687
1761914937416531200,3.27153125,-0.7084165649026631,0.5328887330830097,-0.43829365597888825
1761914937426586000,3.281586181640625,-0.797575442302227,1.6791957799911499,-1.1601141845948995
1761914937436641300,3.291641357421875,-0.6501414860665797,2.933475710362196,-1.7226250257425009
1761914937446695400,3.3016953125,-0.03812719382047653,4.221736236268281,-2.0654820392265916
1761914937456750000,3.31175,0.6600111381739378,5.396083382746577,-2.1965314085029064
1761914937466805200,3.32180517578125,0.9988333431839942,6.194238086241484,-1.986041130504012
1761914937476860200,3.331860107421875,0.9092629623740911,6.351827525788545,-1.3677401592038572
1761914937486914000,3.3419140625,0.5340162758082151,5.834143960621953,-0.6590124825254082
1761914937496969200,3.35196923828125,0.7206576223164797,5.259567126366496,-0.1538628202393651
1761914937507024400,3.3620244140625,1.3018717026293276,5.127261765679717,-0.050276919689029455
1761914937517078300,3.372078369140625,1.9009674765914677,5.097987155878544,-0.19877733611240983
1761914937527133200,3.38213330078125,2.3449451695561407,5.251010894945264,-0.4154122543461621
1761914937537188400,3.392188232421875,2.249939904215932,5.480404756987094,-0.7538076122462749
1761914937547242200,3.4022421875,1.9473603944540023,5.5126171738058325,-0.9914994931645691
1761914937557297200,3.412297119140625,1.7238789713263512,5.5665060003817075,-1.13810576640442
1761914937567352300,3.422352294921875,1.5982500196635723,5.6418596397906535,-1.228193449086696
1761914937577406200,3.43240625,1.670987339094281,5.559465434220433,-1.194198971156776
1761914937587461000,3.442461181640625,1.6038392179727554,5.395244593834876,-1.3024261216416955
1761914937597516300,3.452516357421875,1.5911071621716022,5.023558814620971,-1.4859934675320983
1761914937607571200,3.4625712890625,1.7512427790701388,4.861732760417461,-1.6742092237502335
1761914937617625300,3.472625244140625,1.888935678014159,4.973983175069093,-1.9294179105281828
1761914937627680300,3.48268017578125,2.1601450670003888,4.687161790931224,-2.1077453099384904
1761914937637735200,3.492735107421875,2.0622347278684376,3.8228058917760848,-2.1322730174735187
1761914937647789300,3.502789306640625,0.7473328632742167,2.7327637529253956,-1.850606239619851
1761914937657844200,3.51284423828125,-1.265762862893939,2.266979886344075,-1.7213314788006244
1761914937667899100,3.522899169921875,-2.643914672127366,2.016025934401154,-1.5694669927716254
1761914937677953300,3.532953369140625,-2.830868153324723,0.8850649251848459,-1.0976000068843363
1761914937688008200,3.54300830078125,-2.5214310327529907,-0.42581250619888306,-0.9928108680240809
1761914937698063000,3.55306298828125,-3.0108956346511837,-0.9336053764700889,-1.4439977617152033
1761914937708117200,3.5631171875,-4.398507930669188,-0.9400158280342816,-1.6286350749246774
1761914937718172400,3.57317236328125,-5.075049347883462,-1.5686802263081072,-1.0697590831480919
1761914937728227000,3.58322705078125,-4.680753092932701,-2.6800404629975554,-0.29148616107851266
1761914937738282200,3.5932822265625,-4.2535447484612465,-3.7260464762449264,0.32063655997812746
1761914937748336400,3.60333642578125,-3.8090333870112896,-5.4941410213947295,1.1017037889413535
1761914937758391000,3.61339111328125,-3.5072102485746144,-7.573164971500635,1.7983249943710862
1761914937768446200,3.6234462890625,-2.969477582591772,-9.293318200302123,2.27663998735398
1761914937778500400,3.633500244140625,-2.717981194335222,-10.71589484219551,2.87442146384716
1761914937788555300,3.64355517578125,-2.84937470087409,-11.514883658427,3.25514453599751
1761914937798610200,3.653610107421875,-3.337251156798005,-11.574370451140403,3.132812872314453
1761914937808664300,3.663664306640625,-3.8372786537647245,-11.244200923663378,2.6939608518004414
1761914937818719200,3.67371923828125,-4.3367695596367115,-10.744342353522777,2.1587954059571026
1761914937828774100,3.683774169921875,-4.943481653821468,-10.017592259550094,1.7575832341380417
1761914937838828300,3.693828369140625,-5.065348622602224,-8.790194490885733,1.4023735195592044
1761914937848883200,3.70388330078125,-4.525376653259992,-7.227110477149486,1.166773788614571
1761914937858938000,3.713938232421875,-3.574123391896486,-5.764515713122487,1.1588736099492758
1761914937868992300,3.7239921875,-2.4621406393945215,-4.599653603348136,1.3020359532803296
1761914937879047200,3.734047119140625,-1.1466203506410122,-3.4540175875693557,1.3284426064297556
1761914937889102300,3.744102294921875,0.178995800191164,-2.2892297120749947,1.1751766561049968
1761914937899157200,3.7541572265625,1.2855109349370002,-0.9628361471295356,0.8140262263655662
1761914937909211100,3.764211181640625,1.7754905006200075,0.6725824504554271,0.09411392425736412
1761914937919266300,3.774266357421875,1.7507734079927204,2.0140268695384265,-0.6428342317931354
1761914937929321200,3.7843212890625,1.4914625465929507,2.8664480007499455,-1.12785069517605
1761914937939375000,3.794375,1.3443886558413505,3.618104572442174,-1.3125750290818512
1761914937949430300,3.80443017578125,1.449271756595373,4.3954082110881805,-1.3109290154404938
1761914937959485200,3.814485107421875,1.7817863858938217,5.049835411649942,-1.1713023719549178
1761914937969539000,3.8245390625,2.2618284949302674,5.499340928125381,-0.9014267157904803
1761914937979594200,3.83459423828125,2.748373409989476,5.838807860779762,-0.5671905233964324
1761914937989649400,3.8446494140625,3.3093308842152354,6.107155430594086,-0.2389521283787675
1761914937999703300,3.854703369140625,3.8291771803736685,6.006359891414642,0.16719134409632533
1761914938009758200,3.86475830078125,4.3438650708556175,5.711805282676219,0.6081473876848816
1761914938019813400,3.8748134765625,4.750324641808867,5.761881272965669,0.8299222260903567
1761914938029868000,3.884867919921875,5.060353298532963,6.022153672873974,0.8413372079435736
1761914938039922200,3.894922119140625,5.283160183399915,6.148848792463541,0.7591530649274587
1761914938049977300,3.904977294921875,5.311128971299529,6.038869829875231,0.65865957743451
1761914938060032300,3.9150322265625,5.1579491648882625,5.832795468622446,0.5383825812589377
1761914938070086100,3.925086181640625,4.918360072046518,5.6587605057090515,0.42644645672086623
1761914938080141300,3.935141357421875,4.760279049590229,5.545806326702237,0.3384036873370409
1761914938090196200,3.9451962890625,4.682182833474874,5.3708378823310134,0.32196276708059013
1761914938100250400,3.95525048828125,4.398245480340719,5.0607829221218825,0.2843779365085065
1761914938110305300,3.96530517578125,3.7497985232323408,4.778372340163588,0.17163184729442
1761914938120360200,3.975360107421875,3.0085569625705477,4.49636157117784,0.05572773244082927
1761914938130414300,3.985414306640625,2.6824744121462105,3.8077673125982283,0.028749416883289813
1761914938140469200,3.99546923828125,2.795444373244047,2.6218688445359466,0.2835582176234573
1761914938150521300,4.005521240234375,2.9624960531413556,1.256407590049505,0.5438409927953034
1761914938160576300,4.015576171875,2.6251228778958318,0.3857464532703161,0.5098750103075057
1761914938170631200,4.025631103515625,1.7811732224315404,0.1577460914134979,0.01024001978971064
1761914938180685300,4.035685302734375,0.4249743018090725,0.09090016810894012,-0.7643393815241754
1761914938190740200,4.045740234375,-0.8626993641197681,-0.5407780250281096,-1.3430723125457762
1761914938200795100,4.055795166015625,-2.1085843911111355,-1.820088936281204,-1.3479238442301749
1761914938210849300,4.065849365234375,-3.3378608131289482,-2.9293975011378524,-0.9413750606235116
1761914938220904200,4.075904296875,-4.204138620257377,-3.1028274838954206,-0.5331543252166361
1761914938230959000,4.085958984375,-4.643913600835204,-2.748774392005801,-0.2983573620222509
1761914938241014300,4.09601416015625,-4.346479052746296,-3.422923945647478,0.2705325126379728
1761914938251068200,4.106068115234375,-4.106874762335419,-5.229768200430274,1.1685556305300444
1761914938261123000,4.116123046875,-4.566190309685468,-6.774200120666623,1.83992600178197
1761914938271178200,4.12617822265625,-4.88351789124608,-7.605572618630528,2.049795955925435
1761914938281232100,4.136232177734375,-4.899779874739051,-8.221855674237013,1.9780656215801833
1761914938291287300,4.146287353515625,-5.205844304007291,-8.921869736975431,1.8885493090450762
1761914938301342200,4.15634228515625,-5.887062480860949,-9.217993202465772,1.7238953379392623
1761914938311396000,4.16639599609375,-6.292618965494633,-8.628997382235527,1.1639642110865562
1761914938321451300,4.176451171875,-6.265246974444389,-7.521514863762259,0.3665104224026203
1761914938331506200,4.186506103515625,-6.082327278807759,-6.464945370924473,-0.48976110062673683
1761914938341560000,4.19656005859375,-5.800200189965963,-5.559892135199904,-1.3625722550466657
1761914938351611600,4.206611572265625,-4.8612066907167435,-4.949465404406189,-1.8596549307331443
1761914938361666600,4.21666650390625,-3.3506039748460053,-4.0469571769893165,-1.8945698845088481
1761914938371720400,4.226720458984375,-1.4512977094650268,-2.932835658892989,-1.4860466590240597
1761914938381775600,4.236775634765625,0.11020108090639114,-2.1624247023701666,-0.8828758907079696
1761914938391830800,4.246830810546875,1.1455693802833558,-2.0195967786252496,-0.20676581411566583
1761914938401885400,4.256885498046875,1.7362182284176348,-1.392903972685337,0.03935863531157374
1761914938411939600,4.266939697265625,1.999972625222802,-0.1485614989608526,-0.23897918078247457
1761914938421994800,4.276994873046875,2.2191882075995206,1.0681062013745308,-0.7059957674965261
1761914938432049400,4.28704931640625,2.5758225481539965,2.2340841634362936,-1.2090541565917432
1761914938442103600,4.297103515625,3.0044080261975523,3.526673658457398,-1.6435894829504192
1761914938452158700,4.30715869140625,3.4585675059586762,4.481506531873345,-1.7761816977545617
1761914938462213600,4.317213623046875,3.808015149879455,5.098731252244114,-1.6851397830873727
1761914938472267500,4.327267578125,4.162113834476471,5.4758712052106855,-1.4380834231048822
1761914938482322700,4.33732275390625,4.557957318869233,5.5520934441477054,-1.0496209888741372
1761914938492377600,4.347377685546875,4.8279982485979795,5.391522942963242,-0.6856725259140134
1761914938502431700,4.357431640625,4.893285252022743,5.244344422793388,-0.44904710518345237
1761914938512486700,4.367486572265625,4.829194764906168,5.265878209209442,-0.39645577107220886
1761914938522541600,4.37754150390625,4.907437696015834,5.364100683030486,-0.45707178701125084
1761914938532596500,4.387596435546875,5.192891298931837,5.246300817558169,-0.5074990018911659
1761914938542650600,4.397650634765625,5.3538388167351485,4.893739425531029,-0.47862077099643646
1761914938552705500,4.40770556640625,5.3297419018328185,4.552377472910285,-0.41156200865879655
1761914938562760700,4.4177607421875,5.203500371229648,4.356339937025308,-0.34572540852725503
1761914938572814600,4.427814697265625,4.8943514199495315,4.454226310759783,-0.32815701861083507
1761914938582869500,4.437869384765625,4.587866719442606,4.762222000351548,-0.3600828735731542
1761914938592924700,4.447924560546875,4.4539702901721,5.0802574379205705,-0.5353494241081178
1761914938602978800,4.457978759765625,4.396577839389443,5.2922179346024985,-0.7841996817700564
1761914938613033500,4.468033447265625,4.053471673449874,5.091249956578016,-0.9243784061804413
1761914938623088600,4.478088623046875,3.637445817250013,4.466694162666798,-0.7806004882343113
1761914938633142800,4.488142822265625,3.4751503919690845,3.6655098822176453,-0.6196906720928848
1761914938643197400,4.498197509765625,3.517013265186548,2.564497436541319,-0.35722719188109037
1761914938653252600,4.508252685546875,2.8550656059920785,1.4339356557756662,-0.0843185977615416
1761914938663307800,4.518307861328125,1.348701258343458,0.4646504786372184,0.1922220692500472
1761914938673361700,4.528361572265625,-0.26587913387417794,-0.24011866967380047,0.37659663987010716
1761914938683416600,4.53841650390625,-1.4772890598118305,-0.6056371584296226,0.4151939354203641
1761914938693471700,4.5484716796875,-1.917414753523469,-1.0865367610782384,0.27246019276492295
1761914938703525600,4.558525634765625,-2.1750515442311764,-1.3525082494109868,0.09976371191367506
1761914938713580500,4.56858056640625,-2.521774147102237,-1.469257144525647,0.17314758561961352
1761914938723635700,4.5786357421875,-3.1125568507492543,-3.0597289314031597,1.007186307118088
1761914938733689600,4.588689697265625,-4.201820406442881,-5.748274187895655,2.2037043688721956
1761914938743744500,4.59874462890625,-4.8666456669002764,-7.567486925864219,3.021613428020477
1761914938753799700,4.608799560546875,-4.779233340907097,-8.177924178051947,3.17505188536793
1761914938763854600,4.6188544921875,-4.558191127625108,-8.493001350337266,2.9980779463931917
1761914938773908700,4.62890869140625,-4.401390208107233,-9.083927846369146,2.8788468790739774
1761914938783963600,4.638963623046875,-4.5859635161697865,-9.82298504872918,2.994867459914088
1761914938794018600,4.6490185546875,-4.743315055307746,-10.36783076158762,3.3821792628049847
1761914938804072700,4.65907275390625,-5.112263518512249,-10.076231495523452,3.5356402242451903
1761914938814127600,4.669127685546875,-5.399387684988975,-9.223850696322321,3.5123780066013333
1761914938824182500,4.6791826171875,-5.80013121638298,-8.376610767140985,3.38399712588191
1761914938834236700,4.689236572265625,-6.138362469762563,-7.69344847048223,3.218321410512924
1761914938844291600,4.69929150390625,-5.9825365327566855,-6.980863095462322,2.9432530080109833
1761914938854346500,4.709346435546875,-5.611775467172265,-6.087167120054364,2.7237814050465823
1761914938864400600,4.719400634765625,-4.9794455321282145,-4.790456745710968,2.332267328160256
1761914938874455800,4.729455810546875,-4.254240329509973,-3.329779798004031,1.7757155415475367
1761914938884510500,4.739510498046875,-3.271442175325751,-2.2612977490544317,1.33665440832749
1761914938894565600,4.749565673828125,-2.2042904981970786,-1.3818869041085242,0.8253487806949764
1761914938904619800,4.759619873046875,-1.3264116851240395,0.009412555989623069,-0.2876868418607861
1761914938914674400,4.76967431640625,-0.9488462002217769,1.4733645798444748,-1.4585677004680038
1761914938924729600,4.7797294921875,-0.7798235125124454,2.356794597303867,-1.9853502256304025
1761914938934783700,4.78978369140625,-0.7227320905029774,3.1243349668264386,-2.086565159265697
1761914938944838400,4.79983837890625,-0.36697920895814895,3.929768721413612,-2.0071214740641414
1761914938954893600,4.8098935546875,0.4457710061222315,4.746975331380963,-1.9386898890033364
1761914938964947700,4.81994775390625,1.6861439916938543,5.43188651753366,-1.7766851172320544
1761914938975002600,4.830002685546875,2.8948142635345455,5.565082105058432,-1.4156835213787853
1761914938985057500,4.8400576171875,3.9752141292929646,6.270342836278677,-1.4211850414045155
1761914938995111700,4.850111572265625,4.91626748368144,6.680026045453548,-1.465786545805633
1761914939005166600,4.86016650390625,5.279995581889152,6.860018455466627,-1.5265210004925727
1761914939015221500,4.870221435546875,5.3020057536453,6.790965962028503,-1.3810840632930397
1761914939025276700,4.880276611328125,5.282539421153068,6.521095128169655,-1.0260263974707573
1761914939035330600,4.89033056640625,5.015712777295708,6.347299234709143,-0.7856991265475749
1761914939045385500,4.900385498046875,4.758774490246177,6.1759939890205855,-0.564582094463706
1761914939055440600,4.910440673828125,4.6596693883717055,5.775098481935262,-0.4568156933583319
1761914939065494500,4.92049462890625,4.4762873359203335,5.484286566856503,-0.6312777956426143
1761914939075549700,4.9305498046875,4.354970986759662,5.510836135607957,-0.8817768434248864
1761914939085604600,4.9406044921875,4.412357592323422,5.521409552070498,-1.0273983434110878
1761914939095658500,4.950658447265625,4.570801018351316,5.294741315600276,-1.1558275933168827
1761914939105713700,4.960713623046875,4.325677672258019,5.048595640721917,-1.414839910161495
1761914939115768600,4.9707685546875,3.8980239221066233,4.756664366224408,-1.5970020654290913
1761914939125823500,4.980823486328125,3.606936697217822,4.175051057460903,-1.5651656423158942
1761914939135877600,4.990877685546875,3.829695066767931,3.0584312928080557,-1.2145602066621184
1761914939145932800,5.000932861328125,3.9559190617144107,1.3564444198161363,-0.6961243618234991
1761914939155987500,5.010987548828125,3.507309617295861,-0.23053426424860954,-0.33630057757794857
1761914939166041600,5.02104150390625,2.6169196976959705,-0.5904384202539921,-0.799858000281453
1761914939176096800,5.0310966796875,1.8084201257973909,0.04562427157759666,-1.9444193725660441
1761914939186151400,5.0411513671875,0.9997580568134784,-0.04158230271041393,-2.53852449863404
1761914939196205600,5.05120556640625,-0.213164611774683,-1.2443687772095202,-2.1830168240219354
1761914939206260700,5.0612607421875,-1.6707476851195096,-2.0405916358590126,-1.5191341051116585
1761914939216315400,5.0713154296875,-2.464743515369296,-2.426799861422181,-0.5264481786414981
1761914939226369500,5.08136962890625,-2.512963064137101,-3.115315209546685,0.5844001630030572
1761914939236424700,5.0914248046875,-2.471526307377219,-4.071261597162485,1.4919972379915416
1761914939246479600,5.101479736328125,-2.8660318211644884,-5.216247040078044,2.1713918526798484
1761914939256534500,5.111534423828125,-3.638835225781798,-6.452214484167099,2.5809657562613486
1761914939266588700,5.121588623046875,-4.268723028370737,-7.248945292338728,2.7682684892877933
1761914939276643600,5.1316435546875,-4.656109650063515,-7.529084422233701,2.593438284343481
1761914939286698500,5.141698486328125,-5.054356103944778,-7.671980150517821,2.200600703768432
1761914939296752600,5.151752685546875,-5.366470334771275,-7.845815791466832,1.6004314553558825
1761914939306807600,5.1618076171875,-5.461784812191128,-7.9051868488460775,0.8792828346520661
1761914939316862500,5.171862548828125,-5.350875875276327,-7.36130851971507,0.23863003855124115
1761914939326916600,5.18191650390625,-5.612561649113893,-6.5646840945273635,-0.10968860133960842
1761914939336971500,5.191971435546875,-5.716226606249809,-5.859117073836923,-0.25275968619063494
1761914939347026700,5.202026611328125,-5.253000022935867,-5.187449984660744,-0.2968563098095357
1761914939357081000,5.2120810546875,-4.105248622438311,-4.403588010412454,-0.04601034828573465
1761914939367135000,5.222135009765625,-2.424579262763262,-3.257788913026452,0.3365780793450773
1761914939377190100,5.232190185546875,-0.80903967012465,-1.7988608548134564,0.6419049150537699
1761914939387245000,5.2422451171875,0.24067981068789956,-0.46356619053184983,0.6896984934944659
1761914939397299000,5.252298828125,0.9290484438180923,0.7949491854518651,0.4875537998408079
1761914939407354000,5.26235400390625,1.3410352537602186,1.8993904365330934,0.2047396785829216
1761914939417409300,5.2724091796875,1.55692549110651,2.6249317392379043,-0.10776888532340526
1761914939427463200,5.282463134765625,1.713412522369623,3.206459707805514,-0.49027175356261427
1761914939437518000,5.29251806640625,1.874806614896655,3.990480672007799,-0.7167104190606624
1761914939447573200,5.3025732421875,2.1004811641544103,4.717634670606255,-0.7907290835388004
1761914939457627100,5.312627197265625,2.5149685587406156,5.210990434724092,-0.7483794497177004
1761914939467682000,5.32268212890625,3.231750800928473,5.74740851097703,-0.682822908636555
1761914939477737200,5.3327373046875,3.877162920385599,6.127348908317089,-0.6736659348431975
1761914939487792000,5.342792236328125,4.078820634239912,6.110447457876801,-0.5675948664136231
1761914939497846000,5.352845947265625,3.9226977601140733,6.137994220972061,-0.3601471709810197
1761914939507901200,5.362901123046875,3.89126041932106,6.326167599353194,-0.2986538607507944
1761914939517956400,5.372956298828125,4.094674036931991,6.408733654358983,-0.30793256122767926
1761914939528010200,5.38301025390625,4.272549893182516,6.191345287409424,-0.21867869902104137
1761914939538065200,5.393065185546875,4.195037614434957,5.843315109071135,-0.12508344660922885
1761914939548120300,5.403120361328125,3.996972372114658,5.57757976758182,-0.042909167400002474
1761914939558174200,5.41317431640625,3.9170957023233175,5.286704724138975,-0.01383899412974715
1761914939568229000,5.42322900390625,3.8895881021946668,5.0753497921347615,-0.12860168386325238
1761914939578284000,5.433283935546875,3.7608378036409613,5.053984348022937,-0.2271045820608735
1761914939588339200,5.443339111328125,3.6200650588601824,5.058810745266079,-0.22102847701758144
1761914939598393000,5.45339306640625,3.2503239839732645,4.811630466642976,-0.06002469898238778
1761914939608448000,5.463447998046875,2.413207973921299,4.251908671692013,-0.007501753932237625
1761914939618503200,5.473503173828125,1.8246832783341407,3.8636516969054937,-0.15362170495986938
1761914939628557300,5.483557373046875,1.7666472689509392,3.4590964982688424,-0.25741291882395745
1761914939638612000,5.493612060546875,2.0421786127895114,2.3477841923743483,0.025941665986180303
1761914939648667100,5.503667236328125,1.909454734429717,0.5432061289578676,0.36496027035117146
1761914939658721300,5.51372119140625,1.0252209993720054,-0.8656903626292943,0.4296998690262437
1761914939668776000,5.52377587890625,-0.570755230140686,-0.9925666840046644,0.09626783262193202
1761914939678831000,5.5338310546875,-1.7334300590038298,-0.9696347212284803,-0.4829094811663031
1761914939688886300,5.54388623046875,-2.2062264346957203,-1.9357628956407307,-0.7004745198570191
1761914939698940200,5.553940185546875,-2.4958301430284977,-3.125826082167029,-0.8017435217671096
1761914939708995000,5.5639951171875,-2.8597452882409096,-3.4087411065161226,-0.7279045247048139
1761914939719050200,5.57405029296875,-4.526549204170704,-4.055388320726156,-0.2889430524669587
1761914939729104100,5.584104248046875,-5.675544467249512,-4.873454762393236,0.7164926115915179
1761914939739159000,5.594158935546875,-6.219249777901172,-5.233589220023155,1.7545343679614365
1761914939749214200,5.604214111328125,-6.233690391185879,-5.830152260637283,2.776430460694432
1761914939759268000,5.61426806640625,-6.05397621359229,-6.968731928163766,3.659442545002699
1761914939769323000,5.624322998046875,-5.975345159947872,-8.025993494918941,4.036984941290319
1761914939779378200,5.634378173828125,-5.937746958437562,-8.887730736008287,4.2402223255515095
1761914939789432000,5.64443212890625,-5.661974791580438,-9.094400725066661,4.165516920918226
1761914939799487200,5.6544873046875,-5.151093307644128,-8.45228004837036,3.7320571148365733
1761914939809542100,5.664542236328125,-4.66678594237864,-7.596852721080183,3.232330062121153
1761914939819597300,5.674597412109375,-4.562422481584549,-6.9865276970952745,2.654869781383872
1761914939829651200,5.684651123046875,-4.1270542115330695,-6.152030345109105,2.02363860136196
1761914939839706000,5.6947060546875,-3.292580240422487,-5.395273235407472,1.4894420005507767
1761914939849761300,5.70476123046875,-2.0101824690699575,-4.474761149266362,1.172712677144259
1761914939859815200,5.714815185546875,-0.6070785894095897,-3.1710762597352264,0.9600517771080136
1761914939869870000,5.7248701171875,0.9297463629543781,-2.5619781471967698,0.9307659152604639
1761914939879925200,5.73492529296875,1.6413959184288978,-2.317061137330532,0.6003745617263019
1761914939889979100,5.744979248046875,1.721223488381505,-1.1012427473008632,-0.3846438988558948
1761914939900034300,5.755034423828125,2.00620538213253,0.46023207767307756,-1.5926127444289624
1761914939910089200,5.765089111328125,2.123568609753251,1.8463158489495515,-2.503850660137832
1761914939920144100,5.77514404296875,1.6846528763532638,2.8232190998762845,-2.751768897646665
1761914939930198300,5.7851982421875,1.0988900466948748,3.267894711977243,-2.4225351897150276
1761914939940253200,5.795253173828125,0.9286328487545251,3.7111966976374386,-1.993778008366376
1761914939950308000,5.80530810546875,1.2606792760193348,4.082720564287901,-1.5547178980596363
1761914939960362200,5.8153623046875,1.8626105656683445,4.2726475083380935,-1.1461303751669822
1761914939970417000,5.8254169921875,2.595917241677642,3.852218448743224,-0.6922359760828316
1761914939980472000,5.83547216796875,3.1298668819904325,3.327219007605314,-0.3147470635481179
1761914939990526200,5.845526123046875,3.625769407981634,3.3550609542548653,-0.14911460279896854
1761914940000581000,5.8555810546875,4.041586589866877,3.688490944832563,-0.22043621021285653
1761914940010636000,5.865635986328125,4.436977654317021,3.847123755952716,-0.3857262872651219
1761914940020691200,5.875691162109375,4.616778341150283,3.78654040017426,-0.6108502169027924
1761914940030745000,5.8857451171875,4.6995746977806085,3.7732454497933388,-0.9925717985711991
1761914940040800000,5.895800048828125,4.7983963065385815,4.331273884829878,-1.1125443319074808
1761914940050855200,5.905855224609375,4.70667897682786,4.591224213176965,-0.8528354111008346
1761914940060909000,5.915908935546875,4.769629061737656,4.589240345883369,-0.8346662788122892
1761914940070964200,5.925964111328125,4.868208093911409,4.588097605589032,-0.9968626276329159
1761914940081019100,5.93601904296875,5.210335770207643,4.428037392014264,-1.053586385373771
1761914940091073000,5.946072998046875,5.2080736704945565,4.204485826259851,-1.1171867508858442
1761914940101128200,5.956128173828125,4.571404829463362,4.002252942866087,-1.2674851566419005
1761914940111183000,5.96618310546875,3.816969440707564,3.612794191074371,-1.220011311674863
1761914940121238300,5.97623828125,3.288184635812044,2.9519664758205413,-0.8171781145252287
1761914940131292200,5.986292236328125,2.6425644265621897,1.955064977481961,-0.2937925383247435
1761914940141347000,5.99634716796875,1.3630442564725875,1.0079840333670378,0.15511603517085312
1761914940151402200,6.00640234375,0.3337830417990684,0.6019318741708993,0.30041882459670305
1761914940161456000,6.0164560546875,-0.41414311119318004,0.2957464488714933,0.2659882933370769
1761914940171511300,6.02651123046875,-1.2373749727994203,-0.15813772107958793,-0.1389142574325204
1761914940181566200,6.036566162109375,-2.2235896574288607,-0.2460118193656206,-0.9018312049381434
1761914940191620000,6.0466201171875,-2.439761634325981,-0.9151876762479543,-1.3062189380533993
1761914940201675300,6.05667529296875,-2.3640140271633863,-2.449990767395496,-1.1590791424587368
1761914940211730200,6.066730224609375,-3.3952596936523913,-3.4334751502782104,-0.8620730489149689
1761914940221785000,6.07678515625,-4.41129843865931,-3.8725773461610076,-0.3024028380207717
1761914940231839200,6.086839111328125,-4.513411490178108,-4.21077352822721,0.3716154904566705
1761914940241894100,6.09689404296875,-4.748702009043098,-4.5782326296567915,0.9529019053533673
1761914940251949000,6.106948974609375,-5.710688845866918,-5.056051801946759,1.3969262139387428
1761914940262003200,6.117003173828125,-6.541589634665846,-6.070271514832974,1.7619950592309235
1761914940272058400,6.127058349609375,-6.737140848338604,-7.040814583078026,1.684829694224894
1761914940282113000,6.137113037109375,-6.184488261121511,-7.3754165400445455,1.2047688804879784
1761914940292167200,6.147167236328125,-5.372868511375785,-7.436043150442838,0.7284606972828507
1761914940302222300,6.157222412109375,-4.987934543532133,-7.623003061380982,0.45650874630101024
1761914940312277000,6.167277099609375,-4.808913608899712,-7.473925429591536,0.17978344343751668
1761914940322331100,6.1773310546875,-4.492427154338359,-6.7378405210405585,-0.11763517642989754
1761914940332386300,6.18738623046875,-3.817943838697672,-5.771958430343866,-0.24249639512319116
1761914940342441000,6.19744091796875,-3.0553374184459448,-5.0790796263128515,0.004459500159509479
1761914940352496000,6.20749609375,-2.2257862906903028,-4.4660131946653125,0.4490638005899265
1761914940362554600,6.2175546875,-1.106938913115859,-3.5625142026454206,0.7948918292414396
1761914940372609500,6.227609619140625,0.041001872473955155,-2.3369945028126238,0.8520102123230695
1761914940382664700,6.237664794921875,1.0248749624133109,-1.2215367676764726,0.6024098669461906
1761914940392718600,6.247718505859375,1.7813637765675783,-0.4827086978971958,0.10273386856457217
1761914940402773500,6.2577734375,2.276256248733401,0.4666700017660856,-0.5056242940604686
1761914940412828700,6.26782861328125,2.6091812123984095,1.6787316696107386,-1.023937827693671
1761914940422882600,6.277882568359375,2.6912527618855235,2.765087813425064,-1.341506086142361
1761914940432937700,6.287937744140625,2.7500194236308335,3.563118598279357,-1.4520093648657202
1761914940442992600,6.29799267578125,2.810617976978421,4.113597348588705,-1.4097723976388572
1761914940453047600,6.308047607421875,2.8517683180123568,4.543780324956774,-1.2757988114789127
1761914940463101700,6.318101806640625,2.9524586432516573,5.091659121900797,-1.1075313260510564
1761914940473156600,6.328156494140625,3.205713857874274,5.400501783710718,-0.904157602059096
1761914940483211500,6.33821142578125,3.579084229174256,5.354419246971607,-0.6223813724815845
1761914940493265700,6.348265625,4.006177422833442,5.251448117318749,-0.3562258693514392
1761914940503320600,6.358320556640625,4.351533998048305,5.338137389734387,-0.17573062438275663
1761914940513375500,6.36837548828125,4.569997885274887,5.5960787163466215,-0.06264299172200262
1761914940523429600,6.3784296875,4.794591069036722,5.734518634265661,0.07254059128221124
1761914940533484800,6.38848486328125,5.0114989589929575,5.693123963081836,0.19297153591047972
1761914940543539500,6.39853955078125,5.176642174920439,5.540674809032678,0.18134075588211415
1761914940553594600,6.4085947265625,5.139046896019578,5.408450112366676,0.02324183244295418
1761914940563648800,6.418648681640625,4.98195371555686,5.388869798105955,-0.14585545487254858
1761914940573703400,6.428703369140625,4.397263483566046,5.479738402032852,-0.28828824182003737
1761914940583758600,6.438758544921875,3.9065602797836063,5.44163926526308,-0.41355106358416377
1761914940593812700,6.448812744140625,3.787676126205921,5.256683095362782,-0.3580863659936934
1761914940603867600,6.45886767578125,3.6706829009413715,4.976151751279831,-0.18722740276791155
1761914940613922600,6.468922607421875,3.433653429454565,4.3823084910184145,-0.11326667902208865
1761914940623977700,6.478977783203125,2.990999678570032,3.1072347789436576,0.06121902333348989
1761914940634031600,6.489031494140625,2.294843460303545,1.341713299152255,0.4676774252429604
1761914940644086500,6.49908642578125,0.7435971838772296,0.09428571889400482,0.5998344635002315
1761914940654141700,6.5091416015625,-1.066477723389864,-0.30132571030855176,0.47431174869090315
1761914940664195600,6.519195556640625,-2.255859357392788,-0.6551315494388341,0.2642957371402532
1761914940674250500,6.52925048828125,-2.6717414212077855,-1.5354764603644608,0.009789353412762283
1761914940684305700,6.5393056640625,-2.917799417802691,-2.2033874118775127,-0.39096513776667413
1761914940694359600,6.549359619140625,-2.7547809389442204,-2.534571084833145,-0.5631272194802761
1761914940704414700,6.559414794921875,-2.293065344715118,-3.108008685925603,-0.1011951329562813
1761914940714469600,6.5694697265625,-2.6832430584311484,-3.939517377489805,0.7521002238065004
1761914940724523500,6.5795234375,-3.208096953618526,-4.923642396363616,1.6192732262089848
1761914940734578700,6.58957861328125,-3.441889342880249,-5.475402418655157,1.945147394579649
1761914940744633600,6.599633544921875,-3.3964620551794766,-5.8211108760476105,1.801543518026173
1761914940754688500,6.6096884765625,-3.5197087878808375,-6.217168295451998,1.4753691976651548
1761914940764742700,6.61974267578125,-3.799168118818104,-7.082104040321707,1.3175598317570985
1761914940774797600,6.629797607421875,-4.1179391771852965,-8.101058965036273,1.362801095366478
1761914940784852500,6.6398525390625,-4.398364722806215,-8.81698429813385,1.1929385958321392
1761914940794906600,6.64990673828125,-4.504427973255515,-9.006269437149166,0.586580356586352
1761914940804961800,6.6599619140625,-4.45136829098016,-8.902948763406275,-0.11111310858423822
1761914940815016400,6.670016357421875,-4.502407281082868,-8.619579565548896,-0.5638317144878209
1761914940825070600,6.680070556640625,-4.8618549254924055,-7.98714850821793,-0.846935904733464
1761914940835125800,6.690125732421875,-5.07928771610558,-7.034270276001095,-0.9937355816535651
1761914940845180400,6.700180419921875,-4.57810403484106,-5.854588782757521,-1.0448387960989027
1761914940855235600,6.710235595703125,-3.3711107563018796,-4.484800897243619,-0.9241825182821601
1761914940865289700,6.720289794921875,-2.1773785258740186,-3.1236551678687334,-0.7265252722408622
1761914940875344600,6.7303447265625,-1.1930839956521988,-2.0549223590284584,-0.38404417939707636
1761914940885399600,6.740399658203125,-0.11634791309833525,-1.1834236023813485,-0.026856844602338968
1761914940895453700,6.75045361328125,0.9867734875559806,-0.40859833654761313,0.05873543092340696
1761914940905508600,6.760508544921875,1.7786206153392792,0.3135363725841045,-0.15397322181127965
1761914940915563500,6.7705634765625,2.2220061876296997,1.2797685918927193,-0.5176515260605141
1761914940925617700,6.78061767578125,2.402400164180994,2.391178512942791,-0.8462238840065897
1761914940935672600,6.790672607421875,2.658051334029436,3.1775621146231887,-0.9330156669486314
1761914940945727500,6.8007275390625,2.8802210900366303,3.8223663313150404,-0.936831645040214
1761914940955782700,6.81078271484375,3.243192816919088,4.4187130988299845,-0.8883725884281098
1761914940965836500,6.82083642578125,3.4862902101427315,4.863725980061292,-0.7320271575927734
1761914940975891700,6.8308916015625,3.5645325567305086,5.230852488535643,-0.47196840043514965
1761914940985946600,6.840946533203125,3.723060738432407,5.560377288368344,-0.20388269642740486
1761914940996000500,6.85100048828125,3.890020063871145,5.913323880320787,-0.021247114961780608
1761914941006055700,6.8610556640625,4.108432513171434,6.041184536558389,0.13274714963752776
1761914941016110600,6.871110595703125,4.4677387032836675,5.907146652990579,0.2809401440795511
1761914941026164500,6.88116455078125,4.774454289937019,5.738873322343826,0.3626008112108335
1761914941036219600,6.8912197265625,5.036498960214853,5.539995594596863,0.40004868099763985
1761914941046274600,6.901274658203125,5.297545267105102,5.2938557649374,0.45701377321369946
1761914941056328400,6.911328369140625,5.3221472089201205,4.796333528789877,0.5626631090998649
1761914941066383600,6.921383544921875,4.96142004609406,4.314195324257016,0.6471708727579564
1761914941076438800,6.931438720703125,4.665953583207727,4.168075373229384,0.5402393881067633
1761914941086493400,6.941493408203125,4.444761732321977,4.376772484201193,0.3315515564199537
1761914941096547600,6.951547607421875,4.312710054135322,4.535158042562007,0.15321845792122185
1761914941106602800,6.961602783203125,4.159704435247183,4.531563232940435,0.020865531765669583
1761914941116657400,6.971657470703125,3.743354169398546,4.348409144026041,-0.21177359580770133
1761914941126711600,6.981711669921875,3.4850387487769123,3.9605578274309634,-0.29423239104673266
1761914941136766700,6.9917666015625,3.5753275069892405,2.935336828058958,-0.04052373356819153
1761914941146821400,7.0018212890625,3.368428385350108,1.3831243369489907,0.400045612257719
1761914941156876500,7.01187646484375,2.9266093317240474,-0.25758301469385625,0.8320274547412991
1761914941166930700,7.0219306640625,2.263096907430887,-0.7845897040009499,0.6476524457298218
1761914941176985600,7.031985595703125,1.5299176571935413,0.00863221926689148,-0.3706836164340377
1761914941187040500,7.04204052734375,1.1956500467479227,0.44380759709477424,-1.394019240450859
1761914941197094700,7.0520947265625,0.7365688926756382,-0.8869587761074305,-1.5010494362361728
1761914941207149600,7.062149658203125,-1.141510460281372,-2.905442040532827,-1.1082377207547425
1761914941217204500,7.07220458984375,-3.076377283865213,-3.6539042000979185,-0.796676447635889
1761914941227258600,7.082258544921875,-4.029052102464437,-3.543013383361697,-0.3870006911151111
1761914941237313500,7.0923134765625,-4.5250078199476,-3.694862233430147,0.05474471275284886
1761914941247368400,7.102368408203125,-4.473898394957184,-4.77973135355711,0.7634101378500461
1761914941257423600,7.112423583984375,-4.544765828862786,-6.617827655693889,1.688290648333728
1761914941267477500,7.1224775390625,-5.012644037374854,-7.569467870548367,2.1647727268010377
1761914941277532700,7.13253271484375,-4.759387069186568,-7.567948113635182,1.9131151566334068
1761914941287587600,7.142587646484375,-4.310051064059138,-7.555871891394257,1.3444088218465446
1761914941297641500,7.152641357421875,-4.326836194643378,-8.245240056955813,0.9822471692379563
1761914941307696600,7.162696533203125,-4.980527482146025,-9.076365886682272,0.9190028506219386
1761914941317751600,7.17275146484375,-5.9777317628234625,-8.882512124577165,0.7599781175747513
1761914941327805400,7.182805419921875,-6.756992965278029,-8.041949773463607,0.43560003298074007
1761914941337860600,7.192860595703125,-7.246402622118592,-7.115341708534956,-0.055602863952144976
1761914941347915800,7.202915771484375,-7.4406795780718324,-6.3097355199903244,-0.42581192167699333
1761914941357965300,7.21296533203125,-7.008285355395079,-5.701480288016795,-0.5513314946811646
1761914941368020200,7.223020263671875,-5.826831591781973,-4.937743986952305,-0.46117096595838664
1761914941378075100,7.2330751953125,-4.256791183036565,-3.9648967334181067,-0.08600793908797204
1761914941388130300,7.24313037109375,-2.2475544703841206,-2.7259757002204656,0.3751014328762889
1761914941398184200,7.25318408203125,-0.5501239455223084,-1.0742232229501008,0.2677045957356691
1761914941408239000,7.263239013671875,0.14870821395516395,0.37011399985253807,-0.3315488530062139
1761914941418294300,7.273294189453125,0.03028933980166912,1.0198533348590135,-0.9785289524324238
1761914941428348400,7.283348388671875,-0.07804828532040119,1.3184329613298178,-1.4148261738970875
1761914941438403000,7.293403076171875,0.5498375297963619,1.871431000983715,-1.850233314654231
1761914941448458200,7.303458251953125,1.5252075798064468,2.6988030311346054,-2.1866122181653975
1761914941458512400,7.313512451171875,2.287649749407172,3.4899370422124862,-2.2796638652198014
1761914941468567000,7.323567138671875,2.750903805249929,4.018963839170336,-2.189850469434261
1761914941478622200,7.333622314453125,3.230167331129312,4.171199642729759,-1.872240271539986
1761914941488677400,7.343677490234375,3.4685125613898036,4.125704550489783,-1.277969433516264
1761914941498731300,7.353731201171875,3.5756086620181797,4.148543574285507,-0.5530901018515229
1761914941508786200,7.3637861328125,4.078409130829573,4.4498318751931185,-0.016756635142117737
1761914941518841300,7.37384130859375,4.569587550908327,5.008035082274675,0.16532091058194637
1761914941528895200,7.383895263671875,4.790540332341194,5.399904402339458,0.075773326125741
1761914941538950100,7.3939501953125,4.956217216753959,5.575675979787111,-0.08989318302348255
1761914941549005300,7.40400537109375,5.019219324111938,5.404146277692914,-0.23933804069012402
1761914941559060200,7.414060302734375,4.969995566737651,5.06343665150106,-0.33693843709006904
1761914941569114000,7.424114013671875,4.980003750532865,4.987150699678063,-0.4361268333338201
1761914941579169300,7.434169189453125,5.0418917591691015,5.008350139573216,-0.46178909785673017
1761914941589224400,7.444224365234375,5.02634055429399,5.086668474006652,-0.49626682925894855
1761914941599278300,7.4542783203125,4.928666362005472,5.327606058847904,-0.5974585281491279
1761914941609333200,7.464333251953125,4.7623546868205064,5.5530432922184465,-0.7016818498201668
1761914941619388400,7.474388427734375,4.385564862465858,5.626862561666965,-0.8173691070526837
1761914941629442300,7.4844423828125,3.968966174814105,5.509688134616613,-0.7714462909199297
1761914941639497200,7.494497314453125,3.7680513882815836,4.9462499494910235,-0.4589531437784433
1761914941649552100,7.50455224609375,3.799754102012515,3.696753161743283,0.17782456445470451
1761914941659606300,7.514606201171875,3.6188580211579797,2.1041379330962897,0.8749341379232705
1761914941669661200,7.5246611328125,3.1564836707592008,0.9502490527570248,1.1384906740687788
1761914941679716000,7.534716064453125,2.59845640476644,0.22897417532503603,0.81200494967103
1761914941689771300,7.544771240234375,1.6688918281197547,-0.7290291448205709,0.36775033946111796
1761914941699825400,7.554825439453125,-0.06905366248190403,-1.7232921113491058,-0.002761281406879425
1761914941709880000,7.564880126953125,-2.04691791627109,-2.351114798101783,-0.34986557707190513
1761914941719935200,7.574935302734375,-3.1707939356625077,-2.763273457479477,-0.38886137042045593
1761914941729989400,7.5849892578125,-3.5844583234280347,-2.991028904664516,-0.32255335338488217
1761914941740044000,7.5950439453125,-3.8635178413927553,-3.3384827444195744,-0.3882267257787287
1761914941750099200,7.60509912109375,-3.739726626551151,-4.229525574970245,-0.0826592862471938
1761914941760153300,7.6151533203125,-3.3566730656266213,-5.682656345081329,0.6135161481764168
1761914941770208000,7.6252080078125,-3.4654408988595007,-6.863699774327873,1.0233038406390695
1761914941780263200,7.63526318359375,-3.8347722239017483,-7.123446689057349,0.9190463244374841
1761914941790318300,7.645318359375,-4.267918726250529,-7.470237680989503,0.9980678387042135
1761914941800372200,7.655372314453125,-4.7404783705770965,-8.290990585261582,1.2075944593027232
1761914941810427100,7.66542724609375,-5.481114366561174,-8.80266117374897,1.1316505258504301
1761914941820482300,7.675482421875,-6.004693419507146,-8.982795622581243,0.8678445449884981
1761914941830536200,7.6855361328125,-6.565848462131619,-9.023169134023785,0.4765870001465082
1761914941840591000,7.695591064453125,-7.2730024597525595,-8.800808823880553,0.09987199459373951
1761914941850646300,7.705646240234375,-7.36733318683207,-7.875219580605625,-0.30890191771648823
1761914941860700200,7.7157001953125,-6.623491088283061,-6.417161290964484,-0.7641523345194756
1761914941870755000,7.725755126953125,-5.6963838416606185,-5.345513471460342,-1.0468952902372926
1761914941880810200,7.735810302734375,-4.955686470878124,-4.725299506145715,-1.0238506608668714
1761914941890865400,7.745865478515625,-3.8954239687412975,-3.642442894884944,-0.7822950902577489
1761914941900919300,7.755919189453125,-2.0561884334415197,-1.8057225572764872,-0.380035966669023
1761914941910974200,7.76597412109375,-0.012739654585719108,-0.13703472729623317,0.1269889149043709
1761914941921029400,7.776029296875,1.1894558682829142,0.9195441178917885,0.4361258834857493
1761914941931083300,7.786083251953125,1.6822797174811361,1.57413966075778,0.24870222749337553
1761914941941138200,7.79613818359375,1.6361562642097471,2.310882740956545,-0.29668109937310216
1761914941951193300,7.806193359375,1.7664648981213569,3.123894237321615,-0.8498897130377591
1761914941961247200,7.816247314453125,2.129822993972897,3.920322847676277,-1.3426103941224514
1761914941971302100,7.82630224609375,2.60597277174592,4.872305007836222,-1.6138965016067026
1761914941981357300,7.836357421875,3.288929316699505,5.963336742246151,-1.6511854910373687
1761914941991412200,7.846412109375,3.9774803206592795,6.80283350995481,-1.5592735155373811
1761914942001466400,7.85646630859375,3.765655433055758,6.829217659011483,-1.228550153569877
1761914942011521300,7.866521240234375,3.0252965004473924,6.493519723501801,-0.538381996737048
1761914942021576200,7.876576171875,2.5391601661890744,6.385866573512554,0.17968670506477355
1761914942031630300,7.88663037109375,2.896898668593168,6.529262068012357,0.4587889661926776
1761914942041685200,7.896685302734375,3.291391907420754,6.9116177098006,0.4543884662114083
1761914942051740200,7.906740234375,3.5981361356467008,6.9108455563843245,0.41696430609375235
1761914942061794300,7.916794189453125,3.969094769629836,6.612881431463361,0.31940175748616456
1761914942071849200,7.92684912109375,4.470649037772417,6.3636179168254134,0.1855859922364354
1761914942081904000,7.936904052734375,4.786290858203173,6.091699502786994,0.13006364617459476
1761914942091959300,7.946959228515625,4.971929165148735,5.75818592557907,0.18016316347010433
1761914942102013200,7.95701318359375,5.0827662058711045,5.657789030328392,0.2305813913259655
1761914942112068000,7.967068115234375,5.082554608947039,5.697264716148376,0.22442279563099143
1761914942122123300,7.977123291015625,5.066389071565866,5.679254427683353,0.060803866661339995
1761914942132177200,7.98717724609375,4.775096679493784,5.5481789010524745,-0.23872253914028405
1761914942142232000,7.997232177734375,4.116597699448466,5.126383229279518,-0.33880408483147617
1761914942152287200,8.007287353515625,3.569536064106226,4.163356528013944,0.0630296529520303
1761914942162341000,8.017341064453126,3.243323749822378,2.7095377756386996,0.7160208293613046
1761914942172396300,8.027396240234374,2.9953403381228445,1.185923602503538,1.2597241672515869
1761914942182451200,8.037451171875,2.644566998556256,-0.0449339512258768,1.1801889313090592
1761914942192506400,8.04750634765625,2.295328613471985,-0.4847656304270029,0.4597195250410586
1761914942202560300,8.057560302734375,1.792390197494626,-0.4432207371175289,-0.5090927738886326
1761914942212615200,8.067615234375,0.6652630673527717,-0.5445119508594274,-1.2437974070623516
1761914942222670300,8.07767041015625,-0.5672925224661827,-0.8074398337125778,-1.469896173081547
1761914942232724200,8.08772412109375,-1.8525246404618023,-1.3803104485720394,-1.1390981384426355
1761914942242779100,8.097779052734374,-3.0711171713799237,-2.4461206479638813,-0.354960489058122
1761914942252834300,8.107834228515625,-3.7752006755143404,-3.5743466792583463,0.5228800378311426
1761914942262888200,8.11788818359375,-3.7478181630700824,-4.848180035883188,1.3317115450978279
1761914942272943400,8.127943359375,-3.391874727389216,-6.3196665468961,1.9326183140046893
1761914942282998300,8.137998291015625,-3.560508708041906,-7.468271933874488,2.1460987137302756
1761914942293053200,8.14805322265625,-4.191954261466861,-7.894053460413217,1.9450451032489537
1761914942303107300,8.158107421875,-4.727773202782869,-8.22172941750884,1.6468116598673164
1761914942313162200,8.168162353515624,-5.415144057047367,-8.791439522510766,1.4743657197110354
1761914942323217200,8.178217041015625,-6.529393000915646,-9.178398858702183,1.4320736612960696
1761914942333271300,8.188271240234375,-7.543180167603492,-9.283447379150987,1.2851052767455577
1761914942343326200,8.198326171875,-8.064890504068135,-8.869562042111157,0.8330866084054112
1761914942353381000,8.208381103515626,-8.022653536841274,-8.028680542045832,0.3447448730573058
1761914942363434500,8.2184345703125,-7.606715358924865,-6.952290496450662,0.041393356009572745
1761914942373489400,8.228489501953124,-6.814929021418094,-6.086828097358346,-0.3673481884010136
1761914942383544300,8.23854443359375,-5.920038283267617,-4.955913265371322,-0.4429116711683571
1761914942393599500,8.248599609375,-5.003059631949663,-4.008296899205446,-0.1801994768925011
1761914942403653400,8.2586533203125,-3.74235814409852,-3.183910606867075,0.20720950276255606
1761914942413708500,8.26870849609375,-2.055866361880302,-1.9229080902427433,0.5373018733501435
1761914942423763500,8.278763427734376,-0.0672901599407196,-0.5535252783983946,0.7665190636508167
1761914942433817300,8.2888173828125,1.6357342394053935,0.7479325827330351,0.8556142281644046
1761914942443872500,8.29887255859375,2.52850082500875,2.034128577324748,0.795398975045979
1761914942453927400,8.308927490234375,2.5435125161796805,3.3658781163454052,0.4952539989545941
1761914942463981300,8.318981201171875,2.439103462678194,4.654893260011077,0.13306480075195432
1761914942474036500,8.329036376953125,2.7423972581893206,5.5417696185320615,-0.03597483809217811
1761914942484091600,8.339091552734375,3.3173037627905604,5.994668284577131,-0.1432040635809302
1761914942494146600,8.349146484375,4.024382357087731,6.252559342306852,-0.28236645055562254
1761914942504200400,8.359200439453126,4.501439312833547,6.376679642972349,-0.5191724885500967
1761914942514255600,8.369255615234374,4.813334347951412,6.322753406995535,-0.7953580585137009
1761914942524310500,8.379310546875,5.2585407059282065,6.235085644936561,-1.0382102448046207
1761914942534364400,8.389364501953125,5.521639853695035,6.341330097171664,-1.0516102629952133
1761914942544419600,8.399419677734375,5.434371320086718,6.458744178196787,-1.0021968282677232
1761914942554474500,8.409474609375,5.096322437536716,6.446890658795833,-0.8995990619719028
1761914942564528400,8.4195283203125,4.840599956017733,6.301227219364047,-0.8270828379459678
1761914942574583600,8.42958349609375,4.543204570895433,5.928709080979227,-0.8718341260813176
1761914942584638500,8.439638427734375,4.217442922988534,5.472535338786244,-0.8490522393003106
1761914942594693400,8.449693359375,4.013572793781757,5.071061739552021,-0.7434379016622901
1761914942604747500,8.45974755859375,3.8688404977202415,4.803618425101042,-0.7849620444446802
1761914942614802400,8.469802490234375,3.674931206035614,4.630837846162915,-0.8981231442004441
1761914942624857300,8.479857421875,3.460414010608196,4.468913592281937,-0.9814182441331446
1761914942634911500,8.489911376953126,3.017676088571548,4.311888800880313,-1.2138685711361468
1761914942644966400,8.49996630859375,2.3798458025455473,3.835045195624232,-1.2454765923209488
1761914942655021300,8.510021240234375,2.2791116381645202,2.8302912302196024,-0.8303034074276685
1761914942665075500,8.520075439453125,2.5704268265902996,1.477582489800453,-0.35530294582024213
1761914942675130400,8.53013037109375,2.484633041709661,0.5226286203533411,-0.0869488001346588
1761914942685185500,8.540185546875,1.7954343874961136,0.25674656386971473,-0.10161752308681607
1761914942695240400,8.550240478515626,0.892276756259799,-0.1863596069574356,-0.19531024452373386
1761914942705294300,8.56029443359375,-0.2207277405053377,-1.475046249321103,0.010282470691949128
1761914942715349500,8.570349609375,-1.3604688530266285,-3.2953771776646374,0.20115707085579632
1761914942725404400,8.580404296875,-3.098798959031701,-4.010236927357316,0.06742270027920604
1761914942735458300,8.590458251953125,-4.339430303278565,-3.8750475356668233,0.04582213223725557
1761914942745515500,8.600515625,-4.562883084833622,-4.084533166667819,0.18284231955148278
1761914942755569400,8.6105693359375,-4.542348830848932,-4.863236735239624,0.4743398788068443
1761914942765624600,8.62062451171875,-4.424548965376616,-5.797196916496754,0.9216125216636806
1761914942775679500,8.630679443359375,-4.679831886434555,-6.470970622563362,1.4174785881020129
1761914942785734400,8.640734375,-5.129509252345562,-6.65070408937931,1.6829840663582085
1761914942795788500,8.65078857421875,-4.8995636016398665,-6.51620034186542,1.5013609864033757
1761914942805843700,8.66084375,-4.644468312108517,-7.018439669662714,1.6418818022496997
1761914942815898400,8.6708984375,-4.748448911064863,-7.794861849299073,2.1065756816372274
1761914942825952500,8.680952392578124,-4.821234161290526,-7.900510673728585,2.310990292984247
1761914942836007400,8.69100732421875,-4.622881918722391,-7.603964014390111,2.2651968023195863
1761914942846062300,8.701062255859375,-4.266124828571081,-7.257543024814129,1.9850646866872905
1761914942856116500,8.711116455078125,-3.82223656745553,-6.662274700185656,1.5813229963906108
1761914942866171400,8.72117138671875,-3.0951480353087186,-5.3513557677477595,1.2360080683603882
1761914942876226300,8.731226318359376,-1.431632639530301,-3.384137411135435,0.944715091766417
1761914942886281500,8.741281494140624,2.6456179689139128,-1.103507185101509,0.6933823696389794
1761914942896335400,8.75133544921875,2.170017057195306,0.771495244628191,0.9016334173437207
1761914942906390500,8.761390625,1.409530697837472,0.9798492412507533,1.1105324806284158
1761914942916445400,8.771445556640625,1.6418144361019134,0.00037993922829627987,1.022471481468156
1761914942926499300,8.781499267578125,1.1278080981433392,-0.5659913767397403,0.3278036751285195
1761914942936554500,8.791554443359376,0.15178046100735665,-0.045594460961222646,-0.47986317227296527
1761914942946609400,8.801609375,-0.3035200054824352,1.1664894187152386,-1.1039224879041314
1761914942956663300,8.811663330078124,-0.10116320344805717,2.3292069176763293,-1.4786542106851934
1761914942966718500,8.821718505859375,-0.2082534588575363,3.189145584911108,-1.7230574258103966
1761914942976773400,8.8317734375,0.08592413326203822,3.990545553937554,-1.9490994932062922
1761914942986828500,8.84182861328125,1.3298404905289412,4.680134084251523,-1.85535460319072
1761914942996882400,8.85188232421875,2.784399247616529,5.262794856241345,-1.61694127613008
1761914943006937600,8.8619375,3.474839426323771,5.687287512013316,-1.323568862913549
1761914943016992500,8.871992431640624,3.410929556471109,5.5992100001096725,-0.9424257387202233
1761914943027046400,8.88204638671875,3.222964852404594,5.140320569217205,-0.5811348775967955
1761914943037101600,8.8921015625,3.0348855820477008,4.75835831066072,-0.30310353363603354
1761914943047156500,8.902156494140625,2.9276328295528886,4.4244893441438675,-0.13057678332850337
1761914943057210400,8.91221044921875,2.952425910025835,3.9749177766948938,-0.16054076363332567
1761914943067265500,8.922265625,2.921013703674078,3.4832933664143084,-0.32038696913123127
1761914943077320400,8.932320556640626,2.9677111574411392,3.1419670696288344,-0.33260384195186193
1761914943087375400,8.942375244140624,3.0173475872695446,3.0963398754417892,-0.19907105836197733
1761914943097429500,8.952429443359375,2.9359751259624955,3.2625638723433017,-0.09560103927627206
1761914943107484700,8.962484619140625,2.972921585565805,3.4792145726680754,-0.18706395583450794
1761914943117539300,8.972539306640625,2.958623011100292,3.3723324070513248,-0.4956497202739119
1761914943127593500,8.982593505859375,2.611692318436503,2.926602901983261,-0.8360726384788751
1761914943137648600,8.992648681640626,2.0664438699960708,2.1504367429345845,-0.9871433437816798
1761914943147703300,9.002703369140624,1.4999720162630081,0.9007891485393047,-0.838819891360402
1761914943157757400,9.01275732421875,1.1426146221309899,-0.4798574001193046,-0.7351562493987381
1761914943167812600,9.0228125,0.25814532475173474,-1.2702882313638926,-1.0322679952740668
1761914943177867500,9.032867431640625,-0.9427817856162786,-1.2679735246807335,-1.474911809286475
1761914943187922400,9.04292236328125,-1.6784645431071519,-1.2219395032584666,-1.9931145760215818
1761914943197976600,9.0529765625,-2.219178270727396,-1.3402414730340242,-1.972266287651658
1761914943208031500,9.063031494140626,-2.7391180903881787,-1.6356109052866696,-1.277952482381463
1761914943218086400,9.07308642578125,-3.755629129081964,-2.2247218763291836,-0.19376769125685095
1761914943228140500,9.083140625,-4.56266272008121,-3.140115888804197,0.9238958833605051
1761914943238195500,9.093195556640625,-4.457182822477817,-4.051721030390262,2.1884126917161044
1761914943248250400,9.10325048828125,-4.921398416829109,-5.065435716363788,2.3831973049305377
1761914943258304300,9.11330419921875,-4.4649359208226205,-5.370903933304548,1.7595957430042326
1761914943268359400,9.123359375,-4.480279620426893,-5.427687896800041,1.4544937290273605
1761914943278414600,9.13341455078125,-4.545666577094793,-6.2948758045107125,1.7993248190633953
1761914943288469500,9.143469482421875,-4.800651976510882,-7.110533431470394,2.0290788927197454
1761914943298523400,9.1535234375,-4.6594402557909484,-7.357291685289144,2.03489327808693
1761914943308578600,9.16357861328125,-4.062836298644543,-7.415014390939474,2.005222508575022
1761914943318633500,9.173633544921875,-3.8229403318107127,-7.205064649558067,1.9526018022388218
1761914943328687400,9.183687255859375,-3.9020249744415283,-6.665398385164141,1.6253087069809435
1761914943338742500,9.193742431640626,-3.6298002709329125,-5.784401147809624,1.0503896351590751
1761914943348797400,9.20379736328125,-2.907147090885043,-4.5232308734029525,0.42938028168305753
1761914943358852400,9.213852294921875,-1.8320692969322203,-3.151960640376806,-0.07990509216822683
1761914943368907500,9.223907470703125,-0.5498515583217144,-1.7640484846293925,-0.26337971827387807
1761914943378962400,9.23396240234375,0.4587532372921705,-0.13876082043647767,-0.15973163920752703
1761914943389017600,9.244017578125,1.2004197453677654,1.3145090658843517,0.11959588204361497
1761914943399071500,9.254071533203126,1.586099563142657,1.8953654188007114,0.4126514113306999
1761914943409126400,9.26412646484375,1.6522808850586412,1.9299872348487377,0.4719694964136928
1761914943419181600,9.274181640625,1.578983009135723,2.182818086579442,0.008696516674757003
1761914943429235500,9.2842353515625,1.7453145580649374,2.813730556041002,-0.5530735891081392
1761914943439290600,9.29429052734375,2.3832716853410005,3.7275066119253633,-0.9948998031273484
1761914943449345500,9.304345458984375,3.119767512780428,4.61751250064373,-1.2888584917992352
1761914943459399400,9.3143994140625,3.8533570973843334,5.247811806643009,-1.3783733430296181
1761914943469454600,9.32445458984375,4.476582519474626,5.690307736617326,-1.3076808272995053
1761914943479509500,9.334509521484375,4.789527355906367,6.0153387321621175,-1.1138427011549472
1761914943489564400,9.344564453125,4.654915471842885,6.227942787444591,-0.7840457333173603
1761914943499618600,9.35461865234375,4.480253901463747,6.228157306978106,-0.3225152133315801
1761914943509673500,9.364673583984375,4.417605429849028,6.154045776584744,0.14842559762150048
1761914943519728400,9.374728271484376,4.490945975869894,6.172075938794016,0.45350934528931974
1761914943529782500,9.384782470703126,4.632877243036032,6.068980890500545,0.5575439029226079
1761914943539837400,9.39483740234375,4.779041617727279,5.901697155413031,0.4863241119153797
1761914943549892400,9.404892333984375,4.560974036341905,5.7470507835805416,0.47137715654373163
1761914943559946500,9.414946533203125,4.384679311802983,5.380676554778218,0.7131123945686966
1761914943570001400,9.42500146484375,4.185740793779492,4.970608730199933,0.9625974430028349
1761914943580056300,9.435056396484375,3.786739722138643,4.789077274051309,1.0157477261710912
1761914943590111500,9.445111572265626,3.3396243156701324,4.744398758891225,0.9012789048176258
1761914943600165400,9.455165283203126,3.0803420958429575,4.669679325732589,0.5034685773313046
1761914943610220500,9.465220458984374,2.934376458594203,4.5765655732274055,-0.0176177820160985
1761914943620275500,9.475275390625,2.881578349864483,3.9950656617105005,-0.07949468473643063
1761914943630329300,9.485329345703125,2.91086406558156,2.443704818993807,0.15848770356103778
1761914943640384500,9.495384521484375,2.8070956480711695,0.6016536417514086,0.425389677676931
1761914943650439400,9.505439453125,1.8726941527873278,-0.41200259203314776,0.22307591106668112
1761914943660493300,9.515493408203126,0.059256491088867186,-0.5442313803523778,-0.05049582313671708
1761914943670548500,9.525548583984374,-1.8094097213566303,-0.9650561612665652,-0.12746172004789114
1761914943680603400,9.535603271484375,-3.2425334762275217,-2.1297294704705476,-0.46170229635611176
1761914943690658600,9.545658447265625,-4.714122863093018,-3.149129800865054,-0.9591087971694767
1761914943700712400,9.55571240234375,-5.680607595857977,-3.1475264573216437,-1.277929247636348
1761914943710767600,9.565767578125,-5.722903015273809,-3.2911247809171673,-1.061718692294508
1761914943720822500,9.575822509765626,-6.207956814992428,-4.5500645197927945,-0.41760362691059705
1761914943730876400,9.58587646484375,-4.940949504995346,-5.466642189094424,0.2606390412636101
1761914943740931600,9.595931640625,-4.1039211732268335,-5.508250210767984,0.8581327868565917
1761914943750986500,9.605986572265625,-4.272053634098172,-5.57202271797657,1.278510116264224
1761914943761040400,9.616040283203125,-4.131708759340643,-6.411164680898189,1.6697431842520831
1761914943771095600,9.626095458984375,-4.035709806787968,-7.686988334557413,2.309807805201411
1761914943781150500,9.636150390625,-4.497024419000745,-8.710171106100082,3.1109786416471
1761914943791205400,9.646205322265626,-4.48269018869996,-9.164092685452102,3.795599904942512
1761914943801259500,9.656259521484374,-3.546175062263012,-9.301873262679576,4.183695551687479
1761914943811314700,9.666314697265625,-2.673090497729182,-9.39112624810338,4.28792807957828
1761914943821369300,9.676369384765625,-2.0966467005580665,-8.695151816144586,4.050596410274506
1761914943831423500,9.686423583984375,-1.2863105608820915,-6.814235193935036,3.5488682468697426
1761914943841478700,9.696478759765625,-0.3763099318832159,-4.399124016740918,2.8760131169527767
1761914943851533300,9.706533203125,0.49585108806490896,-1.9437860430985687,1.8858787746615706
1761914943861587500,9.71658740234375,1.1675111629784107,-0.18669161539077758,0.7633353190481662
1761914943871642600,9.726642578125,1.3748042523711919,0.32769466179609297,-0.4260632660895586
1761914943881697500,9.736697509765625,1.1748749697446823,0.06978373032212257,-1.6865936351574957
1761914943891752400,9.74675244140625,0.7283236268997192,0.02511749012172222,-2.6466993344098326
1761914943901806600,9.756806640625,-0.1558113239586353,0.4097708874583244,-3.1830072282865642
1761914943911861500,9.766861572265626,-1.1183715767562388,1.32807055824697,-3.3762627322375773
1761914943921916400,9.77691650390625,-0.8954390196830033,2.426972879901528,-3.3076410314321514
1761914943931970300,9.78697021484375,0.45388709256052967,3.4057682281851767,-2.689062558364868
1761914943942025500,9.797025390625,1.6626327677249908,3.9821652636051175,-1.9431145735777913
1761914943952080400,9.807080322265625,2.201794589728117,4.239378275942802,-1.2541412525527178
1761914943962134300,9.81713427734375,2.569576931762695,4.164314559391141,-0.6425846409462392
1761914943972189400,9.827189453125,3.133536510413885,3.7631180235326287,-0.19828896807357668
1761914943982244600,9.83724462890625,3.5481074916303155,3.421463225445151,0.036523265755176545
1761914943992299500,9.847299560546874,3.661051149243116,3.3650983641445635,0.11889628240689634
1761914944002353400,9.857353515625,3.4812007780492302,3.405974564412236,0.2877874526910484
1761914944012408600,9.86740869140625,3.5394781949728724,3.4182436788767574,0.39827641062811014
1761914944022463500,9.87746337890625,3.8468069450885056,3.342586672607064,0.43517815430685874
1761914944032517400,9.887517333984375,4.374890323716402,3.273957957538962,0.24598127809688447
1761914944042572500,9.897572509765626,4.733644725164771,3.3267642495751377,-0.07021510747671127
1761914944052627500,9.90762744140625,4.44274162467122,3.389989644294977,-0.3623484804175794
1761914944062681300,9.917681396484374,4.04896559420228,3.4495956794738767,-0.5570332865193486
1761914944072736500,9.927736572265625,3.8922757338434457,3.534436693674326,-0.6072716277636587
1761914944082791700,9.937791748046875,3.674709672239423,3.738344232282042,-0.7093167286127805
1761914944092846300,9.947846435546875,3.4829350544959303,3.854228619521856,-0.8894900481507182
1761914944102900500,9.957900390625,3.2471406777620313,3.3205244784027337,-0.808242236136645
1761914944112955600,9.96795556640625,2.7592005089521408,1.7837994792819023,-0.22143559651374817
1761914944123010300,9.97801025390625,1.6378455324709416,-0.3504547751367092,0.513551872189343
1761914944133064400,9.988064453125,0.1277262162029743,-2.122926804718375,0.9079964495696127
1761914944143119600,9.99811962890625,-0.6564823795258998,-2.890990905854106,0.8339961244657635
1761914944153174500,10.008174560546875,-0.3417781322062015,-2.680095408055186,0.2868321977928281
1761914944163228400,10.018228515625,-0.4795873510062694,-1.9278075527220964,-0.424175991038233
1761914944173283600,10.02828369140625,-1.4605956991642712,-1.2621715604037045,-0.9112819009810685
1761914944183338500,10.03833837890625,-2.4780104086995123,-1.2129425423324107,-0.6870997822381556
1761914944193393400,10.048393310546874,-2.126078546747565,-2.2155121494352814,0.37096710955053563
1761914944203447600,10.058447509765625,-1.7493536043226718,-3.421982280883193,1.366024587457627
1761914944213502500,10.06850244140625,-2.41447404833436,-3.853014567556977,1.6334731626056134
1761914944223557400,10.078557373046875,-3.0026819330573082,-3.9286376715570688,1.538423765862733
1761914944233611500,10.088611572265625,-3.1759657853424548,-4.82441571393609,1.3602522876664995
1761914944243666400,10.09866650390625,-3.6313545146375894,-6.696353495398164,1.4637898190304637
1761914944253721600,10.1087216796875,-4.2280291989326475,-8.342277704906463,1.7817144897013901
1761914944263775500,10.118775390625,-4.171977641364932,-8.547430859661102,1.8214514568060636
1761914944273830400,10.128830322265625,-3.2515491418540474,-7.352661102879047,1.2239346225984393
1761914944283885600,10.138885498046875,-2.4727614021301267,-6.236347627696395,0.6165440446302294
1761914944293940500,10.1489404296875,-1.8887299263089894,-5.5204766551345585,0.1462086522243917
1761914944303994400,10.158994384765625,-1.7348633066773413,-4.6787376614570615,-0.3468951829589903
1761914944314049500,10.169049560546876,-1.415451904579997,-3.346402431502938,-0.9869097542215138
1761914944324104400,10.1791044921875,-0.3507978894859552,-1.3325216924369334,-1.5098448832407594
1761914944334158300,10.189158447265624,0.6625736821383238,0.6243903742164373,-1.4567644504383206
1761914944344213500,10.199213623046875,0.4600514604091644,1.5887661520034073,-0.9871399827808142
1761914944354268700,10.2092685546875,-0.6211141290247439,1.3585907841950655,-0.5331979451626538
1761914944364326000,10.219325927734374,-1.9494401233375072,0.4443956261157989,-0.2610465991511941
1761914944374380800,10.229380859375,-1.881052231287956,0.14374913024306296,-0.3444565576352179
1761914944384436000,10.23943603515625,-0.878359874588251,1.0395014536589384,-0.6712419956319033
1761914944394491000,10.249490966796875,-0.007530395504832268,2.435470074611902,-1.045443264798075
1761914944404544800,10.259544677734375,0.8845850327134132,3.3769489609360694,-1.2454140484787524
1761914944414600000,10.269599853515626,1.832757863718271,3.897818170401454,-1.317820674650371
1761914944424654800,10.27965478515625,2.6181390103578566,4.263088821876049,-1.2140251499373464
1761914944434708700,10.289708740234374,3.076405340915918,4.468817730692029,-0.779969642984867
1761914944444764000,10.299763916015625,3.4281057321995494,4.509842399519681,-0.31783246234282847
1761914944454819000,10.309819091796875,3.5561528509199616,4.424605663999915,-0.009851239667832851
1761914944464873000,10.319873046875,3.305083163642883,4.182193330430985,0.245204448505491
1761914944474927900,10.329927978515625,2.8614287112832066,3.8386698158621786,0.40559783955737944
1761914944484983000,10.339983154296876,2.705810279548168,3.5663884137302637,0.360373234821856
1761914944495037700,10.35003759765625,2.7068951521754263,3.490313474309444,0.32852482900992036
1761914944505091800,10.360091796875,3.060937722671032,3.4409652137726545,0.12340177713260053
1761914944515146800,10.370146728515625,4.0220208886533975,3.521139989727735,-0.4208962387152016
1761914944525202000,10.380201904296875,4.957908823102712,4.017468047654629,-0.746985072749853
1761914944535255800,10.390255859375,5.590842569258808,4.894232177484035,-0.35640827671363945
1761914944545310700,10.400310791015626,3.3198797507584095,4.744791557601094,1.0521866015784442
1761914944555366000,10.410365966796874,1.1261755285054444,2.1924147669643164,1.204186842816323
1761914944565420000,10.420419921875,2.9190333435118196,-0.37164895433485506,0.8687270999766886
1761914944575474700,10.430474609375,2.205666462725401,-1.7430372607827185,0.7247989599049091
1761914944585529900,10.44052978515625,0.33641572839021683,-1.2027297758758067,0.3782014447182417
1761914944595584000,10.450583984375,-0.3305716785371303,1.3104746958017348,-0.17317016277760267
