time,seconds_elapsed,z,y,x
1761915534356653000,0.121653076171875,-0.7119985150426625,0.03836158709824085,0.15008728375602512
1761915534366708000,0.1317080078125,-0.8903133472323417,0.006146539930999279,0.25804562723692503
1761915534376762000,0.14176220703125,-1.021359063246846,0.08815481492355465,0.34322310685012486
1761915534386816000,0.15181591796875,-0.9388274950325488,0.18080650287494063,0.35832448559850455
1761915534396870100,0.1618701171875,-0.7409756032019853,0.214855195210129,0.25952874193415043
1761915534406924000,0.171924072265625,-0.540547723403573,0.20564020761922,0.10850293521899729
1761915534416979200,0.181979248046875,-0.34389585501253606,0.27251009632125495,0.06324614524692297
1761915534427032800,0.19203271484375,-0.20521803668439387,0.27959698584228754,0.07398863466605543
1761915534437087000,0.2020869140625,-0.061816112443804735,0.332285350587219,0.06333831704240292
1761915534447141000,0.21214111328125,0.09156009332239627,0.3082313980437815,0.062092481699772176
1761915534457195000,0.222195068359375,0.23973873044550417,0.194447344084084,0.005594349408335983
1761915534467250200,0.232250244140625,0.39557694241106506,0.0785169257454574,-0.04167823736555874
1761915534477304000,0.242303955078125,0.3743798406034708,-0.04167684912607073,-0.07802669454310089
1761915534487358200,0.252358154296875,0.14576631528437137,-0.07144552605450152,0.01426881864806637
1761915534497411800,0.262411865234375,-0.2451309448778629,-0.34863252814561124,-0.23378645271128043
1761915534507466000,0.272466064453125,-0.29797172370553016,-0.3797555422924459,-0.2794801910622045
1761915534517521200,0.282521240234375,-0.405474651569128,-0.36141733704730866,-0.0805642958624754
1761915534527575000,0.292574951171875,-0.5485270317196845,-0.25453940921425816,0.02417576142535545
1761915534537629200,0.302629150390625,-0.5223240844488144,-0.05187222605645656,0.04125674685074482
1761915534547683000,0.31268310546875,-0.33935587349534035,0.06853606834858655,0.088834732612269
1761915534557737200,0.3227373046875,-0.08312310436666011,0.03460354973897338,0.11456344083435832
1761915534567791000,0.332791015625,0.18206570915579795,-0.058535921729356045,0.05531116469630506
1761915534577846000,0.342845947265625,0.3538239593088627,-0.15894392289593814,-0.014039494271064176
1761915534587900200,0.352900146484375,0.36657705789804457,-0.17333938186466694,-0.04229762963922694
1761915534597954000,0.3629541015625,0.1851864715248346,-0.1185259877897799,-0.013848803137708454
1761915534608008200,0.37300830078125,-0.2769979092597961,-0.05319207648336887,0.10010834236657247
1761915534618062000,0.38306201171875,-0.5761959598898887,0.04107069992646575,0.26978390449406575
1761915534628117000,0.393116943359375,-0.43356209741234775,0.06263765795975923,0.3646365913547575
1761915534638171000,0.4031708984375,-0.17474632605314253,-0.01351487674191594,0.31190679862089454
1761915534648225000,0.41322509765625,0.03742518303096294,-0.07293561848178505,0.2305327298786491
1761915534658279000,0.42327880859375,0.11697218247652053,-0.08099982860237359,0.23627633329825473
1761915534668333000,0.4333330078125,-0.23757833754122257,0.06637231444343925,0.4439688886037096
1761915534678387200,0.44338720703125,-0.6694564273893833,0.20505802381709218,0.6430026471626014
1761915534688442000,0.453442138671875,-0.7151724689036607,0.18547157207652926,0.7062329372532665
1761915534698496000,0.46349609375,-0.2607739196896553,0.2532568220578134,0.7910023475222289
1761915534708550000,0.4735498046875,0.19579320573508738,0.31849384886100884,0.7705291030097753
1761915534718604000,0.48360400390625,0.33074645058214663,0.3682129885368049,0.7228178690902889
1761915534728658000,0.493657958984375,-0.029261750319600103,0.48730187090635296,0.8214334338821471
1761915534738713000,0.503713134765625,-0.4630097256928682,0.6629734951108693,1.0538104033879936
1761915534748767200,0.513767333984375,-0.37073417757749555,0.8033613322272897,1.2145561150088906
1761915534758821000,0.523821044921875,-0.015118658676743507,0.6373363650292158,1.1987209055606276
1761915534768875000,0.533875,0.061713821113109586,0.2048085791006684,1.044341221840307
1761915534778929000,0.543928955078125,-0.37335225112140175,-0.060329965539276595,0.9128598908875137
1761915534788984000,0.553984130859375,-0.8933002540886401,-0.07335457454621791,0.7129042317107319
1761915534799038200,0.5640380859375,-1.2076900286316872,0.22814298519790172,0.6373315427236259
1761915534809092000,0.574092041015625,-1.112369705992937,0.6626283349350094,0.6520214545942843
1761915534819146200,0.584146240234375,-0.6648585782051086,0.8320297928288578,0.542997308512777
1761915534829200100,0.5942001953125,-0.13897066379487513,0.5546273944213986,0.3159782127782702
1761915534839255000,0.604255126953125,0.24539748685956,0.00743833330720663,0.2350733689829707
1761915534849309000,0.614308837890625,0.6067191084474325,-0.657848991703987,0.07359159817248583
1761915534859363000,0.624363037109375,1.1442980451732874,-0.9989166375532745,-0.27590894497931
1761915534869417000,0.6344169921875,1.7279080807119607,-0.9259519391074776,-0.4961971250236034
1761915534879471000,0.64447119140625,2.0857401066184043,-0.7214107787713409,-0.5777808909937739
1761915534889525200,0.654525146484375,2.3704408453404904,-0.5953484041273593,-0.6985441363163292
1761915534899580000,0.664579833984375,2.4635130967915058,-0.3138911773711443,-0.7601986284576356
1761915534909634000,0.674634033203125,2.138516003516316,-0.05964402910172939,-0.49203065299391746
1761915534919688000,0.68468798828125,1.8110148184657096,0.12390695017576217,-0.2763493822231889
1761915534929742000,0.6947421875,1.5655764150738716,0.07513590500503778,-0.2182468834750354
1761915534939796000,0.7047958984375,1.3270131581485272,-0.22098463787585496,-0.2964031592145562
1761915534949851100,0.71485107421875,1.3502853126645087,-0.47810967966914175,-0.44303807402700185
1761915534959904300,0.724904296875,1.4700216991573571,-0.49044309154152865,-0.5182809465378523
1761915534969958100,0.734958251953125,1.4346201309084892,-0.3740694594800472,-0.5199802978016436
1761915534980012300,0.74501220703125,1.1992933716863392,-0.2964481674000621,-0.47492856541499495
1761915534990066200,0.755066162109375,0.8972288257092237,-0.2492556235924363,-0.40153658146783705
1761915535000121000,0.76512109375,0.5502116238057613,-0.15418196919113397,-0.29910671908482905
1761915535010175200,0.77517529296875,0.005488076022267341,0.09511895484775304,-0.013517360959947109
1761915535020229000,0.78522900390625,-0.49386020650863643,0.2238885426238179,0.2113002792075276
1761915535030283300,0.795283203125,-0.5184112949192524,0.18160393686294554,0.33194369754269715
1761915535040337200,0.805337158203125,-0.269187527769804,0.06465688882768154,0.31168636080324646
1761915535050391300,0.815391357421875,0.008481412619352341,-0.2568482706785202,0.11279679648801684
1761915535060446200,0.8254462890625,0.3055985653221607,-0.5745283189386129,-0.09890461086630821
1761915535070500000,0.8355,0.5855184995085001,-0.7492378201127052,-0.2514064449507743
1761915535080554200,0.84555419921875,0.6024345629960298,-0.6736340053349733,-0.27507256722040474
1761915535090608000,0.855608154296875,0.46480245432853695,-0.4194996697902679,-0.2344819789610803
1761915535100662300,0.865662353515625,0.37253801212906834,-0.301631122995913,-0.23092165613099933
1761915535110717200,0.87571728515625,0.0881295343518257,-0.23766280095428227,-0.1850721974954009
1761915535120771000,0.88577099609375,-0.48299803623259063,-0.0585869212642312,-0.05038023393303156
1761915535130825200,0.8958251953125,-0.751686966830492,0.12919263549372553,0.0924297888290137
1761915535140879000,0.905879150390625,-0.7001543479919433,0.34256738288775085,0.24048428811579942
1761915535150933200,0.915933349609375,-0.6838835966706276,0.6306748613134027,0.34457327935006465
1761915535160988200,0.92598828125,-0.6357143167853355,0.749728526239097,0.3008451967826113
1761915535171042300,0.936042236328125,-0.5745587140768766,0.8258167635329067,0.2110954408178106
1761915535181096200,0.94609619140625,-0.6213204652518034,0.9151249862752854,0.18278185806851832
1761915535191150000,0.956150146484375,-0.6425105527967214,0.9835352362871169,0.1617108303260058
1761915535201204200,0.966204345703125,-0.5178408015549183,0.8480268417753278,0.10845458429893479
1761915535211258000,0.976258056640625,-0.41906712359189985,0.5396510668247938,0.03222582428958267
1761915535221313300,0.986313232421875,-0.40322482681572436,0.18394450863972306,-0.041473782568331806
1761915535231367200,0.9963671875,-0.473968926602602,-0.14217398988083005,-0.026844332180637864
1761915535241421300,1.00642138671875,-0.5196756157666444,-0.2686987213395536,0.050536958864703774
1761915535251475200,1.01647509765625,-0.4120715656161308,-0.22547069724872706,0.08257962687341495
1761915535261529000,1.026529052734375,-0.1979658735990524,-0.06674684684425591,0.1295463991011493
1761915535271584300,1.036584228515625,0.014002806389331816,0.11026654735803604,0.15650569943096487
1761915535281638100,1.04663818359375,0.1382318281263113,0.2429845804989338,0.2042515662724152
1761915535291692300,1.0566923828125,-0.06600654987096786,0.32480449331253763,0.24818719064332542
1761915535301746200,1.06674609375,-0.10162146860957146,0.08208075570687651,-0.1926986372532323
1761915535311800300,1.07680029296875,0.3264952228784561,0.015067951402813196,-0.21803503082264214
1761915535321855000,1.08685498046875,0.3209218066602945,-0.053825990472733974,-0.14514527904288843
1761915535331909000,1.0969091796875,0.023906945288181304,-0.1119648757085204,-0.12066162984529509
1761915535341963300,1.10696337890625,-0.11011457166671752,-0.13913520670682192,-0.015593683176813646
1761915535352017200,1.11701708984375,-0.07979308316111564,-0.1689924387015402,0.12247446968723087
1761915535362071300,1.1270712890625,-0.21546938158571718,-0.19856164753511546,0.19100138661498203
1761915535372125200,1.137125244140625,-0.18907938731014728,-0.16047025568038223,0.18622456413460894
1761915535382180000,1.14718017578125,-0.07280921562314033,-0.09779767253771424,0.1373932036113925
1761915535392234000,1.15723388671875,-0.0016477672070264815,0.001268850892037153,0.049478426255099475
1761915535402288000,1.1672880859375,-0.07636720036566257,0.012540186490863562,-0.03801814395543188
1761915535412342000,1.177342041015625,-0.3264110517263412,0.007198971593379974,-0.007721095771342516
1761915535422396200,1.187396240234375,-0.5747942763984203,0.09719079268574714,0.09653653002809733
1761915535432451300,1.197451416015625,-0.657640317389369,0.16883900170549748,0.1851517655376345
1761915535442505200,1.207505126953125,-0.549479217877984,0.21328005484789608,0.226518014344573
1761915535452559400,1.217559326171875,-0.3915717984229326,0.2229657286904752,0.17122456340147182
1761915535462613000,1.227613037109375,-0.21162322755157947,0.16915742000490425,0.07303369029508903
1761915535472667100,1.237667236328125,-0.06875906344950199,0.1122045296832919,-0.000025317104347050188
1761915535482721000,1.247720947265625,0.02202887645661831,0.06185673671513796,-0.057382915769331154
1761915535492776200,1.257776123046875,0.04959668233990669,0.06428162577450275,-0.04053173421155661
1761915535502830300,1.267830322265625,0.06620002661645412,0.07157879704535007,0.030856179904192683
1761915535512884200,1.27788427734375,0.019383330383896828,0.10371069597378373,0.10521235097469761
1761915535522938400,1.2879384765625,-0.07564063965678215,0.12676701578199862,0.1693685968038626
1761915535532992000,1.297991943359375,0.030385785913467404,0.1740770484894514,0.20915919379191472
1761915535543047200,1.308047119140625,0.2212719303846359,0.1259182899981737,0.11659713861905038
1761915535553101000,1.31810107421875,0.3427963693380356,0.012321283043175936,-0.0012322086760774254
1761915535563155200,1.3281552734375,0.38710838927328584,-0.05990633329972624,-0.07291137908967212
1761915535573209300,1.338209228515625,0.20405951429903507,-0.08435016194358468,-0.048469230946246535
1761915535583263200,1.34826318359375,-0.09212766407728194,-0.09822744225710629,0.04516571415513754
1761915535593318100,1.358318115234375,0.0007253916651010513,-0.041677579778432845,0.17605660493411124
1761915535603372000,1.3683720703125,0.1501613353729248,-0.08585764389708637,0.24489001226145773
1761915535613426200,1.37842626953125,0.16637947972416878,-0.14115019979104398,0.27139512081667777
1761915535623480000,1.38847998046875,0.22448913886547087,-0.10454173997044562,0.2564580109856091
1761915535633534200,1.3985341796875,0.29472996530532836,-0.04490238704383373,0.2161996868879534
1761915535643589400,1.40858935546875,0.3502981232702732,-0.03983852778300643,0.1339887563296128
1761915535653643000,1.41864306640625,0.3836719850838184,-0.04375979287996888,0.08998512649009935
1761915535663697200,1.428697265625,0.3533388061404228,-0.03367693641334772,0.15276064028427935
1761915535673751000,1.4387509765625,0.38143969598710536,-0.0547308303579688,0.21703714235909283
1761915535683805200,1.44880517578125,0.3985913217961788,-0.03930997386425733,0.27982874877154823
1761915535693859000,1.458859130859375,0.3753589147686958,0.04297901776582003,0.28564046725761144
1761915535703914200,1.468914306640625,0.35685178269743917,0.11791793889403343,0.2118835224555805
1761915535713968400,1.478968505859375,0.29836393789350985,0.14665464242622256,0.13768765651332213
1761915535724022300,1.489022216796875,0.18939269104301928,0.10558408863022922,0.05867184133501723
1761915535734076200,1.499076171875,0.0767278503715992,0.04298164811432361,0.018557053893897682
1761915535744130000,1.509130126953125,0.0038917467415332794,-0.016988105810433626,0.018232644245121627
1761915535754185200,1.519185302734375,0.04249591042399406,-0.07455620542094112,0.08960598184624687
1761915535764239000,1.529239013671875,0.16240180826485157,-0.135344436121732,0.15708454049853607
1761915535774293200,1.539293212890625,0.28169746525287626,-0.19470657954216003,0.18877324397042392
1761915535784347400,1.549347412109375,0.3461930260390043,-0.22572145713940261,0.18134736828599124
1761915535794401300,1.5594013671875,0.3691846100479364,-0.23507117702588437,0.1651368592519313
1761915535804455200,1.569455078125,0.3306967662215233,-0.19885741561129688,0.16390030319429932
1761915535814510000,1.579510009765625,0.22002397615015507,-0.12339388608708977,0.20633763356516135
1761915535824564200,1.589564208984375,0.19505144745707512,-0.1186819090038538,0.21741587601099163
1761915535834618000,1.5996181640625,0.2593500243663788,-0.14735066186636686,0.18897636532709
1761915535844672300,1.60967236328125,0.3527116141527891,-0.14348448795750737,0.14185220144740304
1761915535854726100,1.61972607421875,0.32492928873598576,-0.15609978551119566,0.10894097957639023
1761915535864781000,1.629781005859375,0.19086685524880884,-0.17624445565640925,0.10688034811899996
1761915535874835200,1.639835205078125,0.012344517788290977,-0.1365887370944023,0.16521801646305248
1761915535884889000,1.64988916015625,-0.09474339953362941,-0.07655132476091385,0.21814198006214572
1761915535894943200,1.659943115234375,-0.1044213284611702,-0.03231616945415735,0.21306263097124173
1761915535904997000,1.6699970703125,-0.03757657420039177,-0.04185381312817335,0.1931072180541232
1761915535915051300,1.68005126953125,0.0683101506382227,-0.04862900635153055,0.13692662727925925
1761915535925106200,1.690106201171875,0.16506372095048427,-0.06310629838481545,0.06886564736282452
1761915535935160000,1.70016015625,0.18603811991810798,0.004812222587317228,0.028542085142387076
1761915535945214200,1.710214111328125,0.14746318233013153,0.10288213619515299,0.00617017653491348
1761915535955268000,1.72026806640625,0.10365209765434265,0.16249240915775298,-0.009761049766885117
1761915535965322000,1.730322021484375,0.12024082888364791,0.1781545270614326,-0.004608681105542928
1761915535975377000,1.740376953125,0.15033026219904422,0.14805983304902912,-0.03865672498675994
1761915535985431000,1.75043115234375,0.14533084647655486,0.16787147184759377,-0.07665450200759805
1761915535995485000,1.76048486328125,0.07366203306019306,0.20855331858694554,-0.058621627251431344
1761915536005538800,1.770538818359375,-0.020486323189735412,0.20683029418662188,-0.04675315687651746
1761915536015592700,1.7805927734375,-0.05480769498646259,0.1958067958690226,-0.04471614375673234
1761915536025647900,1.79064794921875,0.03172200295329094,0.15777882463932036,-0.023874184662895277
1761915536035702000,1.800701904296875,0.12441840682923794,0.10294336486309766,-0.031364805279765276
1761915536045756000,1.810755859375,0.2290408108204603,0.06540536910742521,-0.04476263151327148
1761915536055810000,1.82081005859375,0.24326573552787303,0.04745733222365379,-0.050214942102413625
1761915536065864000,1.830864013671875,0.11473930885791778,0.08522840608283877,-0.0008339026740286499
1761915536075918000,1.84091796875,-0.034625907701253886,0.13820479398891328,0.06235592754208483
1761915536085973000,1.850972900390625,-0.10995675075650214,0.20896599104106425,0.07802013693815096
1761915536096027000,1.86102685546875,-0.11049801802635192,0.2613509889252484,0.08080873561021872
1761915536106081000,1.8710810546875,-0.03171908034384251,0.24149390354976055,0.07312557896277867
1761915536116135000,1.881135009765625,0.05869710364043712,0.16741028407663106,0.04038563113859854
1761915536126189000,1.89118896484375,0.06995967141091823,0.08647036896795034,0.036641010383330286
1761915536136243700,1.90124365234375,0.14151917923390864,0.03386252211332321,0.08248447766955941
1761915536146297900,1.9112978515625,0.19331541744470596,-0.028088614886999128,0.10490273703625425
1761915536156352000,1.92135205078125,0.1776853021144867,-0.07124386600255966,0.10830055364784784
1761915536166406000,1.931406005859375,0.12587620442211628,-0.07969400670081377,0.11876724919974803
1761915536176460000,1.9414599609375,0.10037059176564216,-0.04518456498607993,0.1345943484067917
1761915536186514000,1.951513916015625,0.08490940326154231,0.0013216039925813673,0.11578521031481213
1761915536196569000,1.961569091796875,0.044528877556324,-0.022815204528719185,0.08495516036571935
1761915536206622700,1.971622802734375,0.06158639534115791,-0.07039850121960044,0.0886216287177056
1761915536216676900,1.9816767578125,0.03998772699534893,-0.1342427584901452,0.12167239605672657
1761915536226730800,1.991730712890625,0.051905543804168695,-0.17853914246484637,0.15562878873227162
1761915536236785000,2.001784912109375,0.14289748184978962,-0.2385296469166875,0.151699659989262
1761915536246840000,2.011840087890625,0.23866671729981898,-0.23599106834977865,0.07736304300259798
1761915536256894000,2.02189404296875,0.23399814096689223,-0.14308058333173393,0.04404716758714057
1761915536266948000,2.031947998046875,0.1392424664735794,-0.039449236204475165,0.03761108839134685
1761915536277002000,2.042001953125,0.05187748675346374,0.05452259443476796,0.027113890386617275
1761915536287056000,2.052055908203125,-0.06268705005943775,0.13046616256088017,0.03256469400526257
1761915536297111000,2.062111083984375,-0.1419096398562193,0.1560853185944259,0.048393690625159066
1761915536307165000,2.0721650390625,-0.14779928241670132,0.10958777131363749,0.12794841671944596
1761915536317219000,2.082218994140625,-0.1056365494698286,0.0043913668267428875,0.16252477705739438
1761915536327273000,2.09227294921875,-0.0921165581613779,-0.07534487158060073,0.14615563426236622
1761915536337327000,2.1023271484375,-0.003229483440518379,-0.07657704372406006,0.1195464351450093
1761915536347381000,2.112381103515625,-0.0021925416082143783,-0.04040083784088492,0.09113377593541518
1761915536357436000,2.122435791015625,-0.02568213826715946,0.03272211990654468,0.0851191096226219
1761915536367489800,2.13248974609375,0.04687281033396721,0.07249138184562325,0.06182149187182076
1761915536377544000,2.1425439453125,0.07308744804263115,0.06061842709183692,0.028476947484305126
1761915536387598000,2.15259814453125,0.08156827614009379,0.08753186071962117,0.03556924611610593
1761915536397652000,2.16265185546875,0.1274175886452198,0.08886486288905143,0.05356943102893419
1761915536407707000,2.172706787109375,0.15431027174592019,0.0662323214508593,0.03800966382145416
1761915536417760800,2.1827607421875,0.1829693799972534,0.07127864505499601,0.03675671831802465
1761915536427815000,2.19281494140625,0.2010638396143913,0.09103110101222991,0.034119223121018144
1761915536437868800,2.202868896484375,0.21661445996761322,0.11289280420839785,0.03163627916490659
1761915536447923000,2.2129228515625,0.1958843911498785,0.10691285301595925,0.04229935580543242
1761915536457976800,2.222976806640625,0.18860943171083927,0.07269640289843082,0.04235955699349288
1761915536468032000,2.233031982421875,0.14798632942140102,0.07120791790634393,0.05105669015618041
1761915536478086000,2.2430859375,0.12472177368998527,0.07639189641550183,0.053770068167569116
1761915536488139800,2.253139892578125,0.21599369772076604,0.09360591993629931,0.010556232432299292
1761915536498194000,2.26319384765625,0.24801789849102496,0.07803820231780409,-0.0414584799679229
1761915536508247800,2.273247802734375,0.22033669536113737,0.07763911999762058,-0.05298305510887876
1761915536518303000,2.283302978515625,0.18544658376574516,0.04406958948150277,-0.04242165331111755
1761915536528357000,2.293357177734375,0.11525018098950385,-0.023496610921621322,-0.020598576508730183
1761915536538411000,2.303410888671875,0.09441489823162555,-0.07446545839756727,0.020076153219956903
1761915536548465000,2.31346484375,0.0646761780500412,-0.0965235609486699,0.057689648197521454
1761915536558518800,2.323518798828125,0.08280570898056029,-0.0694686730235815,0.10312582702422514
1761915536568573000,2.333572998046875,0.06980769571959972,-0.004811638065427542,0.16313994981367141
1761915536578627800,2.3436279296875,0.022296002960205077,0.04946458039283752,0.18943148868344722
1761915536588682000,2.353681884765625,-0.002543254742026329,0.024792203690111637,0.13752190802497788
1761915536598736100,2.363736083984375,-0.025900749453902243,0.00925195860043168,0.09961270433673634
1761915536608790000,2.3737900390625,-0.0854155992180109,0.032342619069665665,0.09053942677145824
1761915536618844200,2.38384423828125,-0.15981880603432655,0.06943842401579021,0.12734468780579045
1761915536628898800,2.39389892578125,-0.19725743306875226,0.06478884464427828,0.13889713276778348
1761915536638953000,2.403952880859375,-0.1361930157750845,0.023942308862507342,0.12636150372102856
1761915536649006800,2.4140068359375,-0.012086159113049506,-0.015145254422724247,0.12481006389479152
1761915536659061000,2.42406103515625,0.09281973799467086,-0.06680106124952435,0.09258939983751624
1761915536669115000,2.434114990234375,0.13459259484112263,-0.07755334141030908,0.08809640840035862
1761915536679169000,2.4441689453125,0.14509703772068022,-0.0733842390321195,0.10170024206736124
1761915536689224000,2.454223876953125,0.09968144045770168,-0.10617971643581986,0.07104769954306539
1761915536699277800,2.46427783203125,0.055503860557079315,-0.10274901133477687,0.07210028646907303
1761915536709332000,2.47433203125,0.03877133694291115,-0.08328720888718961,0.10063595557040535
1761915536719385900,2.4843857421875,0.02681026551425457,-0.11383636866882443,0.07971047377842477
1761915536729440000,2.49443994140625,0.05594400554001331,-0.1130227141983807,0.08273300907053052
1761915536739495000,2.504494873046875,0.11147241601645946,-0.09464593050852417,0.08030831180741078
1761915536749548800,2.514548828125,0.1435083072245121,-0.08253478308469056,0.05146901098384987
1761915536759603000,2.52460302734375,0.10630056633651255,-0.05200666609108448,0.009334590816008858
1761915536769656800,2.53465673828125,0.028559739530086517,0.0069116790845990175,-0.005529389846767299
1761915536779711000,2.5447109375,-0.03871054666638374,0.04232011546567082,0.0031689100764109752
1761915536789766000,2.554765869140625,-0.059353521722555154,0.05535451521426439,0.028469134070607832
1761915536799820000,2.564820068359375,-0.056684594774246214,0.033699586636573076,0.03910301658269018
1761915536809874000,2.5748740234375,-0.020998948886990547,0.03455518055260181,0.060304456638684494
1761915536819927800,2.584927734375,0.048209027373790736,0.02886106056421995,0.06931318106777035
1761915536829982000,2.59498193359375,0.10246551821827887,0.04798793196901679,0.04742897377884946
1761915536840035800,2.605035888671875,0.050097617599368094,0.08518398241922259,0.02571077070659958
1761915536850091000,2.615091064453125,-0.02913432454764843,0.11580591517612338,0.030461732659931292
1761915536860145000,2.625144775390625,-0.025472879430651664,0.15161094965934752,0.05580919561262708
1761915536870199000,2.635198974609375,0.06934416986107826,0.1559355348601937,0.07642329620076344
1761915536880253000,2.6452529296875,0.13891396517157553,0.053583998410403726,0.055438873596047045
1761915536890307000,2.65530712890625,0.13487374987006187,-0.020073066213726995,0.044202353582275096
1761915536900362000,2.665362060546875,0.16275427496433256,-0.019716946252435443,0.04907171318430919
1761915536910416000,2.675415771484375,0.1881944211691618,0.029112551107257603,0.05613434504691977
1761915536920470000,2.685469970703125,0.16661621108949184,0.09335969009026884,0.05546285725983325
1761915536930524000,2.69552392578125,0.12518003885149956,0.15547405482828616,0.0655886852185009
1761915536940578000,2.705578125,0.07001929264366627,0.16089900248646735,0.07092750266292132
1761915536950632000,2.7156318359375,0.06716565677821636,0.13088482636436818,0.07262511406077538
1761915536960690700,2.725690673828125,0.09852350259423255,0.05224368971735239,0.08547100093336775
1761915536970744800,2.735744873046875,0.19185937341749668,-0.03248451175838709,0.10207973377108573
1761915536980798700,2.745798828125,0.2613841605424881,-0.09983268549665808,0.08144123396063223
1761915536990852900,2.755852783203125,0.2293026766270399,-0.09404533426687121,0.0936881183270365
1761915537000906800,2.76590673828125,0.13553718221485614,-0.059186494592577216,0.1002540161812678
1761915537010961700,2.775961669921875,0.06337503232359885,-0.005037701906263828,0.0949062528119888
1761915537021015800,2.786015869140625,0.08075111453831195,0.022180559886991975,0.09424041844755411
1761915537031069700,2.796069580078125,0.10452303526997565,0.013865882136672735,0.08836503274128772
1761915537041123800,2.806123779296875,0.16821955463290214,-0.017704583516716957,0.09171495509054511
1761915537051177700,2.816177734375,0.190460028013587,-0.08485504272580147,0.1080867738998495
1761915537061233000,2.82623291015625,0.19518764105737207,-0.11725173007026314,0.11589907335229217
1761915537071287000,2.836287109375,0.0956891559511423,-0.10135331919267773,0.13651669477149844
1761915537081340700,2.846340576171875,-0.1135100593239069,-0.03788564014956355,0.16854887791881337
1761915537091394800,2.856394775390625,-0.2255857019305229,0.013529782050102948,0.18347844376424327
1761915537101448700,2.86644873046875,-0.17634850055277346,0.023007073839008806,0.15652564624045043
1761915537111502800,2.8765029296875,-0.13001695748865605,0.0029803309850394725,0.09028168915072456
1761915537121557800,2.886557861328125,-0.0885743555098772,-0.028717852701246736,0.07302894105473533
1761915537131612000,2.89661181640625,-0.02153553998172283,-0.024318448698520657,0.06949763425658456
1761915537141665800,2.906665771484375,0.05992284604310989,-0.025512773049622774,0.05435402380167506
1761915537151720000,2.916719970703125,0.15175474204421044,-0.02375219311788678,0.04236335181919858
1761915537161773800,2.92677392578125,0.20733166783750057,-0.03644187108203768,0.03163698241780512
1761915537171828700,2.936828857421875,0.20936171236038206,-0.04185980447754264,0.02265061595099978
1761915537181883000,2.9468828125,0.12464929297566413,-0.033350627068430186,0.031745329029951246
1761915537191936800,2.956936767578125,0.028397242444753647,-0.014448065938800573,0.09501959525966085
1761915537201991000,2.966990966796875,-0.040055531534552574,-0.004484013546258211,0.12819849162353203
1761915537212044800,2.977044921875,-0.09981003527343273,0.0035819501399993892,0.12584529782719908
1761915537222099000,2.987098876953125,-0.13586042281985283,0.017214315781742335,0.14330935058631003
1761915537232153900,2.99715380859375,-0.08573883982300758,0.06771335378885268,0.14900574473016895
1761915537242207700,3.007207763671875,-0.017435703447461127,0.1084381628870964,0.13971080550453624
1761915537252262000,3.017261962890625,0.024043723410367965,0.10903452134504914,0.08662812594608403
1761915537262315800,3.027315673828125,0.09207797971665858,0.079698244484514,0.043159287969861175
1761915537272370000,3.037369873046875,0.18440964193344114,0.05245893990322947,0.03956619538133964
1761915537282424600,3.047424560546875,0.26889409778118134,-0.00524111552387476,0.05447407911792397
1761915537292478700,3.057478759765625,0.299081730774045,-0.09884396672025322,0.05694566599638201
1761915537302532900,3.067532958984375,0.32576047886312004,-0.1313913145817816,0.06677447463669814
1761915537312586800,3.077586669921875,0.3387380338579416,-0.11715513782799243,0.053126262971851974
1761915537322641000,3.087640869140625,0.30321313149034973,-0.10300737001001835,0.01707603982221335
1761915537332694800,3.09769482421875,0.18928864614665508,-0.06981675580888987,-0.010166059504356235
1761915537342750000,3.10775,0.09149404234886169,-0.01254369362220168,0.009153137868456541
1761915537352803600,3.117803466796875,0.04344575849473476,0.05750307155027985,0.025269109620014205
1761915537362857700,3.127857666015625,-0.004397942698001861,0.06541311402246355,0.014630509833618998
1761915537372911600,3.13791162109375,-0.04954056823849678,0.06070084467828273,0.0018856493498198687
1761915537382965800,3.1479658203125,-0.052526890572905535,0.05109904972687363,0.026480485570617017
1761915537393021000,3.15802099609375,-0.02088847424983978,0.04434986772760749,0.042512751960940655
1761915537403074800,3.16807470703125,0.018328268373012543,0.037543840974569316,0.04546560128401033
1761915537413129000,3.17812890625,0.012552023059129714,0.04267988868877291,0.03950812678486108
1761915537423182800,3.188182861328125,-0.014199790266156196,0.048712739112228155,0.028571137706935403
1761915537433236700,3.19823681640625,-0.024319617742300032,0.06143719612881541,0.04650413228520192
1761915537443292000,3.2082919921875,0.004758008182048797,0.031445524099469185,0.011710201940126716
1761915537453345800,3.218345703125,0.046371290552616115,0.002348755083233118,-0.02397484115893021
1761915537463400000,3.22839990234375,0.105344873046875,-0.01738543456494808,-0.003395332393562421
1761915537473453800,3.238453857421875,0.10305880793631077,-0.07064560784846544,0.0223231466954574
1761915537483508000,3.248508056640625,0.017072130832076073,-0.09065437665432691,0.053945908791664984
1761915537493561900,3.258561767578125,0.016174889731407165,-0.06743570589125156,0.08130409051226452
1761915537503616800,3.26861669921875,0.07152560555338859,-0.035178719278424975,0.05787542112716473
1761915537513671000,3.2786708984375,0.04602700715959072,0.026176936046779155,0.02520896779745817
1761915537523724800,3.288724853515625,0.0029278701454401013,0.08078004837185145,0.03490589368641376
1761915537533779000,3.298779052734375,-0.06072013390064239,0.11179755631759762,0.03465381862148642
1761915537543832800,3.308832763671875,-0.08775310225486754,0.13925138043239713,0.06213083181562833
1761915537553887700,3.3188876953125,-0.06786240687072277,0.11238967699185014,0.07419287026757374
1761915537563941600,3.328941650390625,0.026641338688135147,0.058359249988198275,0.07436487496676854
1761915537573995800,3.338995849609375,0.1227548575311899,0.005539221687614918,0.06641611705254763
1761915537584049700,3.349049560546875,0.22593173888921736,-0.029827567508816717,0.05607529463632963
1761915537594103800,3.359103759765625,0.26648703663945195,-0.02443389177173376,0.057673724542604755
1761915537604158000,3.369157958984375,0.22631986142396926,-0.0026667349912226196,0.03910562866488471
1761915537614212900,3.379212890625,0.16493220352530477,0.02377718142867088,0.03111031906204298
1761915537624266800,3.389266845703125,0.0910930603325367,0.0590587765596807,0.05813847424383275
1761915537634320600,3.399320556640625,0.08424655543863772,0.07337927059605717,0.06847618225435725
1761915537644374800,3.409374755859375,0.06982756946384906,0.02784969156458974,0.0777903741697315
1761915537654428700,3.4194287109375,0.06966799498796462,0.004129208759218454,0.07982363356300629
1761915537664483800,3.42948388671875,0.07312310387790202,-0.012876724968850612,0.08498807625463232
1761915537674538000,3.4395380859375,0.10548924995362759,0.00220510882884264,0.10390770725007169
1761915537684591900,3.449591796875,0.1036322239100933,-0.016289894413203,0.10467464563511311
1761915537694645800,3.459645751953125,0.084675009983778,-0.0318608269020915,0.11203679930041543
1761915537704699600,3.46969970703125,0.09968728567659854,-0.037470045085996384,0.13731349857184103
1761915537714754800,3.4797548828125,0.1541997971087694,-0.06754501148462295,0.1264100647036452
1761915537724808700,3.48980859375,0.13912380852997303,-0.053247459932416676,0.06535635146708227
1761915537734862800,3.49986279296875,0.05345628037750721,0.01676832557991147,0.07323175188414752
1761915537744917000,3.5099169921875,0.040321488994359965,0.06557838758677244,0.09605554157812148
1761915537754971000,3.519970947265625,0.08928513412773609,0.03231821528077125,0.0805632181502413
1761915537765025000,3.53002490234375,0.13421207109093666,-0.01835121085718274,0.05993334003766067
1761915537775079700,3.54007958984375,0.15814473534226417,-0.0748794460259378,0.05142055503251031
1761915537785133800,3.5501337890625,0.14508184015154837,-0.10060264695584774,0.06298654446266591
1761915537795187700,3.560187744140625,0.07025602400898932,-0.08758329864591359,0.06317252288828604
1761915537805241900,3.570241943359375,0.020673954716324806,-0.0673582567408681,0.07148144675125367
1761915537815295700,3.580295654296875,0.024116788646578787,-0.032781010486930606,0.04964711561920121
1761915537825350700,3.5903505859375,0.06762392193973064,0.0028678105212748047,0.03142297434094362
1761915537835404800,3.60040478515625,0.1324836398631334,0.03038593204393983,0.02988395560486242
1761915537845458700,3.610458740234375,0.15998831738233565,0.044014059901982545,0.026373280602786688
1761915537855512800,3.620512939453125,0.1574637673407793,0.021574118426442145,0.00309285144880414
1761915537865566700,3.630566650390625,0.07283610363006592,-0.019104513442516326,0.00597585040605627
1761915537875622000,3.640621826171875,-0.019732874473929404,-0.009268179082870483,0.03150263371472247
1761915537885676000,3.650676025390625,-0.15222878929674624,0.04314049193784594,0.08440328950346447
1761915537895729700,3.660729736328125,-0.2088198605686426,0.08089271496608853,0.13474772147075273
1761915537905783800,3.67078369140625,-0.14599778595268725,0.09148995069563388,0.14341818125564604
1761915537915837700,3.680837646484375,-0.03041442748606205,0.06425196128860115,0.13395124646397308
1761915537925892900,3.690892822265625,0.05967150163054466,0.011685907749086618,0.12239070039391517
1761915537935946800,3.70094677734375,0.08395020284056663,-0.007954904527217149,0.13310807363810018
1761915537946001000,3.7110009765625,0.04420563695132732,-0.05435892830565572,0.09535338465813546
1761915537956054800,3.7210546875,-0.03543488599658012,-0.0962521966613829,0.07426151505699381
1761915537966105000,3.73110498046875,-0.10144903465211391,-0.10983122468069195,0.08846652948753908
1761915537976159000,3.741158935546875,-0.12218202607929705,-0.05484276629984378,0.10914364427533
1761915537986214100,3.751214111328125,-0.09932897375822067,0.01313055359944701,0.1141150394797325
1761915537996268000,3.76126806640625,-0.00426467170715332,0.03283843976259231,0.06986380982100963
1761915538006322200,3.771322265625,0.12012918520271777,0.06884907982051372,0.04783725318564102
1761915538016376000,3.7813759765625,0.18031798870563506,0.06968859938457608,0.014788111548125742
1761915538026430200,3.79143017578125,0.09871113412082194,0.05916895893588662,0.03564900367129594
1761915538036484900,3.80148486328125,0.0035737668335437773,0.12750994310379027,0.082447945051454
1761915538046539000,3.8115390625,-0.007296002227067947,0.1375331783376634,0.0603887465218082
1761915538056593000,3.821593017578125,-0.03496317683160305,0.13430647137612103,0.04037493621464818
1761915538066647000,3.83164697265625,-0.05381517681777477,0.13967691236808896,0.0968712418751791
1761915538076701200,3.841701171875,0.0283382057338953,0.1353802380874753,0.13130926232151685
1761915538086756000,3.851756103515625,0.13856968177855014,0.0678903177909553,0.10596596408728509
1761915538096810000,3.86181005859375,0.2040396405547857,0.021660189274698493,0.05510981973819434
1761915538106863900,3.87186376953125,0.24636311702132224,0.07059022439941763,0.04680884171966463
1761915538116918000,3.88191796875,0.34906244399547576,0.1000252854593098,0.06302106778677552
1761915538126972000,3.891971923828125,0.38311376667916774,0.06293064955696463,0.07587631157618016
1761915538137026000,3.902026123046875,0.4312760323017835,0.00227349788993597,0.09267916048020124
1761915538147081200,3.912081298828125,0.4935311206847429,-0.06482786148041486,0.0940391967870295
1761915538157135000,3.922135009765625,0.47569852687418457,-0.1734479568056762,0.07720343199409543
1761915538167189200,3.932189208984375,0.48013037184178825,-0.20688348567858336,0.09329922860730439
1761915538177243000,3.942242919921875,0.501515105175972,-0.15769772222712636,0.09289612769912928
1761915538187297000,3.952297119140625,0.46438861283063887,-0.09608210079148412,0.09010068829432129
1761915538197352200,3.962352294921875,0.40718145548701284,-0.0932338717535138,0.06163571437560021
1761915538207406000,3.972406005859375,0.23354922815561294,-0.06793912536874414,0.10079108220003545
1761915538217460200,3.982460205078125,0.1627840855807066,-0.049827860747277734,0.14701569429095834
1761915538227514000,3.99251416015625,0.12542904517650605,-0.10497034064605831,0.12956216292586176
1761915538237568300,4.002568359375,0.2148807680428028,-0.09050050126686691,0.08038472891133278
1761915538247623000,4.012622802734375,0.2858715360671282,-0.04381050015389919,0.009370543478801846
1761915538257677000,4.022677001953125,0.22381869225800036,0.012384119146317242,-0.0029713804936036467
1761915538267731000,4.03273095703125,0.13411679402291773,0.09055398501977324,0.057042322170734405
1761915538277785000,4.04278515625,0.09268880509138107,0.0847607885710895,0.047391792706772684
1761915538287839200,4.052839111328125,-0.02097790609896183,0.007917056734859942,0.03145147891622037
1761915538297894000,4.062893798828125,-0.12447802806198596,-0.00020648235753178596,0.05502561205346137
1761915538307948000,4.072947998046875,-0.06078560035228729,0.04108706653937697,0.056140039568766946
1761915538318002000,4.083001953125,0.0641314036488533,0.07282631288841367,0.011169373061694203
1761915538328056000,4.09305615234375,0.12795534878373147,0.09938333429396153,-0.02575787038449198
1761915538338110000,4.10310986328125,0.09433306516706944,0.11423092094436287,-0.02253507241308689
1761915538348164000,4.1131640625,0.015430793365836143,0.113146194447577,0.02198587756510824
1761915538358219300,4.12321923828125,-0.03178688488304615,0.06518500435501337,0.0382410659911111
1761915538368273000,4.13327294921875,-0.11082827289402485,0.03706248719841242,0.03817863174676895
1761915538378327000,4.1433271484375,-0.10741992575526237,0.07779840221256017,0.05530983582232147
1761915538388381000,4.153380859375,-0.028153496816754338,0.10157806785926222,0.03921747327521443
1761915538398435000,4.16343505859375,0.023861352580785748,0.08366364098414779,0.012503142416104673
1761915538408490000,4.173489990234375,0.054122635331749915,0.05512143711075186,-0.0057917716765776275
1761915538418544000,4.183544189453125,0.03342062356472015,0.06640358636453747,-0.0012303820451721548
1761915538428598300,4.193598388671875,0.05604629687070846,0.07971139622703194,-0.0013080503912642598
1761915538438652200,4.203652099609375,0.043992870983481404,0.015189824216812848,-0.02918287639711052
1761915538448706000,4.2137060546875,-0.014675591084361075,-0.043192952777445316,-0.014240451070107518
1761915538458761000,4.223760986328125,-0.04326631027460098,-0.0838872206069529,-0.00012943506594747305
1761915538468815000,4.233815185546875,-0.04060498211085796,-0.09149871852397919,-0.02325735880564898
1761915538478869000,4.243868896484375,0.0058341129809617994,-0.06795885298252105,-0.03828344382811338
1761915538488923100,4.253923095703125,0.012159808871150016,-0.023493688312172887,-0.034018151066452264
1761915538498977000,4.26397705078125,0.03129062579870224,0.03213745188638568,-0.018345548301376403
1761915538509032000,4.274031982421875,0.006875146466493606,0.09362024072259664,-0.004966317170485854
1761915538519086000,4.284086181640625,-0.11791209367513655,0.13728651010021567,0.02248714161813259
1761915538529140000,4.294139892578125,-0.2134393370628357,0.16830387191548943,0.07868588910419494
1761915538539194000,4.304194091796875,-0.2894166613280773,0.1545211380176246,0.10839768474623561
1761915538549248000,4.314248046875,-0.2578121472746134,0.13788257629722356,0.1043936732692644
1761915538559302100,4.32430224609375,-0.16472352921068667,0.10392390033304691,0.08865648083537817
1761915538569357000,4.334357177734375,-0.11006196469664573,0.05586509508490562,0.08406728988159447
1761915538579411000,4.344410888671875,-0.030213351956009864,0.044953678839653725,0.10191654256600886
1761915538589465000,4.354465087890625,0.03783142574429512,0.04712093987613916,0.09142824710365384
1761915538599519000,4.36451904296875,0.1106429794549942,0.044628684668987985,0.061441506977751845
1761915538609573000,4.374572998046875,0.1275000062316656,0.03358662778139114,0.053809185468405483
1761915538619628000,4.3846279296875,0.16299159085154533,-0.006158961021155119,0.0669513199077919
1761915538629682200,4.39468212890625,0.17020926714539528,-0.04776040682345629,0.09088212099559605
1761915538639736000,4.404736083984375,0.19192133273780346,-0.09381737072989343,0.09616422611698508
1761915538649790000,4.4147900390625,0.23389760320186614,-0.09282835969254374,0.09147358408272266
1761915538659844000,4.424843994140625,0.1863157678157091,-0.0752609926894307,0.09464644196517764
1761915538669899000,4.43489892578125,0.14563947403430938,-0.06680398385897278,0.08936400805022567
1761915538679953200,4.444953125,0.13865969814956186,-0.066766282197088,0.09354198785461484
1761915538690007000,4.455007080078125,0.16120763004422187,-0.07820596010014415,0.0797894298993051
1761915538700061200,4.465061279296875,0.2593617148041725,-0.08494768944531679,0.05490078009739518
1761915538710115000,4.475114990234375,0.2508832247942686,-0.044886604952812194,0.04350629304293543
1761915538720170000,4.485169921875,0.1853565673947334,0.03812456347197294,0.05469557638149708
1761915538730224000,4.49522412109375,0.10000058940947056,0.09014745004549622,0.048687787334062156
1761915538740278000,4.505278076171875,0.011989128479361533,0.11043182092234492,0.0718760629588738
1761915538750332200,4.515332275390625,0.05287000492215156,0.1129660155750811,0.07068279805369675
1761915538760386000,4.525385986328125,0.11251754115521907,0.06218494575619697,0.02540116590131074
1761915538770441000,4.53544091796875,0.056310500764846796,0.013599340154975652,-0.01717012958014384
1761915538780495000,4.5454951171875,-0.08073474792540072,0.034615532437711954,0.0006086516839452087
1761915538790549000,4.555549072265625,-0.1385316878557205,0.10614303768724202,0.02982488236138597
1761915538800603100,4.56560302734375,-0.164390936255455,0.1474507612399757,0.03745809891987592
1761915538810657000,4.575656982421875,-0.139886609596014,0.1486579450726509,0.031901633836515245
1761915538820711200,4.585711181640625,-0.09676701431572436,0.12812120686993003,0.032147352225892246
1761915538830766000,4.59576611328125,-0.01892623426616192,0.0615201982371509,0.05311546758320182
1761915538840820000,4.605820068359375,0.12107201901078224,-0.008690379194915294,0.046436501275934274
1761915538850873900,4.615873779296875,0.19317220958173273,0.0028678105212748047,0.014365502221882343
1761915538860928000,4.625927978515625,0.15671499480009077,0.07972966253608464,0.0077339552529156206
1761915538870982100,4.635982177734375,0.03385550785064697,0.10906360130906105,0.014499102006293832
1761915538881037000,4.646037109375,-0.014116203635931013,0.10312266695275903,0.023035751944221555
1761915538891091200,4.65609130859375,0.017170915031433105,0.08365998772233724,0.04237224751170724
1761915538901145000,4.66614501953125,0.090133859911561,0.037745062635093925,0.06320563057344407
1761915538911199000,4.676198974609375,0.1516027663528919,-0.04288257165402174,0.05324515837747603
1761915538921252900,4.6862529296875,0.12715280022919176,-0.059092532698810096,0.06342289005331694
1761915538931308000,4.69630810546875,0.08632277719080447,-0.03700184305235743,0.0869108792770654
1761915538941362200,4.706362060546875,0.09094576081633567,-0.03406754316613078,0.09379103071223945
1761915538951416000,4.716416015625,0.07795125468671321,-0.06952420260310173,0.08891195343378931
1761915538961469000,4.726468994140625,0.0769014533728361,-0.09115881904512643,0.10979359608404338
1761915538971524000,4.736524169921875,0.12412030066549777,-0.11917962939292191,0.14714553121570498
1761915538981578000,4.746577880859375,0.13851765933036803,-0.15091522248014808,0.15233071530126036
1761915538991632000,4.7566318359375,0.15111644414067268,-0.12320216290727257,0.14879044887851922
1761915539001685800,4.766685791015625,0.10727204171717167,-0.06258329742401839,0.14856380051579327
1761915539011740000,4.776739990234375,0.023172785794734953,-0.0048730128638446325,0.16088128416668623
1761915539021795000,4.786795166015625,-0.02446516369283199,0.029849633210152385,0.16245825115982443
1761915539031849000,4.796848876953125,-0.007224106034636497,0.033860914678126575,0.14570267546363175
1761915539041903000,4.806903076171875,0.0688064097225666,0.009558978722989558,0.11644216725304722
1761915539051957000,4.81695703125,0.08982757044136523,-0.018228315129876136,0.07622797455806285
1761915539062011000,4.827010986328125,0.12856734320223331,-0.00011515081226825714,0.052909642812795935
1761915539072065800,4.837065673828125,0.15270751272439956,0.04996799987033009,0.04002352896109223
1761915539082120000,4.847119873046875,0.11186989090144633,0.08655234816297888,0.03035637715589255
1761915539092173800,4.857173828125,0.01255786827802658,0.11435206310600042,0.01855082508251071
1761915539102228000,4.86722802734375,-0.03880582373440265,0.12502148728892207,0.04910491676758975
1761915539112282000,4.8772822265625,-0.041725510573387144,0.10439809371605514,0.038778095477260646
1761915539122336800,4.887336669921875,-0.0950619639635086,0.08449556176364421,0.06389098248910159
1761915539132391000,4.897390869140625,-0.0894932239204645,0.08961553512588143,0.08209949693996459
1761915539142444800,4.90744482421875,-0.02789280005395412,0.08017258399799465,0.043721287500485775
1761915539152499000,4.9174990234375,0.03655541445910931,0.08009645002186298,0.014771050815470517
1761915539162552800,4.927552734375,0.1100590420871973,0.11159604239612816,0.007332425247319042
1761915539172608000,4.93760791015625,0.17889467790424823,0.1005848190382123,0.002671959155611694
1761915539182662000,4.947661865234375,0.2020224555134773,0.04518865663930773,-0.018922434873878954
1761915539192715800,4.9577158203125,0.18997019867002962,0.007856558719277382,-0.001945288848876953
1761915539202770000,4.96777001953125,0.12904022141098975,-0.046560091122984884,0.03234327665679156
1761915539212823800,4.97782373046875,0.07762392242848873,-0.07308131056278944,0.0514498724585399
1761915539222879000,4.98787890625,0.08097498642206191,-0.05657894244268536,0.0721203565761447
1761915539232933000,4.99793310546875,0.08427695057690143,-0.04261486062854528,0.07180811228919774
1761915539242987000,5.007987060546875,0.04226093262434005,-0.016321458595246075,0.06062463763691484
1761915539253041200,5.018041259765625,-0.047155134406685825,0.00773307847008109,0.061704103436693546
1761915539263094800,5.0280947265625,-0.1026601640075445,0.018178776899725198,0.07283055067211389
1761915539273150000,5.03814990234375,-0.06007189912497997,0.008189590065926313,0.07918481506966053
1761915539283203800,5.048203857421875,0.07203297055363654,0.002457330024242401,0.08332841768041252
1761915539293258000,5.058258056640625,0.2249889050811529,0.019920944391936063,0.053204168779961765
1761915539303312000,5.068311767578125,0.2662859611093998,-0.004928250182420015,0.013975370393134652
1761915539313366000,5.078365966796875,0.21745792505443096,-0.003077215488255024,0.00852002759668976
1761915539323421000,5.0884208984375,0.1373866094738245,-0.006908756475150585,0.040788120125420387
1761915539333474800,5.098474853515625,0.04790741407871246,0.0007476034969091414,0.06173413324877619
1761915539343529000,5.108529052734375,0.0017348609685897826,0.0073734513774514196,0.07875935619920492
1761915539353582800,5.118582763671875,-0.04314589876532554,0.04766118423268199,0.09167221192736177
1761915539363637000,5.128636962890625,-0.010544190368056297,0.08345949671417474,0.10225614978391677
1761915539373692200,5.138692138671875,0.09250643426179886,0.0656733723938465,0.07643686806838959
1761915539383745800,5.148745849609375,0.21205051305294034,0.04475844852849841,0.028462526233308017
1761915539393800000,5.158800048828125,0.23609189837574956,0.03459390512779355,0.022055253006890416
1761915539403853800,5.168853759765625,0.1871481269866228,0.010758125379681587,0.03371891239155084
1761915539413908000,5.178907958984375,0.14373510171771048,0.005292261189222335,0.042971528579108416
1761915539423963000,5.188962890625,0.12787410024106502,-0.006334463718533516,0.04470164030734449
1761915539434017000,5.19901708984375,0.1257528703033924,-0.02616232299953699,0.06076119656339288
1761915539444071000,5.20907080078125,0.10240881959497929,-0.048230070161819454,0.0680152593448758
1761915539454124800,5.219124755859375,0.0621311697423458,-0.042286505457013845,0.09714519997835158
1761915539464179000,5.229178955078125,0.035922377252578734,-0.026805150947719812,0.11119973655492067
1761915539474233900,5.23923388671875,-0.006145078626275062,0.029544805044680832,0.09484130695015192
1761915539484288000,5.2492880859375,-0.018999884024262427,0.08676803674027324,0.08820888319835066
1761915539494342000,5.259341796875,-0.025159575697779653,0.09739932086989284,0.08683547595329583
1761915539504396000,5.26939599609375,0.03203121503293514,0.08904884115383029,0.0672827072866261
1761915539514450000,5.279449951171875,0.06962357132434845,0.05527063632309436,0.06220343126095831
1761915539524504800,5.2895048828125,0.07976736419796943,0.03739420337080955,0.05890723925977945
1761915539534559000,5.29955908203125,0.07646306195557118,0.04567541724294424,0.042070305423066015
1761915539544615000,5.309614990234375,0.09692541974782944,0.041859658347070214,0.057009260151349
1761915539554668800,5.319668701171875,0.0775116942256689,-0.00030146716460585594,0.07304707949962466
1761915539564724000,5.329723876953125,0.05997545301318168,-0.01438917535841465,0.09225987562220543
1761915539574777900,5.33977783203125,0.06676525928378105,-0.006764087307453155,0.09996045832848176
1761915539584832000,5.34983203125,0.11158289065361023,-0.011608312468230724,0.07693685347978026
1761915539594886000,5.359885986328125,0.17467150725126265,-0.018335867157578466,0.05412477248990908
1761915539604940000,5.36993994140625,0.20059856019020078,-0.035881899111717935,0.05645902412375435
1761915539614995000,5.379994873046875,0.1927817489594221,-0.043810207892954346,0.039528840779326856
1761915539625048800,5.390048828125,0.16114216359257696,-0.06869388925880193,0.03974513214481994
1761915539635103000,5.40010302734375,0.13411679402291773,-0.05894084926843643,0.03576879412606358
1761915539645156900,5.410156982421875,0.092246906542778,-0.034060675033926964,0.04574398896712809
1761915539655211000,5.4202109375,0.03348024479746818,-0.004265986881405115,0.06413922162912786
1761915539665266000,5.430265869140625,-0.01670271299779415,0.008878887504339218,0.08653833790393546
1761915539675319800,5.44031982421875,-0.03882102130353451,0.01261120590046048,0.0980049768791534
1761915539685374000,5.4503740234375,-0.03403846320211887,0.012802490688860416,0.10953996838284656
1761915539695427800,5.460427734375,0.0113327103972435,-0.035824031444638964,0.10840707362908869
1761915539705482000,5.47048193359375,0.024397359153628347,-0.060960226266831154,0.08356131312083452
1761915539715537000,5.480536865234375,-0.008720482072234153,-0.0627373189419508,0.09466251631714404
1761915539725591000,5.490591064453125,-0.061217562028765674,-0.04567483272105455,0.1003485625969246
1761915539735645000,5.50064501953125,-0.07657762824594974,-0.013226707450300454,0.09869927928624674
1761915539745698800,5.51069873046875,-0.038837972438335415,0.03141673639640212,0.07635781148280948
1761915539755753000,5.5207529296875,-0.012569558715820313,0.07315861358270048,0.06521192889455706
1761915539765807900,5.530807861328125,-0.043020226559042925,0.10225538259893655,0.08561987135214731
1761915539775862000,5.540862060546875,-0.09538520456850529,0.09166033882647752,0.09927105129221454
1761915539785916000,5.550916015625,-0.090613167861104,0.07481441796571016,0.07445005989903583
1761915539795970000,5.560969970703125,-0.0797948367267847,0.07058087204918265,0.055015839578118175
1761915539806025000,5.57102490234375,-0.02081657805740833,0.10196779782921075,0.06164462833441794
1761915539816078800,5.581078857421875,0.017564298263192175,0.12281930106952786,0.05836051036352291
1761915539826133000,5.591133056640625,0.05419862317740917,0.10686886774376034,0.037665384995006025
1761915539836187000,5.601186767578125,0.11577683521211146,0.06392652872651815,0.03548299945462495
1761915539846241000,5.611240966796875,0.15549918926954268,-0.013679419653862714,0.04284253190457821
1761915539856296000,5.6212958984375,0.22152678192853925,-0.08153364321812986,0.029034462636057287
1761915539866349800,5.631349853515625,0.2992015577614307,-0.09832374223843217,-0.007502283655200153
1761915539876404000,5.641404052734375,0.2810170817732811,-0.04562281027287245,-0.015157109257299453
1761915539886457900,5.651457763671875,0.1616080275386572,0.01528860841616988,-0.008530658588558435
1761915539896512000,5.661511962890625,0.09790157130360602,0.03895516907721758,-0.005531385441031307
1761915539906566000,5.67156591796875,0.11308218930065632,0.023676205272227524,0.006817680658213794
1761915539916621000,5.68162109375,0.19355974759459493,0.004048252477496862,0.0099643081208691
1761915539926675000,5.691675048828125,0.2377431727141142,0.005941665008664131,0.022335622584540395
1761915539936728800,5.701728759765625,0.21151918265521524,0.04712313183322549,0.020430099490471185
1761915539946782700,5.71178271484375,0.13032616956830023,0.11185381654947996,0.030558932256978002
1761915539956836900,5.7218369140625,0.043599487751722336,0.1684898960068822,0.030803901727683842
1761915539966892300,5.731892333984375,-0.034385084682703015,0.18576997050121424,0.040465537107549604
1761915539976946400,5.741946533203125,-0.09567454290390014,0.12916034065932036,0.058643108430877326
1761915539987000600,5.75200048828125,-0.10543196680843829,0.025768355245888233,0.09799761555660516
1761915539997054500,5.762054443359375,-0.05889174942970275,-0.0700762835279107,0.12091982412375508
1761915540007109400,5.772109375,0.03868950387835502,-0.1977854024656117,0.11283013250203802
1761915540017163300,5.782163330078125,0.1038496660530567,-0.21943521647676825,0.10335554412687196
1761915540027217400,5.792217529296875,0.1521130539625883,-0.12659049017131327,0.12109826769689097
1761915540037271300,5.802271240234375,0.1501613353729248,-0.027829087167978286,0.11314111641366034
1761915540047325400,5.812325439453125,0.10150456423163413,0.03905073840618133,0.09754587146742269
1761915540057380400,5.82238037109375,0.03234627233147621,0.05811258175075054,0.10447097628917544
1761915540067434200,5.832434326171875,-0.016224574092030524,0.03319046807065606,0.12123237893795594
1761915540077488400,5.84248828125,-0.010431962165236473,-0.013908259973675011,0.14087598595954476
1761915540087542300,5.852542236328125,0.031010639813542365,-0.04734145075902343,0.13129777281312272
1761915540097596400,5.862596435546875,0.08885434149503707,-0.0594058364316821,0.08911830792715772
1761915540107651300,5.8726513671875,0.1306675303518772,-0.0505621663711965,0.06650890990253537
1761915540117705500,5.88270556640625,0.13072948967218398,-0.04336757869198918,0.048867217287886885
1761915540127759400,5.89275927734375,0.0923953751027584,-0.025453882469236848,0.04264107278203592
1761915540137813200,5.902813232421875,0.0255453601449728,-0.009833557880669832,0.054400118832569566
1761915540147867400,5.912867431640625,0.023844985967874526,-0.010354951406270265,0.0818456683093682
1761915540157922300,5.92292236328125,0.12768822228014468,-0.038410102415084836,0.07112106160679832
1761915540167976400,5.9329765625,0.21859072847664354,-0.04918532506003975,0.041872536094952374
1761915540178030300,5.9430302734375,0.2809112833112478,-0.026695845354348418,0.028489669968560335
1761915540188084500,5.95308447265625,0.23274551055729387,0.021806758138537406,0.03862741669388488
1761915540198138000,5.96313818359375,0.10815408524870872,0.05658537218347191,0.047487690829299385
1761915540208193300,5.973193359375,-0.004457563930749893,0.08865092787742614,0.0410707181927748
1761915540218247400,5.983247314453125,-0.09836509716212749,0.09571414426192641,0.02135260289655998
1761915540228301300,5.99330126953125,-0.06686696609258651,0.10740896596983074,0.033964959574490784
1761915540238355500,6.00335546875,0.02347790622115135,0.10858517014235257,0.039035102445632214
1761915540248409300,6.013409423828125,0.09180793060362338,0.09223477771356701,0.03135475880978629
1761915540258464300,6.02346435546875,0.12542904517650605,0.03732274556979537,0.028523827966488897
1761915540268518400,6.033518310546875,0.1401046362608671,-0.029423955143988132,0.0032196926988661287
1761915540278572300,6.043572265625,0.1594856285572052,-0.01854994829967618,0.02230188471172005
1761915540288626400,6.05362646484375,0.12831015357077122,0.007029314114898443,0.04374514330010861
1761915540298680300,6.063680419921875,0.05583411542475223,0.047923926822096105,0.059436213303636756
1761915540308735500,6.073735595703125,-0.06905775413513184,0.10594020859152078,0.08733321460867301
1761915540318789000,6.0837890625,-0.15851181508898735,0.1473361949495971,0.10837023048372939
1761915540328843300,6.09384326171875,-0.17644494666457175,0.1459960323870182,0.10788434666292741
1761915540338897400,6.1038974609375,-0.0678869567900896,0.1042668685518205,0.09236755551407114
1761915540348951300,6.113951416015625,0.13054361171126364,0.02892141244933009,0.05092139160502702
1761915540359006500,6.12400634765625,0.2584118667334318,-0.03925400589331984,0.03473999906759709
1761915540369060400,6.134060302734375,0.3508177632302046,-0.08852481727972626,0.015693280226923526
1761915540379114500,6.144114501953125,0.39366730939745903,-0.14616788182258605,-0.011009031400829553
1761915540389168400,6.15416845703125,0.30827216844558714,-0.17783786232769488,-0.0023664734030142427
1761915540399222300,6.16422216796875,0.1603355233848095,-0.15578049042895437,0.036081312407646324
1761915540409277400,6.17427734375,0.037867081579565996,-0.10541881506592035,0.07259323478490114
1761915540419331300,6.184331298828125,-0.011090133813023567,-0.060103317176550625,0.10067693603476509
1761915540429385500,6.194385498046875,-0.0033949031352996824,-0.017225860089063644,0.12012089229840785
1761915540439439400,6.204439453125,0.031137481063604353,0.02772635744586587,0.11667550108488649
1761915540449493500,6.214493408203125,0.03860942437946796,0.027689824827760456,0.10026172456368804
1761915540459548200,6.224548095703125,0.03383095793128013,0.014555033444613218,0.09854496550736948
1761915540469602300,6.234602294921875,0.05311550411581993,-0.011249123767018317,0.09533552020788193
1761915540479656400,6.244656494140625,0.04732873740792274,-0.0176036073602736,0.07422244342193007
1761915540489710300,6.25471044921875,0.03464110527038574,-0.006432078874111175,0.07169624941255896
1761915540499764500,6.264764404296875,0.059094578525424,0.039647535255551335,0.06351135378805921
1761915540509819400,6.2748193359375,0.0885217485398054,0.0752690298654139,0.05491774949850514
1761915540519873300,6.284873291015625,0.11230419066548347,0.08491305652335286,0.050675837612431496
1761915540529927200,6.29492724609375,0.14879939936995507,0.06537658140435815,0.02584684557588771
1761915540539981300,6.304981201171875,0.17300737343132494,0.0404527141585946,0.02100168883334845
1761915540550035200,6.31503515625,0.17047054843008516,0.035975861005485055,0.027927323378063737
1761915540560090400,6.32509033203125,0.1380745917379856,0.024552111323922873,0.03692212887965143
1761915540570144500,6.33514453125,0.07049275537431239,-0.005431231268495321,0.05022840437218547
1761915540580198400,6.345198486328125,0.06759820297658443,0.0012881401143968105,0.060428731472324575
1761915540590252300,6.355252197265625,0.05284077882766723,0.01778480914607644,0.03172087044212967
1761915540600306200,6.36530615234375,0.07248597501814365,0.038974166038632393,-0.002461312079615891
1761915540610361300,6.375361328125,0.12846271378397942,0.04796279752776027,-0.03543355255601927
1761915540620415500,6.38541552734375,0.12756781077086926,0.047587096083164214,-0.06228897238625213
1761915540630469400,6.395469482421875,0.08888298306763172,0.010332155052572489,-0.06769817448602988
1761915540640523500,6.4055234375,0.07433832488656043,-0.02120981515869498,-0.04211995325107127
1761915540650578200,6.415578125,0.12659633539021015,-0.061738663293421266,-0.04557588412491605
1761915540660632300,6.42563232421875,0.1274035601198673,-0.07040069317668676,-0.032506285198777914
1761915540670686200,6.435686279296875,0.113679570671916,0.004450695798546076,0.03033970001572743
1761915540680740400,6.445740234375,0.03474690373241901,0.04631999875679612,0.05810880062477663
1761915540690794200,6.455794189453125,-0.030233810222148893,0.02386559036448598,0.0370211688073352
1761915540700849400,6.465849365234375,-0.051287119644880294,0.055617988456040615,0.04972191615477204
1761915540710903300,6.4759033203125,-0.017664251506328582,0.06854089065417647,0.0867884402074851
1761915540720957200,6.485957275390625,0.0384685546040535,0.03623597324639559,0.11437867711829021
1761915540731011300,6.49601123046875,0.11550269444584846,-0.014116934288293123,0.10988134743273258
1761915540741065200,6.506065185546875,0.13321487674713134,-0.053246875410526986,0.11071536883777007
1761915540751120400,6.516120361328125,0.1297135906279087,-0.06704831400886177,0.09996186483427881
1761915540761174500,6.526174560546875,0.11960779167711734,-0.027262539326399562,0.09726362045994028
1761915540771228400,6.536228515625,0.10427812059819698,0.01891322865411639,0.10498294439930468
1761915540781282300,6.5462822265625,0.044189270338416096,0.06160334647595882,0.10486983941365033
1761915540791336200,6.556336181640625,-0.06814180833399296,0.09111921768710017,0.10839225965244695
1761915540801391400,6.566391357421875,-0.10568740287423133,0.10841638944670558,0.10565099812028929
1761915540811445200,6.5764453125,-0.04777355856597423,0.06326704190447927,0.08555584793891757
1761915540821499400,6.58649951171875,0.08530454005897045,0.020975714141875504,0.056461873667966574
1761915540831553500,6.596553466796875,0.2206657811850309,0.006705488988012075,0.029654859556723385
1761915540841607400,6.606607421875,0.321601605618,-0.01783712385520339,0.016297146137896925
1761915540851662300,6.616662353515625,0.3306248700290918,-0.042413931228965515,0.0017978797348216175
1761915540861716200,6.62671630859375,0.21958032403588293,-0.08356237256675958,0.018628347298130392
1761915540871770400,6.636770263671875,0.057179100292921066,-0.08401727672740816,0.04040545921707526
1761915540881824300,6.64682421875,-0.027468437162041663,-0.018341566246002913,0.07043015673318877
1761915540891878400,6.65687841796875,-0.034167642539739605,0.027805998553335664,0.0680519928923808
1761915540901933300,6.666933349609375,-0.02304536002278328,0.08594181504920125,0.02891494617592543
1761915540911987200,6.6769873046875,-0.031472412106394766,0.1691603426143527,0.04262395725045353
1761915540922041300,6.687041259765625,-0.08552139768004417,0.18239654854536055,0.0546417273024097
1761915540932095200,6.69709521484375,-0.0501671757042408,0.12853534062877298,0.05305734418779611
1761915540942149400,6.7071494140625,0.037709260669350625,0.045927784568816424,0.048855800844728944
1761915540952204500,6.71720458984375,0.1550111134916544,-0.049662733313441274,0.04343636961188167
1761915540962258700,6.7272587890625,0.20288930147588252,-0.09903642055243253,0.05925968769295141
1761915540972312600,6.7373125,0.19277531921863555,-0.09641206339821219,0.04798212328273803
1761915540982366500,6.747366455078125,0.13034370522499084,-0.042161271642148494,0.05853648798493668
1761915540992420600,6.757420654296875,0.022780571606755257,0.029637305633723732,0.06111627534506842
1761915541002475500,6.7674755859375,-0.05319675265848636,0.06936360521391034,0.04941630253801122
1761915541012529700,6.77752978515625,-0.06857435453236102,0.08683101897388697,0.051419385988730935
1761915541022583600,6.78758349609375,-0.05378069002628326,0.06586728753075004,0.05984212722340598
1761915541032637700,6.7976376953125,-0.014178747478127479,0.00820259567797184,0.060889864444360134
1761915541042691600,6.807691650390625,0.0849362912684679,-0.04825768882110715,0.04878996906690299
1761915541052746500,6.81774658203125,0.18542963263094425,-0.07088935347646474,0.026259481497388333
1761915541062800600,6.827800537109375,0.23082652519345281,-0.049836190184205764,0.0038382629886269566
1761915541072854500,6.8378544921875,0.16271686556339263,-0.041320144642889495,-0.012985537371877581
1761915541082908700,6.84790869140625,0.09345745137631893,-0.013880787444859743,0.012427392032463102
1761915541092962600,6.857962646484375,0.017037644040584565,-0.028503040906786917,0.02654120278190821
1761915541103017500,6.868017578125,-0.038299043256044385,-0.033984394927322865,0.051342777088563885
1761915541113071400,6.8780712890625,-0.00220423204600811,-0.052889732535928484,0.07803966362252832
1761915541123125500,6.88812548828125,0.08403203590512275,-0.0764281367726624,0.0881763874345459
1761915541133179600,6.8981796875,0.14148352339863776,-0.05808613213524222,0.08016726850206032
1761915541143233500,6.908233642578125,0.12683072866797446,-0.024974136128276585,0.053695769955497234
1761915541153288700,6.918288818359375,0.008615268132090568,0.004671645072847604,0.03744427132392302
1761915541163342600,6.928342529296875,-0.07166121463179588,0.0754269969061017,0.06323450960805639
1761915541173396500,6.938396484375,-0.10230945087373255,0.07235548050627112,0.058710364980809386
1761915541183450400,6.948450439453125,0.010214520022273063,0.05310220624282956,0.038438579590898005
1761915541193504500,6.95850439453125,0.157650814345479,0.025669571046531198,0.017646131327748296
1761915541203559700,6.9685595703125,0.21102526165843008,0.013898615362495183,0.030597876027878373
1761915541213613600,6.978613525390625,0.1457470260620117,0.014940379500389098,0.03469257972929626
1761915541223667700,6.988667724609375,0.08299977024793624,0.013665683389455079,0.03802424490265548
1761915541233721600,6.9987216796875,0.08245441132485866,0.0034101007044315336,0.038971243429183955
1761915541243775500,7.008775390625,0.15250409910678864,-0.024146014741063117,0.036761513224150985
1761915541253830700,7.01883056640625,0.2491612233072519,-0.02092734495550394,0.041994555039424446
1761915541263884500,7.028884521484375,0.2518073539018631,0.006943681658059358,0.05028797080600634
1761915541273938700,7.038938720703125,0.1280062021881342,0.05916019110754132,0.0725612322114408
1761915541283992600,7.04899267578125,-0.031821956196427345,0.11871142735928296,0.08824276720164344
1761915541294046700,7.059046630859375,-0.08035422417521476,0.1392135326400399,0.08112301659062504
1761915541304101400,7.069101318359375,-0.003933247795701027,0.11465353027060628,0.05839313399149105
1761915541314155500,7.079155517578125,0.1593593718290329,0.059012160938978195,0.022326051038596778
1761915541324209400,7.08920947265625,0.2262000344365835,-0.012780863378942011,0.019564714832790195
1761915541334263600,7.099263671875,0.24981354973614214,-0.06832680951207876,0.024449399868119507
1761915541344318700,7.109318603515625,0.2268178740739822,-0.084509005767107,0.02877424079729244
1761915541354372600,7.11937255859375,0.14978373423218727,-0.06575871258974075,0.04895253921747207
1761915541364426500,7.129426513671875,0.04385083216428756,-0.018432605530321597,0.049523525772150606
1761915541374480400,7.13948046875,0.0032680618852376935,0.022293957133591173,0.05506132268765941
1761915541384534500,7.149534423828125,-0.04386778329908848,0.04210442688837647,0.08459483915334567
1761915541394589700,7.159589599609375,-0.0571077886223793,0.03213175279796123,0.10542561013288795
1761915541404643600,7.1696435546875,-0.10727087267339229,0.017279051581025124,0.1087946116419509
1761915541414697700,7.17969775390625,-0.1611754813402891,0.03391659038811922,0.12331992580173537
1761915541424751600,7.189751708984375,-0.09300736952126025,0.032778380138427016,0.09021940103685483
1761915541434805500,7.199805419921875,0.02819090621769428,0.0820030142955482,0.07453574715480207
1761915541444860400,7.2098603515625,-0.007999182060360908,0.08849398375004529,0.06326313291434198
1761915541454914600,7.21991455078125,-0.03270341520607471,0.08963204786926507,0.059759928832668806
1761915541464968400,7.229968505859375,0.04190846592485904,0.03887187470793724,0.04127102653784677
1761915541475022600,7.240022705078125,0.0102390699416399,0.02348674711473286,0.01475243744654581
1761915541485076700,7.25007666015625,0.07197510288655758,0.06033771045431494,0.042207193143106995
1761915541495131400,7.26013134765625,0.16173486878871918,0.03851663152948022,0.020344065174832938
1761915541505185500,7.270185546875,0.23598376182615755,0.004526318318024278,0.0025440219270065423
1761915541515239400,7.280239501953125,0.21228373728692532,-0.020448548462614416,0.007440598329529166
1761915541525293600,7.29029345703125,0.16616028401553629,-0.03225567143857479,0.021396094978414475
1761915541535347500,7.300347412109375,0.14569208100438116,-0.031589462614804505,0.039256051719933745
1761915541545402600,7.310402587890625,0.12932371452748775,-0.03298449716977775,0.03723061030693352
1761915541555456500,7.32045654296875,0.10661036293804645,-0.03767353176884353,0.04613865084052086
1761915541565510400,7.330510498046875,0.08875672633945941,-0.035212986874207854,0.047009442325681446
1761915541575564500,7.340564453125,0.030637130326032637,-0.008175561540573835,0.03217292505856603
1761915541585618400,7.350618408203125,-0.026226912668347358,0.04275083503313362,0.054305882944166654
1761915541595673600,7.360673583984375,-0.02923895396590233,0.03862951731942594,0.028265761552192268
1761915541605727700,7.370727783203125,0.03795943603813648,0.014715411638095975,0.02018299286160618
1761915541615781600,7.38078173828125,0.12704407915771007,-0.001401464295759797,0.018052045247517527
1761915541625835800,7.390835693359375,0.19247779757678507,-0.03283471343554556,0.02003448776900768
1761915541635889400,7.400889404296875,0.22021686837375162,-0.04779219020120799,0.043243112062104044
1761915541645944600,7.410944580078125,0.18350363300442696,-0.02623487677909434,0.06565565407406539
1761915541655998500,7.42099853515625,0.025992519390583037,0.011707388928532599,0.08635920021105557
1761915541666052600,7.431052490234375,-0.09450491460263728,0.031379984582588075,0.10877291126679628
1761915541676106500,7.4411064453125,-0.1393599553734064,0.046690658700093625,0.1187879266615957
1761915541686160600,7.45116064453125,-0.07896423112154007,0.08970562456212937,0.135306661394611
1761915541696215600,7.461215576171875,0.0030202246040105817,0.08299151387624443,0.13565456151682884
1761915541706269400,7.47126953125,0.02528174077272415,0.022480200420692563,0.09699494132008403
1761915541716323600,7.481323486328125,0.04900631523132324,-0.02652618787586689,0.07760466973874718
1761915541726377500,7.49137744140625,0.14409282911419868,-0.058463221819326276,0.06645411097537726
1761915541736431600,7.501431640625,0.28037352317273617,-0.04036437828801572,0.05306300674360245
1761915541746486800,7.51148681640625,0.2843319054096937,-0.03225749806948006,0.06274758460763842
1761915541756540400,7.52154052734375,0.19269290163218974,-0.03916954248026013,0.07939330672118812
1761915541766594600,7.531594482421875,0.14555881001353263,-0.017399974546954036,0.09724219407942146
1761915541776648400,7.5416484375,0.06844283710718155,-0.04540661023892462,0.08249525479190051
1761915541786703600,7.55170361328125,0.0874158331245184,-0.06426292107403278,0.07665102227572351
1761915541796757500,7.561757568359375,0.19300912797451017,-0.05708806100860238,0.053476446382701395
1761915541806811600,7.571811767578125,0.1964326726824045,-0.04202792758606374,0.01934000269882381
1761915541816865500,7.581865478515625,0.0832756645798683,-0.000656125821173191,0.017648761676251887
1761915541826919700,7.591919677734375,0.018288520884513854,0.015099223323911427,0.015250249167159198
1761915541836974600,7.601974609375,0.019535890597105025,0.019995763193815946,0.013539280530810355
1761915541847028500,7.612028564453125,0.039623569858074185,-0.0049880175456404685,0.01726458466425538
1761915541857082600,7.62208251953125,0.044966684451699254,-0.01598287429064512,0.01141965802833438
1761915541867136500,7.632136474609375,0.06646481503248214,0.015629823069274424,0.01554331382960081
1761915541877190700,7.642190673828125,0.0920645357131958,0.023564123199880122,0.014847403987310825
1761915541887245600,7.65224560546875,0.08286240760385989,0.019447335530817508,0.01453304080851376
1761915541897299500,7.662299560546875,0.04037409596443176,0.007658040472492575,0.020682722544670105
1761915541907353600,7.672353515625,0.0021913725644350053,0.01359393332749605,0.0032479324126616117
1761915541917407500,7.682407470703125,-0.005707856252789497,0.03845693723149597,0.0005786036055535077
1761915541927461600,7.692461669921875,0.03877367503046989,0.06632131490856409,0.023231932103447615
1761915541937516500,7.7025166015625,0.09879530527293681,0.07130611758381128,0.025211634678579866
1761915541947570700,7.71257080078125,0.12890052067935465,0.043225759068503976,0.03226162625532597
1761915541957624600,7.72262451171875,0.1400625506848097,0.0547713084988296,0.032963125588186086
1761915541967678200,7.73267822265625,0.11689561010897159,0.06092493575774133,0.041751521797478194
1761915541977732400,7.742732421875,0.10079729274511337,0.07244352411590516,0.05335599834080785
1761915541987787300,7.752787353515625,0.050180035185813904,0.07033851466067136,0.052929078165628016
1761915541997841400,7.76284130859375,0.039536476096510884,0.05622998287454247,0.04754004207104444
1761915542007895300,7.772895263671875,0.05003273566961288,0.0644237376589328,0.072455945206061
1761915542017949400,7.782949462890625,0.05656476778686046,0.02293890397362411,0.0691294859307818
1761915542028003300,7.79300341796875,0.08887246167361736,-0.02507233580574393,0.041551743175368756
1761915542038058200,7.803058349609375,0.10009703552126883,-0.011537366123870015,0.05148662427235395
1761915542048112400,7.8131123046875,0.05058920050859451,0.010607318732142448,0.07968443515487014
1761915542058166300,7.823166259765625,0.020789105528593064,0.01658383585847914,0.07869215444820002
1761915542068220400,7.833220458984375,0.007899813339114188,0.004732289218902588,0.06816111582266167
1761915542078274300,7.8432744140625,0.017447393885254858,0.007789119506254792,0.07464874254260212
1761915542088329200,7.8533291015625,0.07694646155834198,0.002750613882392645,0.05896386481784284
1761915542098383000,7.863383056640625,0.13593056544661522,-0.004152954960986972,0.050025666608009486
1761915542108437200,7.873437255859375,0.12418342902958393,-0.0032123131100088354,0.05805665031243115
1761915542118491400,7.883491455078125,0.02313771448135376,-0.002627498959377408,0.05269601832842454
1761915542128545300,7.893545166015625,-0.11489888333380222,0.01659523403532803,0.08991186945764347
1761915542138600400,7.903600341796875,-0.1989174752354622,0.03895874927379191,0.10945592509489506
1761915542148654300,7.913654296875,-0.17320786443948744,0.043005394316092134,0.08391204452095553
1761915542158708200,7.923708251953125,-0.08486614864170551,0.04880428985320032,0.054213784213922915
1761915542168762000,7.93376220703125,0.01870996116697788,0.06541998215466738,0.03606352102262899
1761915542178816300,7.943816162109375,0.09054536332190036,0.0739053402967751,0.04397752728387713
1761915542188871400,7.953871337890625,0.09838380186259746,0.05615004950612783,0.011443385963793844
1761915542198925300,7.96392529296875,0.011259645161032675,0.03761814831979573,0.022773557344079015
1761915542208979500,7.9739794921875,-0.05570668965280055,0.003722892980650067,0.02473870167089626
1761915542219033300,7.984033447265625,-0.01706687013506889,0.028588161906972526,0.026943189445231108
1761915542229087200,7.994087158203125,0.10224456894397735,0.049810398155823346,0.009564878740813583
1761915542239142400,8.004142333984374,0.21449089194238186,0.08756006390079855,-0.000008512100018560887
1761915542249196300,8.0141962890625,0.24791736072599888,0.10102715597823261,0.006339651350304484
1761915542259250400,8.02425048828125,0.23551263718307017,0.07987403944283723,0.019930333274789155
1761915542269304300,8.03430419921875,0.18289280762970447,0.04117123769149184,0.022989757378026842
1761915542279359200,8.044359130859375,0.10197276626527309,0.030973376543074846,0.03522701539956033
1761915542289413000,8.0544130859375,0.03316401845514774,0.043063919570297,0.04024305346328765
1761915542299467300,8.06446728515625,0.02609831785261631,0.0490843489035964,0.05575801798123866
1761915542309521200,8.074521240234375,0.052855391874909396,0.03213745188638568,0.07258249419517815
1761915542319575300,8.0845751953125,0.1223456922084093,0.006555705253779888,0.06526300149466842
1761915542329630500,8.09463037109375,0.2060404589831829,-0.020483254449814556,0.05631784382108598
1761915542339684400,8.104684326171874,0.27386136479973794,-0.024349282228201628,0.028687640226073563
1761915542349738200,8.11473828125,0.3249742969214916,0.008694178587198257,0.015166516406461595
1761915542359792000,8.124792236328124,0.24647943687736987,0.04932034961655736,0.01540295551083982
1761915542369846300,8.13484619140625,0.07349836693108082,0.08086860343813895,0.04530008112452924
1761915542379901400,8.1449013671875,-0.02744680985212326,0.10627367832958698,0.06987838633563369
1761915542389955300,8.154955322265625,-0.07353110015690326,0.0822333159200847,0.09503494809241965
1761915542400009500,8.165009521484375,-0.055549453264474864,0.04351926212236285,0.1141612715079449
1761915542410063400,8.1750634765625,0.011316343784332274,0.024924597898125646,0.09093355892188847
1761915542420117500,8.185117431640625,0.013487842604517936,0.051905251543223854,0.07567187504526228
1761915542430172200,8.195172119140626,-0.016366028389334677,0.09495470419675112,0.06542241157377138
1761915542440226300,8.205226318359376,-0.025216274321079254,0.11447627400755882,0.04507441914249211
1761915542450280200,8.2152802734375,0.01581833137869835,0.10199000966101884,0.04604910939354449
1761915542460334300,8.225334228515624,0.12697802818417547,0.061400663510709996,0.06991579573657364
1761915542470388500,8.235388427734375,0.23847616316378115,-0.02578428346738219,0.06802614606507122
1761915542480443100,8.245443115234375,0.2777531115412712,-0.11425590925514698,0.05095343071110546
1761915542490497300,8.255497314453125,0.25084172374010083,-0.15593685003444552,0.04454878783319145
1761915542500551200,8.26555126953125,0.12581950579881668,-0.11273907495141029,0.06551655613062903
1761915542510605300,8.275605224609375,0.018445172750949857,-0.03935103652700782,0.10018886025687679
1761915542520659200,8.2856591796875,-0.021901450684666632,0.012879647578299045,0.09471963506555184
1761915542530714400,8.29571435546875,-0.03270750685930252,0.03488105150610208,0.08640119445556774
1761915542540768500,8.3057685546875,-0.03625613925158977,0.018753069656342266,0.10912347827013581
1761915542550822100,8.315822265625,0.035171266624331475,-0.027180414000898597,0.1100128100589849
1761915542560876300,8.325876220703124,0.16237901191115378,-0.09943506448119878,0.08581303757037967
1761915542570930200,8.33593017578125,0.2929647091984749,-0.12577902765795587,0.06378149423263967
1761915542580985300,8.3459853515625,0.29385552055835723,-0.09764072841033339,0.07239906391967088
1761915542591039500,8.35603955078125,0.2036667155891657,-0.05012158299684524,0.061407348979823285
1761915542601093400,8.36609326171875,0.12227379601597785,-0.0359990957506001,0.05238879727646708
1761915542611147500,8.3761474609375,0.039351767179369924,-0.026216245143860575,0.04771059459866955
1761915542621201200,8.386201171875,-0.005636544582247734,-0.0055438247974961994,0.04420214808629826
1761915542631256300,8.39625634765625,-0.07401683784723281,0.018234598740190268,0.03409293333571404
1761915542641310200,8.406310302734376,-0.1263718789845705,0.06783756469041109,0.025344923935737458
1761915542651364400,8.4163642578125,-0.11508826842606067,0.1382717217452824,0.025360797358304262
1761915542661418200,8.426418212890624,-0.07664251017570495,0.17947452361881733,0.021964323320426044
1761915542671472400,8.436472412109374,-0.05076046542227268,0.20053616247847675,0.009928012964781373
1761915542681527300,8.44652734375,-0.0676607468187809,0.1818181641355157,0.006280377177428454
1761915542691581200,8.456581298828125,-0.09124269793629645,0.09530585572198033,0.008662303877901286
1761915542701635300,8.46663525390625,-0.06466273404657841,0.015666501817852257,0.03028004225036129
1761915542711689200,8.476689208984375,0.06113280635476112,-0.01749371724501252,0.05350331612331792
1761915542721743400,8.486743408203125,0.10425473972260951,-0.01219919103346765,0.03348775225048885
1761915542731798500,8.496798583984376,-0.019456980141997336,0.06534867048412561,0.04790065554436296
1761915542741852200,8.50685205078125,-0.11865209838747978,0.14937646860554812,0.08032119868844748
1761915542751906300,8.51690625,-0.11192308239340781,0.13719130609743296,0.07658805830841883
1761915542761960200,8.526960205078124,-0.05632102215886116,0.06937792600020766,0.07145579172018915
1761915542772014300,8.537014404296874,0.04600362628400326,-0.010790566344559192,0.08617898480594158
1761915542782069200,8.5470693359375,0.15552666179835795,-0.11188362716585397,0.09294798575052991
1761915542792123400,8.557123291015625,0.2092857245147228,-0.17823738303929565,0.08611607563756406
1761915542802177300,8.56717724609375,0.14732348159849643,-0.17377748102098703,0.120277598963771
1761915542812231400,8.5772314453125,0.22479835094511508,-0.18851430077329276,0.10062725167414173
1761915542822285300,8.587285400390625,0.26648060689866543,-0.17664806802123784,0.06332779564838856
1761915542832340200,8.59734033203125,0.2630529705375433,-0.09793751939982175,0.06111724345944822
1761915542842394400,8.607394287109376,0.1882721625804901,-0.053518385828286406,0.04930582790086046
1761915542852448300,8.6174482421875,0.10425123259127139,-0.02837985291853547,0.05555610220097005
1761915542862502400,8.62750244140625,0.07903028209507465,-0.02658244810774922,0.08396456015948206
1761915542872557300,8.637557373046874,0.09237433231472969,-0.07388342072591185,0.06851294320132582
1761915542882611200,8.647611083984375,0.1311556061297655,-0.09524535770639776,0.05242006919756531
1761915542892665300,8.657665283203125,0.14626374341249465,-0.03892623524367809,0.05477291593402624
1761915542902719200,8.66771923828125,0.12212532745599745,0.010035364063084124,0.03406140568628907
1761915542912773400,8.6777734375,0.0858031372308731,0.04344795045182109,0.022069829521514473
1761915542922828300,8.687828369140625,0.09211012842059135,0.071637687625736,0.009611603959370404
1761915542932882400,8.69788232421875,0.10452420431375503,0.06788447257205843,0.0010976955762133003
1761915542942936300,8.707936279296876,0.14153086967170236,0.04447817028239369,0.0035285577186383306
1761915542952990200,8.717990234375,0.16657237194776534,-0.0008083937734365463,0.022229403997398912
1761915542963042300,8.728042236328125,0.16701485501825808,-0.003914396964758635,0.021159199216309935
1761915542973096400,8.738096435546876,0.13852525811493396,-0.018770897573977707,0.021980196742992848
1761915542983150600,8.748150634765626,0.1001034652620554,0.0021156769797205923,0.011799031001050024
1761915542993205500,8.75820556640625,0.008697685718536376,0.03968056074231863,-0.011225633293576539
1761915543003259400,8.76825927734375,-0.06445873590707779,0.10383768335431813,-0.0074898990976624185
1761915543013313500,8.7783134765625,-0.06514145747423171,0.11800576330795884,-0.003091481475625187
1761915543023367400,8.788367431640625,-0.029932196927070616,0.11577332808077334,0.016677377627138047
1761915543033421600,8.798421630859375,0.011803835040330887,0.07904328770712017,0.029952381198573855
1761915543043476200,8.808476318359375,0.03707330085337162,0.016866232996433972,0.030535898441262543
1761915543053530400,8.8185302734375,0.02807633992731571,-0.02371931376159191,0.0481092019948177
1761915543063584300,8.828584228515625,0.01180149695277214,-0.03575505786165595,0.06373665044391527
1761915543073638400,8.838638427734375,-0.002513444125652313,-0.01581234002932906,0.07133642139052972
1761915543083692300,8.8486923828125,0.017068039178848266,0.008813567183166742,0.04527058103540912
1761915543093747500,8.85874755859375,0.04834931262731552,0.01065904891937971,0.017559457691293207
1761915543103801600,8.868801513671874,0.07112754614651202,0.008213409332931042,0.016266933662723748
1761915543113855500,8.87885546875,0.1157014318883419,-0.019832243195176125,0.01744916571723297
1761915543123909400,8.888909423828125,0.16351006176769733,-0.04583616076260805,0.0007424523977562784
1761915543133963300,8.89896337890625,0.11822013671100139,-0.03602583762705326,-0.006592256138194352
1761915543144018400,8.909018310546875,0.06768412769436837,0.01453311387374997,0.030626919459272175
1761915543154072600,8.919072509765625,0.00884089358150959,0.04331994015797972,0.035004970146715636
1761915543164126500,8.92912646484375,0.0026005378872156143,0.05646072289049625,0.021261490547005085
1761915543174180600,8.9391806640625,-0.005550619864463806,0.053595542717725035,0.022450115809682755
1761915543184234500,8.949234375,0.04592413130700588,0.026034604966640472,0.01531209888961166
1761915543194289400,8.959289306640626,0.18732699068486688,-0.021068653122335673,-0.0014456870299763976
1761915543204343300,8.96934326171875,0.2594137372523546,-0.007374766551703214,0.008318093550112099
1761915543214397400,8.9793974609375,0.21459552136063575,0.04516922128647566,0.04977262342870235
1761915543224451600,8.98945166015625,0.10248130030930042,0.06792144358158111,0.05187129447469487
1761915543234506500,8.999506591796875,0.042677112209796905,0.0693444621220231,0.060314968899544324
1761915543244560400,9.009560302734375,0.04886836806535721,0.03434372975900769,0.06167383616259321
1761915543254614300,9.0196142578125,0.10015841031968593,-0.027503362344950436,0.052275345230940726
1761915543264668400,9.02966845703125,0.19020926812291145,-0.07435147662907839,0.03840118845626712
1761915543274722300,9.039722412109375,0.2491922029674053,-0.08551233759075402,0.02519146867338568
1761915543284777500,9.049777587890626,0.24900164883136747,-0.049964931130409236,-0.001762771888822317
1761915543294831600,9.05983154296875,0.1565127502262592,0.0378596289254725,0.012487031531520186
1761915543304885500,9.069885498046874,0.036623803520202634,0.0931453166872263,0.02179504943443462
1761915543314939400,9.079939453125,-0.03251578367948532,0.10407193050161004,0.02941849351758137
1761915543324993300,9.0899931640625,-0.01414075355529785,0.09448167985752225,0.049867224643286315
1761915543335048400,9.10004833984375,0.007829086190462112,0.04592515422031283,0.06388932025497779
1761915543345102600,9.1101025390625,0.034818215402960775,0.02655585236176848,0.08497735393121839
1761915543355156500,9.120156494140625,0.09106266519427299,0.050017245839536185,0.08410239772759377
1761915543365210600,9.130210693359375,0.10770341887176037,0.08452084233537316,0.07904410969102754
1761915543375264500,9.140264404296875,0.09334697673916816,0.09829130127355455,0.054253732631821185
1761915543385319400,9.1503193359375,0.0635170711427927,0.11292539130374789,0.07039450089791789
1761915543395373300,9.160373291015626,0.0518488451808691,0.08844795265123248,0.08997634952859952
1761915543405427500,9.170427490234376,0.0459317300915718,0.04695318209379911,0.10455465425094589
1761915543415481300,9.1804814453125,0.021173136410117147,-0.01308876028433442,0.11186552525358275
1761915543425535500,9.190535400390624,0.03929448403418064,-0.0346374520085752,0.1183619563344866
1761915543435590400,9.20059033203125,0.10383797561526298,-0.007467413271218538,0.10581669180970639
1761915543445644300,9.210644287109375,0.12155483409166336,0.02123012729436159,0.09800704097207635
1761915543455698400,9.220698486328125,0.09684124859571457,0.032011049027740955,0.09848748143278062
1761915543465752300,9.23075244140625,0.09974924499690532,0.004386690651625395,0.09896923706773668
1761915543475806500,9.240806396484375,0.13134616026580334,-0.03901917422413826,0.08495901455692946
1761915543485861600,9.250861572265626,0.13858604839146135,-0.07540157020390033,0.08922540329713374
1761915543495915500,9.26091552734375,0.1558598392754793,-0.10917656016424297,0.10383443195130676
1761915543505969400,9.270969482421876,0.17756839773654937,-0.10118512301892041,0.08993355156648904
1761915543516023300,9.281023193359376,0.16908055537641048,-0.09778305949047207,0.08643562644813209
1761915543526077400,9.291077392578124,0.05973229190707206,-0.0810822461888194,0.09638101067282259
1761915543536132400,9.30113232421875,-0.029492636466026304,-0.055916679141670464,0.10538772580791264
1761915543546186500,9.3111865234375,-0.0536526797324419,-0.044689767206460236,0.10278035632111132
1761915543556241400,9.321241455078125,-0.05005144037008285,0.005801233624666929,0.08314517006799578
1761915543566295300,9.33129541015625,-0.028154081338644027,0.048500119274854654,0.07485442118253559
1761915543576349400,9.341349365234375,-0.006994388931989669,0.06436623531803488,0.06167524266839027
1761915543586403300,9.3514033203125,-0.028381460353732107,0.06317775618582963,0.06452047603167593
1761915543596458500,9.36145849609375,-0.0038736265629529952,0.04720364972352981,0.08349931726790964
1761915543606512600,9.3715126953125,0.04489887991249561,0.02496317634284496,0.04654295732509345
1761915543616566500,9.38156640625,0.1323842711418867,0.007473258490115404,0.009046718351915478
1761915543626620400,9.391620361328124,0.14602876561284064,0.02706584771052003,-0.0011166194723919033
1761915543636674300,9.40167431640625,0.1825724896341562,0.05479191289544105,0.02964874034319073
1761915543646729500,9.4117294921875,0.1676549064874649,0.052440527463704346,-0.021845153920166192
1761915543656783400,9.421783447265625,0.07560030764639378,0.14579846398830412,-0.0014124240811914206
1761915543666837500,9.43183740234375,0.011649521261453627,0.15330474796518684,-0.029385778558067975
1761915543676891400,9.441891357421875,0.02248889518380165,0.13433482068777083,-0.01829498715791851
1761915543686945500,9.451945556640625,0.06731938603520393,0.11862769459858535,0.0022341157276183367
1761915543697000400,9.46200048828125,0.09077741851210594,0.08538301212266088,0.003379340239986777
1761915543707054300,9.472054443359376,0.14494740011692045,0.06327522521093487,-0.0030741832809522748
1761915543717108500,9.4821083984375,0.1672451566427946,0.0542649664118886,-0.010939034904539584
1761915543727162400,9.492162353515624,0.1656073263078928,0.01940583447664976,-0.0133660793883726
1761915543737216500,9.502216552734374,0.2062362738162279,-0.014846271476149558,-0.01068772702459246
1761915543747271400,9.512271484375,0.28919805014133454,-0.08842471790611743,-0.003841843185201287
1761915543757325300,9.5223251953125,0.2907715830683708,-0.1385774266935885,0.010776537819206714
1761915543767379500,9.53237939453125,0.19428747734725474,-0.1392424664735794,0.04552983475979417
1761915543777433300,9.542433349609375,0.08069850756824017,-0.09572188917696475,0.056568311450816686
1761915543787487500,9.552487548828125,-0.01345978555381298,-0.015235563054680823,0.06416300436351448
1761915543797542400,9.56254248046875,-0.08284311838150024,0.05077756268754601,0.06815934399068355
1761915543807596500,9.572596435546876,-0.1187386076271534,0.06861176393330097,0.08054770092070102
1761915543817650400,9.582650390625,-0.09852116450667381,0.04004544853195548,0.0952408276617527
1761915543827704300,9.592704345703124,-0.05146890595257282,-0.011614742209017277,0.12894048736356198
1761915543837758500,9.602758544921874,0.0008382043898105621,-0.05223959806412458,0.13263583475016058
1761915543847813400,9.6128134765625,0.0618394933193922,-0.06732406221032142,0.1056986914532259
1761915543857867500,9.622867431640625,0.08180676107108592,-0.04953662271574139,0.07947459179647266
1761915543867921400,9.63292138671875,0.05896715275347233,-0.009768822081387043,0.037885822812654076
1761915543877975600,9.6429755859375,0.015074819535017013,0.03447042487859726,0.02324303801935166
1761915543888029400,9.653029541015625,-0.048428807604312896,0.06176014447286725,0.03436437068823725
1761915543898084400,9.66308447265625,-0.04684592232704162,0.04904416302368045,0.0483404352011159
1761915543908138500,9.673138427734376,-0.03971066361963749,0.023987024787068364,0.05334923980645835
1761915543918192400,9.6831923828125,0.0017880524605512619,-0.005606733965873718,0.040308702578023076
1761915543928246500,9.69324658203125,0.020213935989141462,0.0013135668165981768,0.03692980072945356
1761915543938300400,9.703300537109374,0.03681844930946827,0.025050562365353107,0.011740377882681787
1761915543948355300,9.713355224609375,0.047590018692612646,0.05663125715181231,-0.016202033466659486
1761915543958409500,9.723409423828125,0.08910860851705074,0.062081485381722444,-0.017171609151177106
1761915543968462600,9.733462646484375,0.1467541572779417,0.015602058279514311,-0.02525952894091606
1761915543978516500,9.7435166015625,0.1849830579072237,-0.0648727235354483,-0.005902173248492181
1761915543988570600,9.753570556640625,0.18665479051172731,-0.12663009152933954,0.026985366352833808
1761915543998625800,9.763625732421875,0.17986790685057638,-0.16290917326509952,0.04392353207431733
1761915544008679700,9.7736796875,0.1742728633224964,-0.1370065241150558,0.03635247576553374
1761915544018733800,9.78373388671875,0.1403220784038305,-0.03168225546479225,0.042327239326201374
1761915544028787700,9.79378759765625,0.10956745917797088,0.046172114718705415,0.02713620953299105
1761915544038841600,9.803841552734376,0.07694236990511417,0.0781564218699932,0.009243738761357962
1761915544048896800,9.813896728515624,0.036038697108626366,0.0814244837552309,0.048786790729127824
1761915544058950700,9.82395068359375,0.01734919420778751,0.03424786816909909,0.08576028446983545
1761915544069004800,9.8340048828125,-0.04474398161172866,0.016606559146940706,0.12345500515718012
1761915544079058700,9.84405859375,0.07642857516407967,-0.08757482307851314,0.10268040307797491
1761915544089112800,9.85411279296875,0.15331541548967362,-0.1842756402902305,0.020931692337058484
1761915544099167500,9.86416748046875,0.30047640000283715,-0.10853972356542944,0.05557444157525897
1761915544109221600,9.8742216796875,0.3371878818064928,-0.10130495000630617,0.05389821545872837
1761915544119275500,9.884275634765626,0.2859393406063318,-0.041434418672323226,0.0896666442586109
1761915544129329700,9.89432958984375,0.14828385106325148,-0.12487068064138293,0.049889893132820724
1761915544139383800,9.9043837890625,0.0828401957720518,-0.05539411657229065,0.09729929456152021
1761915544149438700,9.914438720703124,0.04837970776557922,-0.004279138623923063,0.08747015712764114
1761915544159492600,9.92449267578125,-0.10067278958261013,-0.005370002600550651,0.0900967062389478
1761915544169546500,9.93454638671875,-0.10872516313493251,0.053002252999693154,0.12960976492725312
1761915544179600600,9.9446005859375,-0.09528408228158951,0.12863003317490218,0.15988229972459375
1761915544189654500,9.954654541015625,-0.1101198323637247,0.14420593409985302,0.14901618392579258
1761915544199709700,9.964709716796875,-0.10982114167809486,0.0320262465968728,0.05324285682253539
1761915544209763800,9.974763916015625,-0.19799100804030895,0.09310103915408253,0.10119082210734485
1761915544219817700,9.984817626953125,-0.15965864703655241,0.10729001576527952,0.16337171274293213
1761915544229871900,9.994871826171876,0.001807341682910919,0.04224778088182211,0.11399429917689412
1761915544239925500,10.004925537109376,0.15455635546147822,-0.01336582366004586,0.07992697520647198
1761915544249980700,10.014980712890624,0.2644862182110548,-0.05834010689631104,0.06606993396338075
1761915544260034800,10.025034912109374,0.3579349017590284,-0.07024754844158887,0.0035816944116726515
1761915544270088700,10.035088623046875,0.40052024403214453,-0.07059227022603154,-0.07022730937115848
1761915544280142800,10.045142822265625,0.3046843730866909,-0.05508198188319802,-0.09881532514765858
1761915544290196700,10.05519677734375,0.21476620175242422,0.018706161774694918,-0.12296353184580802
1761915544300251600,10.065251708984375,0.1817892303019762,0.09461071306467056,-0.07750365704968572
1761915544310305500,10.075305419921875,0.10110884291231631,0.09329685398712753,-0.052086014937609434
1761915544320359700,10.085359619140625,-0.006361936247348785,0.09923822673484682,0.01719674359243363
1761915544330413600,10.09541357421875,-0.038382629886269566,0.11245470505207776,0.09206011526640503
1761915544340467700,10.1054677734375,-0.11229892996847629,0.06984422833770514,0.15975352224577216
1761915544350523000,10.11552294921875,-0.1009305637359619,0.04047784859985113,0.19511384516879915
1761915544360576500,10.125576416015624,0.006080781218409538,-0.018397826477885244,0.20352759937942028
1761915544370630700,10.135630615234374,0.09725976626873016,-0.06016045419126749,0.15488664686176926
1761915544380684500,10.1456845703125,0.1724859799057245,0.002448708326369524,0.10324315152727066
1761915544390738700,10.15573876953125,0.20747721378803252,0.07774345715492963,0.04043521503452211
1761915544400793900,10.1657939453125,0.15916472603976725,0.12100348381921648,-0.004289513887465
1761915544410847700,10.17584765625,0.1045382328391075,0.15001637394428252,0.010196253713220357
1761915544420902000,10.18590185546875,-0.0013286182552576064,0.11340323794856667,0.07440371827296913
1761915544430955800,10.195955810546875,0.016155600509047508,-0.049801849523186684,0.07917531658895313
1761915544441009700,10.206009765625,0.47954643447399137,-0.22739421265721318,-0.013331702194735407
1761915544451064600,10.216064697265624,0.7235387307107448,-0.24610505060702562,-0.05717489904183894
1761915544461118700,10.22611865234375,0.6915887642204761,-0.08655673207715153,-0.05432330900300294
1761915544471172600,10.236172607421874,0.47788639230728147,-0.033605624742805956,-0.06449895831961185
1761915544481226800,10.246226806640625,0.05979775835871696,-0.02592281515523791,-0.04359331373926252
1761915544491281000,10.256281005859375,-0.25379180571734905,-0.01971139329448342,0.022685367603972554
1761915544501335600,10.26633544921875,-0.3785311150640249,-0.10409180424585938,0.03451510427054018
