time,seconds_elapsed,z,y,x
1761915534308898000,0.07389794921875,-1.0235137939453125,-0.1374664306640625,-0.074188232421875
1761915534318952200,0.0839521484375,-1.0293731689453125,-0.14239501953125,-0.069580078125
1761915534329006000,0.094006103515625,-1.0316619873046875,-0.138641357421875,-0.0629119873046875
1761915534339060000,0.10406005859375,-1.03228759765625,-0.1414337158203125,-0.0512847900390625
1761915534349113900,0.11411376953125,-1.0566864013671875,-0.1476287841796875,-0.0385284423828125
1761915534359169000,0.1241689453125,-1.0764007568359375,-0.1472015380859375,-0.025848388671875
1761915534369223200,0.13422314453125,-1.09173583984375,-0.1352386474609375,-0.0162353515625
1761915534379277000,0.144277099609375,-1.0868682861328125,-0.1215667724609375,-0.0136566162109375
1761915534389331200,0.154331298828125,-1.0675811767578125,-0.114471435546875,-0.0228424072265625
1761915534399385000,0.164385009765625,-1.0471649169921875,-0.1133270263671875,-0.0396575927734375
1761915534409439000,0.17443896484375,-1.0270233154296875,-0.1056060791015625,-0.0471954345703125
1761915534419494100,0.184494140625,-1.0119781494140625,-0.1033782958984375,-0.046661376953125
1761915534429548000,0.194548095703125,-0.9984893798828125,-0.09820556640625,-0.0471649169921875
1761915534439602200,0.204602294921875,-0.9820404052734375,-0.09906005859375,-0.0455322265625
1761915534449656000,0.214656005859375,-0.9677886962890625,-0.1107177734375,-0.047454833984375
1761915534459710200,0.224710205078125,-0.95074462890625,-0.124053955078125,-0.0476837158203125
1761915534469764900,0.234764892578125,-0.9508056640625,-0.139190673828125,-0.0457000732421875
1761915534479819000,0.244819091796875,-0.97021484375,-0.1435546875,-0.029449462890625
1761915534489873200,0.254873046875,-1.0114898681640625,-0.1734161376953125,-0.0435638427734375
1761915534499927000,0.264927001953125,-1.019744873046875,-0.1840972900390625,-0.0476837158203125
1761915534509981200,0.274981201171875,-1.0278472900390625,-0.186065673828125,-0.0223846435546875
1761915534520036000,0.2850361328125,-1.042938232421875,-0.182464599609375,-0.0056915283203125
1761915534530090000,0.295090087890625,-1.042144775390625,-0.1664276123046875,0.0002593994140625
1761915534540143900,0.305143798828125,-1.023956298828125,-0.1574249267578125,0.0075836181640625
1761915534550198000,0.315197998046875,-0.99798583984375,-0.163299560546875,0.01416015625
1761915534560252000,0.325251953125,-0.9698028564453125,-0.176116943359375,0.01239013671875
1761915534570307000,0.33530712890625,-0.94976806640625,-0.1902923583984375,0.0090789794921875
1761915534580361200,0.345361328125,-0.9456329345703125,-0.196807861328125,0.009613037109375
1761915534590415000,0.3554150390625,-0.96044921875,-0.1947479248046875,0.0160064697265625
1761915534600469000,0.365468994140625,-1.0041961669921875,-0.191650390625,0.0283355712890625
1761915534610523000,0.37552294921875,-1.03973388671875,-0.1846923828125,0.0466461181640625
1761915534620577000,0.385576904296875,-1.028778076171875,-0.1833648681640625,0.057403564453125
1761915534630632200,0.395632080078125,-1.002197265625,-0.1929473876953125,0.0528717041015625
1761915534640686000,0.40568603515625,-0.97906494140625,-0.2020416259765625,0.0428009033203125
1761915534650740200,0.415740234375,-0.96759033203125,-0.2068939208984375,0.039947509765625
1761915534660794000,0.425794189453125,-0.99676513671875,-0.19842529296875,0.0550079345703125
1761915534670848300,0.43584814453125,-1.0422821044921875,-0.1871490478515625,0.0721282958984375
1761915534680903000,0.44590283203125,-1.0523681640625,-0.1959991455078125,0.0713653564453125
1761915534690957000,0.45595703125,-1.00830078125,-0.1989898681640625,0.0726470947265625
1761915534701011000,0.466010986328125,-0.95660400390625,-0.2021331787109375,0.064544677734375
1761915534711065000,0.476065185546875,-0.9344635009765625,-0.209259033203125,0.051422119140625
1761915534721119200,0.486119140625,-0.9614410400390625,-0.211639404296875,0.0508575439453125
1761915534731174000,0.496173828125,-1.0052490234375,-0.2088775634765625,0.0635528564453125
1761915534741228000,0.50622802734375,-0.99749755859375,-0.2082366943359375,0.0703887939453125
1761915534751282000,0.516281982421875,-0.9560394287109375,-0.234954833984375,0.0598297119140625
1761915534761336000,0.526336181640625,-0.936431884765625,-0.2921142578125,0.0329132080078125
1761915534771390000,0.536389892578125,-0.9705963134765625,-0.3352203369140625,0.0051116943359375
1761915534781444000,0.546444091796875,-1.018646240234375,-0.351959228515625,-0.030548095703125
1761915534791499300,0.556499267578125,-1.0479888916015625,-0.3361663818359375,-0.058868408203125
1761915534801553000,0.566552978515625,-1.0370025634765625,-0.3022918701171875,-0.0758056640625
1761915534811607000,0.57660693359375,-0.98785400390625,-0.2898406982421875,-0.1029205322265625
1761915534821661000,0.586660888671875,-0.926116943359375,-0.3214263916015625,-0.1444854736328125
1761915534831715000,0.596715087890625,-0.8793792724609375,-0.3807373046875,-0.1717681884765625
1761915534841770200,0.606770263671875,-0.83782958984375,-0.453033447265625,-0.2009429931640625
1761915534851824000,0.61682421875,-0.781005859375,-0.4961395263671875,-0.2511749267578125
1761915534861878300,0.626878173828125,-0.7166595458984375,-0.4940032958984375,-0.2865447998046875
1761915534871932000,0.636931884765625,-0.6743927001953125,-0.4738006591796875,-0.3039398193359375
1761915534881986000,0.646986083984375,-0.6448516845703125,-0.461761474609375,-0.3170928955078125
1761915534892041000,0.657041015625,-0.629791259765625,-0.4358673095703125,-0.3263702392578125
1761915534902095000,0.66709521484375,-0.6595001220703125,-0.4107513427734375,-0.2974700927734375
1761915534912149000,0.67714892578125,-0.695709228515625,-0.392364501953125,-0.2677001953125
1761915534922203100,0.687203125,-0.7213287353515625,-0.3953094482421875,-0.25311279296875
1761915534932257000,0.697257080078125,-0.74896240234375,-0.4246368408203125,-0.2512969970703125
1761915534942311200,0.707311279296875,-0.751922607421875,-0.453521728515625,-0.2579345703125
1761915534952366000,0.717365966796875,-0.7421112060546875,-0.4555206298828125,-0.257354736328125
1761915534962419200,0.727419189453125,-0.7475433349609375,-0.4397430419921875,-0.24871826171875
1761915534972473000,0.73747314453125,-0.77459716796875,-0.424224853515625,-0.2349090576171875
1761915534982527200,0.74752734375,-0.81085205078125,-0.409942626953125,-0.2180328369140625
1761915534992581000,0.7575810546875,-0.8512420654296875,-0.3916473388671875,-0.199554443359375
1761915535002636300,0.76763623046875,-0.909912109375,-0.3563690185546875,-0.16339111328125
1761915535012690200,0.777690185546875,-0.9698028564453125,-0.3302154541015625,-0.13128662109375
1761915535022744000,0.787744140625,-0.982513427734375,-0.3248748779296875,-0.1116485595703125
1761915535032798200,0.797798095703125,-0.9627685546875,-0.3270111083984375,-0.10528564453125
1761915535042852000,0.80785205078125,-0.9379425048828125,-0.3499908447265625,-0.117462158203125
1761915535052907300,0.8179072265625,-0.912017822265625,-0.375152587890625,-0.1325531005859375
1761915535062961200,0.827961181640625,-0.8862762451171875,-0.3857421875,-0.140960693359375
1761915535073015300,0.838015380859375,-0.8854522705078125,-0.370849609375,-0.13629150390625
1761915535083069200,0.848069091796875,-0.903533935546875,-0.3327178955078125,-0.122344970703125
1761915535093123000,0.858123046875,-0.91888427734375,-0.3055877685546875,-0.1110076904296875
1761915535103178200,0.86817822265625,-0.9471588134765625,-0.2860870361328125,-0.0963134765625
1761915535113232100,0.878232177734375,-1.009185791015625,-0.256561279296875,-0.072601318359375
1761915535123286300,0.888286376953125,-1.0458984375,-0.22454833984375,-0.04815673828125
1761915535133340200,0.898340087890625,-1.045440673828125,-0.194610595703125,-0.0251312255859375
1761915535143394300,0.908394287109375,-1.0453643798828125,-0.1548309326171875,-0.0064849853515625
1761915535153448200,0.9184482421875,-1.043365478515625,-0.1326446533203125,-0.004119873046875
1761915535163503000,0.928503173828125,-1.038299560546875,-0.1158294677734375,-0.0091552734375
1761915535173557200,0.93855712890625,-1.0435333251953125,-0.09893798828125,-0.010284423828125
1761915535183611100,0.948611083984375,-1.0489501953125,-0.0819854736328125,-0.009918212890625
1761915535193665300,0.958665283203125,-1.0389404296875,-0.0851593017578125,-0.0136566162109375
1761915535203719200,0.96871923828125,-1.029052734375,-0.1081085205078125,-0.01995849609375
1761915535213774000,0.978774169921875,-1.0277099609375,-0.1371917724609375,-0.0263519287109375
1761915535223828000,0.988827880859375,-1.0350494384765625,-0.1663055419921875,-0.025299072265625
1761915535233882000,0.998882080078125,-1.0415496826171875,-0.1768798828125,-0.016265869140625
1761915535243936000,1.00893603515625,-1.0334930419921875,-0.1709442138671875,-0.0113983154296875
1761915535253990100,1.018990234375,-1.01226806640625,-0.152496337890625,-0.0053863525390625
1761915535264044300,1.029044189453125,-0.9911041259765625,-0.1323699951171875,-0.0002899169921875
1761915535274099200,1.03909912109375,-0.97625732421875,-0.1173553466796875,0.0059814453125
1761915535284153300,1.0491533203125,-0.9925994873046875,-0.1056060791015625,0.016448974609375
1761915535294207000,1.05920703125,-1.00421142578125,-0.1289825439453125,-0.023101806640625
1761915535304261000,1.06926123046875,-0.9610137939453125,-0.1399078369140625,-0.027801513671875
1761915535314315000,1.07931494140625,-0.95391845703125,-0.1471710205078125,-0.0137786865234375
1761915535324370200,1.0893701171875,-0.9835968017578125,-0.155609130859375,-0.0067901611328125
1761915535334424300,1.09942431640625,-1.0001678466796875,-0.1595001220703125,0.0075225830078125
1761915535344478200,1.109478271484375,-0.9969329833984375,-0.1629791259765625,0.0260162353515625
1761915535354532400,1.119532470703125,-1.0093231201171875,-0.1669921875,0.0382232666015625
1761915535364586200,1.129586181640625,-1.0099029541015625,-0.164154052734375,0.040740966796875
1761915535374641200,1.13964111328125,-0.99755859375,-0.1581268310546875,0.0389251708984375
1761915535384695300,1.1496953125,-0.9892730712890625,-0.148223876953125,0.03265380859375
1761915535394749200,1.159749267578125,-0.994354248046875,-0.1451263427734375,0.0253753662109375
1761915535404803300,1.16980322265625,-1.0183258056640625,-0.146270751953125,0.02789306640625
1761915535414857200,1.179857177734375,-1.0451507568359375,-0.1376495361328125,0.038726806640625
1761915535424911400,1.189911376953125,-1.0554656982421875,-0.1299896240234375,0.0475616455078125
1761915535434966000,1.199966064453125,-1.0473175048828125,-0.125823974609375,0.051025390625
1761915535445020200,1.210020263671875,-1.0302276611328125,-0.1250152587890625,0.0454254150390625
1761915535455074000,1.220073974609375,-1.012725830078125,-0.1319580078125,0.0333709716796875
1761915535465128200,1.230128173828125,-0.9964752197265625,-0.1395263671875,0.0249786376953125
1761915535475182300,1.240182373046875,-0.9868011474609375,-0.1470794677734375,0.0176239013671875
1761915535485237200,1.2502373046875,-0.9822998046875,-0.14959716796875,0.0180816650390625
1761915535495291100,1.260291015625,-0.9807281494140625,-0.1508636474609375,0.024871826171875
1761915535505345000,1.270344970703125,-0.983367919921875,-0.149322509765625,0.0322265625
1761915535515399200,1.280399169921875,-0.993988037109375,-0.148651123046875,0.0377044677734375
1761915535525453000,1.290453125,-0.9858551025390625,-0.1438446044921875,0.0423126220703125
1761915535535508200,1.30050830078125,-0.9661865234375,-0.147125244140625,0.0340728759765625
1761915535545562400,1.310562255859375,-0.9527587890625,-0.15838623046875,0.0223846435546875
1761915535555616300,1.3206162109375,-0.9471435546875,-0.1664886474609375,0.0147857666015625
1761915535565670100,1.330670166015625,-0.9621124267578125,-0.168701171875,0.0159759521484375
1761915535575724000,1.34072412109375,-0.9943695068359375,-0.17034912109375,0.0236663818359375
1761915535585778200,1.350778076171875,-0.9897308349609375,-0.1639251708984375,0.0359039306640625
1761915535595833000,1.3608330078125,-0.972686767578125,-0.1654052734375,0.042510986328125
1761915535605887200,1.37088720703125,-0.9709014892578125,-0.1710205078125,0.0445556640625
1761915535615941400,1.38094140625,-0.965484619140625,-0.167236328125,0.042999267578125
1761915535625995300,1.390995361328125,-0.9586944580078125,-0.160369873046875,0.0384979248046875
1761915535636049200,1.401049072265625,-0.952789306640625,-0.1592559814453125,0.030029296875
1761915535646104000,1.41110400390625,-0.9483184814453125,-0.160400390625,0.0234832763671875
1761915535656158200,1.421158203125,-0.9513092041015625,-0.1603240966796875,0.028106689453125
1761915535666212000,1.431212158203125,-0.9490814208984375,-0.163177490234375,0.034393310546875
1761915535676266200,1.441266357421875,-0.946441650390625,-0.1639556884765625,0.040771484375
1761915535686320000,1.451320068359375,-0.948577880859375,-0.1571044921875,0.0430145263671875
1761915535696375000,1.461375,-0.94989013671875,-0.15057373046875,0.0372467041015625
1761915535706429200,1.47142919921875,-0.9550018310546875,-0.1488189697265625,0.03070068359375
1761915535716483000,1.481483154296875,-0.965118408203125,-0.1543121337890625,0.0239410400390625
1761915535726537200,1.491537109375,-0.976531982421875,-0.1631317138671875,0.019500732421875
1761915535736591000,1.501591064453125,-0.9842987060546875,-0.1711578369140625,0.0186920166015625
1761915535746645200,1.511645263671875,-0.9817657470703125,-0.1791839599609375,0.0246124267578125
1761915535756700200,1.5217001953125,-0.969879150390625,-0.1865386962890625,0.030914306640625
1761915535766754000,1.531754150390625,-0.957061767578125,-0.1932220458984375,0.034271240234375
1761915535776808200,1.54180810546875,-0.949951171875,-0.197418212890625,0.0335693359375
1761915535786862000,1.551862060546875,-0.94671630859375,-0.198272705078125,0.031768798828125
1761915535796916200,1.561916259765625,-0.949981689453125,-0.19500732421875,0.0307769775390625
1761915535806971100,1.57197119140625,-0.96136474609375,-0.1866607666015625,0.034149169921875
1761915535817025300,1.582025390625,-0.965301513671875,-0.1834259033203125,0.0353851318359375
1761915535827079400,1.592079345703125,-0.9601287841796875,-0.1849517822265625,0.032257080078125
1761915535837133000,1.602133056640625,-0.9503631591796875,-0.183197021484375,0.027496337890625
1761915535847187200,1.612187255859375,-0.9517974853515625,-0.1819915771484375,0.02435302734375
1761915535857241000,1.622240966796875,-0.9645843505859375,-0.1826019287109375,0.024139404296875
1761915535867296300,1.632296142578125,-0.9830780029296875,-0.17742919921875,0.0295257568359375
1761915535877350100,1.64235009765625,-0.995697021484375,-0.170135498046875,0.0353546142578125
1761915535887404300,1.652404296875,-0.99798583984375,-0.16357421875,0.033905029296875
1761915535897458200,1.662458251953125,-0.9921112060546875,-0.1631927490234375,0.0313262939453125
1761915535907512000,1.672511962890625,-0.9817657470703125,-0.1629791259765625,0.02471923828125
1761915535917567200,1.682567138671875,-0.9716339111328125,-0.1634063720703125,0.017059326171875
1761915535927621000,1.69262109375,-0.968719482421875,-0.15655517578125,0.012298583984375
1761915535937675300,1.70267529296875,-0.9722900390625,-0.1456451416015625,0.0101470947265625
1761915535947729200,1.712729248046875,-0.97705078125,-0.138427734375,0.0083160400390625
1761915535957783000,1.722782958984375,-0.976043701171875,-0.135955810546875,0.0093536376953125
1761915535967838000,1.732837890625,-0.9729156494140625,-0.1396026611328125,0.0068817138671875
1761915535977891800,1.742891845703125,-0.9726104736328125,-0.138671875,0.0032958984375
1761915535987946000,1.752946044921875,-0.97918701171875,-0.1353912353515625,0.0047760009765625
1761915535997999900,1.762999755859375,-0.9884490966796875,-0.136077880859375,0.0068817138671875
1761915536008054000,1.773053955078125,-0.993499755859375,-0.137969970703125,0.00640869140625
1761915536018108000,1.78310791015625,-0.9853973388671875,-0.14178466796875,0.00848388671875
1761915536028163000,1.7931630859375,-0.9760589599609375,-0.147430419921875,0.007965087890625
1761915536038216700,1.803216796875,-0.965087890625,-0.15118408203125,0.0066986083984375
1761915536048270800,1.813270751953125,-0.962066650390625,-0.152496337890625,0.0063018798828125
1761915536058324700,1.82332470703125,-0.973968505859375,-0.147979736328125,0.01129150390625
1761915536068379000,1.83337890625,-0.9897003173828125,-0.1416015625,0.0179901123046875
1761915536078434000,1.84343408203125,-0.998870849609375,-0.133270263671875,0.0196990966796875
1761915536088488000,1.853488037109375,-0.99981689453125,-0.1264190673828125,0.0190887451171875
1761915536098542000,1.8635419921875,-0.993011474609375,-0.12713623046875,0.0175323486328125
1761915536108596000,1.873595947265625,-0.9830780029296875,-0.13372802734375,0.01348876953125
1761915536118649900,1.88364990234375,-0.9815216064453125,-0.1419219970703125,0.01123046875
1761915536128703700,1.893703857421875,-0.9754486083984375,-0.1467132568359375,0.01519775390625
1761915536138759000,1.903759033203125,-0.9691314697265625,-0.1522216796875,0.0175628662109375
1761915536148813000,1.91381298828125,-0.9703369140625,-0.15625,0.0177764892578125
1761915536158867000,1.923866943359375,-0.9753875732421875,-0.1570892333984375,0.0184173583984375
1761915536168921000,1.933921142578125,-0.978759765625,-0.15350341796875,0.019927978515625
1761915536178975000,1.94397509765625,-0.9798431396484375,-0.147613525390625,0.0185089111328125
1761915536189030000,1.95402978515625,-0.9843597412109375,-0.1490020751953125,0.014312744140625
1761915536199084000,1.964083984375,-0.98297119140625,-0.1531829833984375,0.0134735107421875
1761915536209138000,1.974137939453125,-0.9845428466796875,-0.1597137451171875,0.015655517578125
1761915536219192000,1.984192138671875,-0.984619140625,-0.163818359375,0.0176849365234375
1761915536229246000,1.994245849609375,-0.97625732421875,-0.1693878173828125,0.017333984375
1761915536239300000,2.004300048828125,-0.9656982421875,-0.1702423095703125,0.009490966796875
1761915536249354800,2.014354736328125,-0.96478271484375,-0.1611175537109375,0.0057830810546875
1761915536259409000,2.024408935546875,-0.973907470703125,-0.150299072265625,0.0050506591796875
1761915536269462800,2.034462890625,-0.9827880859375,-0.141265869140625,0.0037078857421875
1761915536279517000,2.044516845703125,-0.9942474365234375,-0.133636474609375,0.0040283203125
1761915536289571000,2.054571044921875,-1.002838134765625,-0.13134765625,0.0040130615234375
1761915536299626000,2.0646259765625,-1.0044097900390625,-0.1361236572265625,0.0111846923828125
1761915536309679900,2.074679931640625,-0.9996490478515625,-0.14715576171875,0.015045166015625
1761915536319733800,2.084733642578125,-0.9988250732421875,-0.1566009521484375,0.0129547119140625
1761915536329788000,2.094787841796875,-0.990203857421875,-0.1574859619140625,0.0100860595703125
1761915536339841800,2.104841796875,-0.9884490966796875,-0.1539764404296875,0.0071563720703125
1761915536349897000,2.11489697265625,-0.9917755126953125,-0.146942138671875,0.006011962890625
1761915536359951000,2.124951171875,-0.98504638671875,-0.1422119140625,0.004058837890625
1761915536370005000,2.1350048828125,-0.9810333251953125,-0.1434326171875,-0.00018310546875
1761915536380059000,2.145058837890625,-0.9806671142578125,-0.1417388916015625,-0.0002288818359375
1761915536390112800,2.15511279296875,-0.9761199951171875,-0.141357421875,0.0015411376953125
1761915536400167000,2.1651669921875,-0.972900390625,-0.144256591796875,0.0004119873046875
1761915536410221800,2.175221923828125,-0.969940185546875,-0.1448822021484375,0.0001373291015625
1761915536420276000,2.18527587890625,-0.96820068359375,-0.1434783935546875,0.0005035400390625
1761915536430330000,2.195330078125,-0.9661102294921875,-0.1422576904296875,0.00048828125
1761915536440384000,2.205384033203125,-0.9677886962890625,-0.14300537109375,0.0020294189453125
1761915536450438100,2.215438232421875,-0.9688568115234375,-0.1473236083984375,0.001953125
1761915536460492800,2.225492919921875,-0.9718780517578125,-0.148223876953125,0.002838134765625
1761915536470547000,2.235546875,-0.975677490234375,-0.1477508544921875,0.003387451171875
1761915536480600800,2.245600830078125,-0.9670257568359375,-0.1455230712890625,-0.000091552734375
1761915536490655000,2.255655029296875,-0.96246337890625,-0.1464996337890625,-0.0053558349609375
1761915536500708900,2.265708984375,-0.9654388427734375,-0.1460113525390625,-0.0065460205078125
1761915536510763000,2.275762939453125,-0.96856689453125,-0.147705078125,-0.005218505859375
1761915536520818000,2.28581787109375,-0.975860595703125,-0.153778076171875,-0.002685546875
1761915536530871800,2.295871826171875,-0.9788055419921875,-0.1584014892578125,0.0017547607421875
1761915536540926000,2.305926025390625,-0.9814453125,-0.16009521484375,0.0058746337890625
1761915536550979800,2.315979736328125,-0.9808807373046875,-0.156890869140625,0.0105438232421875
1761915536561034000,2.326033935546875,-0.981170654296875,-0.14990234375,0.0167999267578125
1761915536571089200,2.336089111328125,-0.9863128662109375,-0.14251708984375,0.0209503173828125
1761915536581142800,2.346142822265625,-0.988983154296875,-0.143951416015625,0.0164794921875
1761915536591197000,2.356197021484375,-0.9915618896484375,-0.1457366943359375,0.012481689453125
1761915536601250800,2.366250732421875,-0.9969329833984375,-0.1436767578125,0.011322021484375
1761915536611305000,2.376304931640625,-1.0045623779296875,-0.1394805908203125,0.014404296875
1761915536621358800,2.38635888671875,-1.00927734375,-0.1392822265625,0.015869140625
1761915536631414000,2.3964140625,-1.0045013427734375,-0.143310546875,0.01397705078125
1761915536641468200,2.40646826171875,-0.9919281005859375,-0.1469573974609375,0.0133056640625
1761915536651522000,2.41652197265625,-0.9811248779296875,-0.15216064453125,0.009918212890625
1761915536661576000,2.426575927734375,-0.9759063720703125,-0.15374755859375,0.008636474609375
1761915536671629800,2.4366298828125,-0.97454833984375,-0.153106689453125,0.0103759765625
1761915536681685000,2.44668505859375,-0.97845458984375,-0.1561431884765625,0.0074310302734375
1761915536691739000,2.45673876953125,-0.9834747314453125,-0.156341552734375,0.0068817138671875
1761915536701793000,2.46679296875,-0.9853363037109375,-0.1536102294921875,0.0093536376953125
1761915536711847000,2.476846923828125,-0.98675537109375,-0.156219482421875,0.0072021484375
1761915536721901000,2.486901123046875,-0.9845733642578125,-0.1561126708984375,0.0065460205078125
1761915536731956000,2.4969560546875,-0.9789886474609375,-0.1536712646484375,0.00616455078125
1761915536742009900,2.507009765625,-0.9750518798828125,-0.1516876220703125,0.0034637451171875
1761915536752064000,2.51706396484375,-0.9783172607421875,-0.1480560302734375,-0.000946044921875
1761915536762118000,2.527117919921875,-0.9856109619140625,-0.1414794921875,-0.0027008056640625
1761915536772172000,2.537172119140625,-0.993408203125,-0.137298583984375,-0.0024261474609375
1761915536782226000,2.547225830078125,-0.9961090087890625,-0.1349334716796875,-0.000335693359375
1761915536792280800,2.55728076171875,-0.995880126953125,-0.1371612548828125,0.0004119873046875
1761915536802335000,2.5673349609375,-0.99310302734375,-0.137481689453125,0.0017547607421875
1761915536812388900,2.577388916015625,-0.9860382080078125,-0.138031005859375,0.0028076171875
1761915536822443000,2.587443115234375,-0.979736328125,-0.1368865966796875,0.0006866455078125
1761915536832497000,2.597496826171875,-0.983673095703125,-0.1338348388671875,-0.001739501953125
1761915536842552000,2.607552001953125,-0.991973876953125,-0.131134033203125,-0.001708984375
1761915536852605700,2.617605712890625,-0.9929351806640625,-0.1285858154296875,0.00030517578125
1761915536862659800,2.627659912109375,-0.9836883544921875,-0.1275634765625,0.0025177001953125
1761915536872714000,2.6377138671875,-0.975677490234375,-0.1378631591796875,0.0007476806640625
1761915536882768000,2.647767822265625,-0.97552490234375,-0.1466827392578125,-0.0012969970703125
1761915536892822000,2.657822021484375,-0.9732666015625,-0.147674560546875,-0.0009613037109375
1761915536902877000,2.667876953125,-0.969970703125,-0.14337158203125,0
1761915536912931000,2.67793115234375,-0.971893310546875,-0.13677978515625,0.000244140625
1761915536922985000,2.68798486328125,-0.97589111328125,-0.1300811767578125,0.001495361328125
1761915536933038800,2.698038818359375,-0.9818267822265625,-0.128997802734375,0.0022125244140625
1761915536943092700,2.7080927734375,-0.982757568359375,-0.1319732666015625,0.0024261474609375
1761915536953148000,2.71814794921875,-0.979644775390625,-0.139617919921875,0.0028839111328125
1761915536963206000,2.728205810546875,-0.971160888671875,-0.14862060546875,0.0049591064453125
1761915536973259800,2.738259765625,-0.96282958984375,-0.156097412109375,0.002899169921875
1761915536983314000,2.74831396484375,-0.9650421142578125,-0.1563262939453125,0.00396728515625
1761915536993367800,2.758367919921875,-0.97412109375,-0.1531219482421875,0.005340576171875
1761915537003421700,2.768421630859375,-0.98248291015625,-0.1473541259765625,0.004852294921875
1761915537013476900,2.778476806640625,-0.98126220703125,-0.14453125,0.0046234130859375
1761915537023530800,2.78853076171875,-0.979156494140625,-0.1449737548828125,0.00396728515625
1761915537033585000,2.7985849609375,-0.9730072021484375,-0.1479034423828125,0.0040740966796875
1761915537043638800,2.808638671875,-0.9699859619140625,-0.1542816162109375,0.0057373046875
1761915537053693000,2.81869287109375,-0.9691162109375,-0.157928466796875,0.0069122314453125
1761915537063747800,2.828747802734375,-0.9775543212890625,-0.15655517578125,0.009185791015625
1761915537073801700,2.8388017578125,-0.9983367919921875,-0.14990234375,0.0125579833984375
1761915537083856000,2.84885595703125,-1.01214599609375,-0.1436004638671875,0.01385498046875
1761915537093909800,2.85890966796875,-1.008697509765625,-0.1412506103515625,0.0107269287109375
1761915537103964000,2.8689638671875,-1.0031890869140625,-0.1420440673828125,0.0031585693359375
1761915537114018800,2.879018798828125,-0.9997100830078125,-0.144805908203125,-0.0005340576171875
1761915537124072700,2.88907275390625,-0.9928741455078125,-0.1436614990234375,-0.0016937255859375
1761915537134126800,2.899126953125,-0.985137939453125,-0.1426849365234375,-0.00390625
1761915537144180700,2.9091806640625,-0.97601318359375,-0.141510009765625,-0.005340576171875
1761915537154235000,2.91923486328125,-0.9694061279296875,-0.14190673828125,-0.0066375732421875
1761915537164288800,2.929288818359375,-0.9686737060546875,-0.1417999267578125,-0.007049560546875
1761915537174344000,2.939343994140625,-0.9763946533203125,-0.1410369873046875,-0.00640869140625
1761915537184397800,2.949397705078125,-0.9867401123046875,-0.1391448974609375,0.000518798828125
1761915537194451700,2.95945166015625,-0.99383544921875,-0.13818359375,0.0051422119140625
1761915537204505900,2.969505859375,-0.99981689453125,-0.138336181640625,0.0052490234375
1761915537214559700,2.979559814453125,-1.004119873046875,-0.1378173828125,0.0066375732421875
1761915537224615000,2.989614990234375,-0.9997100830078125,-0.134063720703125,0.00732421875
1761915537234668800,2.999668701171875,-0.9924774169921875,-0.130340576171875,0.0063018798828125
1761915537244723000,3.009722900390625,-0.98773193359375,-0.130950927734375,0.0012969970703125
1761915537254776800,3.01977685546875,-0.9811859130859375,-0.1345977783203125,-0.0043487548828125
1761915537264830700,3.029830810546875,-0.972076416015625,-0.1382904052734375,-0.0055084228515625
1761915537274884600,3.039884521484375,-0.96282958984375,-0.14404296875,-0.0041961669921875
1761915537284939800,3.049939697265625,-0.958953857421875,-0.154083251953125,-0.0042572021484375
1761915537294994000,3.059993896484375,-0.9567108154296875,-0.1580352783203125,-0.003387451171875
1761915537305047800,3.0700478515625,-0.95477294921875,-0.15667724609375,-0.003875732421875
1761915537315102000,3.08010205078125,-0.9577178955078125,-0.1546783447265625,-0.006683349609375
1761915537325155800,3.09015576171875,-0.96875,-0.151153564453125,-0.0095672607421875
1761915537335210800,3.100210693359375,-0.979644775390625,-0.145294189453125,-0.0076751708984375
1761915537345265000,3.110264892578125,-0.984588623046875,-0.137451171875,-0.005279541015625
1761915537355318800,3.12031884765625,-0.9898223876953125,-0.1356048583984375,-0.0061798095703125
1761915537365373000,3.130373046875,-0.994537353515625,-0.13568115234375,-0.00762939453125
1761915537375426800,3.1404267578125,-0.9954986572265625,-0.1364593505859375,-0.005828857421875
1761915537385481000,3.15048095703125,-0.9926605224609375,-0.13714599609375,-0.004241943359375
1761915537395535600,3.16053564453125,-0.9882659912109375,-0.1375579833984375,-0.0040283203125
1761915537405589800,3.17058984375,-0.9884185791015625,-0.1367340087890625,-0.0044403076171875
1761915537415643600,3.1806435546875,-0.9909515380859375,-0.135589599609375,-0.0062713623046875
1761915537425697800,3.19069775390625,-0.9929046630859375,-0.134368896484375,-0.004638671875
1761915537435752000,3.200751953125,-0.9897613525390625,-0.1359710693359375,-0.0076446533203125
1761915537445806800,3.210806884765625,-0.9859466552734375,-0.1395416259765625,-0.012176513671875
1761915537455860700,3.22086083984375,-0.97991943359375,-0.1416015625,-0.0107879638671875
1761915537465914600,3.23091455078125,-0.97894287109375,-0.1465911865234375,-0.00775146484375
1761915537475968800,3.24096875,-0.9872894287109375,-0.1499481201171875,-0.0047760009765625
1761915537486022700,3.251022705078125,-0.989227294921875,-0.147735595703125,-0.0016021728515625
1761915537496077800,3.261077880859375,-0.9829864501953125,-0.144805908203125,-0.0032501220703125
1761915537506132000,3.271132080078125,-0.984710693359375,-0.139495849609375,-0.006591796875
1761915537516185900,3.281185791015625,-0.988800048828125,-0.1336517333984375,-0.0057373046875
1761915537526239700,3.29123974609375,-0.995147705078125,-0.1309814453125,-0.0057830810546875
1761915537536293600,3.301293701171875,-0.9986724853515625,-0.1280364990234375,-0.0035552978515625
1761915537546347800,3.31134765625,-0.9973907470703125,-0.1305084228515625,-0.0023345947265625
1761915537556403000,3.32140283203125,-0.988311767578125,-0.13623046875,-0.00274658203125
1761915537566456800,3.331456787109375,-0.9783477783203125,-0.14239501953125,-0.0036163330078125
1761915537576511000,3.341510986328125,-0.96746826171875,-0.14678955078125,-0.0047607421875
1761915537586564900,3.35156494140625,-0.962615966796875,-0.1471405029296875,-0.004791259765625
1761915537596619000,3.361618896484375,-0.965423583984375,-0.1452484130859375,-0.005950927734375
1761915537606673700,3.371673583984375,-0.9719696044921875,-0.1431121826171875,-0.007293701171875
1761915537616727800,3.381727783203125,-0.97930908203125,-0.14007568359375,-0.004638671875
1761915537626781700,3.39178173828125,-0.98077392578125,-0.1376953125,-0.00311279296875
1761915537636835800,3.4018359375,-0.981781005859375,-0.1425018310546875,-0.0023651123046875
1761915537646890000,3.411889892578125,-0.982391357421875,-0.1449432373046875,-0.0020751953125
1761915537656944600,3.421944580078125,-0.98187255859375,-0.1471405029296875,-0.002227783203125
1761915537666998800,3.431998779296875,-0.978851318359375,-0.145751953125,-0.0000762939453125
1761915537677052700,3.442052734375,-0.978363037109375,-0.147216796875,-0.0003814697265625
1761915537687106800,3.45210693359375,-0.9803314208984375,-0.149200439453125,0
1761915537697160700,3.46216064453125,-0.979522705078125,-0.1494903564453125,0.00189208984375
1761915537707214800,3.47221484375,-0.973968505859375,-0.1519927978515625,0.001708984375
1761915537717270000,3.48227001953125,-0.9741973876953125,-0.1518707275390625,-0.0045318603515625
1761915537727323600,3.49232373046875,-0.982879638671875,-0.1451873779296875,-0.0049285888671875
1761915537737377800,3.502377685546875,-0.9855194091796875,-0.1396331787109375,-0.0019378662109375
1761915537747431700,3.512431640625,-0.980560302734375,-0.1424560546875,-0.0034637451171875
1761915537757485800,3.52248583984375,-0.9761962890625,-0.147735595703125,-0.0054168701171875
1761915537767540700,3.532540771484375,-0.973236083984375,-0.1536865234375,-0.006500244140625
1761915537777595000,3.542594970703125,-0.973785400390625,-0.1563568115234375,-0.005462646484375
1761915537787649000,3.55264892578125,-0.9811553955078125,-0.1552734375,-0.0053253173828125
1761915537797703000,3.562702880859375,-0.9869537353515625,-0.1529541015625,-0.0042877197265625
1761915537807756800,3.5727568359375,-0.9872894287109375,-0.149200439453125,-0.0066680908203125
1761915537817811700,3.582811767578125,-0.9832916259765625,-0.1450653076171875,-0.0090484619140625
1761915537827865900,3.592865966796875,-0.976409912109375,-0.1417694091796875,-0.009368896484375
1761915537837919700,3.602919677734375,-0.9736785888671875,-0.1399078369140625,-0.0095062255859375
1761915537847974000,3.612973876953125,-0.9725341796875,-0.141815185546875,-0.0115203857421875
1761915537858027800,3.62302783203125,-0.98101806640625,-0.1465911865234375,-0.011505126953125
1761915537868082000,3.63308203125,-0.989715576171875,-0.1464996337890625,-0.0095062255859375
1761915537878136800,3.64313671875,-1.0031280517578125,-0.1417999267578125,-0.004852294921875
1761915537888190700,3.653190673828125,-1.010589599609375,-0.1379852294921875,-0.0009918212890625
1761915537898244900,3.663244873046875,-1.00531005859375,-0.137176513671875,-0.000640869140625
1761915537908298800,3.673298828125,-0.9937286376953125,-0.1392059326171875,-0.00347900390625
1761915537918353000,3.683352783203125,-0.9834442138671875,-0.1450958251953125,-0.006439208984375
1761915537928407800,3.69340771484375,-0.9805450439453125,-0.1473541259765625,-0.006591796875
1761915537938461700,3.703461669921875,-0.9834747314453125,-0.15167236328125,-0.0108184814453125
1761915537948515800,3.713515869140625,-0.9915924072265625,-0.1561737060546875,-0.01513671875
1761915537958566000,3.72356591796875,-0.9982757568359375,-0.1588287353515625,-0.0153045654296875
1761915537968620000,3.7336201171875,-1.00103759765625,-0.1544036865234375,-0.01507568359375
1761915537978675200,3.74367529296875,-0.9992218017578125,-0.1478424072265625,-0.015655517578125
1761915537988729000,3.75372900390625,-0.9900970458984375,-0.14617919921875,-0.0217437744140625
1761915537998783200,3.763783203125,-0.97747802734375,-0.14361572265625,-0.0258636474609375
1761915538008836900,3.7738369140625,-0.9694366455078125,-0.143402099609375,-0.0301055908203125
1761915538018891000,3.78389111328125,-0.9764404296875,-0.146392822265625,-0.0297698974609375
1761915538028945000,3.79394482421875,-0.9867095947265625,-0.140716552734375,-0.02593994140625
1761915538039000000,3.804,-0.98809814453125,-0.139739990234375,-0.0283966064453125
1761915538049054200,3.81405419921875,-0.9901885986328125,-0.141571044921875,-0.032684326171875
1761915538059108000,3.824108154296875,-0.9925384521484375,-0.14239501953125,-0.0293731689453125
1761915538069162200,3.834162353515625,-0.9851837158203125,-0.1438751220703125,-0.0269012451171875
1761915538079216000,3.844216064453125,-0.9733123779296875,-0.1518096923828125,-0.0304107666015625
1761915538089271000,3.85427099609375,-0.9654998779296875,-0.159332275390625,-0.0373077392578125
1761915538099325000,3.864324951171875,-0.961334228515625,-0.1570281982421875,-0.0403289794921875
1761915538109379000,3.874379150390625,-0.950592041015625,-0.155426025390625,-0.040130615234375
1761915538119433200,3.88443310546875,-0.9459228515625,-0.1600799560546875,-0.03997802734375
1761915538129487000,3.894487060546875,-0.9415740966796875,-0.168304443359375,-0.0394744873046875
1761915538139542000,3.9045419921875,-0.933929443359375,-0.1759796142578125,-0.0393829345703125
1761915538149596000,3.914595947265625,-0.9351348876953125,-0.1877288818359375,-0.041595458984375
1761915538159650000,3.924650146484375,-0.935028076171875,-0.193389892578125,-0.040008544921875
1761915538169704000,3.934703857421875,-0.9324951171875,-0.1890869140625,-0.0392913818359375
1761915538179758000,3.944758056640625,-0.93609619140625,-0.1821136474609375,-0.0389862060546875
1761915538189813200,3.954813232421875,-0.9412689208984375,-0.18096923828125,-0.0408935546875
1761915538199867100,3.9648671875,-0.958587646484375,-0.1787261962890625,-0.0380859375
1761915538209921000,3.974921142578125,-0.966949462890625,-0.1749725341796875,-0.0320892333984375
1761915538219975000,3.984974853515625,-0.9716339111328125,-0.1795196533203125,-0.0334320068359375
1761915538230029000,3.995029052734375,-0.964263916015625,-0.1786346435546875,-0.0374908447265625
1761915538240083000,4.0050830078125,-0.955780029296875,-0.17291259765625,-0.043670654296875
1761915538250138000,4.01513818359375,-0.96075439453125,-0.1677093505859375,-0.045135498046875
1761915538260192300,4.025192138671875,-0.97052001953125,-0.1587066650390625,-0.0377044677734375
1761915538270246100,4.03524609375,-0.974884033203125,-0.1576690673828125,-0.036712646484375
1761915538280300000,4.045300048828125,-0.985504150390625,-0.165130615234375,-0.0378875732421875
1761915538290354000,4.05535400390625,-0.9974822998046875,-0.167022705078125,-0.0351715087890625
1761915538300409000,4.0654091796875,-0.9930419921875,-0.162689208984375,-0.033905029296875
1761915538310463000,4.075462890625,-0.9800872802734375,-0.1591033935546875,-0.0376129150390625
1761915538320517000,4.08551708984375,-0.97265625,-0.1561431884765625,-0.040679931640625
1761915538330571300,4.0955712890625,-0.9749908447265625,-0.153839111328125,-0.0401458740234375
1761915538340625200,4.105625244140625,-0.983489990234375,-0.1525726318359375,-0.0347137451171875
1761915538350680000,4.11568017578125,-0.988372802734375,-0.155548095703125,-0.03167724609375
1761915538360734000,4.12573388671875,-0.996826171875,-0.158050537109375,-0.031158447265625
1761915538370788000,4.1357880859375,-0.99822998046875,-0.1530303955078125,-0.02899169921875
1761915538380842000,4.145842041015625,-0.990692138671875,-0.14837646484375,-0.0301666259765625
1761915538390896000,4.155896240234375,-0.9850921630859375,-0.148529052734375,-0.0326995849609375
1761915538400951000,4.165950927734375,-0.981781005859375,-0.14984130859375,-0.034820556640625
1761915538411005000,4.1760048828125,-0.984039306640625,-0.14703369140625,-0.03448486328125
1761915538421059000,4.18605908203125,-0.982757568359375,-0.1428680419921875,-0.0345001220703125
1761915538431113000,4.196113037109375,-0.98309326171875,-0.146087646484375,-0.0376129150390625
1761915538441167000,4.2061669921875,-0.9895782470703125,-0.1497650146484375,-0.0367279052734375
1761915538451221000,4.216220947265625,-0.993133544921875,-0.1511077880859375,-0.0355377197265625
1761915538461276200,4.226276123046875,-0.993988037109375,-0.1497039794921875,-0.03778076171875
1761915538471330000,4.236330078125,-0.989654541015625,-0.145050048828125,-0.040069580078125
1761915538481384000,4.246384033203125,-0.989013671875,-0.1385650634765625,-0.039581298828125
1761915538491438000,4.25643798828125,-0.9871368408203125,-0.1314849853515625,-0.037689208984375
1761915538501492000,4.266491943359375,-0.989013671875,-0.1240386962890625,-0.035247802734375
1761915538511547100,4.276547119140625,-1.0009918212890625,-0.1182403564453125,-0.0323944091796875
1761915538521601000,4.28660107421875,-1.0116729736328125,-0.1140899658203125,-0.0264434814453125
1761915538531655200,4.2966552734375,-1.019622802734375,-0.1152801513671875,-0.0227813720703125
1761915538541709000,4.306708984375,-1.0182342529296875,-0.117034912109375,-0.023162841796875
1761915538551763000,4.316762939453125,-1.0083770751953125,-0.120697021484375,-0.025238037109375
1761915538561818000,4.326818115234375,-1.00244140625,-0.12591552734375,-0.0266571044921875
1761915538571872000,4.3368720703125,-0.994873046875,-0.128143310546875,-0.0257720947265625
1761915538581926100,4.346926025390625,-0.9871978759765625,-0.128570556640625,-0.026519775390625
1761915538591980000,4.35697998046875,-0.9796295166015625,-0.12921142578125,-0.0297698974609375
1761915538602034200,4.3670341796875,-0.9774017333984375,-0.130706787109375,-0.03106689453125
1761915538612089000,4.377089111328125,-0.974273681640625,-0.135040283203125,-0.030120849609375
1761915538622143000,4.38714306640625,-0.972808837890625,-0.1395111083984375,-0.0276031494140625
1761915538632197000,4.397197021484375,-0.971405029296875,-0.1448516845703125,-0.0267333984375
1761915538642251000,4.4072509765625,-0.966156005859375,-0.14593505859375,-0.026580810546875
1761915538652305200,4.41730517578125,-0.9702606201171875,-0.144317626953125,-0.025909423828125
1761915538662360000,4.427360107421875,-0.9749908447265625,-0.1434173583984375,-0.0261077880859375
1761915538672414000,4.4374140625,-0.9757843017578125,-0.1433258056640625,-0.0255279541015625
1761915538682467800,4.4474677734375,-0.9747467041015625,-0.143951416015625,-0.0266876220703125
1761915538692522000,4.45752197265625,-0.964447021484375,-0.14459228515625,-0.02838134765625
1761915538702576000,4.467576171875,-0.9639739990234375,-0.1405487060546875,-0.029449462890625
1761915538712630000,4.477630126953125,-0.9706268310546875,-0.1320037841796875,-0.027557373046875
1761915538722685200,4.487685302734375,-0.9791107177734375,-0.1255035400390625,-0.0275421142578125
1761915538732739000,4.497739013671875,-0.9886627197265625,-0.12347412109375,-0.0248870849609375
1761915538742793000,4.50779296875,-0.98614501953125,-0.1220855712890625,-0.02410888671875
1761915538752846800,4.517846923828125,-0.979339599609375,-0.1268157958984375,-0.027587890625
1761915538762901000,4.52790087890625,-0.983245849609375,-0.131744384765625,-0.0316314697265625
1761915538772956200,4.5379560546875,-0.9974822998046875,-0.1305084228515625,-0.0300445556640625
1761915538783010000,4.548010009765625,-1.00439453125,-0.123260498046875,-0.026611328125
1761915538793064200,4.558064208984375,-1.0073699951171875,-0.11859130859375,-0.0258941650390625
1761915538803118000,4.5681181640625,-1.005523681640625,-0.1180877685546875,-0.0266876220703125
1761915538813172200,4.578172119140625,-1.0010986328125,-0.118927001953125,-0.0276947021484375
1761915538823227100,4.58822705078125,-0.9942474365234375,-0.12493896484375,-0.026397705078125
1761915538833281000,4.598281005859375,-0.9801177978515625,-0.1316680908203125,-0.0269775390625
1761915538843335200,4.608335205078125,-0.971282958984375,-0.1311798095703125,-0.030364990234375
1761915538853389000,4.61838916015625,-0.9740142822265625,-0.1234283447265625,-0.0310516357421875
1761915538863443200,4.628443115234375,-0.985809326171875,-0.1196136474609375,-0.03045654296875
1761915538873497900,4.638497802734375,-0.9923095703125,-0.1209869384765625,-0.0297088623046875
1761915538883552000,4.648552001953125,-0.9895782470703125,-0.1235809326171875,-0.028045654296875
1761915538893606000,4.65860595703125,-0.9825439453125,-0.1286468505859375,-0.0262603759765625
1761915538903660000,4.668659912109375,-0.9752655029296875,-0.137420654296875,-0.026641845703125
1761915538913714200,4.678714111328125,-0.9769134521484375,-0.1407012939453125,-0.026153564453125
1761915538923769000,4.68876904296875,-0.9810333251953125,-0.1392822265625,-0.0232391357421875
1761915538933823200,4.6988232421875,-0.9810028076171875,-0.1388702392578125,-0.022857666015625
1761915538943876900,4.708876953125,-0.9818572998046875,-0.1424407958984375,-0.02325439453125
1761915538953931000,4.718930908203125,-0.982757568359375,-0.1450042724609375,-0.0220184326171875
1761915538963982800,4.72898291015625,-0.97796630859375,-0.1472930908203125,-0.018310546875
1761915538974037000,4.739037109375,-0.9763031005859375,-0.1500091552734375,-0.017333984375
1761915538984091100,4.749091064453125,-0.97509765625,-0.1467742919921875,-0.017791748046875
1761915538994145800,4.759145751953125,-0.978729248046875,-0.1399688720703125,-0.017791748046875
1761915539004200000,4.769199951171875,-0.9874114990234375,-0.1333160400390625,-0.0166473388671875
1761915539014253800,4.77925390625,-0.9929046630859375,-0.1291046142578125,-0.016265869140625
1761915539024308000,4.789307861328125,-0.992095947265625,-0.128265380859375,-0.0182952880859375
1761915539034361900,4.79936181640625,-0.9845428466796875,-0.1305999755859375,-0.02117919921875
1761915539044417000,4.8094169921875,-0.98162841796875,-0.1339111328125,-0.025634765625
1761915539054471000,4.819470947265625,-0.978179931640625,-0.1327056884765625,-0.0278778076171875
1761915539064524800,4.82952490234375,-0.9752197265625,-0.1277923583984375,-0.0290679931640625
1761915539074579000,4.839578857421875,-0.9782867431640625,-0.12347412109375,-0.029296875
1761915539084632800,4.8496328125,-0.988006591796875,-0.1206512451171875,-0.031005859375
1761915539094688000,4.85968798828125,-0.994781494140625,-0.1189727783203125,-0.0276641845703125
1761915539104742000,4.869741943359375,-0.994903564453125,-0.119781494140625,-0.0289459228515625
1761915539114796000,4.879796142578125,-0.9998626708984375,-0.1221160888671875,-0.027252197265625
1761915539124850000,4.889849853515625,-1.000640869140625,-0.120880126953125,-0.0252227783203125
1761915539134903800,4.89990380859375,-0.99432373046875,-0.121612548828125,-0.0291900634765625
1761915539144959000,4.909958984375,-0.988037109375,-0.122222900390625,-0.0331573486328125
1761915539155012900,4.920012939453125,-0.9803619384765625,-0.1197052001953125,-0.034454345703125
1761915539165067000,4.93006689453125,-0.9731597900390625,-0.1207427978515625,-0.0347747802734375
1761915539175121000,4.940120849609375,-0.9701385498046875,-0.1270904541015625,-0.0369110107421875
1761915539185175000,4.950175048828125,-0.970458984375,-0.1317138671875,-0.0357818603515625
1761915539195230000,4.96022998046875,-0.976593017578125,-0.1373291015625,-0.0319366455078125
1761915539205283800,4.970283935546875,-0.9822540283203125,-0.1407623291015625,-0.02984619140625
1761915539215338000,4.980337890625,-0.9822845458984375,-0.1390533447265625,-0.0273590087890625
1761915539225391900,4.990391845703125,-0.9818878173828125,-0.13726806640625,-0.026702880859375
1761915539235446000,5.000446044921875,-0.985260009765625,-0.1346588134765625,-0.027618408203125
1761915539245501000,5.0105009765625,-0.994110107421875,-0.131988525390625,-0.0280609130859375
1761915539255554800,5.020554931640625,-1.0009613037109375,-0.13043212890625,-0.027191162109375
1761915539265609000,5.03060888671875,-0.997955322265625,-0.131439208984375,-0.02716064453125
1761915539275662800,5.040662841796875,-0.9852294921875,-0.13238525390625,-0.02703857421875
1761915539285717000,5.050717041015625,-0.968902587890625,-0.130340576171875,-0.0296478271484375
1761915539295772000,5.06077197265625,-0.96356201171875,-0.13238525390625,-0.0332794189453125
1761915539305826000,5.070825927734375,-0.96746826171875,-0.1326141357421875,-0.0338134765625
1761915539315880000,5.0808798828125,-0.9756317138671875,-0.1327667236328125,-0.0302581787109375
1761915539325933800,5.090933837890625,-0.98486328125,-0.1321258544921875,-0.027557373046875
1761915539335988000,5.100988037109375,-0.9898834228515625,-0.13177490234375,-0.025543212890625
1761915539346043000,5.11104296875,-0.9947509765625,-0.128387451171875,-0.0247802734375
1761915539356097000,5.121096923828125,-0.992340087890625,-0.124481201171875,-0.02386474609375
1761915539366151000,5.13115087890625,-0.9826812744140625,-0.1260528564453125,-0.025970458984375
1761915539376205000,5.141205078125,-0.9698944091796875,-0.128753662109375,-0.0310516357421875
1761915539386259000,5.151259033203125,-0.9661712646484375,-0.129425048828125,-0.032012939453125
1761915539396313900,5.16131396484375,-0.9705810546875,-0.1322021484375,-0.0302276611328125
1761915539406368000,5.171367919921875,-0.97552490234375,-0.1329193115234375,-0.0290069580078125
1761915539416422000,5.181421875,-0.9771575927734375,-0.13421630859375,-0.0287322998046875
1761915539426476000,5.19147607421875,-0.9775848388671875,-0.1359100341796875,-0.02685546875
1761915539436530000,5.201530029296875,-0.97967529296875,-0.138275146484375,-0.026031494140625
1761915539446584800,5.211584716796875,-0.9839324951171875,-0.13751220703125,-0.02288818359375
1761915539456638700,5.221638671875,-0.9864959716796875,-0.1359710693359375,-0.021026611328125
1761915539466692900,5.23169287109375,-0.990997314453125,-0.1305389404296875,-0.022430419921875
1761915539476747000,5.2417470703125,-0.9925079345703125,-0.1241455078125,-0.0231170654296875
1761915539486801000,5.25180078125,-0.9933624267578125,-0.12286376953125,-0.02349853515625
1761915539496855000,5.26185498046875,-0.988128662109375,-0.123779296875,-0.0255126953125
1761915539506910000,5.271909912109375,-0.9837493896484375,-0.1268157958984375,-0.025970458984375
1761915539516963800,5.2819638671875,-0.9827117919921875,-0.1290130615234375,-0.025909423828125
1761915539527017700,5.292017822265625,-0.982757568359375,-0.128326416015625,-0.027496337890625
1761915539537071900,5.30207177734375,-0.9814605712890625,-0.1271820068359375,-0.0278778076171875
1761915539547127000,5.312126953125,-0.9805755615234375,-0.128082275390625,-0.0259857177734375
1761915539557181000,5.322180908203125,-0.982635498046875,-0.1321868896484375,-0.0238800048828125
1761915539567235800,5.33223583984375,-0.9844207763671875,-0.1342926025390625,-0.0220184326171875
1761915539577289700,5.342289794921875,-0.9841766357421875,-0.133514404296875,-0.02069091796875
1761915539587344000,5.35234375,-0.9800262451171875,-0.134368896484375,-0.022735595703125
1761915539597398000,5.36239794921875,-0.9734954833984375,-0.1345977783203125,-0.0253753662109375
1761915539607452000,5.372451904296875,-0.97027587890625,-0.1364593505859375,-0.025054931640625
1761915539617507000,5.382507080078125,-0.9708709716796875,-0.1367340087890625,-0.026214599609375
1761915539627561000,5.39256103515625,-0.973907470703125,-0.138885498046875,-0.0258026123046875
1761915539637614800,5.40261474609375,-0.97711181640625,-0.137969970703125,-0.025543212890625
1761915539647668700,5.412668701171875,-0.9806060791015625,-0.13531494140625,-0.023895263671875
1761915539657723000,5.422722900390625,-0.9870758056640625,-0.132415771484375,-0.0214996337890625
1761915539667778000,5.432778076171875,-0.9921417236328125,-0.1307373046875,-0.0183868408203125
1761915539677832000,5.44283203125,-0.994842529296875,-0.1306610107421875,-0.01641845703125
1761915539687886000,5.452885986328125,-0.9947509765625,-0.130462646484375,-0.0153045654296875
1761915539697940000,5.46293994140625,-0.9901885986328125,-0.135223388671875,-0.0149993896484375
1761915539707994000,5.472994140625,-0.988311767578125,-0.1385345458984375,-0.0174713134765625
1761915539718049000,5.483049072265625,-0.991058349609375,-0.1381072998046875,-0.016937255859375
1761915539728103000,5.49310302734375,-0.9966583251953125,-0.136077880859375,-0.0161285400390625
1761915539738157000,5.503156982421875,-0.9991607666015625,-0.1324462890625,-0.0163421630859375
1761915539748211000,5.5132109375,-0.995635986328125,-0.1272430419921875,-0.0186614990234375
1761915539758265000,5.52326513671875,-0.992401123046875,-0.122802734375,-0.0204315185546875
1761915539768319700,5.53331982421875,-0.9949798583984375,-0.1191558837890625,-0.0185546875
1761915539778374000,5.543373779296875,-1.0004119873046875,-0.1201629638671875,-0.0168914794921875
1761915539788427800,5.553427734375,-1.0006256103515625,-0.1223602294921875,-0.0193328857421875
1761915539798482000,5.56348193359375,-0.9993896484375,-0.123626708984375,-0.0216522216796875
1761915539808537000,5.573537109375,-0.9941253662109375,-0.121429443359375,-0.0217437744140625
1761915539818591000,5.583591064453125,-0.9890899658203125,-0.1199951171875,-0.0218658447265625
1761915539828644900,5.593644775390625,-0.9859161376953125,-0.1218109130859375,-0.0242156982421875
1761915539838698800,5.60369873046875,-0.97930908203125,-0.1266937255859375,-0.0252532958984375
1761915539848753000,5.6137529296875,-0.9752197265625,-0.13507080078125,-0.0251312255859375
1761915539858808000,5.62380810546875,-0.9687957763671875,-0.1430511474609375,-0.0263671875
1761915539868862000,5.633862060546875,-0.960418701171875,-0.1459503173828125,-0.0303497314453125
1761915539878916000,5.643916015625,-0.9603271484375,-0.1412506103515625,-0.0317230224609375
1761915539888970000,5.653969970703125,-0.972442626953125,-0.1346588134765625,-0.0311431884765625
1761915539899024100,5.664024169921875,-0.979888916015625,-0.1320037841796875,-0.0304412841796875
1761915539909077800,5.674077880859375,-0.97930908203125,-0.133026123046875,-0.0296630859375
1761915539919133000,5.6841328125,-0.9715728759765625,-0.1355133056640625,-0.029541015625
1761915539929186800,5.694186767578125,-0.9663543701171875,-0.13555908203125,-0.028228759765625
1761915539939241000,5.704240966796875,-0.9680938720703125,-0.1318206787109375,-0.0281219482421875
1761915539949295000,5.714295166015625,-0.9757537841796875,-0.1251983642578125,-0.0266265869140625
1761915539959349000,5.724348876953125,-0.9848785400390625,-0.1190338134765625,-0.0258636474609375
1761915539969404400,5.734404296875,-0.9929962158203125,-0.116455078125,-0.0245819091796875
1761915539979458300,5.744458251953125,-0.9995269775390625,-0.1212158203125,-0.022064208984375
1761915539989512400,5.754512451171875,-1.0012969970703125,-0.1317291259765625,-0.0185546875
1761915539999566300,5.76456640625,-0.9972991943359375,-0.141571044921875,-0.015869140625
1761915540009621500,5.77462158203125,-0.9874114990234375,-0.1546783447265625,-0.016754150390625
1761915540019675100,5.784675048828125,-0.98052978515625,-0.1589508056640625,-0.018341064453125
1761915540029729300,5.794729248046875,-0.97528076171875,-0.1503753662109375,-0.0165252685546875
1761915540039783200,5.804783203125,-0.9746246337890625,-0.1403350830078125,-0.016998291015625
1761915540049837300,5.81483740234375,-0.979156494140625,-0.133331298828125,-0.0182342529296875
1761915540059892500,5.824892578125,-0.986053466796875,-0.1312103271484375,-0.0175933837890625
1761915540069946400,5.8349462890625,-0.9912109375,-0.1341400146484375,-0.0157318115234375
1761915540080000500,5.84500048828125,-0.99139404296875,-0.1392974853515625,-0.0136566162109375
1761915540090054400,5.855054443359375,-0.9873199462890625,-0.14306640625,-0.0142364501953125
1761915540100108300,5.8651083984375,-0.9817657470703125,-0.1449127197265625,-0.0186614990234375
1761915540110163500,5.87516357421875,-0.9769744873046875,-0.1442718505859375,-0.021514892578125
1761915540120217300,5.88521728515625,-0.9761505126953125,-0.14300537109375,-0.0236663818359375
1761915540130271500,5.895271484375,-0.9797821044921875,-0.1408538818359375,-0.0242919921875
1761915540140325400,5.905325439453125,-0.98675537109375,-0.1388092041015625,-0.02374267578125
1761915540150379500,5.915379638671875,-0.9882965087890625,-0.1379547119140625,-0.0213775634765625
1761915540160434200,5.92543408203125,-0.9785919189453125,-0.14013671875,-0.0220184326171875
1761915540170488300,5.93548828125,-0.96893310546875,-0.141510009765625,-0.025665283203125
1761915540180542200,5.945542236328125,-0.96209716796875,-0.139129638671875,-0.0271759033203125
1761915540190596400,5.955596435546875,-0.965423583984375,-0.1342315673828125,-0.026092529296875
1761915540200650500,5.965650390625,-0.9777984619140625,-0.13067626953125,-0.024169921875
1761915540210705400,5.975705322265625,-0.989349365234375,-0.1273956298828125,-0.0238800048828125
1761915540220759300,5.98575927734375,-0.99951171875,-0.1272430419921875,-0.0254364013671875
1761915540230813200,5.995813232421875,-0.9979400634765625,-0.126922607421875,-0.0243072509765625
1761915540240867300,6.005867431640625,-0.9887542724609375,-0.127410888671875,-0.023162841796875
1761915540250921200,6.015921142578125,-0.9811859130859375,-0.1294403076171875,-0.0246124267578125
1761915540260976400,6.025976318359375,-0.9773712158203125,-0.1344451904296875,-0.0245819091796875
1761915540271030500,6.036030517578125,-0.9758148193359375,-0.141693115234375,-0.027191162109375
1761915540281084400,6.04608447265625,-0.97381591796875,-0.140594482421875,-0.025787353515625
1761915540291138300,6.05613818359375,-0.97637939453125,-0.1371917724609375,-0.0232086181640625
1761915540301192200,6.066192138671875,-0.983367919921875,-0.1326751708984375,-0.021453857421875
1761915540311247400,6.076247314453125,-0.9957733154296875,-0.1258697509765625,-0.018402099609375
1761915540321301500,6.086301513671875,-1.00579833984375,-0.1204681396484375,-0.0162353515625
1761915540331355400,6.09635546875,-1.008941650390625,-0.1201019287109375,-0.01641845703125
1761915540341409500,6.106409423828125,-0.9994354248046875,-0.1241455078125,-0.0186614990234375
1761915540351463400,6.11646337890625,-0.979522705078125,-0.1317901611328125,-0.0238037109375
1761915540361518300,6.126518310546875,-0.96478271484375,-0.1396331787109375,-0.026824951171875
1761915540371572200,6.136572265625,-0.9556884765625,-0.1453399658203125,-0.0288848876953125
1761915540381626400,6.14662646484375,-0.9494781494140625,-0.151397705078125,-0.0318145751953125
1761915540391680300,6.15668017578125,-0.95697021484375,-0.1558074951171875,-0.0308990478515625
1761915540401734400,6.166734375,-0.9717559814453125,-0.1543731689453125,-0.026336669921875
1761915540411789300,6.176789306640625,-0.9851531982421875,-0.149505615234375,-0.022003173828125
1761915540421843200,6.18684326171875,-0.9909515380859375,-0.1448516845703125,-0.018768310546875
1761915540431897300,6.1968974609375,-0.9906158447265625,-0.14044189453125,-0.0166778564453125
1761915540441951200,6.206951171875,-0.98724365234375,-0.1353759765625,-0.0166473388671875
1761915540452005400,6.21700537109375,-0.985870361328125,-0.1347808837890625,-0.0184478759765625
1761915540462060500,6.227060546875,-0.9868316650390625,-0.135345458984375,-0.019012451171875
1761915540472114400,6.237114501953125,-0.98468017578125,-0.1378173828125,-0.019378662109375
1761915540482168300,6.247168212890625,-0.985260009765625,-0.1383514404296875,-0.0216827392578125
1761915540492222200,6.25722216796875,-0.98687744140625,-0.137054443359375,-0.022308349609375
1761915540502276400,6.2672763671875,-0.9845733642578125,-0.1326446533203125,-0.023101806640625
1761915540512331300,6.277331298828125,-0.9818572998046875,-0.1279144287109375,-0.0243377685546875
1761915540522385400,6.287385498046875,-0.9790802001953125,-0.1267852783203125,-0.02435302734375
1761915540532439300,6.297439208984375,-0.975677490234375,-0.128204345703125,-0.0267181396484375
1761915540542493400,6.307493408203125,-0.97265625,-0.1316680908203125,-0.0274658203125
1761915540552547300,6.31754736328125,-0.9727935791015625,-0.1324310302734375,-0.0260009765625
1761915540562602200,6.327602294921875,-0.975341796875,-0.1337738037109375,-0.0250091552734375
1761915540572656400,6.337656494140625,-0.982208251953125,-0.1376800537109375,-0.0233612060546875
1761915540582710300,6.347710205078125,-0.983123779296875,-0.137542724609375,-0.02197265625
1761915540592764400,6.357764404296875,-0.9845428466796875,-0.1358184814453125,-0.024688720703125
1761915540602818300,6.367818359375,-0.983306884765625,-0.1333465576171875,-0.0278778076171875
1761915540612873200,6.377873291015625,-0.9776458740234375,-0.131683349609375,-0.0313720703125
1761915540622927400,6.38792724609375,-0.9768524169921875,-0.1311798095703125,-0.0341949462890625
1761915540632981200,6.397981201171875,-0.9808349609375,-0.1342315673828125,-0.03533935546875
1761915540643035400,6.408035400390625,-0.9827880859375,-0.136749267578125,-0.0330810546875
1761915540653090300,6.41809033203125,-0.97845458984375,-0.1404266357421875,-0.03314208984375
1761915540663144400,6.42814453125,-0.977294921875,-0.14141845703125,-0.033172607421875
1761915540673198300,6.4381982421875,-0.9787750244140625,-0.133026123046875,-0.0263671875
1761915540683252200,6.448252197265625,-0.986663818359375,-0.1269683837890625,-0.0229644775390625
1761915540693306400,6.458306396484375,-0.993408203125,-0.12847900390625,-0.0241851806640625
1761915540703361300,6.468361328125,-0.9965972900390625,-0.1250457763671875,-0.0238037109375
1761915540713415400,6.47841552734375,-0.9932708740234375,-0.1230010986328125,-0.0201568603515625
1761915540723469300,6.48846923828125,-0.9881439208984375,-0.1259765625,-0.0173797607421875
1761915540733523500,6.4985234375,-0.9799041748046875,-0.13153076171875,-0.0175933837890625
1761915540743577300,6.508577392578125,-0.977447509765625,-0.1361083984375,-0.017547607421875
1761915540753632300,6.51863232421875,-0.9775848388671875,-0.1382598876953125,-0.0181732177734375
1761915540763686400,6.528686279296875,-0.9784393310546875,-0.135528564453125,-0.0182647705078125
1761915540773740300,6.538740234375,-0.980010986328125,-0.131134033203125,-0.0167694091796875
1761915540783794400,6.54879443359375,-0.984649658203125,-0.1275482177734375,-0.0161285400390625
1761915540793848300,6.558848388671875,-0.9963836669921875,-0.1251373291015625,-0.0152587890625
1761915540803903200,6.5689033203125,-1.00128173828125,-0.1239166259765625,-0.0150299072265625
1761915540813957400,6.578957275390625,-0.99664306640625,-0.1283721923828125,-0.017120361328125
1761915540824011300,6.58901123046875,-0.9835052490234375,-0.13348388671875,-0.0204315185546875
1761915540834065400,6.5990654296875,-0.969696044921875,-0.1351776123046875,-0.02398681640625
1761915540844119300,6.609119384765625,-0.9583587646484375,-0.13720703125,-0.02508544921875
1761915540854174500,6.619174560546875,-0.9561614990234375,-0.1390380859375,-0.0270843505859375
1761915540864228400,6.629228271484375,-0.9662628173828125,-0.143035888671875,-0.0250091552734375
1761915540874282200,6.6392822265625,-0.9828033447265625,-0.1436309814453125,-0.0223541259765625
1761915540884336000,6.649336181640625,-0.993011474609375,-0.1367950439453125,-0.0190582275390625
1761915540894390300,6.659390380859375,-0.9940643310546875,-0.131134033203125,-0.0183258056640625
1761915540904445400,6.669445556640625,-0.99365234375,-0.125457763671875,-0.0225067138671875
1761915540914499300,6.679499267578125,-0.9934234619140625,-0.116180419921875,-0.02166748046875
1761915540924553500,6.689553466796875,-0.999267578125,-0.1132049560546875,-0.0198516845703125
1761915540934607400,6.699607421875,-0.9967803955078125,-0.1184234619140625,-0.0202484130859375
1761915540944661500,6.70966162109375,-0.9884796142578125,-0.1266326904296875,-0.020721435546875
1761915540954716400,6.71971630859375,-0.9760589599609375,-0.136810302734375,-0.02178955078125
1761915540964770600,6.7297705078125,-0.97027587890625,-0.143218994140625,-0.0203704833984375
1761915540974824700,6.73982470703125,-0.970733642578125,-0.1434326171875,-0.02093505859375
1761915540984878600,6.749878662109375,-0.9762725830078125,-0.1385650634765625,-0.0196380615234375
1761915540994932700,6.7599326171875,-0.987274169921875,-0.1304473876953125,-0.0183868408203125
1761915541004987400,6.7699873046875,-0.9954071044921875,-0.125946044921875,-0.019287109375
1761915541015041500,6.78004150390625,-0.9980010986328125,-0.123321533203125,-0.0188751220703125
1761915541025095400,6.790095458984375,-0.9965667724609375,-0.1253204345703125,-0.0183563232421875
1761915541035149600,6.800149658203125,-0.992919921875,-0.130950927734375,-0.018280029296875
1761915541045203500,6.810203369140625,-0.9835052490234375,-0.137603759765625,-0.0195770263671875
1761915541055258600,6.820258544921875,-0.9730987548828125,-0.14080810546875,-0.0218658447265625
1761915541065312500,6.8303125,-0.966796875,-0.1393585205078125,-0.0236663818359375
1761915541075366400,6.840366455078125,-0.972991943359375,-0.1391448974609375,-0.025299072265625
1761915541085420500,6.850420654296875,-0.98016357421875,-0.1367645263671875,-0.02215576171875
1761915541095474400,6.860474365234375,-0.987884521484375,-0.138092041015625,-0.0198974609375
1761915541105529600,6.870529541015625,-0.9942169189453125,-0.139190673828125,-0.0175933837890625
1761915541115583700,6.880583740234375,-0.9914398193359375,-0.1407012939453125,-0.0145263671875
1761915541125637600,6.8906376953125,-0.982940673828125,-0.1433868408203125,-0.0137176513671875
1761915541135691500,6.90069140625,-0.976654052734375,-0.1422271728515625,-0.01470947265625
1761915541145745400,6.910745361328125,-0.97686767578125,-0.1378021240234375,-0.016815185546875
1761915541155800600,6.920800537109375,-0.98809814453125,-0.1347808837890625,-0.0193328857421875
1761915541165854500,6.9308544921875,-0.997222900390625,-0.126800537109375,-0.0166168212890625
1761915541175908600,6.94090869140625,-1.0014190673828125,-0.1259765625,-0.017059326171875
1761915541185962500,6.95096240234375,-0.9918060302734375,-0.1275787353515625,-0.019775390625
1761915541196016600,6.9610166015625,-0.9761810302734375,-0.1297760009765625,-0.0224609375
1761915541206071600,6.971071533203125,-0.9689788818359375,-0.1314544677734375,-0.0218353271484375
1761915541216125400,6.98112548828125,-0.975067138671875,-0.1309051513671875,-0.0208892822265625
1761915541226179600,6.9911796875,-0.981903076171875,-0.131072998046875,-0.0208587646484375
1761915541236233500,7.0012333984375,-0.9830474853515625,-0.1318511962890625,-0.0206756591796875
1761915541246287600,7.01128759765625,-0.976654052734375,-0.13470458984375,-0.0211029052734375
1761915541256342500,7.021342529296875,-0.966522216796875,-0.134979248046875,-0.0209503173828125
1761915541266396400,7.031396484375,-0.96453857421875,-0.132171630859375,-0.0200653076171875
1761915541276450600,7.041450439453125,-0.9754791259765625,-0.126983642578125,-0.0171051025390625
1761915541286504400,7.05150439453125,-0.992767333984375,-0.120635986328125,-0.015106201171875
1761915541296558600,7.06155859375,-0.9990386962890625,-0.11773681640625,-0.0152587890625
1761915541306613500,7.071613525390625,-0.9931640625,-0.1198272705078125,-0.0177764892578125
1761915541316667600,7.081667724609375,-0.976654052734375,-0.124786376953125,-0.0221099853515625
1761915541326721800,7.0917216796875,-0.9683380126953125,-0.1320343017578125,-0.0233306884765625
1761915541336775400,7.101775390625,-0.9658355712890625,-0.1376495361328125,-0.02276611328125
1761915541346830600,7.11183056640625,-0.9673309326171875,-0.139312744140625,-0.022064208984375
1761915541356884500,7.121884521484375,-0.9746246337890625,-0.137115478515625,-0.0196075439453125
1761915541366938600,7.131938720703125,-0.985809326171875,-0.1321868896484375,-0.0187225341796875
1761915541376992500,7.141992431640625,-0.99066162109375,-0.127410888671875,-0.01800537109375
1761915541387046700,7.152046630859375,-0.995086669921875,-0.125152587890625,-0.0150909423828125
1761915541397101600,7.1621015625,-0.9974365234375,-0.12530517578125,-0.012725830078125
1761915541407155500,7.172155517578125,-1.0011749267578125,-0.126739501953125,-0.0127105712890625
1761915541417209600,7.182209716796875,-1.0079803466796875,-0.1244354248046875,-0.0116119384765625
1761915541427263500,7.192263427734375,-1.0022735595703125,-0.1236419677734375,-0.0151519775390625
1761915541437317600,7.202317626953125,-0.990570068359375,-0.118865966796875,-0.018280029296875
1761915541447372800,7.212372802734375,-0.990936279296875,-0.11688232421875,-0.0204620361328125
1761915541457426400,7.222426513671875,-0.995635986328125,-0.1157684326171875,-0.0220794677734375
1761915541467480600,7.23248046875,-0.987548828125,-0.1202850341796875,-0.024261474609375
1761915541477534500,7.242534423828125,-0.9906005859375,-0.122161865234375,-0.0292510986328125
1761915541487588600,7.252588623046875,-0.985595703125,-0.1181640625,-0.0271148681640625
1761915541497643500,7.2626435546875,-0.97662353515625,-0.119354248046875,-0.030120849609375
1761915541507697700,7.27269775390625,-0.9678497314453125,-0.1229705810546875,-0.03289794921875
1761915541517751600,7.28275146484375,-0.9693603515625,-0.1255950927734375,-0.03271484375
1761915541527805400,7.292805419921875,-0.9743194580078125,-0.127349853515625,-0.0316314697265625
1761915541537859300,7.302859375,-0.9767303466796875,-0.127471923828125,-0.0295257568359375
1761915541547914500,7.31291455078125,-0.977874755859375,-0.1282958984375,-0.0293731689453125
1761915541557968600,7.32296875,-0.980804443359375,-0.1285247802734375,-0.02874755859375
1761915541568022500,7.3330224609375,-0.9821624755859375,-0.128631591796875,-0.0283203125
1761915541578076700,7.34307666015625,-0.987701416015625,-0.1256866455078125,-0.02996826171875
1761915541588130600,7.353130615234375,-0.9939117431640625,-0.119781494140625,-0.0277862548828125
1761915541598185500,7.363185546875,-0.9952392578125,-0.1190185546875,-0.0300750732421875
1761915541608239600,7.373239501953125,-0.9890289306640625,-0.1213836669921875,-0.03173828125
1761915541618293500,7.38329345703125,-0.9801177978515625,-0.123138427734375,-0.0319976806640625
1761915541628347600,7.39334765625,-0.9727783203125,-0.1262359619140625,-0.03228759765625
1761915541638401500,7.403401611328125,-0.969635009765625,-0.12847900390625,-0.02984619140625
1761915541648456400,7.41345654296875,-0.9718017578125,-0.1269378662109375,-0.026763916015625
1761915541658510300,7.42351025390625,-0.9866790771484375,-0.1229705810546875,-0.0243377685546875
1761915541668564500,7.433564453125,-1.000457763671875,-0.1212310791015625,-0.0212554931640625
1761915541678618600,7.44361865234375,-1.0058746337890625,-0.119781494140625,-0.020263671875
1761915541688672500,7.453672607421875,-1.00079345703125,-0.115692138671875,-0.01885986328125
1761915541698727700,7.463727783203125,-0.9921417236328125,-0.115570068359375,-0.018768310546875
1761915541708781600,7.473781494140625,-0.9891204833984375,-0.12176513671875,-0.0230255126953125
1761915541718835700,7.483835693359375,-0.9871673583984375,-0.1264801025390625,-0.0257110595703125
1761915541728889300,7.493889404296875,-0.97869873046875,-0.1301727294921875,-0.02734375
1761915541738943500,7.503943603515625,-0.96441650390625,-0.1285858154296875,-0.029449462890625
1761915541748998700,7.51399853515625,-0.9617462158203125,-0.1269073486328125,-0.02874755859375
1761915541759052500,7.524052490234375,-0.971343994140625,-0.1278076171875,-0.0271148681640625
1761915541769106700,7.534106689453125,-0.97613525390625,-0.1252593994140625,-0.02490234375
1761915541779160600,7.54416064453125,-0.9840545654296875,-0.1280059814453125,-0.0258331298828125
1761915541789215500,7.554215576171875,-0.9837646484375,-0.13067626953125,-0.0267333984375
1761915541799269400,7.564269287109375,-0.9730224609375,-0.13006591796875,-0.02886962890625
1761915541809323500,7.574323486328125,-0.9708251953125,-0.1288299560546875,-0.032073974609375
1761915541819377700,7.584377685546875,-0.981658935546875,-0.1251678466796875,-0.0320587158203125
1761915541829431600,7.594431640625,-0.98944091796875,-0.1233062744140625,-0.031646728515625
1761915541839486700,7.60448681640625,-0.9899139404296875,-0.1226959228515625,-0.032012939453125
1761915541849540400,7.614540283203125,-0.9876556396484375,-0.1251220703125,-0.031585693359375
1761915541859594500,7.624594482421875,-0.987091064453125,-0.126800537109375,-0.0319976806640625
1761915541869648400,7.6346484375,-0.9853973388671875,-0.1236572265625,-0.0322265625
1761915541879702500,7.64470263671875,-0.9825286865234375,-0.1217193603515625,-0.0321044921875
1761915541889757700,7.6547578125,-0.9828643798828125,-0.1214447021484375,-0.0321197509765625
1761915541899811600,7.6648115234375,-0.9873046875,-0.1221771240234375,-0.031280517578125
1761915541909865700,7.67486572265625,-0.99127197265625,-0.121551513671875,-0.0327301025390625
1761915541919919600,7.684919677734375,-0.9928131103515625,-0.1190338134765625,-0.0337371826171875
1761915541929973500,7.694973388671875,-0.988739013671875,-0.1159210205078125,-0.031036376953125
1761915541940028700,7.705028564453125,-0.9825897216796875,-0.1152496337890625,-0.0308380126953125
1761915541950082600,7.71508251953125,-0.97900390625,-0.1179351806640625,-0.030029296875
1761915541960136700,7.72513671875,-0.9774932861328125,-0.1172637939453125,-0.0295867919921875
1761915541970190300,7.7351904296875,-0.9797210693359375,-0.116241455078125,-0.028839111328125
1761915541980244500,7.745244384765625,-0.9813385009765625,-0.1155853271484375,-0.02679443359375
1761915541990299100,7.755299072265625,-0.986175537109375,-0.115631103515625,-0.0265350341796875
1761915542000353300,7.765353271484375,-0.9879913330078125,-0.117645263671875,-0.026611328125
1761915542010407200,7.7754072265625,-0.98681640625,-0.1165924072265625,-0.024322509765625
1761915542020461300,7.78546142578125,-0.9862518310546875,-0.120025634765625,-0.0238494873046875
1761915542030515200,7.79551513671875,-0.983428955078125,-0.1250457763671875,-0.0267791748046875
1761915542040570400,7.8055703125,-0.9815673828125,-0.1238861083984375,-0.0261383056640625
1761915542050624300,7.815624267578125,-0.9860687255859375,-0.12109375,-0.022918701171875
1761915542060678100,7.82567822265625,-0.98974609375,-0.1198272705078125,-0.0224609375
1761915542070732300,7.835732177734375,-0.9914398193359375,-0.12091064453125,-0.02362060546875
1761915542080786200,7.8457861328125,-0.9907989501953125,-0.120758056640625,-0.0233154296875
1761915542090841300,7.85584130859375,-0.985382080078125,-0.1214599609375,-0.0245513916015625
1761915542100895500,7.8658955078125,-0.9784393310546875,-0.1226348876953125,-0.025482177734375
1761915542110949400,7.875949462890625,-0.978485107421875,-0.12298583984375,-0.0243682861328125
1761915542121003300,7.886003173828125,-0.9879302978515625,-0.1234893798828125,-0.0241546630859375
1761915542131057200,7.89605712890625,-1.0021514892578125,-0.122039794921875,-0.0203857421875
1761915542141112300,7.9061123046875,-1.0113983154296875,-0.12017822265625,-0.0173797607421875
1761915542151166200,7.916166259765625,-1.010345458984375,-0.119842529296875,-0.0197601318359375
1761915542161220400,7.926220458984375,-1.0019378662109375,-0.1193389892578125,-0.0230865478515625
1761915542171274500,7.9362744140625,-0.991119384765625,-0.1179046630859375,-0.025909423828125
1761915542181328400,7.946328369140625,-0.9832916259765625,-0.11651611328125,-0.024993896484375
1761915542191383300,7.95638330078125,-0.98114013671875,-0.11810302734375,-0.0281219482421875
1761915542201437200,7.966437255859375,-0.9896087646484375,-0.1200408935546875,-0.027740478515625
1761915542211491300,7.9764912109375,-0.9968109130859375,-0.1237335205078125,-0.0273284912109375
1761915542221545200,7.986545166015625,-0.994598388671875,-0.1220550537109375,-0.0274658203125
1761915542231599400,7.996599365234375,-0.9831085205078125,-0.1200408935546875,-0.0296783447265625
1761915542241654300,8.006654296875,-0.9706878662109375,-0.11669921875,-0.03143310546875
1761915542251708200,8.016708251953125,-0.9665069580078125,-0.1153106689453125,-0.0311279296875
1761915542261762300,8.02676220703125,-0.9670562744140625,-0.1172943115234375,-0.029571533203125
1761915542271816200,8.036816162109375,-0.9722137451171875,-0.1215667724609375,-0.0291748046875
1761915542281871400,8.046871337890625,-0.9801025390625,-0.1231231689453125,-0.02789306640625
1761915542291925200,8.05692529296875,-0.9875030517578125,-0.1221771240234375,-0.0271148681640625
1761915542301979400,8.0669794921875,-0.989044189453125,-0.1209869384765625,-0.026031494140625
1761915542312033500,8.077033447265626,-0.9866790771484375,-0.1224517822265625,-0.0243072509765625
1761915542322087200,8.087087158203126,-0.9802093505859375,-0.1246490478515625,-0.0254974365234375
1761915542332142300,8.097142333984374,-0.9713287353515625,-0.1278076171875,-0.026519775390625
1761915542342196200,8.1071962890625,-0.964447021484375,-0.1287384033203125,-0.02978515625
1761915542352250400,8.11725048828125,-0.958648681640625,-0.1259765625,-0.031005859375
1761915542362304300,8.12730419921875,-0.96417236328125,-0.1224212646484375,-0.03057861328125
1761915542372358400,8.1373583984375,-0.98187255859375,-0.1199798583984375,-0.0268402099609375
1761915542382413300,8.147413330078125,-0.9929046630859375,-0.117767333984375,-0.0236968994140625
1761915542392467200,8.15746728515625,-0.9983062744140625,-0.1202239990234375,-0.02069091796875
1761915542402521300,8.167521240234375,-0.9975128173828125,-0.1246337890625,-0.0184783935546875
1761915542412575200,8.1775751953125,-0.990570068359375,-0.126861572265625,-0.0206451416015625
1761915542422629400,8.18762939453125,-0.9897003173828125,-0.1244659423828125,-0.022369384765625
1761915542432684500,8.1976845703125,-0.9926300048828125,-0.1189727783203125,-0.0237274169921875
1761915542442738200,8.20773828125,-0.99420166015625,-0.1156158447265625,-0.026123046875
1761915542452792300,8.217792236328124,-0.9908905029296875,-0.116241455078125,-0.027069091796875
1761915542462846200,8.22784619140625,-0.980072021484375,-0.119598388671875,-0.0249176025390625
1761915542472900400,8.237900390625,-0.9680328369140625,-0.1280975341796875,-0.024871826171875
1761915542482955300,8.247955322265625,-0.963104248046875,-0.1381683349609375,-0.0268402099609375
1761915542493009400,8.258009521484375,-0.9649505615234375,-0.1436920166015625,-0.0269927978515625
1761915542503063300,8.268063232421875,-0.976348876953125,-0.1410980224609375,-0.0248260498046875
1761915542513117400,8.278117431640625,-0.9882049560546875,-0.13446044921875,-0.02032470703125
1761915542523171300,8.28817138671875,-0.9931488037109375,-0.128814697265625,-0.020111083984375
1761915542533226200,8.298226318359376,-0.994232177734375,-0.1266632080078125,-0.0210418701171875
1761915542543280400,8.3082802734375,-0.9951324462890625,-0.127471923828125,-0.0194091796875
1761915542553334300,8.318334228515624,-0.98883056640625,-0.1315155029296875,-0.0192108154296875
1761915542563388400,8.328388427734374,-0.9763946533203125,-0.13800048828125,-0.022308349609375
1761915542573442300,8.3384423828125,-0.9627227783203125,-0.1408538818359375,-0.02532958984375
1761915542583497200,8.348497314453125,-0.960418701171875,-0.1371307373046875,-0.0248565673828125
1761915542593551400,8.35855126953125,-0.96978759765625,-0.131378173828125,-0.0252227783203125
1761915542603605200,8.368605224609375,-0.9781646728515625,-0.1287384033203125,-0.025909423828125
1761915542613659400,8.378659423828125,-0.9869537353515625,-0.127777099609375,-0.0257568359375
1761915542623713300,8.38871337890625,-0.9915618896484375,-0.1258087158203125,-0.0258026123046875
1761915542633768400,8.3987685546875,-0.998046875,-0.1237030029296875,-0.0265350341796875
1761915542643822000,8.408822021484376,-1.0040740966796875,-0.11907958984375,-0.0271759033203125
1761915542653876200,8.418876220703124,-1.00384521484375,-0.1119537353515625,-0.027191162109375
1761915542663930400,8.428930419921874,-0.99993896484375,-0.1070404052734375,-0.0272216796875
1761915542673984300,8.438984375,-0.9968719482421875,-0.1045684814453125,-0.02850341796875
1761915542684039400,8.449039306640625,-0.9983062744140625,-0.1050567626953125,-0.02874755859375
1761915542694093300,8.45909326171875,-1.0008697509765625,-0.113189697265625,-0.02880859375
1761915542704147500,8.4691474609375,-0.999237060546875,-0.1213531494140625,-0.02734375
1761915542714201000,8.479201171875,-0.9876861572265625,-0.125213623046875,-0.0244598388671875
1761915542724255200,8.489255126953125,-0.980682373046875,-0.1249237060546875,-0.0262451171875
1761915542734310400,8.499310302734376,-0.992340087890625,-0.11810302734375,-0.02496337890625
1761915542744364300,8.5093642578125,-1.00335693359375,-0.1087188720703125,-0.0210113525390625
1761915542754418400,8.51941845703125,-1.0035858154296875,-0.1096954345703125,-0.0209197998046875
1761915542764472300,8.529472412109374,-0.9984588623046875,-0.1170196533203125,-0.0216217041015625
1761915542774526500,8.5395263671875,-0.98834228515625,-0.126556396484375,-0.020782470703125
1761915542784581400,8.549581298828125,-0.9766845703125,-0.138092041015625,-0.0200958251953125
1761915542794635300,8.55963525390625,-0.96990966796875,-0.1464080810546875,-0.0212249755859375
1761915542804689400,8.569689453125,-0.975830078125,-0.14752197265625,-0.018798828125
1761915542814743300,8.579743408203125,-0.9691314697265625,-0.1484832763671875,-0.0198211669921875
1761915542824797400,8.58979736328125,-0.9642181396484375,-0.1487579345703125,-0.024261474609375
1761915542834852000,8.59985205078125,-0.9637451171875,-0.140533447265625,-0.0247039794921875
1761915542844906200,8.60990625,-0.970794677734375,-0.135467529296875,-0.0253143310546875
1761915542854960000,8.619960205078126,-0.9796905517578125,-0.132720947265625,-0.024749755859375
1761915542865014300,8.63001416015625,-0.9829559326171875,-0.132568359375,-0.0218353271484375
1761915542875069400,8.6400693359375,-0.9818572998046875,-0.1373748779296875,-0.0227203369140625
1761915542885123300,8.650123291015625,-0.978271484375,-0.140899658203125,-0.024871826171875
1761915542895177500,8.660177490234375,-0.9759979248046875,-0.1361541748046875,-0.024505615234375
1761915542905231400,8.6702314453125,-0.9778289794921875,-0.1307525634765625,-0.026153564453125
1761915542915285200,8.68028515625,-0.981964111328125,-0.12713623046875,-0.0272674560546875
1761915542925340400,8.69034033203125,-0.9816436767578125,-0.12445068359375,-0.0286712646484375
1761915542935394300,8.700394287109376,-0.98028564453125,-0.124114990234375,-0.029632568359375
1761915542945448400,8.710448486328126,-0.977325439453125,-0.1262054443359375,-0.02960205078125
1761915542955502300,8.72050244140625,-0.973602294921875,-0.13067626953125,-0.0279541015625
1761915542965556500,8.730556396484374,-0.9767303466796875,-0.13226318359375,-0.02716064453125
1761915542975610400,8.7406103515625,-0.9799041748046875,-0.130157470703125,-0.027618408203125
1761915542985664300,8.750664306640624,-0.98883056640625,-0.1267547607421875,-0.0295257568359375
1761915542995718400,8.760718505859375,-0.9972686767578125,-0.1201629638671875,-0.029296875
1761915543005772300,8.770772216796875,-0.99786376953125,-0.1190032958984375,-0.028411865234375
1761915543015827500,8.780827392578125,-0.9945068359375,-0.1194305419921875,-0.0265655517578125
1761915543025881600,8.790881591796875,-0.9903411865234375,-0.12359619140625,-0.0248260498046875
1761915543035935500,8.800935546875,-0.9870758056640625,-0.1302642822265625,-0.0247802734375
1761915543045989600,8.81098974609375,-0.988006591796875,-0.134918212890625,-0.0230712890625
1761915543056043300,8.821043212890626,-0.9891815185546875,-0.1364288330078125,-0.0213165283203125
1761915543066098400,8.831098388671874,-0.9911041259765625,-0.134735107421875,-0.020355224609375
1761915543076152300,8.84115234375,-0.989349365234375,-0.131805419921875,-0.0230255126953125
1761915543086206500,8.85120654296875,-0.9862060546875,-0.1315765380859375,-0.0263671875
1761915543096260600,8.861260498046875,-0.983856201171875,-0.1317596435546875,-0.026947021484375
1761915543106314500,8.871314453125,-0.9795684814453125,-0.1341705322265625,-0.0267791748046875
1761915543116369400,8.881369384765625,-0.97418212890625,-0.137054443359375,-0.0282440185546875
1761915543126423300,8.89142333984375,-0.9779205322265625,-0.1366119384765625,-0.0295867919921875
1761915543136477400,8.9014775390625,-0.9831085205078125,-0.1318206787109375,-0.026092529296875
1761915543146531300,8.91153125,-0.989349365234375,-0.128570556640625,-0.02471923828125
1761915543156585500,8.92158544921875,-0.9905242919921875,-0.127655029296875,-0.02679443359375
1761915543166640600,8.931640625,-0.9912261962890625,-0.1279754638671875,-0.02716064453125
1761915543176694300,8.9416943359375,-0.9872589111328125,-0.130828857421875,-0.028045654296875
1761915543186748400,8.95174853515625,-0.973236083984375,-0.135955810546875,-0.0301513671875
1761915543196802300,8.96180224609375,-0.9640960693359375,-0.1356048583984375,-0.0291290283203125
1761915543206856400,8.9718564453125,-0.9677581787109375,-0.13031005859375,-0.024810791015625
1761915543216911400,8.981911376953125,-0.9787139892578125,-0.1275482177734375,-0.02386474609375
1761915543226965500,8.991965576171875,-0.985809326171875,-0.127410888671875,-0.023406982421875
1761915543237019600,9.00201953125,-0.98553466796875,-0.13037109375,-0.0236053466796875
1761915543247073500,9.012073486328125,-0.9812774658203125,-0.1369781494140625,-0.0248565673828125
1761915543257127400,9.02212744140625,-0.97198486328125,-0.1420745849609375,-0.026763916015625
1761915543267182300,9.032182373046876,-0.9655914306640625,-0.1437530517578125,-0.0277099609375
1761915543277236500,9.042236572265624,-0.9645233154296875,-0.140869140625,-0.0301971435546875
1761915543287290400,9.052290283203124,-0.9728851318359375,-0.1324310302734375,-0.0288543701171875
1761915543297344500,9.062344482421874,-0.98516845703125,-0.1261444091796875,-0.0278778076171875
1761915543307398400,9.0723984375,-0.9932708740234375,-0.124786376953125,-0.0270233154296875
1761915543317453300,9.082453369140625,-0.9923248291015625,-0.1252288818359375,-0.02508544921875
1761915543327507500,9.092507568359375,-0.989471435546875,-0.1300201416015625,-0.023773193359375
1761915543337561300,9.102561279296875,-0.987548828125,-0.1322174072265625,-0.0218963623046875
1761915543347615500,9.112615478515625,-0.9818115234375,-0.130279541015625,-0.0217437744140625
1761915543357669400,9.12266943359375,-0.979156494140625,-0.126495361328125,-0.022064208984375
1761915543367724500,9.132724609375,-0.980682373046875,-0.12554931640625,-0.024261474609375
1761915543377778400,9.1427783203125,-0.9833831787109375,-0.124359130859375,-0.0236053466796875
1761915543387832300,9.152832275390624,-0.98480224609375,-0.1266632080078125,-0.0211334228515625
1761915543397886500,9.162886474609374,-0.9854583740234375,-0.13092041015625,-0.019866943359375
1761915543407941400,9.17294140625,-0.9874420166015625,-0.1371307373046875,-0.019195556640625
1761915543417995500,9.18299560546875,-0.986724853515625,-0.139984130859375,-0.0187530517578125
1761915543428049400,9.19304931640625,-0.9802398681640625,-0.1373443603515625,-0.0200653076171875
1761915543438103600,9.203103515625,-0.977752685546875,-0.1340179443359375,-0.021209716796875
1761915543448157400,9.213157470703125,-0.9800872802734375,-0.1327362060546875,-0.0215911865234375
1761915543458211300,9.22321142578125,-0.9802398681640625,-0.1345367431640625,-0.022064208984375
1761915543468266500,9.2332666015625,-0.97698974609375,-0.1391754150390625,-0.023406982421875
1761915543478320400,9.2433203125,-0.9764556884765625,-0.14251708984375,-0.023712158203125
1761915543488374500,9.25337451171875,-0.9744720458984375,-0.1461639404296875,-0.02197265625
1761915543498428400,9.263428466796874,-0.972381591796875,-0.1457061767578125,-0.0225830078125
1761915543508482600,9.273482666015624,-0.9723968505859375,-0.1454010009765625,-0.0231170654296875
1761915543518537500,9.283537353515625,-0.9828338623046875,-0.143890380859375,-0.0217132568359375
1761915543528591400,9.29359130859375,-0.9926605224609375,-0.1414794921875,-0.0207366943359375
1761915543538645500,9.3036455078125,-0.995574951171875,-0.1405792236328125,-0.0207672119140625
1761915543548702500,9.313702392578126,-0.9954681396484375,-0.1356658935546875,-0.0230865478515625
1761915543558756400,9.32375634765625,-0.9936676025390625,-0.130828857421875,-0.0239410400390625
1761915543568810500,9.333810546875,-0.9908447265625,-0.128387451171875,-0.025604248046875
1761915543578864400,9.343864501953124,-0.993133544921875,-0.1282501220703125,-0.0258636474609375
1761915543588918500,9.35391845703125,-0.99114990234375,-0.1297607421875,-0.023895263671875
1761915543598973400,9.363973388671875,-0.986572265625,-0.132110595703125,-0.0273284912109375
1761915543609027300,9.37402734375,-0.977813720703125,-0.1345367431640625,-0.0316925048828125
1761915543619081500,9.38408154296875,-0.9744873046875,-0.133575439453125,-0.033782958984375
1761915543629135400,9.39413525390625,-0.972808837890625,-0.130706787109375,-0.029754638671875
1761915543639189500,9.404189453125,-0.9715576171875,-0.1325531005859375,-0.03448486328125
1761915543649244700,9.41424462890625,-0.9813079833984375,-0.123504638671875,-0.033172607421875
1761915543659298300,9.42429833984375,-0.988037109375,-0.1221160888671875,-0.0351409912109375
1761915543669352400,9.4343525390625,-0.9879608154296875,-0.124420166015625,-0.0355072021484375
1761915543679406300,9.44440625,-0.9831390380859375,-0.1259765625,-0.0330657958984375
1761915543689460500,9.45446044921875,-0.980987548828125,-0.129119873046875,-0.0331268310546875
1761915543699515400,9.464515380859375,-0.9755096435546875,-0.1312255859375,-0.03375244140625
1761915543709569500,9.474569580078125,-0.9731597900390625,-0.1316986083984375,-0.0349273681640625
1761915543719623400,9.48462353515625,-0.9730987548828125,-0.134765625,-0.0353851318359375
1761915543729677300,9.49467724609375,-0.9697418212890625,-0.13787841796875,-0.0354461669921875
1761915543739731200,9.504731201171875,-0.9614715576171875,-0.144866943359375,-0.034576416015625
1761915543749786400,9.514786376953126,-0.95947265625,-0.1506805419921875,-0.0331268310546875
1761915543759840500,9.524840576171876,-0.9688720703125,-0.150970458984375,-0.0294189453125
1761915543769894400,9.534894287109376,-0.9803466796875,-0.1466522216796875,-0.0275421142578125
1761915543779948500,9.544948486328124,-0.9903564453125,-0.138763427734375,-0.026397705078125
1761915543790002400,9.55500244140625,-0.997894287109375,-0.1312255859375,-0.0259552001953125
1761915543800057300,9.565057373046875,-1.00213623046875,-0.128570556640625,-0.0252685546875
1761915543810111500,9.575111572265625,-1.000823974609375,-0.1305389404296875,-0.0240478515625
1761915543820165400,9.585165283203125,-0.9962310791015625,-0.1353912353515625,-0.021270751953125
1761915543830219500,9.595219482421875,-0.9910430908203125,-0.139190673828125,-0.0206451416015625
1761915543840273400,9.6052734375,-0.9848175048828125,-0.14068603515625,-0.02337646484375
1761915543850328300,9.615328369140625,-0.9819488525390625,-0.138641357421875,-0.026031494140625
1761915543860382200,9.62538232421875,-0.9841766357421875,-0.134521484375,-0.0299835205078125
1761915543870436400,9.635436279296876,-0.988250732421875,-0.1298065185546875,-0.03192138671875
1761915543880490500,9.645490478515624,-0.994842529296875,-0.1276702880859375,-0.0310821533203125
1761915543890545400,9.65554541015625,-0.99530029296875,-0.128875732421875,-0.0293731689453125
1761915543900599600,9.665599609375,-0.9943695068359375,-0.13287353515625,-0.029052734375
1761915543910653400,9.6756533203125,-0.9905853271484375,-0.1367645263671875,-0.0305328369140625
1761915543920707600,9.68570751953125,-0.988006591796875,-0.1368865966796875,-0.0316009521484375
1761915543930761200,9.69576123046875,-0.9862518310546875,-0.134552001953125,-0.0335693359375
1761915543940816400,9.70581640625,-0.9852294921875,-0.1317138671875,-0.0373992919921875
1761915543950870500,9.71587060546875,-0.9816131591796875,-0.1299285888671875,-0.0381622314453125
1761915543960924400,9.72592431640625,-0.975799560546875,-0.134185791015625,-0.039398193359375
1761915543970977800,9.735977783203126,-0.9716033935546875,-0.1414642333984375,-0.0379180908203125
1761915543981031700,9.74603173828125,-0.9707489013671875,-0.1478729248046875,-0.034942626953125
1761915543991086800,9.7560869140625,-0.9716644287109375,-0.151763916015625,-0.032928466796875
1761915544001140500,9.766140380859374,-0.9721527099609375,-0.15008544921875,-0.03350830078125
1761915544011194600,9.776194580078124,-0.9752044677734375,-0.1400146484375,-0.0326995849609375
1761915544021248500,9.78624853515625,-0.978607177734375,-0.1319732666015625,-0.0337677001953125
1761915544031302700,9.796302734375,-0.981781005859375,-0.128631591796875,-0.035614013671875
1761915544041357800,9.80635791015625,-0.9859771728515625,-0.12847900390625,-0.03192138671875
1761915544051411700,9.81641162109375,-0.98809814453125,-0.1328277587890625,-0.027862548828125
1761915544061465900,9.8264658203125,-0.9939117431640625,-0.1363372802734375,-0.0251007080078125
1761915544071519500,9.83651953125,-0.98297119140625,-0.143707275390625,-0.0253143310546875
1761915544081573600,9.84657373046875,-0.976348876953125,-0.1565399169921875,-0.0356597900390625
1761915544091628800,9.85662890625,-0.960479736328125,-0.1481781005859375,-0.0325775146484375
1761915544101682700,9.8666826171875,-0.955413818359375,-0.146453857421875,-0.0325164794921875
1761915544111736800,9.87673681640625,-0.960418701171875,-0.1388092041015625,-0.028778076171875
1761915544121790700,9.886790771484375,-0.9730987548828125,-0.1452789306640625,-0.0318603515625
1761915544131844900,9.896844970703125,-0.9822235107421875,-0.1396942138671875,-0.0276947021484375
1761915544141899500,9.9068994140625,-0.9840545654296875,-0.132415771484375,-0.0269622802734375
1761915544151953700,9.91695361328125,-0.999267578125,-0.13311767578125,-0.0275421142578125
1761915544162007600,9.927007568359375,-1.0022430419921875,-0.1283721923828125,-0.0234375
1761915544172061700,9.937061767578125,-0.9996795654296875,-0.1221160888671875,-0.0211181640625
1761915544182115800,9.94711572265625,-1.0013427734375,-0.1193389892578125,-0.02093505859375
1761915544192170500,9.95717041015625,-1.000640869140625,-0.13262939453125,-0.0323486328125
1761915544202224600,9.967224609375,-1.0090179443359375,-0.129974365234375,-0.02972412109375
1761915544212278500,9.977278564453124,-1.00677490234375,-0.1285552978515625,-0.02447509765625
1761915544222332700,9.987332763671875,-0.9909210205078125,-0.1365509033203125,-0.02978515625
1761915544232386600,9.997386474609375,-0.974609375,-0.144195556640625,-0.0361328125
1761915544242441700,10.007441650390625,-0.9625701904296875,-0.1505889892578125,-0.038330078125
1761915544252496000,10.017495849609375,-0.9529571533203125,-0.1533660888671875,-0.0446624755859375
1761915544262549800,10.0275498046875,-0.946929931640625,-0.1541290283203125,-0.0524139404296875
1761915544272603600,10.037603759765625,-0.955474853515625,-0.153839111328125,-0.0547637939453125
1761915544282657500,10.047657470703125,-0.9653167724609375,-0.1480712890625,-0.0574951171875
1761915544292712700,10.057712646484376,-0.96881103515625,-0.140350341796875,-0.052398681640625
1761915544302766800,10.067766845703124,-0.9758758544921875,-0.1406707763671875,-0.0496368408203125
1761915544312820700,10.07782080078125,-0.9871673583984375,-0.1411895751953125,-0.043060302734375
1761915544322875000,10.087875,-0.9911041259765625,-0.139404296875,-0.0359039306640625
1761915544332928800,10.0979287109375,-0.9979705810546875,-0.1436767578125,-0.029937744140625
1761915544342983700,10.107983642578125,-0.99871826171875,-0.1467132568359375,-0.0274810791015625
1761915544353037600,10.11803759765625,-0.987945556640625,-0.1523284912109375,-0.0279388427734375
1761915544363091700,10.128091796875,-0.9783935546875,-0.1573638916015625,-0.0336151123046875
1761915544373145600,10.1381455078125,-0.970428466796875,-0.1522674560546875,-0.0404052734375
1761915544383199700,10.14819970703125,-0.965972900390625,-0.1439971923828125,-0.04779052734375
1761915544393254700,10.158254638671876,-0.9700469970703125,-0.1390228271484375,-0.0537261962890625
1761915544403308500,10.16830859375,-0.9758758544921875,-0.1353607177734375,-0.054168701171875
1761915544413362700,10.17836279296875,-0.985443115234375,-0.137420654296875,-0.0493316650390625
1761915544423416600,10.18841650390625,-0.9883575439453125,-0.152862548828125,-0.0491180419921875
1761915544433470700,10.198470703125,-0.94464111328125,-0.1725311279296875,-0.058258056640625
1761915544443526000,10.20852587890625,-0.912841796875,-0.1787872314453125,-0.06280517578125
1761915544453579800,10.218579833984375,-0.9154052734375,-0.1650238037109375,-0.0596771240234375
1761915544463633700,10.228633544921875,-0.9334259033203125,-0.1596832275390625,-0.0576019287109375
1761915544473687600,10.2386875,-0.9749298095703125,-0.1608428955078125,-0.0530242919921875
1761915544483741700,10.24874169921875,-1.0089874267578125,-0.1606597900390625,-0.0438385009765625
1761915544493796600,10.258796630859376,-1.0246429443359375,-0.1692352294921875,-0.0410003662109375
1761915544503850800,10.268850830078126,-1.0159912109375,-0.15997314453125,-0.03387451171875
