time,seconds_elapsed,z,y,x
1761915534308898000,0.07389794921875,-0.0727682113647461,0.6547562479972839,-0.2961648106575012
1761915534318952200,0.0839521484375,-0.0647536963224411,0.5709438920021057,-0.3230627477169037
1761915534329006000,0.094006103515625,-0.0701705664396286,0.5093274116516113,-0.37780746817588806
1761915534339060000,0.10406005859375,-0.07651794701814651,0.4274008572101593,-0.4414426386356354
1761915534349113900,0.11411376953125,-0.08161230385303497,0.3115136921405792,-0.4965154826641083
1761915534359169000,0.1241689453125,-0.09156054258346558,0.18186913430690765,-0.5058211088180542
1761915534369223200,0.13422314453125,-0.10621485114097595,0.057556238025426865,-0.472474068403244
1761915534379277000,0.144277099609375,-0.12103401124477386,-0.0340740792453289,-0.3905014395713806
1761915534389331200,0.154331298828125,-0.13340386748313904,-0.09575635194778442,-0.29799121618270874
1761915534399385000,0.164385009765625,-0.1481170356273651,-0.13805773854255676,-0.20938624441623688
1761915534409439000,0.17443896484375,-0.18585801124572754,-0.138636976480484,-0.14661100506782532
1761915534419494100,0.184494140625,-0.25179895758628845,-0.10751128196716309,-0.09688952565193176
1761915534429548000,0.194548095703125,-0.3329601287841797,-0.01769084669649601,-0.05648564547300339
1761915534439602200,0.204602294921875,-0.4042694568634033,0.09138264507055283,-0.007993744686245918
1761915534449656000,0.214656005859375,-0.45917850732803345,0.2391606569290161,0.05062216520309448
1761915534459710200,0.224710205078125,-0.48345693945884705,0.4073350131511688,0.12323751300573349
1761915534469764900,0.234764892578125,-0.49812084436416626,0.5619688034057617,0.1826813966035843
1761915534479819000,0.244819091796875,-0.48367053270339966,0.6356121301651001,0.22791332006454468
1761915534489873200,0.254873046875,-0.3702971041202545,0.6433741450309753,0.2858234941959381
1761915534499927000,0.264927001953125,-0.2593519389629364,0.6151223182678223,0.37122228741645813
1761915534509981200,0.274981201171875,-0.19497667253017426,0.5332170724868774,0.4513075351715088
1761915534520036000,0.2850361328125,-0.16927823424339294,0.4347858130931854,0.5037262439727783
1761915534530090000,0.295090087890625,-0.16301128268241882,0.35349467396736145,0.511288583278656
1761915534540143900,0.305143798828125,-0.17251424491405487,0.2827789783477783,0.4865763187408447
1761915534550198000,0.315197998046875,-0.1838657110929489,0.26585111021995544,0.44693806767463684
1761915534560252000,0.325251953125,-0.17274726927280426,0.30636072158813477,0.4024904668331146
1761915534570307000,0.33530712890625,-0.14209136366844177,0.37163373827934265,0.372576504945755
1761915534580361200,0.345361328125,-0.11161787062883377,0.4179498255252838,0.3649819493293762
1761915534590415000,0.3554150390625,-0.08695993572473526,0.3901650905609131,0.3598806858062744
1761915534600469000,0.365468994140625,-0.09152938425540924,0.25607413053512573,0.32513174414634705
1761915534610523000,0.37552294921875,-0.10476449877023697,0.07239643484354019,0.2936137616634369
1761915534620577000,0.385576904296875,-0.11195848882198334,-0.057321880012750626,0.2629983425140381
1761915534630632200,0.395632080078125,-0.10899652540683746,-0.11864063143730164,0.2468249648809433
1761915534640686000,0.40568603515625,-0.09592732787132263,-0.13675332069396973,0.2582283616065979
1761915534650740200,0.415740234375,-0.08382086455821991,-0.17343837022781372,0.30845531821250916
1761915534660794000,0.425794189453125,-0.11137845367193222,-0.3368864059448242,0.4159223735332489
1761915534670848300,0.43584814453125,-0.1554846614599228,-0.5793358087539673,0.558815598487854
1761915534680903000,0.44590283203125,-0.1938895732164383,-0.7796667814254761,0.7122699022293091
1761915534690957000,0.45595703125,-0.22870561480522156,-0.8527452349662781,0.8815188407897949
1761915534701011000,0.466010986328125,-0.2526455819606781,-0.8412252068519592,1.0401358604431152
1761915534711065000,0.476065185546875,-0.2806631028652191,-0.8041963577270508,1.2065339088439941
1761915534721119200,0.486119140625,-0.313659131526947,-0.9113070964813232,1.3731101751327515
1761915534731174000,0.496173828125,-0.3539077341556549,-1.1229392290115356,1.515425205230713
1761915534741228000,0.50622802734375,-0.3914005160331726,-1.2912890911102295,1.5864301919937134
1761915534751282000,0.516281982421875,-0.38091912865638733,-1.3232113122940063,1.5561182498931885
1761915534761336000,0.526336181640625,-0.3136165142059326,-1.3529117107391357,1.465065598487854
1761915534771390000,0.536389892578125,-0.22788216173648834,-1.5060101747512817,1.3518905639648438
1761915534781444000,0.546444091796875,-0.1946467161178589,-1.7397576570510864,1.2570706605911255
1761915534791499300,0.556499267578125,-0.25010836124420166,-1.9966895580291748,1.1985723972320557
1761915534801553000,0.566552978515625,-0.3652845025062561,-2.169055461883545,1.1365522146224976
1761915534811607000,0.57660693359375,-0.4629700481891632,-2.2033772468566895,1.0323504209518433
1761915534821661000,0.586660888671875,-0.4863893389701843,-2.1607935428619385,0.8723333477973938
1761915534831715000,0.596715087890625,-0.42849674820899963,-2.083286762237549,0.6440375447273254
1761915534841770200,0.606770263671875,-0.30408984422683716,-1.9736769199371338,0.41387680172920227
1761915534851824000,0.61682421875,-0.19340941309928894,-1.7466893196105957,0.23638537526130676
1761915534861878300,0.626878173828125,-0.131840318441391,-1.361795425415039,0.12091097235679626
1761915534871932000,0.636931884765625,-0.11469968408346176,-0.9360473155975342,0.07930228114128113
1761915534881986000,0.646986083984375,-0.09691882133483887,-0.4362766444683075,0.07790464907884598
1761915534892041000,0.657041015625,-0.0708661824464798,0.04302496463060379,0.10848120599985123
1761915534902095000,0.66709521484375,-0.06103059649467468,0.36683526635169983,0.17156216502189636
1761915534912149000,0.67714892578125,-0.055867258459329605,0.5979347825050354,0.2061888575553894
1761915534922203100,0.687203125,-0.0459725521504879,0.764288067817688,0.20798249542713165
1761915534932257000,0.697257080078125,-0.007212106604129076,0.8696081042289734,0.1649191826581955
1761915534942311200,0.707311279296875,0.07103369385004044,0.9790672063827515,0.05492263659834862
1761915534952366000,0.717365966796875,0.1615244448184967,1.1017441749572754,-0.13776904344558716
1761915534962419200,0.727419189453125,0.22685284912586212,1.1797382831573486,-0.3882233798503876
1761915534972473000,0.73747314453125,0.26449742913246155,1.190710186958313,-0.6619020700454712
1761915534982527200,0.74752734375,0.28178533911705017,1.1699386835098267,-0.9323343634605408
1761915534992581000,0.7575810546875,0.25666773319244385,1.1566425561904907,-1.0894088745117188
1761915535002636300,0.76763623046875,0.211900532245636,1.0506417751312256,-1.1114110946655273
1761915535012690200,0.777690185546875,0.20970343053340912,0.8875490427017212,-1.0379515886306763
1761915535022744000,0.787744140625,0.23135386407375336,0.7796454429626465,-0.9108641743659973
1761915535032798200,0.797798095703125,0.29192933440208435,0.7486276030540466,-0.7969967722892761
1761915535042852000,0.80785205078125,0.3739278018474579,0.7917894721031189,-0.7598128914833069
1761915535052907300,0.8179072265625,0.4638773798942566,0.9025628566741943,-0.7995699048042297
1761915535062961200,0.827961181640625,0.5475816130638123,1.0381203889846802,-0.905579686164856
1761915535073015300,0.838015380859375,0.6007188558578491,1.1363415718078613,-1.0444393157958984
1761915535083069200,0.848069091796875,0.614170491695404,1.1858144998550415,-1.1964991092681885
1761915535093123000,0.858123046875,0.6060539484024048,1.2884738445281982,-1.3099048137664795
1761915535103178200,0.86817822265625,0.5860773324966431,1.3303745985031128,-1.3414270877838135
1761915535113232100,0.878232177734375,0.5702885389328003,1.260941505432129,-1.285591721534729
1761915535123286300,0.888286376953125,0.5619704127311707,1.1461172103881836,-1.1767523288726807
1761915535133340200,0.898340087890625,0.5099895000457764,0.9952512383460999,-1.0366671085357666
1761915535143394300,0.908394287109375,0.40549904108047485,0.7982825040817261,-0.914834201335907
1761915535153448200,0.9184482421875,0.28492921590805054,0.6017577648162842,-0.8452305793762207
1761915535163503000,0.928503173828125,0.13506300747394562,0.44477108120918274,-0.8414912819862366
1761915535173557200,0.93855712890625,-0.03170493245124817,0.2912132143974304,-0.8594308495521545
1761915535183611100,0.948611083984375,-0.18148723244667053,0.16975654661655426,-0.8547479510307312
1761915535193665300,0.958665283203125,-0.28214967250823975,0.09465114027261734,-0.8064514994621277
1761915535203719200,0.96871923828125,-0.3253096640110016,0.07318446785211563,-0.7361459136009216
1761915535213774000,0.978774169921875,-0.30234360694885254,0.0905916839838028,-0.6633270978927612
1761915535223828000,0.988827880859375,-0.24010688066482544,0.09685783833265305,-0.5800604224205017
1761915535233882000,0.998882080078125,-0.16575594246387482,0.08561503887176514,-0.4838225841522217
1761915535243936000,1.00893603515625,-0.11337848752737045,0.09047743678092957,-0.3866364061832428
1761915535253990100,1.018990234375,-0.09810233116149902,0.11485894024372101,-0.2945863604545593
1761915535264044300,1.029044189453125,-0.10706786066293716,0.17061620950698853,-0.20581068098545074
1761915535274099200,1.03909912109375,-0.13438764214515686,0.23452621698379517,-0.12296107411384583
1761915535284153300,1.0491533203125,-0.13529790937900543,0.22179710865020752,-0.04827219247817993
1761915535294207000,1.05920703125,-0.11870081722736359,0.26781412959098816,0.05118995159864426
1761915535304261000,1.06926123046875,-0.1211882084608078,0.39793673157691956,0.13593679666519165
1761915535314315000,1.07931494140625,-0.1049322709441185,0.4920421838760376,0.1667538285255432
1761915535324370200,1.0893701171875,-0.08333297073841095,0.4998961091041565,0.16030524671077728
1761915535334424300,1.09942431640625,-0.06653402000665665,0.4687959849834442,0.13581109046936035
1761915535344478200,1.109478271484375,-0.04784208908677101,0.4344547688961029,0.09102178364992142
1761915535354532400,1.119532470703125,-0.014680408872663975,0.36234331130981445,0.050810981541872025
1761915535364586200,1.129586181640625,0.013065202161669731,0.2874874472618103,0.04502499848604202
1761915535374641200,1.13964111328125,0.024050474166870117,0.2531459629535675,0.030646858736872673
1761915535384695300,1.1496953125,0.012753079645335674,0.23533394932746887,0.003896470880135894
1761915535394749200,1.159749267578125,-0.0070366039872169495,0.2269199639558792,-0.019991284236311913
1761915535404803300,1.16980322265625,-0.028848426416516304,0.15316344797611237,-0.026705913245677948
1761915535414857200,1.179857177734375,-0.040659014135599136,0.04596349596977234,-0.01152855809777975
1761915535424911400,1.189911376953125,-0.040768999606370926,-0.06569565832614899,0.02101021073758602
1761915535434966000,1.199966064453125,-0.043597277253866196,-0.14237286150455475,0.07168776541948318
1761915535445020200,1.210020263671875,-0.050572894513607025,-0.18300603330135345,0.12116450816392899
1761915535455074000,1.220073974609375,-0.05205840617418289,-0.16244350373744965,0.1646624505519867
1761915535465128200,1.230128173828125,-0.05252952128648758,-0.1251762956380844,0.19663529098033905
1761915535475182300,1.240182373046875,-0.053341783583164215,-0.0855196937918663,0.21865537762641907
1761915535485237200,1.2502373046875,-0.058402322232723236,-0.045995187014341354,0.2310827523469925
1761915535495291100,1.260291015625,-0.0745844915509224,-0.020376645028591156,0.22348181903362274
1761915535505345000,1.270344970703125,-0.09159489721059799,-0.05554821342229843,0.19817513227462769
1761915535515399200,1.280399169921875,-0.1148189902305603,-0.1044750064611435,0.13772377371788025
1761915535525453000,1.290453125,-0.13306084275245667,-0.09525994211435318,0.06941502541303635
1761915535535508200,1.30050830078125,-0.13853897154331207,-0.04015381261706352,0.017549965530633926
1761915535545562400,1.310562255859375,-0.14409272372722626,0.02629578672349453,-0.010431601665914059
1761915535555616300,1.3206162109375,-0.15289659798145294,0.055626511573791504,-0.014786669053137302
1761915535565670100,1.330670166015625,-0.16897331178188324,-0.025067536160349846,-0.012948289513587952
1761915535575724000,1.34072412109375,-0.17600485682487488,-0.1398114264011383,-0.033007752150297165
1761915535585778200,1.350778076171875,-0.17289108037948608,-0.17024150490760803,-0.0689801350235939
1761915535595833000,1.3608330078125,-0.16183923184871674,-0.1482991874217987,-0.10133621096611023
1761915535605887200,1.37088720703125,-0.13242195546627045,-0.11991362273693085,-0.10913261026144028
1761915535615941400,1.38094140625,-0.09890314191579819,-0.09189716726541519,-0.0896420031785965
1761915535625995300,1.390995361328125,-0.07781650125980377,-0.07201240956783295,-0.04777337983250618
1761915535636049200,1.401049072265625,-0.07571100443601608,-0.06559738516807556,0.011573831550776958
1761915535646104000,1.41110400390625,-0.09444954246282578,-0.08885663747787476,0.06573373824357986
1761915535656158200,1.421158203125,-0.11240324378013611,-0.10928814113140106,0.10938028246164322
1761915535666212000,1.431212158203125,-0.10603775084018707,-0.08623582124710083,0.12751667201519012
1761915535676266200,1.441266357421875,-0.07659757137298584,-0.02743029221892357,0.1294591873884201
1761915535686320000,1.451320068359375,-0.05062136426568031,0.0333438403904438,0.13639938831329346
1761915535696375000,1.461375,-0.04313681647181511,0.09682720899581909,0.160491943359375
1761915535706429200,1.47142919921875,-0.05441717058420181,0.1254924088716507,0.19408611953258514
1761915535716483000,1.481483154296875,-0.06852393597364426,0.11217154562473297,0.22757430374622345
1761915535726537200,1.491537109375,-0.08541928976774216,0.04946022853255272,0.24592748284339905
1761915535736591000,1.501591064453125,-0.09939795732498169,-0.03592098131775856,0.23650521039962769
1761915535746645200,1.511645263671875,-0.10800396651029587,-0.09702721238136292,0.20116187632083893
1761915535756700200,1.5217001953125,-0.08584220707416534,-0.09893962740898132,0.14669756591320038
1761915535766754000,1.531754150390625,-0.049559563398361206,-0.0658772811293602,0.08682464063167572
1761915535776808200,1.54180810546875,-0.005515672732144594,-0.03292732313275337,0.03876443952322006
1761915535786862000,1.551862060546875,0.019041068851947784,-0.008917595259845257,0.0057223341427743435
1761915535796916200,1.561916259765625,0.028557874262332916,-0.018870361149311066,-0.028929386287927628
1761915535806971100,1.57197119140625,0.019047727808356285,-0.05152098089456558,-0.06421121209859848
1761915535817025300,1.582025390625,0.014121145009994507,-0.07664204388856888,-0.10507342219352722
1761915535827079400,1.592079345703125,0.021271200850605965,-0.05631466954946518,-0.14553137123584747
1761915535837133000,1.602133056640625,0.03823234140872955,-0.0006226470577530563,-0.1733773797750473
1761915535847187200,1.612187255859375,0.06537048518657684,0.05606885999441147,-0.1872290074825287
1761915535857241000,1.622240966796875,0.09165322035551071,0.07849454134702682,-0.18401378393173218
1761915535867296300,1.632296142578125,0.10988788306713104,0.04177967086434364,-0.16275961697101593
1761915535877350100,1.64235009765625,0.1062294989824295,-0.015092399902641773,-0.13694080710411072
1761915535887404300,1.652404296875,0.09307907521724701,-0.08159845322370529,-0.10894432663917542
1761915535897458200,1.662458251953125,0.09379547089338303,-0.11700518429279327,-0.09917505085468292
1761915535907512000,1.672511962890625,0.10543321818113327,-0.09753481298685074,-0.10102701187133789
1761915535917567200,1.682567138671875,0.12843413650989532,-0.049483928829431534,-0.10927988588809967
1761915535927621000,1.69262109375,0.13317562639713287,0.001127582392655313,-0.10445743054151535
1761915535937675300,1.70267529296875,0.11914876103401184,0.028900090605020523,-0.07956140488386154
1761915535947729200,1.712729248046875,0.09747675806283951,0.03159760683774948,-0.041486456990242004
1761915535957783000,1.722782958984375,0.0862419456243515,0.03958043083548546,-0.000020506340661086142
1761915535967838000,1.732837890625,0.08668642491102219,0.06257070600986481,0.040456078946590424
1761915535977891800,1.742891845703125,0.08623741567134857,0.08062747120857239,0.07332028448581696
1761915535987946000,1.752946044921875,0.06740433722734451,0.0671129897236824,0.10097800940275192
1761915535997999900,1.762999755859375,0.05246720090508461,0.028391694650053978,0.1091802790760994
1761915536008054000,1.773053955078125,0.04039536044001579,-0.012032161466777325,0.10113780200481415
1761915536018108000,1.78310791015625,0.033367808908224106,-0.02510189078748226,0.06854310631752014
1761915536028163000,1.7931630859375,0.031256191432476044,-0.01666393131017685,0.020327109843492508
1761915536038216700,1.803216796875,0.0477861650288105,0.028116855770349503,-0.03718918189406395
1761915536048270800,1.813270751953125,0.05576978996396065,0.06793457269668579,-0.08457240462303162
1761915536058324700,1.82332470703125,0.05269943177700043,0.06364262849092484,-0.1087653636932373
1761915536068379000,1.83337890625,0.04015141353011131,0.014166685752570629,-0.10832513868808746
1761915536078434000,1.84343408203125,0.021472269669175148,-0.038775891065597534,-0.09219597280025482
1761915536088488000,1.853488037109375,-0.002112952060997486,-0.0816221609711647,-0.06833804398775101
1761915536098542000,1.8635419921875,-0.02347336709499359,-0.09899662435054779,-0.051238153129816055
1761915536108596000,1.873595947265625,-0.027815386652946472,-0.10326273739337921,-0.03508421778678894
1761915536118649900,1.88364990234375,-0.023572703823447227,-0.10205153375864029,-0.03128654882311821
1761915536128703700,1.893703857421875,-0.015126754529774189,-0.07802609354257584,-0.0419546402990818
1761915536138759000,1.903759033203125,0.002910568844527006,-0.03808347135782242,-0.05546911805868149
1761915536148813000,1.91381298828125,0.017612548545002937,-0.011802330613136292,-0.06547114998102188
1761915536158867000,1.923866943359375,0.021649101749062538,-0.008450210094451904,-0.05938982218503952
1761915536168921000,1.933921142578125,0.01737872324883938,-0.012673184275627136,-0.046308111399412155
1761915536178975000,1.94397509765625,0.0035537220537662506,-0.03105778433382511,-0.03623150661587715
1761915536189030000,1.95402978515625,-0.009107211604714394,-0.052378784865140915,-0.028362931683659554
1761915536199084000,1.964083984375,-0.02407843805849552,-0.08028604835271835,-0.02690378576517105
1761915536209138000,1.974137939453125,-0.027397535741329193,-0.10875311493873596,-0.024324780330061913
1761915536219192000,1.984192138671875,-0.01299542747437954,-0.1293468028306961,-0.02214524894952774
1761915536229246000,1.994245849609375,0.02768169529736042,-0.10732725262641907,-0.03008972480893135
1761915536239300000,2.004300048828125,0.061230335384607315,-0.044974133372306824,-0.030883613973855972
1761915536249354800,2.014354736328125,0.0718185305595398,0.0011084076249971986,-0.023072296753525734
1761915536259409000,2.024408935546875,0.059170112013816833,0.025300296023488045,0.0001430117554264143
1761915536269462800,2.034462890625,0.046004775911569595,0.0071157002821564674,0.05127037689089775
1761915536279517000,2.044516845703125,0.022887205705046654,-0.03304290398955345,0.09564796090126038
1761915536289571000,2.054571044921875,-0.005494900047779083,-0.0734446570277214,0.11981375515460968
1761915536299626000,2.0646259765625,-0.023180153220891953,-0.08617349714040756,0.11338834464550018
1761915536309679900,2.074679931640625,-0.008351939730346203,-0.07877817004919052,0.08157821744680405
1761915536319733800,2.084733642578125,0.022941002622246742,-0.052973467856645584,0.04607774689793587
1761915536329788000,2.094787841796875,0.05492263659834862,-0.007378021255135536,0.017373664304614067
1761915536339841800,2.104841796875,0.06180397793650627,0.005119660869240761,0.002222940558567643
1761915536349897000,2.11489697265625,0.05418014898896217,-0.005508482456207275,0.007377222646027803
1761915536359951000,2.124951171875,0.05206400156021118,-0.01492275670170784,0.028324848040938377
1761915536370005000,2.1350048828125,0.03934713825583458,-0.0317763052880764,0.04692596197128296
1761915536380059000,2.145058837890625,0.025982864201068878,-0.040938910096883774,0.05621720105409622
1761915536390112800,2.15511279296875,0.01949354074895382,-0.020476778969168663,0.05817169323563576
1761915536400167000,2.1651669921875,0.027348799630999565,0.008746620267629623,0.06322584301233292
1761915536410221800,2.175221923828125,0.039085350930690765,0.035893287509679794,0.0729847252368927
1761915536420276000,2.18527587890625,0.05182724446058273,0.05230182036757469,0.09035573154687881
1761915536430330000,2.195330078125,0.0437602624297142,0.051236823201179504,0.10221931338310242
1761915536440384000,2.205384033203125,0.033539317548274994,0.04165290296077728,0.10021688044071198
1761915536450438100,2.215438232421875,0.027942152693867683,0.0222640261054039,0.08411434292793274
1761915536460492800,2.225492919921875,0.024118386209011078,-0.002014148747548461,0.05403047800064087
1761915536470547000,2.235546875,0.02304140292108059,-0.006914365105330944,0.01691426895558834
1761915536480600800,2.245600830078125,0.01876889355480671,0.017737451940774918,-0.0197441428899765
1761915536490655000,2.255655029296875,0.011048123240470886,0.04633447527885437,-0.046663109213113785
1761915536500708900,2.265708984375,0.004551608581095934,0.05426696687936783,-0.05499427765607834
1761915536510763000,2.275762939453125,-0.001868207473307848,0.051049601286649704,-0.0619850754737854
1761915536520818000,2.28581787109375,-0.0029678267892450094,0.04048484191298485,-0.07249177992343903
1761915536530871800,2.295871826171875,0.002168345730751753,0.036141760647296906,-0.08432766050100327
1761915536540926000,2.305926025390625,0.004740959499031305,0.025053687393665314,-0.09080606698989868
1761915536550979800,2.315979736328125,0.01552036963403225,0.030194386839866638,-0.09121006727218628
1761915536561034000,2.326033935546875,0.01896250620484352,0.03497130051255226,-0.08352605253458023
1761915536571089200,2.336089111328125,0.014799985103309155,0.033311884850263596,-0.06928985565900803
1761915536581142800,2.346142822265625,0.021389445289969444,0.03555133566260338,-0.04659439995884895
1761915536591197000,2.356197021484375,0.02894722856581211,0.03610846772789955,-0.023568442091345787
1761915536601250800,2.366250732421875,0.02888278104364872,0.02101180888712406,-0.004020308144390583
1761915536611305000,2.376304931640625,0.01853506825864315,-0.0062400526367127895,0.004992095287889242
1761915536621358800,2.38635888671875,0.002472745021805167,-0.04047871753573418,0.0041308291256427765
1761915536631414000,2.3964140625,-0.007050452753901482,-0.06385860592126846,0.0012444951571524143
1761915536641468200,2.40646826171875,-0.013019661419093609,-0.05763772875070572,-0.001202150946483016
1761915536651522000,2.41652197265625,-0.0022895196452736855,-0.03931571543216705,-0.002453836612403393
1761915536661576000,2.426575927734375,0.003968109842389822,-0.02028103731572628,-0.001198688754811883
1761915536671629800,2.4366298828125,0.005970807280391455,-0.005831523798406124,0.001353418454527855
1761915536681685000,2.44668505859375,0.013337909244000912,-0.0006119944155216217,-0.0034091125708073378
1761915536691739000,2.45673876953125,0.015776565298438072,-0.010026002302765846,-0.005140433553606272
1761915536701793000,2.46679296875,0.012738165445625782,-0.027633491903543472,-0.00891173630952835
1761915536711847000,2.476846923828125,0.01829618215560913,-0.050335872918367386,-0.016504408791661263
1761915536721901000,2.486901123046875,0.024945029988884926,-0.06090223416686058,-0.02913098782300949
1761915536731956000,2.4969560546875,0.030975492671132088,-0.04453311488032341,-0.05119634047150612
1761915536742009900,2.507009765625,0.04611023887991905,-0.015548866242170334,-0.06735986471176147
1761915536752064000,2.51706396484375,0.04584205523133278,0.0060357884503901005,-0.07100892812013626
1761915536762118000,2.527117919921875,0.03629755228757858,0.00245117349550128,-0.06296564638614655
1761915536772172000,2.537172119140625,0.024150343611836433,-0.009121060371398926,-0.044016458094120026
1761915536782226000,2.547225830078125,0.015412778593599796,-0.035589419305324554,-0.016170980408787727
1761915536792280800,2.55728076171875,0.014844992198050022,-0.05416443571448326,0.007766842842102051
1761915536802335000,2.5673349609375,0.014445784501731396,-0.05748752877116203,0.02376738004386425
1761915536812388900,2.577388916015625,0.027122696861624718,-0.034090857952833176,0.03404451906681061
1761915536822443000,2.587443115234375,0.03797534480690956,-0.0013044163351878524,0.047449540346860886
1761915536832497000,2.597496826171875,0.03519527241587639,0.0018777948571369052,0.05915386602282524
1761915536842552000,2.607552001953125,0.017944378778338432,-0.015984026715159416,0.07740131765604019
1761915536852605700,2.617605712890625,-0.0018956380663439631,-0.03705335780978203,0.08784063905477524
1761915536862659800,2.627659912109375,-0.0138377845287323,-0.032953955233097076,0.08903186768293381
1761915536872714000,2.6377138671875,-0.013640977442264557,-0.024447552859783173,0.07725217938423157
1761915536882768000,2.647767822265625,-0.012007128447294235,-0.025047030299901962,0.05823534354567528
1761915536892822000,2.657822021484375,-0.003674097126349807,-0.005834719631820917,0.034929223358631134
1761915536902877000,2.667876953125,0.007890147157013416,0.012819658033549786,0.01600533165037632
1761915536912931000,2.67793115234375,0.0073135728016495705,0.030417559668421745,0.00407383730635047
1761915536922985000,2.68798486328125,-0.0067931911908090115,0.03150679171085358,0.006707703694701195
1761915536933038800,2.698038818359375,-0.029586654156446457,0.009938118048012257,0.02406272478401661
1761915536943092700,2.7080927734375,-0.047927312552928925,-0.02033856138586998,0.04458451271057129
1761915536953148000,2.71814794921875,-0.05477083846926689,-0.04207128658890724,0.04563140124082565
1761915536963206000,2.728205810546875,-0.044262271374464035,-0.03098108619451523,0.04066433757543564
1761915536973259800,2.738259765625,-0.021376661956310272,0.0030333404429256916,0.021937256678938866
1761915536983314000,2.74831396484375,0.0025361282750964165,0.03117336519062519,0.009378587827086449
1761915536993367800,2.758367919921875,0.011501659639179707,0.029385585337877274,0.006581203546375036
1761915537003421700,2.768421630859375,0.0021611552219837904,0.014713166281580925,0.016199743375182152
1761915537013476900,2.778476806640625,-0.005772401578724384,-0.003037601476535201,0.02455860562622547
1761915537023530800,2.78853076171875,-0.01641971990466118,-0.010385262779891491,0.027408720925450325
1761915537033585000,2.7985849609375,-0.020774787291884422,-0.015789082273840904,0.01834704913198948
1761915537043638800,2.808638671875,-0.008048072457313538,0.0015385081060230732,0.00029401297797448933
1761915537053693000,2.81869287109375,0.013525662012398243,0.031153924763202667,-0.024040088057518005
1761915537063747800,2.828747802734375,0.030732346698641777,0.04297862574458122,-0.04092186689376831
1761915537073801700,2.8388017578125,0.032697491347789764,0.0007387608638964593,-0.050877027213573456
1761915537083856000,2.84885595703125,0.02136547677218914,-0.05023973435163498,-0.05403713509440422
1761915537093909800,2.85890966796875,0.01092481892555952,-0.08464591205120087,-0.05526085942983627
1761915537103964000,2.8689638671875,0.005474393721669912,-0.10287365317344666,-0.06055522337555885
1761915537114018800,2.879018798828125,0.001615473534911871,-0.10927296429872513,-0.0749509409070015
1761915537124072700,2.88907275390625,-0.00256355875171721,-0.09573797881603241,-0.08638229221105576
1761915537134126800,2.899126953125,-0.006881874520331621,-0.07835845649242401,-0.09416777640581131
1761915537144180700,2.9091806640625,-0.010261958464980125,-0.04289793223142624,-0.09038342535495758
1761915537154235000,2.91923486328125,-0.005575327668339014,-0.006678408943116665,-0.0751860961318016
1761915537164288800,2.929288818359375,0.007685616612434387,0.03316035121679306,-0.05337560549378395
1761915537174344000,2.939343994140625,0.009667008183896542,0.0580286830663681,-0.025780197232961655
1761915537184397800,2.949397705078125,0.012261459603905678,0.06689327955245972,0.012732306495308876
1761915537194451700,2.95945166015625,0.02208452858030796,0.05504247918725014,0.04514670372009277
1761915537204505900,2.969505859375,0.03038933128118515,0.027708327397704124,0.0776473879814148
1761915537214559700,2.979559814453125,0.0339244119822979,-0.0019624833948910236,0.09721709787845612
1761915537224615000,2.989614990234375,0.03171824663877487,-0.010491522960364819,0.10593495517969131
1761915537234668800,2.999668701171875,0.02117106504738331,-0.019025621935725212,0.11140508949756622
1761915537244723000,3.009722900390625,0.005720470100641251,-0.03150998800992966,0.11327648907899857
1761915537254776800,3.01977685546875,-0.009179117158055305,-0.0462588407099247,0.11147912591695786
1761915537264830700,3.029830810546875,-0.023154854774475098,-0.04942427575588226,0.09704026579856873
1761915537274884600,3.039884521484375,-0.02744893543422222,-0.04451979696750641,0.07423614710569382
1761915537284939800,3.049939697265625,-0.0159443449229002,-0.02953552082180977,0.04514537379145622
1761915537294994000,3.059993896484375,0.00606375141069293,-0.00015899071877356619,0.006167614832520485
1761915537305047800,3.0700478515625,0.027831098064780235,0.035829104483127594,-0.019478360190987587
1761915537315102000,3.08010205078125,0.040704019367694855,0.05506831035017967,-0.03450311720371246
1761915537325155800,3.09015576171875,0.04169018939137459,0.057127468287944794,-0.034267425537109375
1761915537335210800,3.100210693359375,0.03478248044848442,0.050640806555747986,-0.03208629786968231
1761915537345265000,3.110264892578125,0.024397484958171844,0.03714150935411453,-0.028260134160518646
1761915537355318800,3.12031884765625,0.013162673451006413,0.02136973664164543,-0.02315538562834263
1761915537365373000,3.130373046875,-0.0010578075889497995,-0.004416053649038076,-0.013805294409394264
1761915537375426800,3.1404267578125,-0.007129282224923372,-0.024591894820332527,-0.010498180985450745
1761915537385481000,3.15048095703125,-0.0019137475173920393,-0.03045511059463024,-0.01423353049904108
1761915537395535600,3.16053564453125,0.003364637726917863,-0.024685371667146683,-0.021311679854989052
1761915537405589800,3.17058984375,0.0003608583356253803,-0.019656259566545486,-0.0274494681507349
1761915537415643600,3.1806435546875,-0.0073173013515770435,-0.023781761527061462,-0.027170900255441666
1761915537425697800,3.19069775390625,-0.01733797788619995,-0.031039942055940628,-0.019573435187339783
1761915537435752000,3.200751953125,-0.024892300367355347,-0.031263645738363266,-0.0054578823037445545
1761915537445806800,3.210806884765625,-0.03267618641257286,-0.02574770711362362,0.005627791862934828
1761915537455860700,3.22086083984375,-0.03696387633681297,-0.013502226211130619,0.01817953586578369
1761915537465914600,3.23091455078125,-0.030650055035948753,-0.001603222917765379,0.024833977222442627
1761915537475968800,3.24096875,-0.01985173486173153,-0.009554889053106308,0.027803935110569
1761915537486022700,3.251022705078125,-0.00771650904789567,-0.004968126770108938,0.0362837053835392
1761915537496077800,3.261077880859375,0.0018314558546990156,0.016641560941934586,0.036743100732564926
1761915537506132000,3.271132080078125,0.0021752698812633753,0.02564251236617565,0.041363418102264404
1761915537516185900,3.281185791015625,-0.01293657161295414,0.017185378819704056,0.04545110464096069
1761915537526239700,3.29123974609375,-0.028783177956938744,-0.00017097493400797248,0.04801572859287262
1761915537536293600,3.301293701171875,-0.04573233425617218,-0.020799821242690086,0.0469890795648098
1761915537546347800,3.31134765625,-0.05693358927965164,-0.0466306172311306,0.049492452293634415
1761915537556403000,3.32140283203125,-0.05642945319414139,-0.05199822038412094,0.05121072381734848
1761915537566456800,3.331456787109375,-0.04952920228242874,-0.0447767935693264,0.05566193163394928
1761915537576511000,3.341510986328125,-0.03846243768930435,-0.016465259715914726,0.05661001428961754
1761915537586564900,3.35156494140625,-0.02942100539803505,0.005898635368794203,0.05912883207201958
1761915537596619000,3.361618896484375,-0.025441976264119148,0.017715880647301674,0.055391620844602585
1761915537606673700,3.371673583984375,-0.03014485351741314,0.012522716075181961,0.04897260293364525
1761915537616727800,3.381727783203125,-0.04382364824414253,-0.004373176954686642,0.04102839156985283
1761915537626781700,3.39178173828125,-0.056226521730422974,-0.010999654419720173,0.03262665122747421
1761915537636835800,3.4018359375,-0.05739618092775345,-0.01812094636261463,0.024947427213191986
1761915537646890000,3.411889892578125,-0.049381665885448456,-0.02280571311712265,0.02375859208405018
1761915537656944600,3.421944580078125,-0.042327217757701874,-0.023960726335644722,0.02058916538953781
1761915537666998800,3.431998779296875,-0.040520261973142624,-0.02821991965174675,0.018275942653417587
1761915537677052700,3.442052734375,-0.04393789544701576,-0.029533658176660538,0.015149657614529133
1761915537687106800,3.45210693359375,-0.04464177042245865,-0.044013798236846924,0.005234975833445787
1761915537697160700,3.46216064453125,-0.03690555319190025,-0.03970746695995331,-0.0034501252230256796
1761915537707214800,3.47221484375,-0.01944240741431713,-0.011499796062707901,-0.0037236318457871675
1761915537717270000,3.48227001953125,-0.01179327629506588,0.0057436395436525345,0.00407383730635047
1761915537727323600,3.49232373046875,-0.01985812745988369,-0.0057039582170546055,0.020660802721977234
1761915537737377800,3.502377685546875,-0.02485981024801731,-0.018009893596172333,0.04037245735526085
1761915537747431700,3.512431640625,-0.026161829009652138,-0.013499030843377113,0.04032665118575096
1761915537757485800,3.52248583984375,-0.024280305951833725,-0.002636263146996498,0.03220853582024574
1761915537767540700,3.532540771484375,-0.017243169248104095,0.009063269942998886,0.01631452515721321
1761915537777595000,3.542594970703125,-0.003285275539383292,0.008327971212565899,-0.0035832831636071205
1761915537787649000,3.55264892578125,0.0024807346053421497,-0.0008319715270772576,-0.018786471337080002
1761915537797703000,3.562702880859375,0.00028069718973711133,-0.01739976368844509,-0.03232251852750778
1761915537807756800,3.5727568359375,0.0051276502199471,-0.034627486020326614,-0.032402947545051575
1761915537817811700,3.582811767578125,-0.000949150591623038,-0.030833279713988304,-0.030974693596363068
1761915537827865900,3.592865966796875,-0.007151386234909296,-0.017374729737639427,-0.019094066694378853
1761915537837919700,3.602919677734375,-0.014799985103309155,0.002120675053447485,-0.0007896272582001984
1761915537847974000,3.612973876953125,-0.009045160375535488,0.017670340836048126,0.017854098230600357
1761915537858027800,3.62302783203125,-0.0030091057997196913,0.01341940276324749,0.032834380865097046
1761915537868082000,3.63308203125,0.00039787625428289175,-0.004985703621059656,0.043293677270412445
1761915537878136800,3.64313671875,-0.0026375947054475546,-0.05434766039252281,0.049493782222270966
1761915537888190700,3.653190673828125,-0.01950286142528057,-0.12016502022743225,0.051477041095495224
1761915537898244900,3.663244873046875,-0.03555772826075554,-0.17033152282238007,0.04934544488787651
1761915537908298800,3.673298828125,-0.04808683693408966,-0.18588678538799286,0.044202614575624466
1761915537918353000,3.683352783203125,-0.04458051919937134,-0.1668744683265686,0.030823426321148872
1761915537928407800,3.69340771484375,-0.034924693405628204,-0.13630005717277527,0.013670005835592747
1761915537938461700,3.703461669921875,-0.02178332582116127,-0.12188862264156342,0.007370564620941877
1761915537948515800,3.713515869140625,-0.012672385200858116,-0.12542183697223663,0.016814665868878365
1761915537958566000,3.72356591796875,-0.00762889115139842,-0.14937137067317963,0.043049734085798264
1761915537968620000,3.7336201171875,-0.014451909810304642,-0.17397445440292358,0.06289374083280563
1761915537978675200,3.74367529296875,-0.017428524792194366,-0.19276545941829681,0.08026207983493805
1761915537988729000,3.75372900390625,-0.011187140829861164,-0.17837347090244293,0.08426427841186523
1761915537998783200,3.763783203125,-0.006954045966267586,-0.1470554918050766,0.089502714574337
1761915538008836900,3.7738369140625,-0.005410211626440287,-0.10884472727775574,0.09861285984516144
1761915538018891000,3.78389111328125,-0.012316853739321232,-0.0950615331530571,0.10330908000469208
1761915538028945000,3.79394482421875,-0.0128774493932724,-0.10779596865177155,0.11036884784698486
1761915538039000000,3.804,-0.015969112515449524,-0.12092135846614838,0.12347479909658432
1761915538049054200,3.81405419921875,-0.02719513513147831,-0.15139804780483246,0.13626809418201447
1761915538059108000,3.824108154296875,-0.03994475305080414,-0.18087869882583618,0.1500195860862732
1761915538069162200,3.834162353515625,-0.04049922153353691,-0.19463633000850677,0.16274364292621613
1761915538079216000,3.844216064453125,-0.024694161489605904,-0.18226328492164612,0.17290280759334564
1761915538089271000,3.85427099609375,-0.017309214919805527,-0.1651759147644043,0.18592193722724915
1761915538099325000,3.864324951171875,-0.020649617537856102,-0.15742450952529907,0.20200875401496887
1761915538109379000,3.874379150390625,-0.03357260674238205,-0.1472693383693695,0.20851992070674896
1761915538119433200,3.88443310546875,-0.046849530190229416,-0.13907772302627563,0.20245590806007385
1761915538129487000,3.894487060546875,-0.049843188375234604,-0.10673816502094269,0.18073302507400513
1761915538139542000,3.9045419921875,-0.031918782740831375,-0.06845735758543015,0.15491634607315063
1761915538149596000,3.914595947265625,0.006050701718777418,-0.03156831115484238,0.11598572134971619
1761915538159650000,3.924650146484375,0.04722850024700165,0.012560267001390457,0.07423508167266846
1761915538169704000,3.934703857421875,0.07271308451890945,0.05049113556742668,0.03819798678159714
1761915538179758000,3.944758056640625,0.07727348059415817,0.0786396861076355,0.0037827540654689074
1761915538189813200,3.954813232421875,0.0766439139842987,0.07573603838682175,-0.021633656695485115
1761915538199867100,3.9648671875,0.06918919086456299,0.05710296705365181,-0.047750476747751236
1761915538209921000,3.974921142578125,0.06585731357336044,0.028550151735544205,-0.06138213351368904
1761915538219975000,3.984974853515625,0.0799342468380928,0.024111993610858917,-0.06280958652496338
1761915538230029000,3.995029052734375,0.10704229772090912,0.07005125284194946,-0.05638391524553299
1761915538240083000,4.0050830078125,0.13289812207221985,0.12051762640476227,-0.044919539242982864
1761915538250138000,4.01513818359375,0.1297747790813446,0.13406512141227722,-0.030777620151638985
1761915538260192300,4.025192138671875,0.11195636540651321,0.13359001278877258,-0.02243952825665474
1761915538270246100,4.03524609375,0.0969446524977684,0.13718581199645996,-0.021643776446580887
1761915538280300000,4.045300048828125,0.09477817267179489,0.11722835898399353,-0.014150439761579037
1761915538290354000,4.05535400390625,0.09993299096822739,0.07726442813873291,-0.002910568844527006
1761915538300409000,4.0654091796875,0.11039415001869202,0.06355553865432739,0.00663606496527791
1761915538310463000,4.075462890625,0.10607423633337021,0.08297424763441086,0.002855441300198436
1761915538320517000,4.08551708984375,0.09261062741279602,0.10666199773550034,-0.015531555749475956
1761915538330571300,4.0955712890625,0.07352747768163681,0.11838895827531815,-0.04809429123997688
1761915538340625200,4.105625244140625,0.059004995971918106,0.1131526529788971,-0.08139871805906296
1761915538350680000,4.11568017578125,0.05553782731294632,0.09844747930765152,-0.10728650540113449
1761915538360734000,4.12573388671875,0.05789658799767494,0.07059134542942047,-0.12268144637346268
1761915538370788000,4.1357880859375,0.05105040222406387,0.039987362921237946,-0.1269952356815338
1761915538380842000,4.145842041015625,0.041919488459825516,0.028389563784003258,-0.13106267154216766
1761915538390896000,4.155896240234375,0.029929935932159424,0.01992390677332878,-0.1393299251794815
1761915538400951000,4.165950927734375,0.021920744329690933,0.00771784083917737,-0.1562628448009491
1761915538411005000,4.1760048828125,0.011744007468223572,-0.007330351043492556,-0.18497171998023987
1761915538421059000,4.18605908203125,-0.0017068199813365936,-0.014105166308581829,-0.2167898267507553
1761915538431113000,4.196113037109375,-0.009881659410893917,-0.024055534973740578,-0.2484806478023529
1761915538441167000,4.2061669921875,-0.011263307183980942,-0.03839053213596344,-0.2740326225757599
1761915538451221000,4.216220947265625,-0.0038088529836386442,-0.03888241946697235,-0.2847747504711151
1761915538461276200,4.226276123046875,0.0072776200249791145,-0.03203170374035835,-0.2703148424625397
1761915538471330000,4.236330078125,0.016647418960928917,-0.02118011936545372,-0.23851484060287476
1761915538481384000,4.246384033203125,0.028737904503941536,0.004081560764461756,-0.1965292990207672
1761915538491438000,4.25643798828125,0.031924378126859665,0.04766711965203285,-0.1607942134141922
1761915538501492000,4.266491943359375,0.030421555042266846,0.08105490356683731,-0.12242631614208221
1761915538511547100,4.276547119140625,0.013173592276871204,0.07964396476745605,-0.08156996220350266
1761915538521601000,4.28660107421875,-0.0041529336012899876,0.04896993935108185,-0.042518965899944305
1761915538531655200,4.2966552734375,-0.017128653824329376,0.0009387642494402826,-0.0031364047899842262
1761915538541709000,4.306708984375,-0.023631293326616287,-0.03531298413872719,0.02791418880224228
1761915538551763000,4.316762939453125,-0.022037390619516373,-0.05721748247742653,0.05185121297836304
1761915538561818000,4.326818115234375,-0.018216021358966827,-0.06922061741352081,0.058764513581991196
1761915538571872000,4.3368720703125,-0.015535816550254822,-0.05687952786684036,0.06052299961447716
1761915538581926100,4.346926025390625,-0.013490241952240467,-0.04385374113917351,0.05986732989549637
1761915538591980000,4.35697998046875,-0.01768631860613823,-0.029229789972305298,0.06362158805131912
1761915538602034200,4.3670341796875,-0.022460035979747772,-0.025143170729279518,0.06781579554080963
1761915538612089000,4.377089111328125,-0.02671230398118496,-0.016381636261940002,0.0643550232052803
1761915538622143000,4.38714306640625,-0.020900221541523933,0.0029284118209034204,0.05696741119027138
1761915538632197000,4.397197021484375,-0.0011323761427775025,0.02232661098241806,0.053398244082927704
1761915538642251000,4.4072509765625,0.016209330409765244,0.04452965036034584,0.05450345575809479
1761915538652305200,4.41730517578125,0.02646995708346367,0.04629399627447128,0.04585803672671318
1761915538662360000,4.427360107421875,0.032889239490032196,0.03544081375002861,0.03452335670590401
1761915538672414000,4.4374140625,0.034746795892715454,0.017365939915180206,0.007847269997000694
1761915538682467800,4.4474677734375,0.03532576560974121,0.018336929380893707,-0.01912522502243519
1761915538692522000,4.45752197265625,0.03792820870876312,0.04807697981595993,-0.038843002170324326
1761915538702576000,4.467576171875,0.044063862413167953,0.07615628838539124,-0.04380154237151146
1761915538712630000,4.477630126953125,0.04596029967069626,0.08636551350355148,-0.02869582735002041
1761915538722685200,4.487685302734375,0.03497369587421417,0.06624799221754074,-0.015558453276753426
1761915538732739000,4.497739013671875,0.014943795278668404,0.04363749176263809,-0.008731173351407051
1761915538742793000,4.50779296875,0.003744937013834715,0.04368516430258751,-0.007731955498456955
1761915538752846800,4.517846923828125,0.005397961009293795,0.06430654972791672,-0.012402340769767761
1761915538762901000,4.52790087890625,0.015683354809880257,0.07483189553022385,-0.01233549602329731
1761915538772956200,4.5379560546875,0.022044049575924873,0.06070888787508011,-0.0024892566725611687
1761915538783010000,4.548010009765625,0.02009248547255993,0.03197284787893295,0.0080912159755826
1761915538793064200,4.558064208984375,0.007530354429036379,-0.014035657979547977,0.008108526468276978
1761915538803118000,4.5681181640625,-0.015211443416774273,-0.052609413862228394,-0.003742273896932602
1761915538813172200,4.578172119140625,-0.03970560058951378,-0.08501902222633362,-0.027088342234492302
1761915538823227100,4.58822705078125,-0.04382604360580444,-0.08926676213741302,-0.05315563082695007
1761915538833281000,4.598281005859375,-0.024877119809389114,-0.05012761428952217,-0.06259041279554367
1761915538843335200,4.608335205078125,-0.0009693906176835299,0.003564374754205346,-0.051001664251089096
1761915538853389000,4.61838916015625,-0.0022205437999218702,0.023861922323703766,-0.011972506530582905
1761915538863443200,4.628443115234375,-0.014239123091101646,0.0038397456519305706,0.036069054156541824
1761915538873497900,4.638497802734375,-0.02899623103439808,-0.021458420902490616,0.07444014400243759
1761915538883552000,4.648552001953125,-0.036379311233758926,-0.0328437015414238,0.09265776723623276
1761915538893606000,4.65860595703125,-0.03753379359841347,-0.022401446476578712,0.09528817236423492
1761915538903660000,4.668659912109375,-0.025511484593153,0.0015472965314984322,0.08818898350000381
1761915538913714200,4.678714111328125,-0.02022377960383892,0.013767210766673088,0.07611500471830368
1761915538923769000,4.68876904296875,-0.017850102856755257,0.007855792529881,0.06968001276254654
1761915538933823200,4.6988232421875,-0.019211245700716972,-0.010546118021011353,0.057976216077804565
1761915538943876900,4.708876953125,-0.018846925348043442,-0.0273264292627573,0.04242682084441185
1761915538953931000,4.718930908203125,-0.019600866362452507,-0.03368499130010605,0.01239222101867199
1761915538963982800,4.72898291015625,-0.007396663539111614,-0.03551165387034416,-0.02564384415745735
1761915538974037000,4.739037109375,0.008732771500945091,-0.013026852160692215,-0.06598913669586182
1761915538984091100,4.749091064453125,0.023872310295701027,0.015658853575587273,-0.08830243349075317
1761915538994145800,4.759145751953125,0.03087269514799118,0.023213976994156837,-0.08213614672422409
1761915539004200000,4.769199951171875,0.027603132650256157,0.00839481595903635,-0.05615967512130737
1761915539014253800,4.77925390625,0.024335166439414024,-0.015349661000072956,-0.016380304470658302
1761915539024308000,4.789307861328125,0.029352296143770218,-0.029265210032463074,0.00890933908522129
1761915539034361900,4.79936181640625,0.034694064408540726,-0.022884808480739594,0.026554645970463753
1761915539044417000,4.8094169921875,0.038781482726335526,-0.013819143176078796,0.031022630631923676
1761915539054471000,4.819470947265625,0.046070557087659836,0.013860688544809818,0.020547619089484215
1761915539064524800,4.82952490234375,0.04742797091603279,0.03930186480283737,0.01082654856145382
1761915539074579000,4.839578857421875,0.03918575122952461,0.055339422076940536,0.00009134642459684983
1761915539084632800,4.8496328125,0.02762390486896038,0.030466295778751373,-0.00606455048546195
1761915539094688000,4.85968798828125,0.017045296728610992,0.003323625074699521,-0.014446849934756756
1761915539104742000,4.869741943359375,0.009577525779604912,-0.016693759709596634,-0.03284290060400963
1761915539114796000,4.879796142578125,-0.000055660068028373644,-0.03610687330365181,-0.03924700617790222
1761915539124850000,4.889849853515625,-0.0001483380765421316,-0.056407082825899124,-0.03545652702450752
1761915539134903800,4.89990380859375,0.00014940333494450897,-0.064116932451725,-0.01047367975115776
1761915539144959000,4.909958984375,-0.00339126936160028,-0.05594981834292412,0.025310149416327477
1761915539155012900,4.920012939453125,-0.015263108536601067,-0.03670581802725792,0.0627794936299324
1761915539165067000,4.93006689453125,-0.01715049147605896,-0.017477527260780334,0.08862387388944626
1761915539175121000,4.940120849609375,-0.02154790237545967,0.009040366858243942,0.09158451110124588
1761915539185175000,4.950175048828125,-0.01816568709909916,0.02099849283695221,0.07729239016771317
1761915539195230000,4.96022998046875,-0.011115235276520252,0.01537842396646738,0.04945569857954979
1761915539205283800,4.970283935546875,-0.005781722720712423,0.01794065162539482,0.017602162435650826
1761915539215338000,4.980337890625,0.006228867452591658,0.022613700479269028,-0.0068176924251019955
1761915539225391900,4.990391845703125,0.007381749805063009,0.024283768609166145,-0.016205867752432823
1761915539235446000,5.000446044921875,0.0022743395529687405,0.01932309754192829,-0.011438010260462761
1761915539245501000,5.0105009765625,-0.00612207455560565,-0.0076001291163265705,-0.001437041675671935
1761915539255554800,5.020554931640625,-0.009041964076459408,-0.04339141771197319,0.009121593087911606
1761915539265609000,5.03060888671875,-0.005791576579213142,-0.06064790114760399,0.013623933307826519
1761915539275662800,5.040662841796875,-0.005411010701209307,-0.043000996112823486,0.008554073050618172
1761915539285717000,5.050717041015625,-0.0029904635157436132,0.005073854699730873,-0.0001102548703784123
1761915539295772000,5.06077197265625,-0.004023237619549036,0.04069896042346954,-0.0011906992876902223
1761915539305826000,5.070825927734375,-0.005201419815421104,0.05023520812392235,0.0028218855150043964
1761915539315880000,5.0808798828125,-0.0029755497816950083,0.05020378157496452,0.01176398154348135
1761915539325933800,5.090933837890625,0.0009840379934757948,0.03892902284860611,0.017961423844099045
1761915539335988000,5.100988037109375,0.0029734193813055754,0.011810853146016598,0.02809341996908188
1761915539346043000,5.11104296875,-0.0017648768844082952,-0.0251596812158823,0.03681793436408043
1761915539356097000,5.121096923828125,-0.006665625609457493,-0.042999666184186935,0.03844192996621132
1761915539366151000,5.13115087890625,-0.00938870757818222,-0.026270752772688866,0.033118803054094315
1761915539376205000,5.141205078125,-0.006623281631618738,0.006878412328660488,0.028373584151268005
1761915539386259000,5.151259033203125,-0.007387342397123575,0.02726304531097412,0.02412877231836319
1761915539396313900,5.16131396484375,-0.005092496518045664,0.0362381637096405,0.020297547802329063
1761915539406368000,5.171367919921875,-0.007503456436097622,0.03531724587082863,0.01937343180179596
1761915539416422000,5.181421875,-0.006405967753380537,0.02503504604101181,0.01877368800342083
1761915539426476000,5.19147607421875,0.001350755337625742,0.02052258513867855,0.012270781211555004
1761915539436530000,5.201530029296875,0.0035023230593651533,0.01877288892865181,0.0010181264951825142
1761915539446584800,5.211584716796875,0.009674731642007828,0.01818140037357807,-0.011749866418540478
1761915539456638700,5.221638671875,0.018666895106434822,0.02124803140759468,-0.016052203252911568
1761915539466692900,5.23169287109375,0.020565196871757507,0.014723552390933037,-0.009546101093292236
1761915539476747000,5.2417470703125,0.0086001455783844,0.0006072007236070931,0.005938050337135792
1761915539486801000,5.25180078125,-0.003254116512835026,-0.01685035228729248,0.02311783656477928
1761915539496855000,5.26185498046875,-0.00347435986623168,-0.011992214247584343,0.019397133961319923
1761915539506910000,5.271909912109375,-0.0034562505315989256,0.007282147649675608,0.012072907760739326
1761915539516963800,5.2819638671875,-0.0019648801535367966,0.016816530376672745,0.004513259045779705
1761915539527017700,5.292017822265625,-0.0016117451013997197,0.02207946963608265,0.005685050040483475
1761915539537071900,5.30207177734375,-0.00800572894513607,0.026434803381562233,0.009877397678792477
1761915539547127000,5.312126953125,-0.015361911617219448,0.026444923132658005,0.01720615103840828
1761915539557181000,5.322180908203125,-0.010310960933566093,0.021376928314566612,0.0220339298248291
1761915539567235800,5.33223583984375,-0.009856625460088253,0.007931426167488098,0.023677632212638855
1761915539577289700,5.342289794921875,-0.011168764904141426,-0.004321511369198561,0.02299080230295658
1761915539587344000,5.35234375,-0.011488610878586769,-0.004042678512632847,0.009982060641050339
1761915539597398000,5.36239794921875,-0.014183463528752327,0.012236160226166248,-0.0035694348625838757
1761915539607452000,5.372451904296875,-0.011871307156980038,0.025794845074415207,-0.021036842837929726
1761915539617507000,5.382507080078125,-0.004854143597185612,0.04380100965499878,-0.027297135442495346
1761915539627561000,5.39256103515625,0.0066637615673244,0.06439230591058731,-0.026927221566438675
1761915539637614800,5.40261474609375,0.01702691987156868,0.08281978219747543,-0.010703510604798794
1761915539647668700,5.412668701171875,0.017832526937127113,0.08719242364168167,0.008107461035251617
1761915539657723000,5.422722900390625,0.01648709736764431,0.07604470103979111,0.028013791888952255
1761915539667778000,5.432778076171875,0.01025423500686884,0.05162697657942772,0.04187261685729027
1761915539677832000,5.44283203125,0.006250971462577581,0.02213592827320099,0.03623044118285179
1761915539687886000,5.452885986328125,0.004795021377503872,0.0027270768769085407,0.026160763576626778
1761915539697940000,5.46293994140625,0.007829693146049976,0.0011725898366421461,-0.0005233111442066729
1761915539707994000,5.472994140625,0.015380553901195526,-0.0017142767319455743,-0.02870488166809082
1761915539718049000,5.483049072265625,0.0185270793735981,-0.0033156354911625385,-0.04904930293560028
1761915539728103000,5.49310302734375,0.02346218191087246,-0.01575845666229725,-0.054542604833841324
1761915539738157000,5.503156982421875,0.026941336691379547,-0.021925538778305054,-0.04633767157793045
1761915539748211000,5.5132109375,0.028671858832240105,-0.01774171181023121,-0.026068884879350662
1761915539758265000,5.52326513671875,0.01949194259941578,-0.0041529336012899876,-0.003954527899622917
1761915539768319700,5.53331982421875,0.008503473363816738,-0.0025723471771925688,0.02659405954182148
1761915539778374000,5.543373779296875,0.0041494714096188545,-0.009836917743086815,0.050748132169246674
1761915539788427800,5.553427734375,0.004223507363349199,-0.022250443696975708,0.0706201046705246
1761915539798482000,5.56348193359375,0.0033513219095766544,-0.027282487601041794,0.082684226334095
1761915539808537000,5.573537109375,-0.003921504598110914,-0.029736855998635292,0.09016530960798264
1761915539818591000,5.583591064453125,-0.01684928685426712,-0.03410736843943596,0.09719099849462509
1761915539828644900,5.593644775390625,-0.027066238224506378,-0.04223959892988205,0.0993601456284523
1761915539838698800,5.60369873046875,-0.028492627665400505,-0.0558459535241127,0.09043136239051819
1761915539848753000,5.6137529296875,-0.025439046323299408,-0.05829206854104996,0.07157991081476212
1761915539858808000,5.62380810546875,-0.011601528152823448,-0.03654789179563522,0.04593047499656677
1761915539868862000,5.633862060546875,0.001853560097515583,0.003319896524772048,0.022476812824606895
1761915539878916000,5.643916015625,0.0027534421533346176,0.01944294013082981,0.013791179284453392
1761915539888970000,5.653969970703125,-0.010264622047543526,0.002698048483580351,0.015894277021288872
1761915539899024100,5.664024169921875,-0.022123411297798157,-0.024383636191487312,0.021503161638975143
1761915539909077800,5.674077880859375,-0.030644195154309273,-0.036260802298784256,0.019989686086773872
1761915539919133000,5.6841328125,-0.031068170443177223,-0.014311295002698898,0.011008176021277905
1761915539929186800,5.694186767578125,-0.023374831303954124,0.01594407856464386,0.0006436860421672463
1761915539939241000,5.704240966796875,-0.026338130235671997,0.0433964766561985,-0.005860818549990654
1761915539949295000,5.714295166015625,-0.03487995266914368,0.05748193338513374,-0.0032716933637857437
1761915539959349000,5.724348876953125,-0.055690690875053406,0.05982418358325958,0.0004114583716727793
1761915539969404400,5.734404296875,-0.07717175036668777,0.04013383761048317,0.008216118440032005
1761915539979458300,5.744458251953125,-0.09136319905519485,0.006213154643774033,0.020776119083166122
1761915539989512400,5.754512451171875,-0.08979060500860214,-0.03732473403215408,0.029105421155691147
1761915539999566300,5.76456640625,-0.06847253441810608,-0.05046876519918442,0.025416409596800804
1761915540009621500,5.77462158203125,-0.04111707583069801,-0.03934793919324875,0.022104237228631973
1761915540019675100,5.784675048828125,-0.012958675622940063,-0.017200026661157608,0.025316542014479637
1761915540029729300,5.794729248046875,0.009929862804710865,0.013021525926887989,0.033249564468860626
1761915540039783200,5.804783203125,0.009799367748200893,0.029405292123556137,0.049439456313848495
1761915540049837300,5.81483740234375,-0.007873103022575378,0.03346288576722145,0.06568659842014313
1761915540059892500,5.824892578125,-0.01762906089425087,0.021583588793873787,0.0682176724076271
1761915540069946400,5.8349462890625,-0.024104803800582886,0.0007350324303843081,0.06117893382906914
1761915540080000500,5.84500048828125,-0.02149224281311035,-0.015958193689584732,0.049019474536180496
1761915540090054400,5.855054443359375,-0.007072290405631065,-0.020171314477920532,0.02466513216495514
1761915540100108300,5.8651083984375,0.0017843178939074278,-0.02298760786652565,0.006897587329149246
1761915540110163500,5.87516357421875,0.007900799624621868,-0.014697186648845673,-0.011811119504272938
1761915540120217300,5.88521728515625,0.007282414007931948,-0.005643238313496113,-0.026753850281238556
1761915540130271500,5.895271484375,0.0021382521372288465,-0.017293237149715424,-0.03912343457341194
1761915540140325400,5.905325439453125,-0.002380866091698408,-0.04168619215488434,-0.04043664038181305
1761915540150379500,5.915379638671875,-0.0067665595561265945,-0.059122975915670395,-0.033366743475198746
1761915540160434200,5.92543408203125,0.0019518306944519281,-0.04677576199173927,-0.027168504893779755
1761915540170488300,5.93548828125,0.009337575174868107,-0.012030564248561859,-0.019150258973240852
1761915540180542200,5.945542236328125,0.024653680622577667,0.04252109304070473,-0.007537011988461018
1761915540190596400,5.955596435546875,0.0308106429874897,0.08188820630311966,0.0179893858730793
1761915540200650500,5.965650390625,0.028142422437667847,0.08442593365907669,0.04944291710853577
1761915540210705400,5.975705322265625,0.02215057611465454,0.06436407566070557,0.08105330914258957
1761915540220759300,5.98575927734375,0.01212830189615488,0.02496979758143425,0.0957811176776886
1761915540230813200,5.995813232421875,-0.0009121326729655266,-0.004846154246479273,0.0973539799451828
1761915540240867300,6.005867431640625,-0.008511196821928024,-0.011172226630151272,0.06795454770326614
1761915540250921200,6.015921142578125,-0.013260677456855774,-0.006155364215373993,0.024656077846884727
1761915540260976400,6.025976318359375,-0.01611878164112568,-0.003364105010405183,-0.01594248041510582
1761915540271030500,6.036030517578125,-0.013790380209684372,-0.003323092358186841,-0.043170373886823654
1761915540281084400,6.04608447265625,0.0032522522378712893,0.01209820806980133,-0.06623095273971558
1761915540291138300,6.05613818359375,0.015616510063409805,0.030837275087833405,-0.07697467505931854
1761915540301192200,6.066192138671875,0.016867930069565773,0.03087322786450386,-0.07180361449718475
1761915540311247400,6.076247314453125,0.006627010181546211,0.005422994960099459,-0.048643968999385834
1761915540321301500,6.086301513671875,-0.011620436795055866,-0.038893602788448334,-0.011539210565388203
1761915540331355400,6.09635546875,-0.03099972754716873,-0.09255416691303253,0.026751719415187836
1761915540341409500,6.106409423828125,-0.04318581894040108,-0.11598146706819534,0.04945863038301468
1761915540351463400,6.11646337890625,-0.04327689856290817,-0.10379217565059662,0.06467539817094803
1761915540361518300,6.126518310546875,-0.038663238286972046,-0.06946589052677155,0.06072460114955902
1761915540371572200,6.136572265625,-0.025294704362750053,-0.006826480850577354,0.05589655414223671
1761915540381626400,6.14662646484375,-0.003240001853555441,0.049190182238817215,0.045933935791254044
1761915540391680300,6.15668017578125,0.014081730507314205,0.07965993881225586,0.037220072001218796
1761915540401734400,6.166734375,0.02250451035797596,0.0735008493065834,0.029438583180308342
1761915540411789300,6.176789306640625,0.020376112312078476,0.03741687908768654,0.022554578259587288
1761915540421843200,6.18684326171875,0.018135594204068184,0.005796370096504688,0.01070910319685936
1761915540431897300,6.1968974609375,0.01822933740913868,-0.011128018610179424,-0.008933573961257935
1761915540441951200,6.206951171875,0.011529090814292431,-0.015184013172984123,-0.02021072991192341
1761915540452005400,6.21700537109375,0.0013683321885764599,-0.016234098002314568,-0.0268891379237175
1761915540462060500,6.227060546875,0.004150004126131535,-0.02010500244796276,-0.025189509615302086
1761915540472114400,6.237114501953125,0.015417039394378662,-0.017138773575425148,-0.018811238929629326
1761915540482168300,6.247168212890625,0.02949211187660694,-0.02027357928454876,-0.015624766238033772
1761915540492222200,6.25722216796875,0.031148863956332207,-0.016405871137976646,-0.01859019510447979
1761915540502276400,6.2672763671875,0.02696663700044155,-0.004250404890626669,-0.017789915204048157
1761915540512331300,6.277331298828125,0.019809391349554062,0.007585748098790646,-0.011375692673027515
1761915540522385400,6.287385498046875,0.009065399877727032,0.012473447248339653,0.011750665493309498
1761915540532439300,6.297439208984375,0.006171342916786671,0.02592640556395054,0.04069603234529495
1761915540542493400,6.307493408203125,0.0033939324785023928,0.03683710843324661,0.05926864966750145
1761915540552547300,6.31754736328125,0.0038069887086749077,0.039330895990133286,0.06993460655212402
1761915540562602200,6.327602294921875,0.003882622579112649,0.027101391926407814,0.06237682327628136
1761915540572656400,6.337656494140625,0.008183893747627735,0.016891898587346077,0.03988110274076462
1761915540582710300,6.347710205078125,0.011776498518884182,0.009695770218968391,0.00788402184844017
1761915540592764400,6.357764404296875,0.014910239726305008,0.0016205335268750787,-0.015573899261653423
1761915540602818300,6.367818359375,0.006580937188118696,0.00005912217602599412,-0.03307299688458443
1761915540612873200,6.377873291015625,-0.004077033139765263,-0.0006740460521541536,-0.033855702728033066
1761915540622927400,6.38792724609375,-0.016174975782632828,-0.010803379118442535,-0.029323533177375793
1761915540632981200,6.397981201171875,-0.021162010729312897,-0.030368026345968246,-0.03404558449983597
1761915540643035400,6.408035400390625,-0.021250959485769272,-0.039614785462617874,-0.05230368301272392
1761915540653090300,6.41809033203125,-0.009430785663425922,-0.024530643597245216,-0.0723453015089035
1761915540663144400,6.42814453125,-0.001284708851017058,0.0019534286111593246,-0.09271901845932007
1761915540673198300,6.4381982421875,-0.0025859293527901173,0.020289292559027672,-0.0950375646352768
1761915540683252200,6.448252197265625,-0.010831608437001705,0.024897625669836998,-0.08194999396800995
1761915540693306400,6.458306396484375,-0.008701079525053501,0.01167316734790802,-0.04740240424871445
1761915540703361300,6.468361328125,-0.011296862736344337,-0.01116290595382452,-0.008195878006517887
1761915540713415400,6.47841552734375,-0.016318785026669502,-0.0245538130402565,0.023273896425962448
1761915540723469300,6.48846923828125,-0.014009292237460613,-0.017712151631712914,0.04577947407960892
1761915540733523500,6.4985234375,-0.0068118334747850895,0.0031164311803877354,0.05380064621567726
1761915540743577300,6.508577392578125,0.0070528495125472546,0.02425260841846466,0.05709657445549965
1761915540753632300,6.51863232421875,0.015542474575340748,0.04892280325293541,0.06320293992757797
1761915540763686400,6.528686279296875,0.02768435887992382,0.06676784157752991,0.07419007271528244
1761915540773740300,6.538740234375,0.03224821761250496,0.0803006961941719,0.08747951686382294
1761915540783794400,6.54879443359375,0.03310628607869148,0.06816679984331131,0.09544103592634201
1761915540793848300,6.558848388671875,0.014005830511450768,0.029271868988871574,0.09487511217594147
1761915540803903200,6.5689033203125,-0.004394748248159885,-0.019694875925779343,0.08188527822494507
1761915540813957400,6.578957275390625,-0.012200740166008472,-0.0517103336751461,0.050276752561330795
1761915540824011300,6.58901123046875,-0.014340057037770748,-0.04945676401257515,0.015395468100905418
1761915540834065400,6.5990654296875,-0.015992281958460808,-0.02455088309943676,-0.013259879313409328
1761915540844119300,6.609119384765625,-0.014825551770627499,0.014654576778411865,-0.02967134304344654
1761915540854174500,6.619174560546875,-0.0023555660154670477,0.044493697583675385,-0.036261867731809616
1761915540864228400,6.629228271484375,0.00404587434604764,0.04983653128147125,-0.032101478427648544
1761915540874282200,6.6392822265625,0.014603443443775177,0.02762523666024208,-0.033006154000759125
1761915540884336000,6.649336181640625,0.020446419715881348,0.01164573710411787,-0.03244476020336151
1761915540894390300,6.659390380859375,0.021710621193051338,0.00509808911010623,-0.03766109049320221
1761915540904445400,6.669445556640625,0.011182080954313278,0.012682772241532803,-0.03068813681602478
1761915540914499300,6.679499267578125,-0.008705074898898602,0.007237939164042473,-0.012981578707695007
1761915540924553500,6.689553466796875,-0.03141677752137184,-0.010880877263844013,0.011866512708365917
1761915540934607400,6.699607421875,-0.04180869832634926,-0.03490791469812393,0.033722810447216034
1761915540944661500,6.70966162109375,-0.03773672506213188,-0.0335845910012722,0.04499011114239693
1761915540954716400,6.71971630859375,-0.021523933857679367,-0.009571134112775326,0.03776788339018822
1761915540964770600,6.7297705078125,-0.0007424892974086106,0.0196104533970356,0.017893780022859573
1761915540974824700,6.73982470703125,0.01474512368440628,0.050386473536491394,-0.007485346868634224
1761915540984878600,6.749878662109375,0.01678031124174595,0.06063831225037575,-0.021928468719124794
1761915540994932700,6.7599326171875,0.008643022738397121,0.04867672547698021,-0.01859951764345169
1761915541004987400,6.7699873046875,-0.004908205941319466,0.017661284655332565,0.0013930995482951403
1761915541015041500,6.78004150390625,-0.016940101981163025,-0.0030570426024496555,0.019159313291311264
1761915541025095400,6.790095458984375,-0.026338396593928337,-0.023011043667793274,0.04151015728712082
1761915541035149600,6.800149658203125,-0.022774288430809975,-0.028087027370929718,0.0547545924782753
1761915541045203500,6.810203369140625,-0.009822537191212177,-0.012622318230569363,0.06040395423769951
1761915541055258600,6.820258544921875,0.003319896524772048,0.030878553166985512,0.058517105877399445
1761915541065312500,6.8303125,0.009104548953473568,0.06433770805597305,0.059008192270994186
1761915541075366400,6.840366455078125,0.006678675301373005,0.07006270438432693,0.05915147066116333
1761915541085420500,6.850420654296875,0.003070624778047204,0.05885905399918556,0.05488668382167816
1761915541095474400,6.860474365234375,-0.0017353157745674253,0.03253237530589104,0.03965979442000389
1761915541105529600,6.870529541015625,-0.008080829866230488,-0.004319647327065468,0.022228073328733444
1761915541115583700,6.880583740234375,-0.006443518213927746,-0.028688369318842888,0.0051835766062140465
1761915541125637600,6.8906376953125,0.00657454552128911,-0.023786289617419243,-0.00986514799296856
1761915541135691500,6.90069140625,0.020846160128712654,0.0018559569725766778,-0.03148042783141136
1761915541145745400,6.910745361328125,0.020302342250943184,0.013792777433991432,-0.042874760925769806
1761915541155800600,6.920800537109375,0.016998158767819405,0.0009366337326355278,-0.043541353195905685
1761915541165854500,6.9308544921875,0.007330616936087608,-0.024335432797670364,-0.03428446874022484
1761915541175908600,6.94090869140625,-0.005617405753582716,-0.059963200241327286,-0.02327975630760193
1761915541185962500,6.95096240234375,-0.003721767570823431,-0.06162474676966667,-0.013771472498774529
1761915541196016600,6.9610166015625,0.0013888385146856308,-0.0368988960981369,-0.012345882132649422
1761915541206071600,6.971071533203125,0.004299407359212637,-0.0010836402652785182,-0.008987636305391788
1761915541216125400,6.98112548828125,0.006865096744149923,0.007425958290696144,-0.0015651397407054901
1761915541226179600,6.9911796875,0.0030740867368876934,-0.007758054416626692,0.016402674838900566
1761915541236233500,7.0012333984375,0.004403270315378904,-0.024417191743850708,0.02130928263068199
1761915541246287600,7.01128759765625,0.006205431651324034,-0.015977101400494576,0.01684049889445305
1761915541256342500,7.021342529296875,0.018978750333189964,0.023375364020466805,0.0033100428991019726
1761915541266396400,7.031396484375,0.02684146724641323,0.06193820387125015,-0.005524727515876293
1761915541276450600,7.041450439453125,0.021633923053741455,0.04896940663456917,-0.004431500099599361
1761915541286504400,7.05150439453125,0.005527923349291086,0.004509530495852232,0.0004362257895991206
1761915541296558600,7.06155859375,-0.009934922680258751,-0.04110349342226982,0.006925017572939396
1761915541306613500,7.071613525390625,-0.022821959108114243,-0.05849260464310646,0.0032386700622737408
1761915541316667600,7.081667724609375,-0.026521354913711548,-0.0446404367685318,-0.01267185341566801
1761915541326721800,7.0917216796875,-0.02022191509604454,-0.015987489372491837,-0.03139360994100571
1761915541336775400,7.101775390625,-0.005221659783273935,0.024583905935287476,-0.043835099786520004
1761915541346830600,7.11183056640625,0.012622318230569363,0.05594555661082268,-0.04111707583069801
1761915541356884500,7.121884521484375,0.01774597354233265,0.05831870064139366,-0.02804095484316349
1761915541366938600,7.131938720703125,0.0201654564589262,0.039869118481874466,-0.00989444274455309
1761915541376992500,7.141992431640625,0.00899562519043684,0.025832396000623703,-0.008913599886000156
1761915541387046700,7.152046630859375,0.006929811555892229,-0.00869255792349577,-0.013277456164360046
1761915541397101600,7.1621015625,0.0034591800067573786,-0.017134511843323708,-0.03407194837927818
1761915541407155500,7.172155517578125,-0.00036218989407643676,-0.048113998025655746,-0.05204083025455475
1761915541417209600,7.182209716796875,0.003403519745916128,-0.08429437130689621,-0.058506984263658524
1761915541427263500,7.192263427734375,0.0001757686259225011,-0.10345235466957092,-0.05723346024751663
1761915541437317600,7.202317626953125,-0.005452556069940329,-0.09438322484493256,-0.05275695398449898
1761915541447372800,7.212372802734375,-0.01721627078950405,-0.1198345273733139,-0.03775110840797424
1761915541457426400,7.222426513671875,-0.013362144120037556,-0.11706723272800446,-0.03663524240255356
1761915541467480600,7.23248046875,-0.01623702608048916,-0.11612314730882645,-0.033134251832962036
1761915541477534500,7.242534423828125,-0.025463813915848732,-0.11716310679912567,-0.02760978974401951
1761915541487588600,7.252588623046875,-0.029282787814736366,-0.10413971543312073,-0.01498161256313324
1761915541497643500,7.2626435546875,-0.025141838937997818,-0.07395917922258377,-0.000322775129461661
1761915541507697700,7.27269775390625,-0.01840217597782612,-0.03190573304891586,0.01787220686674118
1761915541517751600,7.28275146484375,-0.009751963429152966,-0.004629373084753752,0.038002509623765945
1761915541527805400,7.292805419921875,-0.00001917476038215682,0.005763346794992685,0.04969725012779236
1761915541537859300,7.302859375,0.0012389025650918484,0.006278135813772678,0.043721914291381836
1761915541547914500,7.31291455078125,-0.0017073525814339519,0.0028213527984917164,0.030957916751503944
1761915541557968600,7.32296875,0.000580036488827318,0.0010567422723397613,0.0020327907986938953
1761915541568022500,7.3330224609375,0.0032855418976396322,0.007741010282188654,-0.025261415168642998
1761915541578076700,7.34307666015625,-0.00015579492901451886,0.000803209375590086,-0.039809197187423706
1761915541588130600,7.353130615234375,-0.009823336265981197,-0.01655340939760208,-0.03452602028846741
1761915541598185500,7.363185546875,-0.0177552942186594,-0.028979187831282616,-0.01420237123966217
1761915541608239600,7.373239501953125,-0.01507216040045023,-0.030781880021095276,0.00598492193967104
1761915541618293500,7.38329345703125,-0.012372246943414211,-0.011023622937500477,0.029626335948705673
1761915541628347600,7.39334765625,-0.010000701993703842,0.008958075195550919,0.03442481905221939
1761915541638401500,7.403401611328125,0.003948402591049671,0.04404069483280182,0.03220028057694435
1761915541648456400,7.41345654296875,0.007738879881799221,0.07152292132377625,0.025175394490361214
1761915541658510300,7.42351025390625,0.009380985051393509,0.052147090435028076,0.026521354913711548
1761915541668564500,7.433564453125,0.00911413598805666,0.011567439883947372,0.03350682556629181
1761915541678618600,7.44361865234375,0.007951133884489536,-0.02370026893913746,0.036077044904232025
1761915541688672500,7.453672607421875,-0.003975833300501108,-0.04352111369371414,0.027452662587165833
1761915541698727700,7.463727783203125,-0.010775416158139706,-0.04501674324274063,0.015905728563666344
1761915541708781600,7.473781494140625,-0.008143413811922073,-0.055090680718421936,0.0021728731226176023
1761915541718835700,7.483835693359375,-0.012709936127066612,-0.066497802734375,-0.006896788254380226
1761915541728889300,7.493889404296875,-0.007552724797278643,-0.05237133055925369,-0.019833359867334366
1761915541738943500,7.503943603515625,0.004881574306637049,-0.009295497089624405,-0.01696327142417431
1761915541748998700,7.51399853515625,0.012532569468021393,0.01672225445508957,-0.0057340520434081554
1761915541759052500,7.524052490234375,0.016700683161616325,0.019418705254793167,0.01631106249988079
1761915541769106700,7.534106689453125,0.021313011646270752,0.00942173134535551,0.031926508992910385
1761915541779160600,7.54416064453125,0.022356437519192696,-0.009908556938171387,0.037510622292757034
1761915541789215500,7.554215576171875,0.026012159883975983,-0.006104231346398592,0.03157443925738335
1761915541799269400,7.564269287109375,0.03598356619477272,0.031209051609039307,0.02154151163995266
1761915541809323500,7.574323486328125,0.03737533465027809,0.053483996540308,0.024806812405586243
1761915541819377700,7.584377685546875,0.03003619611263275,0.042870234698057175,0.033665284514427185
1761915541829431600,7.594431640625,0.02509177103638649,0.01973508857190609,0.04057645425200462
1761915541839486700,7.60448681640625,0.017007745802402496,0.005920739844441414,0.027773573994636536
1761915541849540400,7.614540283203125,0.012179967015981674,-0.010577010922133923,0.006788930390030146
1761915541859594500,7.624594482421875,0.011996741406619549,-0.014850584790110588,-0.021978270262479782
1761915541869648400,7.6346484375,0.009799634106457233,-0.008953547105193138,-0.04061799868941307
1761915541879702500,7.64470263671875,0.00771863991394639,0.0016058861510828137,-0.04358769208192825
1761915541889757700,7.6547578125,0.009415073320269585,0.010291253216564655,-0.04007764533162117
1761915541899811600,7.6648115234375,0.013226056471467018,0.014758173376321793,-0.023872576653957367
1761915541909865700,7.67486572265625,0.018192052841186523,0.004004062619060278,-0.005576393101364374
1761915541919919600,7.684919677734375,0.01595260202884674,-0.0010138654615730047,0.007355384528636932
1761915541929973500,7.694973388671875,0.01067954208701849,0.0007041397620923817,0.010046775452792645
1761915541940028700,7.705028564453125,0.009431584738194942,0.006184392608702183,0.01041402481496334
1761915541950082600,7.71508251953125,0.012770922854542732,0.025293905287981033,0.011061172932386398
1761915541960136700,7.72513671875,0.012866795994341373,0.03899214044213295,0.018909508362412453
1761915541970190300,7.7351904296875,0.008318116888403893,0.047691889107227325,0.03136218339204788
1761915541980244500,7.745244384765625,0.00023196132679004222,0.045340850949287415,0.03724590688943863
1761915541990299100,7.755299072265625,-0.0037468012887984514,0.030469758436083794,0.03623177483677864
1761915542000353300,7.765353271484375,-0.011384480632841587,0.016212258487939835,0.02359054796397686
1761915542010407200,7.7754072265625,-0.0194887463003397,0.006416620220988989,-0.000024767397917457856
1761915542020461300,7.78546142578125,-0.019990751519799232,-0.0014780544443055987,-0.01671985723078251
1761915542030515200,7.79551513671875,-0.013256949372589588,0.007098922040313482,-0.029860693961381912
1761915542040570400,7.8055703125,-0.008537561632692814,0.014077203348279,-0.036505814641714096
1761915542050624300,7.815624267578125,-0.007613178342580795,0.011963718570768833,-0.025522403419017792
1761915542060678100,7.82567822265625,-0.004309793468564749,0.0062823970802128315,-0.0029414615128189325
1761915542070732300,7.835732177734375,-0.0019294602097943425,-0.0006876281695440412,0.020485034212470055
1761915542080786200,7.8457861328125,-0.003422162029892206,-0.005812349263578653,0.040947165340185165
1761915542090841300,7.85584130859375,-0.0027835359796881676,0.00863103847950697,0.05107516795396805
1761915542100895500,7.8658955078125,0.0003741741238627583,0.0409809872508049,0.05371968820691109
1761915542110949400,7.875949462890625,0.005917011294513941,0.06791885942220688,0.05277133733034134
1761915542121003300,7.886003173828125,0.007850732654333115,0.06372891366481781,0.05438094958662987
1761915542131057200,7.89605712890625,0.00478383619338274,0.032462600618600845,0.050161704421043396
1761915542141112300,7.9061123046875,0.0003462109307292849,-0.0033393376506865025,0.04068857431411743
1761915542151166200,7.916166259765625,-0.002429868094623089,-0.033408023416996,0.02684892527759075
1761915542161220400,7.926220458984375,-0.006852313410490751,-0.04454456642270088,0.013105415739119053
1761915542171274500,7.9362744140625,-0.008274441584944725,-0.033905502408742905,0.007467237301170826
1761915542181328400,7.946328369140625,-0.010235860012471676,-0.011106979101896286,0.005913282744586468
1761915542191383300,7.95638330078125,-0.012990633025765419,0.0003808320325333625,0.0114001939073205
1761915542201437200,7.966437255859375,-0.013009008951485157,-0.013889716938138008,0.02340093068778515
1761915542211491300,7.9764912109375,-0.01287318766117096,-0.04374188929796219,0.03295315429568291
1761915542221545200,7.986545166015625,-0.00788508728146553,-0.06339149177074432,0.043651074171066284
1761915542231599400,7.996599365234375,-0.011991947889328003,-0.05615461617708206,0.047568317502737045
1761915542241654300,8.006654296875,-0.013685984537005424,-0.02929850108921528,0.050757452845573425
1761915542251708200,8.016708251953125,-0.018874354660511017,-0.010585532523691654,0.048883385956287384
1761915542261762300,8.02676220703125,-0.015023957006633282,0.011203918606042862,0.04261377453804016
1761915542271816200,8.036816162109375,-0.010802313685417175,0.017492441460490227,0.031866587698459625
1761915542281871400,8.046871337890625,-0.01073679979890585,0.007937018759548664,0.016474314033985138
1761915542291925200,8.05692529296875,-0.016513995826244354,-0.013830861076712608,0.0032314795535057783
1761915542301979400,8.0669794921875,-0.02532666176557541,-0.03405677154660225,-0.009125853888690472
1761915542312033500,8.077033447265626,-0.03296354413032532,-0.0507153756916523,-0.007300523575395346
1761915542322087200,8.087087158203126,-0.03043966554105282,-0.05741801857948303,0.00407516909763217
1761915542332142300,8.097142333984374,-0.022849654778838158,-0.03623896464705467,0.02317136526107788
1761915542342196200,8.1071962890625,-0.016319584101438522,0.012897422537207603,0.04398956149816513
1761915542352250400,8.11725048828125,-0.005620601586997509,0.0683915764093399,0.06829996407032013
1761915542362304300,8.12730419921875,-0.004500742070376873,0.08735700696706772,0.08572209626436234
1761915542372358400,8.1373583984375,-0.010131197050213814,0.07198764383792877,0.09650470316410065
1761915542382413300,8.147413330078125,-0.02004454843699932,0.04014582186937332,0.0848991796374321
1761915542392467200,8.15746728515625,-0.02346804179251194,-0.0021917815320193768,0.054068826138973236
1761915542402521300,8.167521240234375,-0.017068998888134956,-0.02014894410967827,0.008423578925430775
1761915542412575200,8.1775751953125,-0.006931941956281662,-0.01780482940375805,-0.03796389326453209
1761915542422629400,8.18762939453125,-0.012238556519150734,-0.020851751789450645,-0.06711804866790771
1761915542432684500,8.1976845703125,-0.024949824437499046,-0.030473487451672554,-0.0702509954571724
1761915542442738200,8.20773828125,-0.039562854915857315,-0.049307893961668015,-0.05191725865006447
1761915542452792300,8.217792236328124,-0.047200534492731094,-0.052446164190769196,-0.0096259955316782
1761915542462846200,8.22784619140625,-0.047322776168584824,-0.03809358924627304,0.028899025171995163
1761915542472900400,8.237900390625,-0.032642100006341934,-0.004403536673635244,0.06262316554784775
1761915542482955300,8.247955322265625,-0.009983657859265804,0.035179026424884796,0.07843755185604095
1761915542493009400,8.258009521484375,0.011142133735120296,0.06367431581020355,0.08157635480165482
1761915542503063300,8.268063232421875,0.020565196871757507,0.06346365809440613,0.07105527073144913
1761915542513117400,8.278117431640625,0.01884159818291664,0.04831879585981369,0.05762787535786629
1761915542523171300,8.28817138671875,0.0057404437102377415,0.02346111834049225,0.0367598794400692
1761915542533226200,8.298226318359376,-0.003727892879396677,-0.020430972799658775,0.009958092123270035
1761915542543280400,8.3082802734375,-0.0168551467359066,-0.06382611393928528,-0.024335965514183044
1761915542553334300,8.318334228515624,-0.02099396474659443,-0.08140937238931656,-0.0586172416806221
1761915542563388400,8.328388427734374,-0.014451909810304642,-0.059117116034030914,-0.0861564576625824
1761915542573442300,8.3384423828125,0.003629089565947652,-0.011212441138923168,-0.09772016853094101
1761915542583497200,8.348497314453125,0.015544071793556213,0.028172248974442482,-0.08491755276918411
1761915542593551400,8.35855126953125,0.02725665457546711,0.05041523650288582,-0.05678658187389374
1761915542603605200,8.368605224609375,0.0275645162910223,0.05571066588163376,-0.02046506106853485
1761915542613659400,8.378659423828125,0.028813272714614868,0.04872705787420273,0.014310762286186218
1761915542623713300,8.38871337890625,0.03236193582415581,0.04003024101257324,0.031802404671907425
1761915542633768400,8.3987685546875,0.03491697087883949,0.025660356506705284,0.03129373863339424
1761915542643822000,8.408822021484376,0.029338980093598366,0.01209607720375061,0.01509852521121502
1761915542653876200,8.418876220703124,0.020018182694911957,0.005243764258921146,-0.006223008502274752
1761915542663930400,8.428930419921874,0.006462426856160164,0.005252552684396505,-0.020746557042002678
1761915542673984300,8.438984375,-0.017161943018436432,0.010147443041205406,-0.02418416552245617
1761915542684039400,8.449039306640625,-0.03217258304357529,-0.005532717332243919,-0.021975073963403702
1761915542694093300,8.45909326171875,-0.03647172451019287,-0.031122500076889992,-0.016886305063962936
1761915542704147500,8.4691474609375,-0.024327177554368973,-0.031794946640729904,-0.01344416942447424
1761915542714201000,8.479201171875,-0.006940197665244341,0.008068312890827656,-0.014447116293013096
1761915542724255200,8.489255126953125,0.006426740437746048,0.04585430771112442,0.0006194512825459242
1761915542734310400,8.499310302734376,-0.0034378746058791876,0.04397225007414818,0.033787526190280914
1761915542744364300,8.5093642578125,-0.022047245875000954,0.020003534853458405,0.0776899978518486
1761915542754418400,8.51941845703125,-0.037388384342193604,-0.014838600531220436,0.11805953085422516
1761915542764472300,8.529472412109374,-0.045211952179670334,-0.03398380056023598,0.13950569927692413
1761915542774526500,8.5395263671875,-0.05085945129394531,-0.04523512348532677,0.13833923637866974
1761915542784581400,8.549581298828125,-0.04256637021899223,-0.044744569808244705,0.11458063870668411
1761915542794635300,8.55963525390625,-0.033177126199007034,-0.043350670486688614,0.07919042557477951
1761915542804689400,8.569689453125,-0.02791125886142254,-0.049552906304597855,0.04619386047124863
1761915542814743300,8.579743408203125,-0.007161240093410015,-0.02124829776585102,0.017434118315577507
1761915542824797400,8.58979736328125,0.008640360087156296,0.009370066225528717,0.002522812457755208
1761915542834852000,8.59985205078125,0.009501625783741474,0.032464198768138885,0.0029491845052689314
1761915542844906200,8.60990625,0.004544151946902275,0.038535941392183304,0.018447717651724815
1761915542854960000,8.619960205078126,0.0009603358921594918,0.0236456748098135,0.04181775450706482
1761915542865014300,8.63001416015625,-0.0009984191274270415,0.0010375675046816468,0.055514123290777206
1761915542875069400,8.6400693359375,0.013801566325128078,-0.004295412451028824,0.0563194639980793
1761915542885123300,8.650123291015625,0.02683800645172596,0.007384412921965122,0.04350912943482399
1761915542895177500,8.660177490234375,0.03448181226849556,0.021641379222273827,0.025544507429003716
1761915542905231400,8.6702314453125,0.03123381920158863,0.022115955129265785,0.01242497842758894
1761915542915285200,8.68028515625,0.02022138237953186,0.011432950384914875,0.010750115849077702
1761915542925340400,8.69034033203125,0.011078749783337116,-0.004167846869677305,0.013877732679247856
1761915542935394300,8.700394287109376,0.0012325108982622623,-0.015872173011302948,0.00908377580344677
1761915542945448400,8.710448486328126,-0.0031856733839958906,-0.009517339058220387,-0.002159024588763714
1761915542955502300,8.72050244140625,0.0027361316606402397,0.005361209623515606,-0.01570332981646061
1761915542965556500,8.730556396484374,0.007968710735440254,0.02780633047223091,-0.026314428076148033
1761915542975610400,8.7406103515625,0.014168282970786095,0.04808257520198822,-0.019209913909435272
1761915542985664300,8.750664306640624,0.006966030225157738,0.05119714140892029,0.0019409117521718144
1761915542995718400,8.760718505859375,-0.005798766855150461,0.0337960459291935,0.032157935202121735
1761915543005772300,8.770772216796875,-0.02123311720788479,0.01260793674737215,0.06330733001232147
1761915543015827500,8.780827392578125,-0.028900623321533203,0.006821686867624521,0.0791587308049202
1761915543025881600,8.790881591796875,-0.030833812430500984,0.005549228750169277,0.07573603838682175
1761915543035935500,8.800935546875,-0.030402380973100662,0.003939081449061632,0.05786782503128052
1761915543045989600,8.81098974609375,-0.024637170135974884,0.005322593729943037,0.03104553371667862
1761915543056043300,8.821043212890626,-0.01901576854288578,0.0036248285323381424,0.011913917027413845
1761915543066098400,8.831098388671874,-0.01489133108407259,-0.005195294506847858,0.010331466794013977
1761915543076152300,8.84115234375,-0.016205601394176483,-0.017347564920783043,0.008795089088380337
1761915543086206500,8.85120654296875,-0.024564731866121292,-0.030544061213731766,0.018928151577711105
1761915543096260600,8.861260498046875,-0.02943219058215618,-0.034390997141599655,0.017648501321673393
1761915543106314500,8.871314453125,-0.02749474160373211,-0.02907213196158409,0.012745888903737068
1761915543116369400,8.881369384765625,-0.023366842418909073,-0.007066165097057819,0.0051739891059696674
1761915543126423300,8.89142333984375,-0.0185846034437418,0.0046637277118861675,0.00466505903750658
1761915543136477400,8.9014775390625,-0.01607297547161579,-0.00043329631444066763,0.013980263844132423
1761915543146531300,8.91153125,-0.017376594245433807,-0.009052351117134094,0.029708627611398697
1761915543156585500,8.92158544921875,-0.025009213015437126,-0.025588450953364372,0.04897526651620865
1761915543166640600,8.931640625,-0.03343598544597626,-0.047984834760427475,0.05067702382802963
1761915543176694300,8.9416943359375,-0.036862410604953766,-0.05098142474889755,0.04975956678390503
1761915543186748400,8.95174853515625,-0.028606077656149864,-0.027512583881616592,0.03485571965575218
1761915543196802300,8.96180224609375,-0.01684342883527279,0.013427658006548882,0.020599018782377243
1761915543206856400,8.9718564453125,-0.02021685428917408,0.02786172553896904,0.007436344865709543
1761915543216911400,8.981911376953125,-0.03032434917986393,0.011627893894910812,0.014358432963490486
1761915543226965500,8.991965576171875,-0.03959454596042633,-0.0182916559278965,0.021041901782155037
1761915543237019600,9.00201953125,-0.04207608103752136,-0.04641543701291084,0.031080687418580055
1761915543247073500,9.012073486328125,-0.03255900740623474,-0.054669369012117386,0.029195168986916542
1761915543257127400,9.02212744140625,-0.019756659865379333,-0.035102326422929764,0.021736720576882362
1761915543267182300,9.032182373046876,-0.0008578042034059763,0.001659948262386024,0.01504233293235302
1761915543277236500,9.042236572265624,0.009253951720893383,0.038954056799411774,0.00811811350286007
1761915543287290400,9.052290283203124,0.0009568737586960196,0.04302070289850235,0.01949620246887207
1761915543297344500,9.062344482421874,-0.011949070729315281,0.016510000452399254,0.030818631872534752
1761915543307398400,9.0723984375,-0.023484820500016212,-0.007102650590240955,0.025840384885668755
1761915543317453300,9.082453369140625,-0.03419658541679382,-0.021893315017223358,0.011506454087793827
1761915543327507500,9.092507568359375,-0.03388526290655136,-0.026671558618545532,-0.0013116068439558148
1761915543337561300,9.102561279296875,-0.029220735654234886,-0.02389228343963623,-0.01155891828238964
1761915543347615500,9.112615478515625,-0.0138431116938591,-0.004066647030413151,-0.007617173250764608
1761915543357669400,9.12266943359375,-0.01378372311592102,0.009640909731388092,0.013073990121483803
1761915543367724500,9.132724609375,-0.017582455649971962,0.010430004447698593,0.042513106018304825
1761915543377778400,9.1427783203125,-0.02082165889441967,0.0015795208746567369,0.06042925640940666
1761915543387832300,9.152832275390624,-0.02027757465839386,-0.011743208393454552,0.06124977394938469
1761915543397886500,9.162886474609374,-0.016647418960928917,-0.018622420728206635,0.04266916587948799
1761915543407941400,9.17294140625,-0.011123757809400558,-0.02725186012685299,0.018617626279592514
1761915543417995500,9.18299560546875,-0.003308178624138236,-0.024693362414836884,-0.0019971043802797794
1761915543428049400,9.19304931640625,0.002371811307966709,-0.018926020711660385,-0.007998271845281124
1761915543438103600,9.203103515625,-0.004065847955644131,-0.028187695890665054,0.0020216056145727634
1761915543448157400,9.213157470703125,-0.007525560446083546,-0.04254399985074997,0.00484402384608984
1761915543458211300,9.22321142578125,-0.008379103615880013,-0.04129231348633766,0.005022988189011812
1761915543468266500,9.2332666015625,-0.005452289711683989,-0.03009531833231449,-0.0054488275200128555
1761915543478320400,9.2433203125,-0.0018993664998561144,-0.01728125289082527,-0.007703726179897785
1761915543488374500,9.25337451171875,0.01360395923256874,-0.0033507891930639744,-0.0038874163292348385
1761915543498428400,9.263428466796874,0.028269454836845398,0.0212461668998003,0.002692189533263445
1761915543508482600,9.273482666015624,0.035887427628040314,0.042161036282777786,0.016869261860847473
1761915543518537500,9.283537353515625,0.04005660489201546,0.03621366247534752,0.02731391228735447
1761915543528591400,9.29359130859375,0.043842021375894547,0.012462528422474861,0.031736090779304504
1761915543538645500,9.3036455078125,0.047209855169057846,-0.00472498033195734,0.02214791253209114
1761915543548702500,9.313702392578126,0.042036667466163635,-0.009829195216298103,0.001591771375387907
1761915543558756400,9.32375634765625,0.03322106972336769,-0.007652060594409704,-0.015074556693434715
1761915543568810500,9.333810546875,0.023930633440613747,-0.010970626026391983,-0.021815549582242966
1761915543578864400,9.343864501953124,0.015064969658851624,-0.02267575077712536,-0.016034360975027084
1761915543588918500,9.35391845703125,0.018247978761792183,-0.03472522273659706,0.008607869036495686
1761915543598973400,9.363973388671875,0.02515382319688797,-0.03260374814271927,0.030593860894441605
1761915543609027300,9.37402734375,0.03194035589694977,-0.02695837989449501,0.05001922324299812
1761915543619081500,9.38408154296875,0.02905162423849106,-0.023602532222867012,0.06401041150093079
1761915543629135400,9.39413525390625,0.034631479531526566,0.022590529173612595,0.0715242475271225
1761915543639189500,9.404189453125,0.04181163012981415,0.033194173127412796,0.07274850457906723
1761915543649244700,9.41424462890625,0.0337611585855484,0.02238733135163784,0.07292986661195755
1761915543659298300,9.42429833984375,0.008957276120781898,-0.004697283264249563,0.06557688117027283
1761915543669352400,9.4343525390625,-0.0049734534695744514,-0.017290573567152023,0.04284306988120079
1761915543679406300,9.44440625,-0.0065353973768651485,-0.02479722537100315,0.018520154058933258
1761915543689460500,9.45446044921875,-0.004327903036028147,-0.02389148436486721,-0.008353803306818008
1761915543699515400,9.464515380859375,-0.004487959202378988,-0.01751614362001419,-0.023897342383861542
1761915543709569500,9.474569580078125,-0.010521350428462029,-0.013815147802233696,-0.02731657586991787
1761915543719623400,9.48462353515625,-0.015540876425802708,-0.0256305281072855,-0.021630460396409035
1761915543729677300,9.49467724609375,-0.01613689213991165,-0.02816372737288475,-0.009123191237449646
1761915543739731200,9.504731201171875,-0.0070762853138148785,-0.003552124137058854,-0.0016713999211788177
1761915543749786400,9.514786376953126,0.008684834465384483,0.0193683709949255,0.003965180367231369
1761915543759840500,9.524840576171876,0.030172815546393394,0.04000973328948021,0.0014966964954510331
1761915543769894400,9.534894287109376,0.038906119763851166,0.04815075173974037,-0.009074987843632698
1761915543779948500,9.544948486328124,0.030972030013799667,0.03298031911253929,-0.01119459792971611
1761915543790002400,9.55500244140625,0.01272831205278635,0.01164440531283617,-0.01492462120950222
1761915543800057300,9.565057373046875,0.00316063966602087,-0.014713698998093605,-0.01458906289190054
1761915543810111500,9.575111572265625,-0.0033870083279907703,-0.034623757004737854,-0.01907302625477314
1761915543820165400,9.585165283203125,-0.006558300461620092,-0.04964425042271614,-0.03043966554105282
1761915543830219500,9.595219482421875,0.007148456759750843,-0.04543965309858322,-0.040892839431762695
1761915543840273400,9.6052734375,0.021626997739076614,-0.022590529173612595,-0.05122110992670059
1761915543850328300,9.615328369140625,0.026940537616610527,0.0018221348291262984,-0.0471147820353508
1761915543860382200,9.62538232421875,0.026041720062494278,0.021403558552265167,-0.021379057317972183
1761915543870436400,9.635436279296876,0.01919633150100708,0.02021791972219944,0.020231235772371292
1761915543880490500,9.645490478515624,0.015562714077532291,0.008098673075437546,0.06645012646913528
1761915543890545400,9.65554541015625,0.01643063873052597,-0.0078531289473176,0.10260413587093353
1761915543900599600,9.665599609375,0.019116170704364777,-0.026608441025018692,0.11340165883302689
1761915543910653400,9.6756533203125,0.023025956004858017,-0.03190679848194122,0.09723946452140808
1761915543920707600,9.68570751953125,0.01822960376739502,-0.027890486642718315,0.06638834625482559
1761915543930761200,9.69576123046875,0.010156231001019478,-0.02912645973265171,0.03389085456728935
1761915543940816400,9.70581640625,-0.005074653308838606,-0.03567863628268242,0.006430468522012234
1761915543950870500,9.71587060546875,-0.019223762676119804,-0.04476400837302208,-0.012525645084679127
1761915543960924400,9.72592431640625,-0.026609772816300392,-0.042988479137420654,-0.022705845534801483
1761915543970977800,9.735977783203126,-0.01810630038380623,-0.03656600043177605,-0.0253964364528656
1761915543981031700,9.74603173828125,0.00042344260145910084,-0.03182078152894974,-0.022103970870375633
1761915543991086800,9.7560869140625,0.022187327966094017,-0.008830509148538113,-0.011897139251232147
1761915544001140500,9.766140380859374,0.03743738681077957,0.008015049621462822,0.003215234261006117
1761915544011194600,9.776194580078124,0.03966964781284332,0.02905561961233616,0.025186046957969666
1761915544021248500,9.78624853515625,0.03044126182794571,0.03537130728363991,0.04222282022237778
1761915544031302700,9.796302734375,0.013802630826830864,0.0335845910012722,0.06336645781993866
1761915544041357800,9.80635791015625,0.008702411316335201,0.015904132276773453,0.06623122096061707
1761915544051411700,9.81641162109375,0.014422082342207432,-0.0008966863388195634,0.059182628989219666
1761915544061465900,9.8264658203125,0.013318735174834728,-0.03025643900036812,0.0401516817510128
1761915544071519500,9.83651953125,0.03116484358906746,-0.054371096193790436,0.018629077821969986
1761915544081573600,9.84657373046875,0.04825035482645035,-0.043463319540023804,-0.01318158209323883
1761915544091628800,9.85662890625,0.05222272500395775,-0.018814433366060257,-0.04304227605462074
1761915544101682700,9.8666826171875,0.046427685767412186,0.011884355917572975,-0.07991907000541687
1761915544111736800,9.87673681640625,0.04466014727950096,0.03796975314617157,-0.10508434474468231
1761915544121790700,9.886790771484375,0.05588270723819733,0.03544347733259201,-0.10564493387937546
1761915544131844900,9.896844970703125,0.06413637846708298,0.06060875207185745,-0.08107247948646545
1761915544141899500,9.9068994140625,0.0625227689743042,0.05769632011651993,-0.03044365905225277
1761915544151953700,9.91695361328125,0.06155657023191452,0.026104837656021118,0.02893977239727974
1761915544162007600,9.927007568359375,0.0646146759390831,0.0010902981739491224,0.07970201969146729
1761915544172061700,9.937061767578125,0.04555283859372139,-0.031508125364780426,0.111245296895504
1761915544182115800,9.94711572265625,0.026390062645077705,-0.04679546877741814,0.12950526177883148
1761915544192170500,9.95717041015625,0.013529923744499683,-0.06443624943494797,0.15251897275447845
1761915544202224600,9.967224609375,0.018201639875769615,-0.11189191043376923,0.1759214997291565
1761915544212278500,9.977278564453124,0.005563876125961542,-0.15410327911376953,0.18734006583690643
1761915544222332700,9.987332763671875,-0.00034434671397320926,-0.17449989914894104,0.19553834199905396
1761915544232386600,9.997386474609375,0.00038722361205145717,-0.1686989963054657,0.19357958436012268
1761915544242441700,10.007441650390625,0.017290307208895683,-0.13947294652462006,0.1669921875
1761915544252496000,10.017495849609375,0.0401170589029789,-0.06237895414233208,0.125096395611763
1761915544262549800,10.0275498046875,0.052570000290870667,0.02087518759071827,0.09830819070339203
1761915544272603600,10.037603759765625,0.05056384205818176,0.05951046571135521,0.09830979257822037
1761915544282657500,10.047657470703125,0.05188077315688133,0.07518130540847778,0.10472162067890167
1761915544292712700,10.057712646484376,0.042272355407476425,0.06771566718816757,0.1084045022726059
1761915544302766800,10.067766845703124,0.03214328736066818,0.04079350084066391,0.09091978520154953
1761915544312820700,10.07782080078125,0.010377539321780205,0.007813980802893639,0.060084108263254166
1761915544322875000,10.087875,-0.008538094349205494,-0.040832918137311935,0.03657691925764084
1761915544332928800,10.0979287109375,-0.018558504059910774,-0.11529117077589035,0.025429992005228996
1761915544342983700,10.107983642578125,-0.013615943491458893,-0.16219396889209747,0.020444022491574287
1761915544353037600,10.11803759765625,0.010452108457684517,-0.17433159053325653,0.018371816724538803
1761915544363091700,10.128091796875,0.041495244950056076,-0.15167474746704102,0.013686517253518105
1761915544373145600,10.1381455078125,0.05341688543558121,-0.1211453303694725,0.007318100426346064
1761915544383199700,10.14819970703125,0.041064877063035965,-0.0977846160531044,0.001615473534911871
1761915544393254700,10.158254638671876,0.010908573865890503,-0.09308946132659912,-0.00950934924185276
1761915544403308500,10.16830859375,-0.03008892573416233,-0.09845013916492462,-0.02611549012362957
1761915544413362700,10.17836279296875,-0.06131954863667488,-0.1614016741514206,-0.02743189036846161
1761915544423416600,10.18841650390625,-0.035826440900564194,-0.18132877349853516,0.023443274199962616
1761915544433470700,10.198470703125,0.03966831788420677,-0.049686331301927567,0.08653435856103897
1761915544443526000,10.20852587890625,0.09053841978311539,0.11496493220329285,0.1427409052848816
1761915544453579800,10.218579833984375,0.10106988996267319,0.2722192704677582,0.19472287595272064
1761915544463633700,10.228633544921875,0.0931248813867569,0.3472977876663208,0.22142745554447174
1761915544473687600,10.2386875,0.08041761070489883,0.3401344120502472,0.20402689278125763
1761915544483741700,10.24874169921875,0.08517082035541534,0.2642050087451935,0.13949424028396606
1761915544493796600,10.258796630859376,0.10279615223407745,0.16523583233356476,0.05451810359954834
1761915544503850800,10.268850830078126,0.11242454499006271,0.09283406287431717,-0.007982026785612106
