time,seconds_elapsed,z,y,x
1761915534356653000,0.121653076171875,-0.08916599303483963,0.21422424912452698,-0.5200388431549072
1761915534366708000,0.1317080078125,-0.10192777961492538,0.08526644855737686,-0.49784815311431885
1761915534376762000,0.14176220703125,-0.11645505577325821,-0.016478287056088448,-0.4261057674884796
1761915534386816000,0.15181591796875,-0.13002128899097443,-0.08569534122943878,-0.3340311646461487
1761915534396870100,0.1618701171875,-0.14014236629009247,-0.12874189019203186,-0.2393113374710083
1761915534406924000,0.171924072265625,-0.17382550239562988,-0.14146116375923157,-0.17170774936676025
1761915534416979200,0.181979248046875,-0.2302323281764984,-0.11744984239339828,-0.12060514837503433
1761915534427032800,0.19203271484375,-0.31321004033088684,-0.04226888343691826,-0.07963849604129791
1761915534437087000,0.2020869140625,-0.387837678194046,0.06398644298315048,-0.035053182393312454
1761915534447141000,0.21214111328125,-0.4458760917186737,0.19707496464252472,0.025346403941512108
1761915534457195000,0.222195068359375,-0.4816085398197174,0.3684597313404083,0.09426475316286087
1761915534467250200,0.232250244140625,-0.489620178937912,0.524178683757782,0.15642565488815308
1761915534477304000,0.242303955078125,-0.4968365430831909,0.6297967433929443,0.20271964371204376
1761915534487358200,0.252358154296875,-0.40105140209198,0.6446931958198547,0.2578323781490326
1761915534497411800,0.262411865234375,-0.2821686863899231,0.6270065903663635,0.3374797999858856
1761915534507466000,0.272466064453125,-0.20654818415641785,0.5586202144622803,0.4210209846496582
1761915534517521200,0.282521240234375,-0.17420248687267303,0.45524799823760986,0.48097726702690125
1761915534527575000,0.292574951171875,-0.16025030612945557,0.36942365765571594,0.4987928569316864
1761915534537629200,0.302629150390625,-0.16927096247673035,0.2996147572994232,0.482770711183548
1761915534547683000,0.31268310546875,-0.18321464955806732,0.2667315602302551,0.446496844291687
1761915534557737200,0.3227373046875,-0.1756318211555481,0.29087841510772705,0.4016611874103546
1761915534567791000,0.332791015625,-0.15141892433166504,0.3551276922225952,0.3640914559364319
1761915534577846000,0.342845947265625,-0.11803140491247177,0.40904340147972107,0.35381296277046204
1761915534587900200,0.352900146484375,-0.09029456973075867,0.4074940085411072,0.3512760102748871
1761915534597954000,0.3629541015625,-0.08843115717172623,0.2964803874492645,0.3226805627346039
1761915534608008200,0.37300830078125,-0.10047577321529388,0.11660420149564743,0.29111942648887634
1761915534618062000,0.38306201171875,-0.11109033226966858,-0.02861850894987583,0.2605780363082886
1761915534628117000,0.393116943359375,-0.11034202575683594,-0.10637011379003525,0.2385108917951584
1761915534638171000,0.4031708984375,-0.09930774569511414,-0.13381372392177582,0.23917986452579498
1761915534648225000,0.41322509765625,-0.08419568836688995,-0.1534159779548645,0.2791270315647125
1761915534658279000,0.42327880859375,-0.09945772588253021,-0.28768324851989746,0.37299758195877075
1761915534668333000,0.4333330078125,-0.14549268782138824,-0.5177600383758545,0.5080534815788269
1761915534678387200,0.44338720703125,-0.18646995723247528,-0.7394101619720459,0.662639319896698
1761915534688442000,0.453442138671875,-0.2192370891571045,-0.8485622406005859,0.8271230459213257
1761915534698496000,0.46349609375,-0.24831613898277283,-0.8530336618423462,0.9889324307441711
1761915534708550000,0.4735498046875,-0.27192628383636475,-0.8063751459121704,1.1505513191223145
1761915534718604000,0.48360400390625,-0.30255264043807983,-0.8662464618682861,1.31856369972229
1761915534728658000,0.493657958984375,-0.3422901928424835,-1.0675511360168457,1.4732755422592163
1761915534738713000,0.503713134765625,-0.3814983069896698,-1.259881615638733,1.566863775253296
1761915534748767200,0.513767333984375,-0.3898700773715973,-1.3257828950881958,1.5598344802856445
1761915534758821000,0.523821044921875,-0.33396872878074646,-1.3354042768478394,1.4779095649719238
1761915534768875000,0.533875,-0.2452607899904251,-1.455159068107605,1.3668632507324219
1761915534778929000,0.543928955078125,-0.19300344586372375,-1.6769908666610718,1.2634010314941406
1761915534788984000,0.553984130859375,-0.226454496383667,-1.9381128549575806,1.1967769861221313
1761915534799038200,0.5640380859375,-0.33572906255722046,-2.1396093368530273,1.1448255777359009
1761915534809092000,0.574092041015625,-0.4442208707332611,-2.2076125144958496,1.0541802644729614
1761915534819146200,0.584146240234375,-0.4880783259868622,-2.1796200275421143,0.9075325727462769
1761915534829200100,0.5942001953125,-0.45132869482040405,-2.1086246967315674,0.6938173770904541
1761915534839255000,0.604255126953125,-0.3356822431087494,-2.0074307918548584,0.45476993918418884
1761915534849309000,0.614308837890625,-0.21318848431110382,-1.814929723739624,0.26436930894851685
1761915534859363000,0.624363037109375,-0.14096008241176605,-1.4664764404296875,0.13140834867954254
1761915534869417000,0.6344169921875,-0.12068615108728409,-1.0446497201919556,0.07466159760951996
1761915534879471000,0.64447119140625,-0.10400837659835815,-0.5678844451904297,0.06695067882537842
1761915534889525200,0.654525146484375,-0.07670046389102936,-0.06427115947008133,0.08518391102552414
1761915534899580000,0.664579833984375,-0.06389918178319931,0.2997001111507416,0.14369834959506989
1761915534909634000,0.674634033203125,-0.05753420665860176,0.5457770228385925,0.18978329002857208
1761915534919688000,0.68468798828125,-0.04700939357280731,0.7283673286437988,0.1978050023317337
1761915534929742000,0.6947421875,-0.020137127488851547,0.8449609279632568,0.1689254641532898
1761915534939796000,0.7047958984375,0.05080975219607353,0.9504766464233398,0.07987281680107117
1761915534949851100,0.71485107421875,0.1391592174768448,1.0723427534103394,-0.09739693254232407
1761915534959904300,0.724904296875,0.21120038628578186,1.1643491983413696,-0.33493438363075256
1761915534969958100,0.734958251953125,0.25809529423713684,1.1934093236923218,-0.6072788238525391
1761915534980012300,0.74501220703125,0.28354179859161377,1.1731398105621338,-0.8820174932479858
1761915534990066200,0.755066162109375,0.2669468820095062,1.1622287034988403,-1.0740032196044922
1761915535000121000,0.76512109375,0.22269661724567413,1.0824666023254395,-1.128022313117981
1761915535010175200,0.77517529296875,0.20802681148052216,0.9249747395515442,-1.0748330354690552
1761915535020229000,0.78522900390625,0.22678877413272858,0.8006972670555115,-0.9557228684425354
1761915535030283300,0.795283203125,0.2726638913154602,0.750496506690979,-0.832446813583374
1761915535040337200,0.805337158203125,0.3548905849456787,0.7751421928405762,-0.7723280787467957
1761915535050391300,0.815391357421875,0.4413362443447113,0.8696759343147278,-0.7934011220932007
1761915535060446200,0.8254462890625,0.5305923819541931,1.0058691501617432,-0.8851747512817383
1761915535070500000,0.8355,0.591173529624939,1.1174595355987549,-1.020269513130188
1761915535080554200,0.84555419921875,0.6159211993217468,1.1739848852157593,-1.1694073677062988
1761915535090608000,0.855608154296875,0.6099250316619873,1.2586005926132202,-1.2995866537094116
1761915535100662300,0.865662353515625,0.5936605930328369,1.3323570489883423,-1.3540176153182983
1761915535110717200,0.87571728515625,0.5717304944992065,1.2857471704483032,-1.3195041418075562
1761915535120771000,0.88577099609375,0.5646278262138367,1.1763869524002075,-1.2220648527145386
1761915535130825200,0.8958251953125,0.529991865158081,1.0410317182540894,-1.0840647220611572
1761915535140879000,0.905879150390625,0.43370285630226135,0.8485978841781616,-0.9530438780784607
1761915535150933200,0.915933349609375,0.31866416335105896,0.6496476531028748,-0.8673648238182068
1761915535160988200,0.92598828125,0.17650088667869568,0.48099979758262634,-0.8508505821228027
1761915535171042300,0.936042236328125,0.010557583533227444,0.3275831341743469,-0.8694766163825989
1761915535181096200,0.94609619140625,-0.1482914537191391,0.19558008015155792,-0.8692563772201538
1761915535191150000,0.956150146484375,-0.2626422643661499,0.10948538780212402,-0.8325904607772827
1761915535201204200,0.966204345703125,-0.3205567002296448,0.0731889009475708,-0.765470027923584
1761915535211258000,0.976258056640625,-0.31271305680274963,0.08428670465946198,-0.6938350200653076
1761915535221313300,0.986313232421875,-0.2582381069660187,0.10004329681396484,-0.6129226088523865
1761915535231367200,0.9963671875,-0.18019023537635803,0.0879891961812973,-0.5223215818405151
1761915535241421300,1.00642138671875,-0.12214051187038422,0.0880536437034607,-0.42433616518974304
1761915535251475200,1.01647509765625,-0.10085004568099976,0.10442056506872177,-0.3314409554004669
1761915535261529000,1.026529052734375,-0.10151530057191849,0.1551031768321991,-0.23984046280384064
1761915535271584300,1.036584228515625,-0.1251402199268341,0.22434137761592865,-0.1545356959104538
1761915535281638100,1.04663818359375,-0.1397540420293808,0.22781281173229218,-0.08150462061166763
1761915535291692300,1.0566923828125,-0.1207212507724762,0.24250750243663788,0.015520263463258743
1761915535301746200,1.06674609375,-0.12006983906030655,0.36288532614707947,0.10925261676311493
1761915535311800300,1.07680029296875,-0.11036166548728943,0.47664308547973633,0.15345533192157745
1761915535321855000,1.08685498046875,-0.087239570915699,0.5036779046058655,0.15018603205680847
1761915535331909000,1.0969091796875,-0.0698065310716629,0.47739729285240173,0.13060647249221802
1761915535341963300,1.10696337890625,-0.0522131510078907,0.44641754031181335,0.09373313933610916
1761915535352017200,1.11701708984375,-0.02422674000263214,0.38101866841316223,0.04682150483131409
1761915535362071300,1.1270712890625,0.008055565878748894,0.30538198351860046,0.035060983151197433
1761915535372125200,1.137125244140625,0.025250786915421486,0.2574053704738617,0.02252255380153656
1761915535382180000,1.14718017578125,0.017740672454237938,0.23549261689186096,-0.0007396265864372253
1761915535392234000,1.15723388671875,0.0013469435507431626,0.2324231117963791,-0.02879166230559349
1761915535402288000,1.1672880859375,-0.02187209203839302,0.17648740112781525,-0.040194787085056305
1761915535412342000,1.177342041015625,-0.03761544078588486,0.07342693209648132,-0.029042748734354973
1761915535422396200,1.187396240234375,-0.04405283182859421,-0.03929801285266876,0.004097361117601395
1761915535432451300,1.197451416015625,-0.03897082060575485,-0.12557344138622284,0.04764388129115105
1761915535442505200,1.207505126953125,-0.04828336089849472,-0.17951896786689758,0.09893796592950821
1761915535452559400,1.217559326171875,-0.05261572077870369,-0.1693357229232788,0.14454428851604462
1761915535462613000,1.227613037109375,-0.050255097448825836,-0.13913173973560333,0.18070627748966217
1761915535472667100,1.237667236328125,-0.051873426884412766,-0.09525278955698013,0.20302346348762512
1761915535482721000,1.247720947265625,-0.055289462208747864,-0.05487367883324623,0.22011563181877136
1761915535492776200,1.257776123046875,-0.06976523995399475,-0.025687362998723984,0.2157311588525772
1761915535502830300,1.267830322265625,-0.08870484679937363,-0.04312147945165634,0.19503705203533173
1761915535512884200,1.27788427734375,-0.10987720638513565,-0.09773088991641998,0.14325295388698578
1761915535522938400,1.2879384765625,-0.12842799723148346,-0.10308091342449188,0.07231780886650085
1761915535532992000,1.297991943359375,-0.136019766330719,-0.056914009153842926,0.014881301671266556
1761915535543047200,1.308047119140625,-0.14222173392772675,0.009925472550094128,-0.017018575221300125
1761915535553101000,1.31810107421875,-0.1479337215423584,0.057303816080093384,-0.027640532702207565
1761915535563155200,1.3281552734375,-0.1658693104982376,0.004719701129943132,-0.021978920325636864
1761915535573209300,1.338209228515625,-0.17276741564273834,-0.1162775531411171,-0.03481881320476532
1761915535583263200,1.34826318359375,-0.17604362964630127,-0.1703229397535324,-0.07115019112825394
1761915535593318100,1.358318115234375,-0.16715629398822784,-0.1575579047203064,-0.10582684725522995
1761915535603372000,1.3683720703125,-0.14117662608623505,-0.1306876689195633,-0.12266122549772263
1761915535613426200,1.37842626953125,-0.10669567435979843,-0.09581105411052704,-0.10881586372852325
1761915535623480000,1.38847998046875,-0.07793699949979782,-0.07792819291353226,-0.07288742810487747
1761915535633534200,1.3985341796875,-0.06999314576387405,-0.06616010516881943,-0.01648855395615101
1761915535643589400,1.40858935546875,-0.08803100138902664,-0.07913023233413696,0.043822988867759705
1761915535653643000,1.41864306640625,-0.10809262841939926,-0.10785569250583649,0.08910530805587769
1761915535663697200,1.428697265625,-0.1090439036488533,-0.09875061362981796,0.11406737565994263
1761915535673751000,1.4387509765625,-0.0818161815404892,-0.042297251522541046,0.11532322317361832
1761915535683805200,1.44880517578125,-0.05726556107401848,0.017811624333262444,0.12443176656961441
1761915535693859000,1.458859130859375,-0.04270505905151367,0.07865648716688156,0.14056098461151123
1761915535703914200,1.468914306640625,-0.047948289662599564,0.12435313314199448,0.17491096258163452
1761915535713968400,1.478968505859375,-0.061448656022548676,0.12026911228895187,0.21055053174495697
1761915535724022300,1.489022216796875,-0.08039145171642303,0.06968849152326584,0.2297191619873047
1761915535734076200,1.499076171875,-0.09736126661300659,-0.012389850802719593,0.23129451274871826
1761915535744130000,1.509130126953125,-0.10492277890443802,-0.08764039725065231,0.20146363973617554
1761915535754185200,1.519185302734375,-0.09347943216562271,-0.10036496818065643,0.15027421712875366
1761915535764239000,1.529239013671875,-0.05749640241265297,-0.07773981243371964,0.09141810238361359
1761915535774293200,1.539293212890625,-0.01375135313719511,-0.040141403675079346,0.037157852202653885
1761915535784347400,1.549347412109375,0.014505052007734776,-0.013813656754791737,0.0005122236907482147
1761915535794401300,1.5594013671875,0.028022397309541702,-0.012525332160294056,-0.03032153844833374
1761915535804455200,1.569455078125,0.023252412676811218,-0.04667557775974274,-0.06492292881011963
1761915535814510000,1.579510009765625,0.015803175047039986,-0.07589732855558395,-0.10662765800952911
1761915535824564200,1.589564208984375,0.02046743407845497,-0.0682884156703949,-0.1458331197500229
1761915535834618000,1.5996181640625,0.032798998057842255,-0.015279143117368221,-0.17946569621562958
1761915535844672300,1.60967236328125,0.058121662586927414,0.04187095910310745,-0.19641351699829102
1761915535854726100,1.61972607421875,0.08541890978813171,0.07780627906322479,-0.19786398112773895
1761915535864781000,1.629781005859375,0.107720747590065,0.05477206036448479,-0.18031667172908783
1761915535874835200,1.639835205078125,0.109433114528656,0.0023950363975018263,-0.15678705275058746
1761915535884889000,1.64988916015625,0.09717218577861786,-0.06694675236940384,-0.12694820761680603
1761915535894943200,1.659943115234375,0.08928855508565903,-0.11057763546705246,-0.11275046318769455
1761915535904997000,1.6699970703125,0.1042480617761612,-0.10464384406805038,-0.1112913191318512
1761915535915051300,1.68005126953125,0.12522336840629578,-0.06337044388055801,-0.11846800893545151
1761915535925106200,1.690106201171875,0.13642169535160065,-0.011043858714401722,-0.12008640915155411
1761915535935160000,1.70016015625,0.12622381746768951,0.02252459153532982,-0.0976652204990387
1761915535945214200,1.710214111328125,0.10139809548854828,0.03113885223865509,-0.06601887941360474
1761915535955268000,1.72026806640625,0.08898480981588364,0.034898363053798676,-0.022191178053617477
1761915535965322000,1.730322021484375,0.08989959955215454,0.05365847051143646,0.017829742282629013
1761915535975377000,1.740376953125,0.09153683483600616,0.07499951869249344,0.04975556582212448
1761915535985431000,1.75043115234375,0.07570326328277588,0.0706511065363884,0.08336225897073746
1761915535995485000,1.76048486328125,0.056712064892053604,0.03911140188574791,0.09940935671329498
1761915536005538800,1.770538818359375,0.045037299394607544,-0.0009342848788946867,0.09214052557945251
1761915536015592700,1.7805927734375,0.03307029977440834,-0.02320190519094467,0.06756065040826797
1761915536025647900,1.79064794921875,0.03437072038650513,-0.022556887939572334,0.025189757347106934
1761915536035702000,1.800701904296875,0.04370583966374397,0.01337996032088995,-0.03383302688598633
1761915536045756000,1.810755859375,0.054370999336242676,0.05942255258560181,-0.08796124160289764
1761915536055810000,1.82081005859375,0.053877249360084534,0.0749296098947525,-0.11710208654403687
1761915536065864000,1.830864013671875,0.043049369007349014,0.029625775292515755,-0.12331603467464447
1761915536075918000,1.84091796875,0.027619484812021255,-0.027973782271146774,-0.11101476848125458
1761915536085973000,1.850972900390625,0.009215976111590862,-0.07520388066768646,-0.08697734773159027
1761915536096027000,1.86102685546875,-0.01465656142681837,-0.09925771504640579,-0.06802396476268768
1761915536106081000,1.8710810546875,-0.027353713288903236,-0.10278507322072983,-0.0472843274474144
1761915536116135000,1.881135009765625,-0.0238642618060112,-0.10488384962081909,-0.04478509724140167
1761915536126189000,1.89118896484375,-0.017205560579895973,-0.08688993006944656,-0.05260360985994339
1761915536136243700,1.90124365234375,-0.00048715341836214066,-0.046350184828042984,-0.06566711515188217
1761915536146297900,1.9112978515625,0.015519775450229645,-0.01605592668056488,-0.07770460098981857
1761915536156352000,1.92135205078125,0.020108049735426903,-0.010156163945794106,-0.07318510115146637
1761915536166406000,1.931406005859375,0.018994849175214767,-0.014265155419707298,-0.06103841960430145
1761915536176460000,1.9414599609375,0.009465237148106098,-0.026366304606199265,-0.05179513245820999
1761915536186514000,1.951513916015625,-0.004156565293669701,-0.05094142258167267,-0.043459173291921616
1761915536196569000,1.961569091796875,-0.021051594987511635,-0.07195625454187393,-0.03970050811767578
1761915536206622700,1.971622802734375,-0.025936098769307137,-0.1033988669514656,-0.03753029555082321
1761915536216676900,1.9816767578125,-0.01635861024260521,-0.1289900690317154,-0.031696587800979614
1761915536226730800,1.991730712890625,0.014952974393963814,-0.11490887403488159,-0.03878086060285568
1761915536236785000,2.001784912109375,0.05790075287222862,-0.05935017019510269,-0.04618024080991745
1761915536246840000,2.011840087890625,0.07258995622396469,-0.005242193583399057,-0.03637714684009552
1761915536256894000,2.02189404296875,0.0651441290974617,0.021025845780968666,-0.018804118037223816
1761915536266948000,2.031947998046875,0.05089195817708969,0.014774340204894543,0.02625070884823799
1761915536277002000,2.042001953125,0.03000575304031372,-0.024386048316955566,0.0752633661031723
1761915536287056000,2.052055908203125,0.002421262674033642,-0.06573561578989029,0.10544896870851517
1761915536297111000,2.062111083984375,-0.01729251630604267,-0.0856686532497406,0.10700727254152298
1761915536307165000,2.0721650390625,-0.015255197882652283,-0.08079640567302704,0.08065822720527649
1761915536317219000,2.082218994140625,0.015030373819172382,-0.05799199640750885,0.044566601514816284
1761915536327273000,2.09227294921875,0.05150769278407097,-0.017537780106067657,0.009289572015404701
1761915536337327000,2.1023271484375,0.06256049871444702,0.00310017098672688,-0.009133805520832539
1761915536347381000,2.112381103515625,0.05672471225261688,-0.0034605262335389853,-0.006764656864106655
1761915536357436000,2.122435791015625,0.054671838879585266,-0.014422312378883362,0.010490336455404758
1761915536367489800,2.13248974609375,0.0453885942697525,-0.027994846925139427,0.030705593526363373
1761915536377544000,2.1425439453125,0.03249617666006088,-0.04163813591003418,0.04279647767543793
1761915536387598000,2.15259814453125,0.019645625725388527,-0.027772653847932816,0.04110244661569595
1761915536397652000,2.16265185546875,0.02496696449816227,-0.0008385737892240286,0.04835623502731323
1761915536407707000,2.172706787109375,0.03669019788503647,0.029544098302721977,0.059030719101428986
1761915536417760800,2.1827607421875,0.05014824494719505,0.04894930496811867,0.07336271554231644
1761915536427815000,2.19281494140625,0.04688321053981781,0.054422102868556976,0.08778692781925201
1761915536437868800,2.202868896484375,0.03554055094718933,0.04364509880542755,0.08964848518371582
1761915536447923000,2.2129228515625,0.028605148196220398,0.02605918049812317,0.07839822769165039
1761915536457976800,2.222976806640625,0.02634090557694435,0.004876371938735247,0.05234478786587715
1761915536468032000,2.233031982421875,0.022981595247983932,-0.008609076961874962,0.014980901032686234
1761915536478086000,2.2430859375,0.020968716591596603,0.011594346724450588,-0.023731019347906113
1761915536488139800,2.253139892578125,0.01577635109424591,0.03902996703982353,-0.051308851689100266
1761915536498194000,2.26319384765625,0.007087206933647394,0.05348976328969002,-0.06460809707641602
1761915536508247800,2.273247802734375,0.0019387839129194617,0.04984815791249275,-0.07208571583032608
1761915536518303000,2.283302978515625,-0.001135133788920939,0.04354478791356087,-0.08247379958629608
1761915536528357000,2.293357177734375,0.00005183706525713205,0.038049355149269104,-0.09200472384691238
1761915536538411000,2.303410888671875,0.004205362871289253,0.029742801561951637,-0.1015748456120491
1761915536548465000,2.31346484375,0.016808239743113518,0.028590185567736626,-0.1037043109536171
1761915536558518800,2.323518798828125,0.020854294300079346,0.03402070701122284,-0.10157287120819092
1761915536568573000,2.333572998046875,0.015203598886728287,0.03289365768432617,-0.08636754751205444
1761915536578627800,2.3436279296875,0.021369460970163345,0.03377649560570717,-0.06446188688278198
1761915536588682000,2.353681884765625,0.02675304189324379,0.04034944623708725,-0.040825799107551575
1761915536598736100,2.363736083984375,0.029776491224765778,0.02612195536494255,-0.019352145493030548
1761915536608790000,2.3737900390625,0.021264495328068733,0.001295701484195888,-0.007172976154834032
1761915536618844200,2.38384423828125,0.007572272792458534,-0.03197864443063736,-0.005603397265076637
1761915536628898800,2.39389892578125,-0.003537369892001152,-0.060883261263370514,-0.006682776380330324
1761915536638953000,2.403952880859375,-0.012782881036400795,-0.06462673097848892,-0.015177421271800995
1761915536649006800,2.4140068359375,-0.00613243505358696,-0.04438111186027527,-0.011761917732656002
1761915536659061000,2.42406103515625,0.003562730737030506,-0.023897536098957062,-0.0116052757948637
1761915536669115000,2.434114990234375,0.0067454744130373,-0.008209120482206345,-0.013349113054573536
1761915536679169000,2.4441689453125,0.013070710934698582,-0.0002660646568983793,-0.01269498374313116
1761915536689224000,2.454223876953125,0.014438777230679989,-0.00695379450917244,-0.019242631271481514
1761915536699277800,2.46427783203125,0.015309533104300499,-0.021219220012426376,-0.018382854759693146
1761915536709332000,2.47433203125,0.01850719004869461,-0.04638609290122986,-0.025105470791459084
1761915536719385900,2.4843857421875,0.02292412891983986,-0.05953019857406616,-0.04093141853809357
1761915536729440000,2.49443994140625,0.031021470203995705,-0.052155107259750366,-0.05987954139709473
1761915536739495000,2.504494873046875,0.04143838956952095,-0.02233600802719593,-0.0758499875664711
1761915536749548800,2.514548828125,0.04420940950512886,0.0013866308145225048,-0.08206260949373245
1761915536759603000,2.52460302734375,0.03907572850584984,0.004451560787856579,-0.07694965600967407
1761915536769656800,2.53465673828125,0.02535885199904442,-0.005842888727784157,-0.05866306275129318
1761915536779711000,2.5447109375,0.017735600471496582,-0.028567805886268616,-0.03446776419878006
1761915536789766000,2.554765869140625,0.015646351501345634,-0.049262434244155884,-0.010324345901608467
1761915536799820000,2.564820068359375,0.016999758780002594,-0.05878697708249092,0.007862645201385021
1761915536809874000,2.5748740234375,0.026143455877900124,-0.043884459882974625,0.020018111914396286
1761915536819927800,2.584927734375,0.03475545346736908,-0.00743805943056941,0.03109010122716427
1761915536829982000,2.59498193359375,0.040021318942308426,0.004654023330658674,0.042506009340286255
1761915536840035800,2.605035888671875,0.02544999122619629,-0.00918717309832573,0.061000432819128036
1761915536850091000,2.615091064453125,0.0021310870070010424,-0.034313831478357315,0.07660655677318573
1761915536860145000,2.625144775390625,-0.012089046649634838,-0.03798007592558861,0.07870295643806458
1761915536870199000,2.635198974609375,-0.01155987661331892,-0.02469649538397789,0.07227303087711334
1761915536880253000,2.6452529296875,-0.010128835216164589,-0.02703952044248581,0.055333010852336884
1761915536890307000,2.65530712890625,-0.003556952578946948,-0.015379401855170727,0.03010169416666031
1761915536900362000,2.665362060546875,0.0031099184416234493,0.007778985891491175,0.006293945945799351
1761915536910416000,2.675415771484375,0.00840028841048479,0.02940651774406433,-0.006931577809154987
1761915536920470000,2.685469970703125,0.0002782672527246177,0.03349895775318146,-0.0051514217630028725
1761915536930524000,2.69552392578125,-0.0245067086070776,0.017350880429148674,0.007821368984878063
1761915536940578000,2.705578125,-0.04370570555329323,-0.01218360848724842,0.027134131640195847
1761915536950632000,2.7156318359375,-0.051020074635744095,-0.03777072951197624,0.035365164279937744
1761915536960690700,2.725690673828125,-0.04628743231296539,-0.04008912295103073,0.031066609546542168
1761915536970744800,2.735744873046875,-0.025309711694717407,-0.006284821312874556,0.011876136064529419
1761915536980798700,2.745798828125,-0.002708741230890155,0.02704467996954918,-0.003213840536773205
1761915536990852900,2.755852783203125,0.013441466726362705,0.033524420112371445,-0.005996577441692352
1761915537000906800,2.76590673828125,0.009736132808029652,0.01616080105304718,0.003528723493218422
1761915537010961700,2.775961669921875,-0.0011809634743258357,-0.0008288341923616827,0.009477959014475346
1761915537021015800,2.786015869140625,-0.014146963134407997,-0.010083338245749474,0.016577310860157013
1761915537031069700,2.796069580078125,-0.022912492975592613,-0.017057890072464943,0.010796918533742428
1761915537041123800,2.806123779296875,-0.013432344421744347,-0.004777648486196995,-0.004811373073607683
1761915537051177700,2.816177734375,0.010336367413401604,0.025384249165654182,-0.03233940154314041
1761915537061233000,2.82623291015625,0.03003644198179245,0.04576736316084862,-0.04863418638706207
1761915537071287000,2.836287109375,0.0338175967335701,0.016007600352168083,-0.05981040745973587
1761915537081340700,2.846340576171875,0.025078468024730682,-0.038144800812006,-0.06370022147893906
1761915537091394800,2.856394775390625,0.013824217021465302,-0.07766957581043243,-0.06530211120843887
1761915537101448700,2.86644873046875,0.007496680598706007,-0.09960015118122101,-0.06994442641735077
1761915537111502800,2.8765029296875,0.0015322649851441383,-0.11060726642608643,-0.08167245239019394
1761915537121557800,2.886557861328125,-0.000040780927520245314,-0.09922876209020615,-0.09696464240550995
1761915537131612000,2.89661181640625,-0.0037444389890879393,-0.08665037900209427,-0.10614749044179916
1761915537141665800,2.906665771484375,-0.009309343062341213,-0.05322842672467232,-0.10378585755825043
1761915537151720000,2.916719970703125,-0.00474867969751358,-0.018115978688001633,-0.09083650261163712
1761915537161773800,2.92677392578125,0.0047020758502185345,0.023972027003765106,-0.07096526026725769
1761915537171828700,2.936828857421875,0.007398259826004505,0.053391698747873306,-0.04644739627838135
1761915537181883000,2.9468828125,0.009082372300326824,0.06712151318788528,-0.010249665006995201
1761915537191936800,2.956936767578125,0.018578140065073967,0.06057572364807129,0.02356582321226597
1761915537201991000,2.966990966796875,0.031153829768300056,0.03220478072762489,0.0582076832652092
1761915537212044800,2.977044921875,0.03389342129230499,0.0021174519788473845,0.08106666058301926
1761915537222099000,2.987098876953125,0.030006105080246925,-0.007162397261708975,0.09120973199605942
1761915537232153900,2.99715380859375,0.02407444640994072,-0.01409966591745615,0.10011294484138489
1761915537242207700,3.007207763671875,0.010745917446911335,-0.03015548177063465,0.10270202159881592
1761915537252262000,3.017261962890625,-0.006466358434408903,-0.03949066251516342,0.10047588497400284
1761915537262315800,3.027315673828125,-0.01819714717566967,-0.05046281963586807,0.09034958481788635
1761915537272370000,3.037369873046875,-0.02601379156112671,-0.045792967081069946,0.06999291479587555
1761915537282424600,3.047424560546875,-0.01919996365904808,-0.03409799188375473,0.04089325666427612
1761915537292478700,3.057478759765625,0.0015836120583117008,-0.008979590609669685,0.002819908782839775
1761915537302532900,3.067532958984375,0.02641713246703148,0.030294228345155716,-0.027684057131409645
1761915537312586800,3.077586669921875,0.038974467664957047,0.05085276812314987,-0.042251549661159515
1761915537322641000,3.087640869140625,0.04515540972352028,0.056679777801036835,-0.04551498219370842
1761915537332694800,3.09769482421875,0.03799709677696228,0.04924982413649559,-0.04604282230138779
1761915537342750000,3.10775,0.028853489086031914,0.039099372923374176,-0.04276804253458977
1761915537352803600,3.117803466796875,0.015698539093136787,0.028668038547039032,-0.03586459532380104
1761915537362857700,3.127857666015625,0.0007889163680374622,0.0034568733535706997,-0.030615076422691345
1761915537372911600,3.13791162109375,-0.004198385402560234,-0.02090146206319332,-0.01994006335735321
1761915537382965800,3.1479658203125,-0.0030384999699890614,-0.02894279547035694,-0.025754787027835846
1761915537393021000,3.15802099609375,0.0041541652753949165,-0.027048755437135696,-0.03138311207294464
1761915537403074800,3.16807470703125,0.0026158310938626528,-0.020285261794924736,-0.03646944835782051
1761915537413129000,3.17812890625,-0.006526268552988768,-0.021062105894088745,-0.0403645895421505
1761915537423182800,3.188182861328125,-0.012319203466176987,-0.03055582568049431,-0.03439025580883026
1761915537433236700,3.19823681640625,-0.020856231451034546,-0.034919947385787964,-0.022609494626522064
1761915537443292000,3.2082919921875,-0.031084727495908737,-0.0279732383787632,-0.009469153359532356
1761915537453345800,3.218345703125,-0.03500596806406975,-0.018303299322724342,0.004973968490958214
1761915537463400000,3.22839990234375,-0.03363613411784172,-0.0035434644669294357,0.013495391234755516
1761915537473453800,3.238453857421875,-0.021798381581902504,-0.007141927257180214,0.015555879101157188
1761915537483508000,3.248508056640625,-0.009979648515582085,-0.009256427176296711,0.022175803780555725
1761915537493561900,3.258561767578125,0.0024498561397194862,0.009858678095042706,0.026084791868925095
1761915537503616800,3.26861669921875,0.0013992275344207883,0.022540370002388954,0.027253389358520508
1761915537513671000,3.2786708984375,-0.00486772321164608,0.021697480231523514,0.031436946243047714
1761915537523724800,3.288724853515625,-0.023298928514122963,0.004488399717956781,0.03640241175889969
1761915537533779000,3.298779052734375,-0.041235316544771194,-0.01930348202586174,0.03700854629278183
1761915537543832800,3.308832763671875,-0.05515012890100479,-0.04223741218447685,0.03710287809371948
1761915537553887700,3.3188876953125,-0.05789025500416756,-0.05273372679948807,0.0363052561879158
1761915537563941600,3.328941650390625,-0.05173040181398392,-0.047817882150411606,0.04324071854352951
1761915537573995800,3.338995849609375,-0.041315846145153046,-0.02347419410943985,0.04585354030132294
1761915537584049700,3.349049560546875,-0.030809707939624786,0.0016068742843344808,0.04436403512954712
1761915537594103800,3.359103759765625,-0.022837534546852112,0.015720563009381294,0.041881442070007324
1761915537604158000,3.369157958984375,-0.02506270632147789,0.016309408470988274,0.038562510162591934
1761915537614212900,3.379212890625,-0.042356740683317184,-0.00014173607632983476,0.029362618923187256
1761915537624266800,3.389266845703125,-0.052393585443496704,-0.009917221963405609,0.02193201705813408
1761915537634320600,3.399320556640625,-0.056380074471235275,-0.015832101926207542,0.016371870413422585
1761915537644374800,3.409374755859375,-0.048812687397003174,-0.023309148848056793,0.010493959300220013
1761915537654428700,3.4194287109375,-0.041611768305301666,-0.024752048775553703,0.008700585924088955
1761915537664483800,3.42948388671875,-0.038269102573394775,-0.02566738799214363,0.006403498351573944
1761915537674538000,3.4395380859375,-0.0415988489985466,-0.026890579611063004,0.0035789497196674347
1761915537684591900,3.449591796875,-0.0394723042845726,-0.041726499795913696,-0.0033090487122535706
1761915537694645800,3.459645751953125,-0.03851649537682533,-0.04542936012148857,-0.010905715636909008
1761915537704699600,3.46969970703125,-0.021479250863194466,-0.01917203702032566,-0.018958263099193573
1761915537714754800,3.4797548828125,-0.012564051896333694,0.004690417554229498,-0.010566908866167068
1761915537724808700,3.48980859375,-0.01599561981856823,-0.0008035735227167606,0.005153787322342396
1761915537734862800,3.49986279296875,-0.025414153933525085,-0.018315454944968224,0.024913378059864044
1761915537744917000,3.5099169921875,-0.02887820266187191,-0.011587671935558319,0.029265351593494415
1761915537754971000,3.519970947265625,-0.025165222585201263,-0.00733646797016263,0.024220526218414307
1761915537765025000,3.53002490234375,-0.019096482545137405,0.006077739875763655,0.009402219206094742
1761915537775079700,3.54007958984375,-0.005582273006439209,0.0115659823641181,-0.009688383899629116
1761915537785133800,3.5501337890625,0.002930975519120693,0.0003141584456898272,-0.028421675786376
1761915537795187700,3.560187744140625,0.004794123116880655,-0.012979809194803238,-0.040008824318647385
1761915537805241900,3.570241943359375,0.004872424993664026,-0.030438093468546867,-0.0438944548368454
1761915537815295700,3.580295654296875,0.005015969276428223,-0.033498331904411316,-0.043092310428619385
1761915537825350700,3.5903505859375,-0.0065736290998756886,-0.019920645281672478,-0.03304273635149002
1761915537835404800,3.60040478515625,-0.013575877994298935,-0.0013144694967195392,-0.017486680299043655
1761915537845458700,3.610458740234375,-0.012548557482659817,0.01393301784992218,-0.0021835975348949432
1761915537855512800,3.620512939453125,-0.00497319595888257,0.017166361212730408,0.01685400865972042
1761915537865566700,3.630566650390625,0.002303697168827057,0.0016807441134005785,0.029925815761089325
1761915537875622000,3.640621826171875,0.0009071355452761054,-0.04124009236693382,0.03747747465968132
1761915537885676000,3.650676025390625,-0.014576107263565063,-0.10654404759407043,0.041334956884384155
1761915537895729700,3.660729736328125,-0.03067358396947384,-0.1610879749059677,0.03972427546977997
1761915537905783800,3.67078369140625,-0.04521822929382324,-0.18538382649421692,0.033589161932468414
1761915537915837700,3.680837646484375,-0.04735781252384186,-0.1722579002380371,0.019581198692321777
1761915537925892900,3.690892822265625,-0.037339694797992706,-0.14156903326511383,0.002987249754369259
1761915537935946800,3.70094677734375,-0.0279800146818161,-0.12232823669910431,-0.0015875287353992462
1761915537946001000,3.7110009765625,-0.012914330698549747,-0.12053368240594864,0.0021188464015722275
1761915537956054800,3.7210546875,-0.00690810289233923,-0.14343979954719543,0.02700049616396427
1761915537966105000,3.73110498046875,-0.009429744444787502,-0.16861501336097717,0.04787510260939598
1761915537976159000,3.741158935546875,-0.0155856404453516,-0.19088143110275269,0.06716517359018326
1761915537986214100,3.751214111328125,-0.012048524804413319,-0.18424633145332336,0.07378744333982468
1761915537996268000,3.76126806640625,-0.00745377317070961,-0.15713109076023102,0.0782993733882904
1761915538006322200,3.771322265625,-0.007887687534093857,-0.11720968782901764,0.08490597456693649
1761915538016376000,3.7813759765625,-0.01040144544094801,-0.09825650602579117,0.08992976695299149
1761915538026430200,3.79143017578125,-0.013555075041949749,-0.10152695327997208,0.09774044901132584
1761915538036484900,3.80148486328125,-0.015908777713775635,-0.11451385915279388,0.10934516787528992
1761915538046539000,3.8115390625,-0.02204769104719162,-0.1392659693956375,0.12187439203262329
1761915538056593000,3.821593017578125,-0.037379778921604156,-0.17668604850769043,0.13430255651474
1761915538066647000,3.83164697265625,-0.04407178983092308,-0.1926056146621704,0.14691977202892303
1761915538076701200,3.841701171875,-0.031954940408468246,-0.1864617019891739,0.16040068864822388
1761915538086756000,3.851756103515625,-0.01951521821320057,-0.17007429897785187,0.17194488644599915
1761915538096810000,3.86181005859375,-0.017728235572576523,-0.15831084549427032,0.18646204471588135
1761915538106863900,3.87186376953125,-0.03142222389578819,-0.1485445201396942,0.19623425602912903
1761915538116918000,3.88191796875,-0.043352920562028885,-0.14084398746490479,0.19421584904193878
1761915538126972000,3.891971923828125,-0.050316520035266876,-0.1156536415219307,0.17602619528770447
1761915538137026000,3.902026123046875,-0.03772349655628204,-0.07947246730327606,0.14795008301734924
1761915538147081200,3.912081298828125,-0.0061861323192715645,-0.04024765267968178,0.11550693213939667
1761915538157135000,3.922135009765625,0.03888094425201416,0.002905410947278142,0.073800228536129
1761915538167189200,3.932189208984375,0.07033892720937729,0.043557871133089066,0.03954328969120979
1761915538177243000,3.942242919921875,0.07668231427669525,0.07228805124759674,-0.0014757821336388588
1761915538187297000,3.952297119140625,0.07757744938135147,0.07935165613889694,-0.02685709297657013
1761915538197352200,3.962352294921875,0.07059890031814575,0.06492291390895844,-0.05388524755835533
1761915538207406000,3.972406005859375,0.06598269939422607,0.03428962826728821,-0.0703304186463356
1761915538217460200,3.982460205078125,0.07372397929430008,0.021890483796596527,-0.07506924867630005
1761915538227514000,3.99251416015625,0.09879439324140549,0.05533966049551964,-0.07039929926395416
1761915538237568300,4.002568359375,0.12947186827659607,0.11261040717363358,-0.05749814212322235
1761915538247623000,4.012622802734375,0.1362118422985077,0.1334840953350067,-0.045405313372612
1761915538257677000,4.022677001953125,0.11473744362592697,0.1331450641155243,-0.03284291923046112
1761915538267731000,4.03273095703125,0.09937363117933273,0.13904257118701935,-0.03383014723658562
1761915538277785000,4.04278515625,0.09590273350477219,0.1249411329627037,-0.028509952127933502
1761915538287839200,4.052839111328125,0.09927630424499512,0.08489704877138138,-0.016469113528728485
1761915538297894000,4.062893798828125,0.1065768301486969,0.06270040571689606,-0.010004289448261261
1761915538307948000,4.072947998046875,0.11082116514444351,0.0735342800617218,-0.007723656948655844
1761915538318002000,4.083001953125,0.1001775786280632,0.10099706798791885,-0.022559860721230507
1761915538328056000,4.09305615234375,0.08051912486553192,0.11561395227909088,-0.048773255199193954
1761915538338110000,4.10310986328125,0.06436172872781754,0.11752503365278244,-0.0866394191980362
1761915538348164000,4.1131640625,0.055135440081357956,0.10519424825906754,-0.11306563764810562
1761915538358219300,4.12321923828125,0.05612959712743759,0.07865824550390244,-0.13005606830120087
1761915538368273000,4.13327294921875,0.053046319633722305,0.04413997381925583,-0.1393783688545227
1761915538378327000,4.1433271484375,0.04561477154493332,0.028892843052744865,-0.14218774437904358
1761915538388381000,4.153380859375,0.029116015881299973,0.01653830148279667,-0.1489381343126297
1761915538398435000,4.16343505859375,0.022816840559244156,0.01895378902554512,-0.16306434571743011
1761915538408490000,4.173489990234375,0.013467704877257347,-0.002849195385351777,-0.1890399158000946
1761915538418544000,4.183544189453125,0.0012302135583013296,-0.013202766887843609,-0.22167909145355225
1761915538428598300,4.193598388671875,-0.007536319550126791,-0.021749278530478477,-0.24996960163116455
1761915538438652200,4.203652099609375,-0.010862341150641441,-0.03493405878543854,-0.27705100178718567
1761915538448706000,4.2137060546875,-0.007239267695695162,-0.0419163815677166,-0.29399627447128296
1761915538458761000,4.223760986328125,0.005036040209233761,-0.03306882828474045,-0.2870877683162689
1761915538468815000,4.233815185546875,0.017485663294792175,-0.025261472910642624,-0.2581675946712494
1761915538478869000,4.243868896484375,0.026282619684934616,-0.006139710079878569,-0.21712163090705872
1761915538488923100,4.253923095703125,0.03158796206116676,0.03827527537941933,-0.1802840381860733
1761915538498977000,4.26397705078125,0.031366653740406036,0.07398693263530731,-0.14277927577495575
1761915538509032000,4.274031982421875,0.021288150921463966,0.08195053040981293,-0.10486543923616409
1761915538519086000,4.284086181640625,0.0012177699245512486,0.05590561032295227,-0.06303597241640091
1761915538529140000,4.294139892578125,-0.014560140669345856,0.012068605050444603,-0.023970013484358788
1761915538539194000,4.304194091796875,-0.022683046758174896,-0.02785351127386093,0.010142149403691292
1761915538549248000,4.314248046875,-0.02172788232564926,-0.05166611447930336,0.03357701003551483
1761915538559302100,4.32430224609375,-0.018028484657406807,-0.06911541521549225,0.04625605419278145
1761915538569357000,4.334357177734375,-0.015629036352038383,-0.061802491545677185,0.04840048402547836
1761915538579411000,4.344410888671875,-0.011246804147958755,-0.04866218566894531,0.045877136290073395
1761915538589465000,4.354465087890625,-0.01506444625556469,-0.03457299992442131,0.0493144765496254
1761915538599519000,4.36451904296875,-0.02269653230905533,-0.0275955181568861,0.05510631948709488
1761915538609573000,4.374572998046875,-0.027206510305404663,-0.015333346091210842,0.05418955907225609
1761915538619628000,4.3846279296875,-0.023421892896294594,-0.0045179822482168674,0.047789186239242554
1761915538629682200,4.39468212890625,-0.0034423740580677986,0.018613070249557495,0.04151802510023117
1761915538639736000,4.404736083984375,0.012486257590353489,0.04140093922615051,0.04083758592605591
1761915538649790000,4.4147900390625,0.02299376018345356,0.045391954481601715,0.03837123140692711
1761915538659844000,4.424843994140625,0.03185436129570007,0.04036150872707367,0.02738010138273239
1761915538669899000,4.43489892578125,0.031604450196027756,0.020532993599772453,0.002666606567800045
1761915538679953200,4.444953125,0.03693157434463501,0.015526516363024712,-0.02374689094722271
1761915538690007000,4.455007080078125,0.03753488510847092,0.03808610513806343,-0.045287445187568665
1761915538700061200,4.465061279296875,0.0438910536468029,0.07177722454071045,-0.05415017902851105
1761915538710115000,4.475114990234375,0.045587461441755295,0.08720353990793228,-0.046343911439180374
1761915538720170000,4.485169921875,0.0401945598423481,0.07651947438716888,-0.027711106464266777
1761915538730224000,4.49522412109375,0.01998160406947136,0.04981149733066559,-0.021736733615398407
1761915538740278000,4.505278076171875,0.00653636921197176,0.03951385244727135,-0.021794792264699936
1761915538750332200,4.515332275390625,0.0059517924673855305,0.05867953225970268,-0.026814578101038933
1761915538760386000,4.525385986328125,0.01276495773345232,0.07611977308988571,-0.023896818980574608
1761915538770441000,4.53544091796875,0.0208338163793087,0.06494464725255966,-0.018770504742860794
1761915538780495000,4.5454951171875,0.023207757622003555,0.04110801964998245,-0.005381729453802109
1761915538790549000,4.555549072265625,0.01412289123982191,-0.0037678987719118595,-0.0022327592596411705
1761915538800603100,4.56560302734375,-0.011017614975571632,-0.04317256063222885,-0.011851830407977104
1761915538810657000,4.575656982421875,-0.03424546495079994,-0.0764024630188942,-0.03367829695343971
1761915538820711200,4.585711181640625,-0.041848257184028625,-0.0928509458899498,-0.057341814041137695
1761915538830766000,4.59576611328125,-0.03160452842712402,-0.061870116740465164,-0.07192246615886688
1761915538840820000,4.605820068359375,-0.006864294875413179,-0.008248967118561268,-0.06834717094898224
1761915538850873900,4.615873779296875,-0.0021131066605448723,0.023855922743678093,-0.034703031182289124
1761915538860928000,4.625927978515625,-0.010975574143230915,0.010613353922963142,0.010701201856136322
1761915538870982100,4.635982177734375,-0.027148636057972908,-0.017776908352971077,0.05487446486949921
1761915538881037000,4.646037109375,-0.03538899123668671,-0.03127753734588623,0.07918407022953033
1761915538891091200,4.65609130859375,-0.03918246552348137,-0.028888549655675888,0.08220521360635757
1761915538901145000,4.66614501953125,-0.02794472686946392,-0.005242874845862389,0.07699314504861832
1761915538911199000,4.676198974609375,-0.021680451929569244,0.009672405198216438,0.0678102970123291
1761915538921252900,4.6862529296875,-0.012922381050884724,0.00890221819281578,0.05818243697285652
1761915538931308000,4.69630810546875,-0.017336182296276093,-0.003425583243370056,0.05008072406053543
1761915538941362200,4.706362060546875,-0.01899613067507744,-0.020973417907953262,0.03665333241224289
1761915538951416000,4.716416015625,-0.01924259401857853,-0.030357569456100464,0.010173899121582508
1761915538961469000,4.726468994140625,-0.011538336053490639,-0.0348881371319294,-0.02781449630856514
1761915538971524000,4.736524169921875,0.0028446223586797714,-0.018821515142917633,-0.06620876491069794
1761915538981578000,4.746577880859375,0.02041029930114746,0.008468427695333958,-0.09685215353965759
1761915538991632000,4.7566318359375,0.02924538403749466,0.022331079468131065,-0.0977528840303421
1761915539001685800,4.766685791015625,0.029598787426948547,0.013975944370031357,-0.07374848425388336
1761915539011740000,4.776739990234375,0.027778493240475655,-0.006734699476510286,-0.0393015593290329
1761915539021795000,4.786795166015625,0.0270937941968441,-0.027961689978837967,-0.007793435826897621
1761915539031849000,4.796848876953125,0.03539397940039635,-0.027647076174616814,0.012310832738876343
1761915539041903000,4.806903076171875,0.03992907702922821,-0.018190458416938782,0.016732480376958847
1761915539051957000,4.81695703125,0.04957466199994087,0.00531755480915308,0.011745056137442589
1761915539062011000,4.827010986328125,0.05046602338552475,0.03279392048716545,0.0017584692686796188
1761915539072065800,4.837065673828125,0.04389309510588646,0.054483287036418915,-0.007755185943096876
1761915539082120000,4.847119873046875,0.03296348452568054,0.03880765661597252,-0.01450230460613966
1761915539092173800,4.857173828125,0.018976684659719467,0.010307547636330128,-0.026397157460451126
1761915539102228000,4.86722802734375,0.012776312418282032,-0.006321230437606573,-0.03892919421195984
1761915539112282000,4.8772822265625,0.0003585373633541167,-0.03381674736738205,-0.051616229116916656
1761915539122336800,4.887336669921875,0.0015183440409600735,-0.05157177522778511,-0.04967132583260536
1761915539132391000,4.897390869140625,0.0013823281042277813,-0.06531994044780731,-0.029991723597049713
1761915539142444800,4.90744482421875,-0.005240953527390957,-0.05892408639192581,0.007803590968251228
1761915539152499000,4.9174990234375,-0.009400325827300549,-0.04228022322058678,0.04470520094037056
1761915539162552800,4.927552734375,-0.015110143460333347,-0.024988319724798203,0.07240580022335052
1761915539172608000,4.93760791015625,-0.02036142535507679,0.0029102936387062073,0.0791490226984024
1761915539182662000,4.947661865234375,-0.018184823915362358,0.017959285527467728,0.07086686044931412
1761915539192715800,4.9577158203125,-0.013222363777458668,0.01427492219954729,0.04476231336593628
1761915539202770000,4.96777001953125,-0.0052933343686163425,0.01754448376595974,0.013759924098849297
1761915539212823800,4.97782373046875,0.003417746629565954,0.01835758239030838,-0.011546624824404716
1761915539222879000,4.98787890625,0.006856952793896198,0.025541990995407104,-0.028931207954883575
1761915539232933000,4.99793310546875,0.004191224928945303,0.02406146563589573,-0.02819148451089859
1761915539242987000,5.007987060546875,-0.003978287801146507,0.0011766571551561356,-0.015179280191659927
1761915539253041200,5.018041259765625,-0.0071845892816782,-0.03865382447838783,-0.0063196271657943726
1761915539263094800,5.0280947265625,-0.006046354304999113,-0.060582827776670456,-0.0001261802390217781
1761915539273150000,5.03814990234375,-0.005534203257411718,-0.05259355902671814,-0.0018348749727010727
1761915539283203800,5.048203857421875,-0.0018028480699285865,-0.010144900530576706,-0.012073930352926254
1761915539293258000,5.058258056640625,-0.0029785148799419403,0.03137028589844704,-0.015140699222683907
1761915539303312000,5.068311767578125,-0.004614228382706642,0.04972532391548157,-0.010969390161335468
1761915539313366000,5.078365966796875,-0.003904094686731696,0.04911919683218002,-0.0022607091814279556
1761915539323421000,5.0884208984375,0.0010336722480133176,0.040475375950336456,0.0038171568885445595
1761915539333474800,5.098474853515625,0.0031272079795598984,0.018126441165804863,0.013201062567532063
1761915539343529000,5.108529052734375,0.0003828205226454884,-0.015269065275788307,0.02519567310810089
1761915539353582800,5.118582763671875,-0.005428536329418421,-0.041221462190151215,0.028827261179685593
1761915539363637000,5.128636962890625,-0.007927912287414074,-0.035992082208395004,0.023729704320430756
1761915539373692200,5.138692138671875,-0.007242694031447172,-0.004609400872141123,0.0180819034576416
1761915539383745800,5.148745849609375,-0.007042957004159689,0.026926420629024506,0.012709243223071098
1761915539393800000,5.158800048828125,-0.004495014436542988,0.03651345893740654,0.009477395564317703
1761915539403853800,5.168853759765625,-0.00385612272657454,0.0331466905772686,0.012443358078598976
1761915539413908000,5.178907958984375,-0.004411293193697929,0.028481829911470413,0.010008889250457287
1761915539423963000,5.188962890625,-0.003350822487846017,0.018016938120126724,0.002481197938323021
1761915539434017000,5.19901708984375,0.0013223837595432997,0.02238989621400833,-0.008503167890012264
1761915539444071000,5.20907080078125,0.009159001521766186,0.018266791477799416,-0.020996322855353355
1761915539454124800,5.219124755859375,0.01924125663936138,0.020221136510372162,-0.03245889022946358
1761915539464179000,5.229178955078125,0.020158981904387474,0.018241344019770622,-0.022641146555542946
1761915539474233900,5.23923388671875,0.012833461165428162,0.004103495739400387,-0.01111103966832161
1761915539484288000,5.2492880859375,0.002218101639300585,-0.015281920321285725,0.004751280881464481
1761915539494342000,5.259341796875,-0.006842614151537418,-0.0162347499281168,0.00844066496938467
1761915539504396000,5.26939599609375,-0.00477813184261322,0.0028619784861803055,0.003572673536837101
1761915539514450000,5.279449951171875,-0.0023288584779947996,0.017186513170599937,-0.002627383917570114
1761915539524504800,5.2895048828125,-0.0007251028437167406,0.020722392946481705,-0.004895331803709269
1761915539534559000,5.29955908203125,-0.008009478449821472,0.02748049981892109,-0.004629442933946848
1761915539544615000,5.309614990234375,-0.01308253314346075,0.023794418200850487,0.0030298084020614624
1761915539554668800,5.319668701171875,-0.014606769196689129,0.01978561095893383,0.008789265528321266
1761915539564724000,5.329723876953125,-0.009755555540323257,0.012495741248130798,0.013139806687831879
1761915539574777900,5.33977783203125,-0.010352406650781631,-0.0007588800508528948,0.010341635905206203
1761915539584832000,5.34983203125,-0.010818193666636944,-0.0037091299891471863,0.002840043045580387
1761915539594886000,5.359885986328125,-0.011698585934937,0.005989657249301672,-0.011517071165144444
1761915539604940000,5.36993994140625,-0.010801100172102451,0.021492715924978256,-0.031215406954288483
1761915539614995000,5.379994873046875,-0.0063699157908558846,0.04074062407016754,-0.03939769044518471
1761915539625048800,5.390048828125,0.0077592190355062485,0.062301844358444214,-0.04017959535121918
1761915539635103000,5.40010302734375,0.01590130105614662,0.08005847781896591,-0.028129857033491135
1761915539645156900,5.410156982421875,0.021236944943666458,0.08886075764894485,-0.0073561351746320724
1761915539655211000,5.4202109375,0.018495207652449608,0.07918759435415268,0.01178001519292593
1761915539665266000,5.430265869140625,0.01585974358022213,0.05704393610358238,0.025559742003679276
1761915539675319800,5.44031982421875,0.006459766533225775,0.027664845809340477,0.028697572648525238
1761915539685374000,5.4503740234375,0.005679193884134293,0.0047757746651768684,0.01914721168577671
1761915539695427800,5.460427734375,0.009104236960411072,0.0012190259294584394,-0.003303716890513897
1761915539705482000,5.47048193359375,0.013285133056342602,0.00026588066248223186,-0.031740952283144
1761915539715537000,5.480536865234375,0.01746620051562786,-0.0018715010955929756,-0.056083470582962036
1761915539725591000,5.490591064453125,0.02492891065776348,-0.01273000705987215,-0.06817501783370972
1761915539735645000,5.50064501953125,0.02669115923345089,-0.02394849807024002,-0.06310680508613586
1761915539745698800,5.51069873046875,0.031008942052721977,-0.024444645270705223,-0.045301709324121475
1761915539755753000,5.5207529296875,0.025733862072229385,-0.005459818989038467,-0.01966569572687149
1761915539765807900,5.530807861328125,0.01213549543172121,-0.001762552186846733,0.008241301402449608
1761915539775862000,5.540862060546875,0.004740827716886997,-0.006343460641801357,0.03435531258583069
1761915539785916000,5.550916015625,0.004179167095571756,-0.02005234733223915,0.054070696234703064
1761915539795970000,5.560969970703125,0.0032308893278241158,-0.02732049860060215,0.06935025006532669
1761915539806025000,5.57102490234375,-0.00174948840867728,-0.02869229204952717,0.0746225118637085
1761915539816078800,5.581078857421875,-0.012277279049158096,-0.03319979086518288,0.08404961973428726
1761915539826133000,5.591133056640625,-0.02336801216006279,-0.03966301679611206,0.08773863315582275
1761915539836187000,5.601186767578125,-0.02800053358078003,-0.052570462226867676,0.08329589664936066
1761915539846241000,5.611240966796875,-0.02788415364921093,-0.05848028138279915,0.06341034173965454
1761915539856296000,5.6212958984375,-0.014331434853374958,-0.04579666256904602,0.041076112538576126
1761915539866349800,5.631349853515625,-0.0026633278466761112,-0.004011665005236864,0.013940631411969662
1761915539876404000,5.641404052734375,0.0007566425483673811,0.01961391232907772,0.0026664622128009796
1761915539886457900,5.651457763671875,-0.003930787090212107,0.007058973424136639,0.005209248512983322
1761915539896512000,5.661511962890625,-0.019879162311553955,-0.017550302669405937,0.009802445769309998
1761915539906566000,5.67156591796875,-0.026182599365711212,-0.03633091598749161,0.010837351903319359
1761915539916621000,5.68162109375,-0.02873723767697811,-0.02202415280044079,0.0008546132594347
1761915539926675000,5.691675048828125,-0.02391425333917141,0.010107951238751411,-0.012095540761947632
1761915539936728800,5.701728759765625,-0.026802439242601395,0.03477204591035843,-0.016216523945331573
1761915539946782700,5.71178271484375,-0.03237856179475784,0.05547013506293297,-0.01588709093630314
1761915539956836900,5.7218369140625,-0.047442905604839325,0.060736991465091705,-0.011524667032063007
1761915539966892300,5.731892333984375,-0.07173279672861099,0.04591037333011627,-0.003693108446896076
1761915539976946400,5.741946533203125,-0.08989819139242172,0.01727878488600254,0.00729108601808548
1761915539987000600,5.75200048828125,-0.09186573326587677,-0.024228978902101517,0.016464076936244965
1761915539997054500,5.762054443359375,-0.07432790845632553,-0.04897056892514229,0.012736340053379536
1761915540007109400,5.772109375,-0.0495583713054657,-0.042635440826416016,0.010499817319214344
1761915540017163300,5.782163330078125,-0.019265245646238327,-0.02327306568622589,0.010534470900893211
1761915540027217400,5.792217529296875,0.004953273572027683,0.006867527030408382,0.018788672983646393
1761915540037271300,5.802271240234375,0.01171206496655941,0.026336750015616417,0.03561033681035042
1761915540047325400,5.812325439453125,-0.0010729723144322634,0.032407425343990326,0.04946916177868843
1761915540057380400,5.82238037109375,-0.013737877830862999,0.026741862297058105,0.05352964252233505
1761915540067434200,5.832434326171875,-0.02227970026433468,0.004351870156824589,0.05143293738365173
1761915540077488400,5.84248828125,-0.023033641278743744,-0.014562706463038921,0.038711849600076675
1761915540087542300,5.852542236328125,-0.00958680734038353,-0.022207308560609818,0.020665206015110016
1761915540097596400,5.862596435546875,0.0017157202819362283,-0.022296903654932976,0.001425366848707199
1761915540107651300,5.8726513671875,0.006206076126545668,-0.017532508820295334,-0.019186435267329216
1761915540117705500,5.88270556640625,0.007283395621925592,-0.005381964612752199,-0.03695087134838104
1761915540127759400,5.89275927734375,0.006920407060533762,-0.01111575122922659,-0.04988238215446472
1761915540137813200,5.902813232421875,0.0004083620151504874,-0.03403960540890694,-0.0524493083357811
1761915540147867400,5.912867431640625,-0.0075899092480540276,-0.05658166483044624,-0.046898748725652695
1761915540157922300,5.92292236328125,-0.0009296491043642163,-0.048797864466905594,-0.04446033760905266
1761915540167976400,5.9329765625,0.007439068052917719,-0.02260647527873516,-0.03377307206392288
1761915540178030300,5.9430302734375,0.021785639226436615,0.02753470651805401,-0.025291021913290024
1761915540188084500,5.95308447265625,0.02969602681696415,0.07658454030752182,-0.00006502680480480194
1761915540198138000,5.96313818359375,0.0276900976896286,0.08838386833667755,0.027621770277619362
1761915540208193300,5.973193359375,0.023276973515748978,0.07246828824281693,0.06099863350391388
1761915540218247400,5.983247314453125,0.01692037098109722,0.035094477236270905,0.08385298401117325
1761915540228301300,5.99330126953125,0.00474519794806838,0.0027937975246459246,0.08727487921714783
1761915540238355500,6.00335546875,-0.005949113517999649,-0.01345040276646614,0.06640326976776123
1761915540248409300,6.013409423828125,-0.014207576401531696,-0.009092938154935837,0.022394532337784767
1761915540258464300,6.02346435546875,-0.015776820480823517,-0.0010581340175122023,-0.019023369997739792
1761915540268518400,6.033518310546875,-0.014411150477826595,-0.004600937012583017,-0.049128275364637375
1761915540278572300,6.043572265625,-0.0021013529039919376,0.0047507635317742825,-0.07381270825862885
1761915540288626400,6.05362646484375,0.014356715604662895,0.025665100663900375,-0.08825716376304626
1761915540298680300,6.063680419921875,0.01952824927866459,0.03264405578374863,-0.08583202958106995
1761915540308735500,6.073735595703125,0.011542758904397488,0.01702115498483181,-0.06571690738201141
1761915540318789000,6.0837890625,-0.006449095904827118,-0.024631092324852943,-0.029462937265634537
1761915540328843300,6.09384326171875,-0.024476565420627594,-0.08207175135612488,0.0021511809900403023
1761915540338897400,6.1038974609375,-0.04050632566213608,-0.1118425577878952,0.03217959403991699
1761915540348951300,6.113951416015625,-0.04491438716650009,-0.10865847766399384,0.0478067584335804
1761915540359006500,6.12400634765625,-0.04007649049162865,-0.07767632603645325,0.04972153529524803
1761915540369060400,6.134060302734375,-0.02746589109301567,-0.02407754398882389,0.04720351845026016
1761915540379114500,6.144114501953125,-0.009692029096186161,0.034719303250312805,0.03628542646765709
1761915540389168400,6.15416845703125,0.008261404931545258,0.07536233216524124,0.02883310243487358
1761915540399222300,6.16422216796875,0.020340075716376305,0.07713445276021957,0.020022481679916382
1761915540409277400,6.17427734375,0.02241787500679493,0.04870893433690071,0.014874058775603771
1761915540419331300,6.184331298828125,0.022159282118082047,0.011147481389343739,0.0029403800144791603
1761915540429385500,6.194385498046875,0.019760306924581528,-0.008687209337949753,-0.014197860844433308
1761915540439439400,6.204439453125,0.014520509168505669,-0.013116380199790001,-0.030481502413749695
1761915540449493500,6.214493408203125,0.005655644927173853,-0.014080977998673916,-0.038001202046871185
1761915540459548200,6.224548095703125,0.00141744629945606,-0.02106279507279396,-0.035786982625722885
1761915540469602300,6.234602294921875,0.013268246315419674,-0.014073861762881279,-0.03353608027100563
1761915540479656400,6.244656494140625,0.02582920342683792,-0.015118570998311043,-0.027466362342238426
1761915540489710300,6.25471044921875,0.03465624898672104,-0.018637405708432198,-0.0298357754945755
1761915540499764500,6.264764404296875,0.03203197196125984,-0.00824708305299282,-0.029740169644355774
1761915540509819400,6.2748193359375,0.01968422532081604,0.00561307230964303,-0.0286413487046957
1761915540519873300,6.284873291015625,0.013830827549099922,0.012809391133487225,-0.008145879954099655
1761915540529927200,6.29492724609375,0.00834657996892929,0.024500669911503792,0.01846975088119507
1761915540539981300,6.304981201171875,0.005126612726598978,0.03340213745832443,0.04200618341565132
1761915540550035200,6.31503515625,0.00348397484049201,0.03734228387475014,0.059304747730493546
1761915540560090400,6.32509033203125,0.0031683656852692366,0.032886505126953125,0.05511240288615227
1761915540570144500,6.33514453125,0.007431820034980774,0.019842876121401787,0.035299018025398254
1761915540580198400,6.345198486328125,0.010648844763636589,0.014846369624137878,0.0036114584654569626
1761915540590252300,6.355252197265625,0.017663078382611275,0.004344460554420948,-0.022438250482082367
1761915540600306200,6.36530615234375,0.01162027008831501,-0.0008313180296681821,-0.04027653485536575
1761915540610361300,6.375361328125,0.000906905741430819,-0.0018292044987902045,-0.04540977627038956
1761915540620415500,6.38541552734375,-0.011853835545480251,-0.006901605986058712,-0.042371965944767
1761915540630469400,6.395469482421875,-0.01939377747476101,-0.023138364776968956,-0.04155544191598892
1761915540640523500,6.4055234375,-0.020166045054793358,-0.03994707763195038,-0.059084951877593994
1761915540650578200,6.415578125,-0.014442646875977516,-0.02851998619735241,-0.07914361357688904
1761915540660632300,6.42563232421875,-0.000014102261047810316,-0.005766869056969881,-0.10036429762840271
1761915540670686200,6.435686279296875,-0.0014045386342331767,0.01904047653079033,-0.1050834208726883
1761915540680740400,6.445740234375,-0.008591257967054844,0.025239164009690285,-0.10105546563863754
1761915540690794200,6.455794189453125,-0.008428272791206837,0.01494924258440733,-0.06798246502876282
1761915540700849400,6.465849365234375,-0.00983363576233387,-0.00587164331227541,-0.03133549913764
1761915540710903300,6.4759033203125,-0.01509843859821558,-0.02690555527806282,0.005859541706740856
1761915540720957200,6.485957275390625,-0.014992322772741318,-0.023328153416514397,0.02776179648935795
1761915540731011300,6.49601123046875,-0.00817383173853159,-0.004364582244306803,0.039174504578113556
1761915540741065200,6.506065185546875,0.0062263645231723785,0.017331562936306,0.04698694124817848
1761915540751120400,6.516120361328125,0.015817739069461823,0.04318393021821976,0.04751371592283249
1761915540761174500,6.526174560546875,0.02298886887729168,0.06243332847952843,0.05809494107961655
1761915540771228400,6.536228515625,0.03179727494716644,0.07911909371614456,0.07259371876716614
1761915540781282300,6.5462822265625,0.036735016852617264,0.0746726393699646,0.08553645759820938
1761915540791336200,6.556336181640625,0.01927240565419197,0.03808693215250969,0.08544724434614182
1761915540801391400,6.566391357421875,0.0009400380658917129,-0.008067441172897816,0.07568138837814331
1761915540811445200,6.5764453125,-0.00896452460438013,-0.04621109738945961,0.04558686167001724
1761915540821499400,6.58649951171875,-0.012353457510471344,-0.05327232554554939,0.013313138857483864
1761915540831553500,6.596553466796875,-0.014593975618481636,-0.03349941968917847,-0.018498852849006653
1761915540841607400,6.606607421875,-0.01425750833004713,0.006725715938955545,-0.040556058287620544
1761915540851662300,6.616662353515625,-0.004003806039690971,0.03876753896474838,-0.04586666822433472
1761915540861716200,6.62671630859375,0.0030905278399586678,0.0517527237534523,-0.04633000120520592
1761915540871770400,6.636770263671875,0.010511159896850586,0.033482372760772705,-0.043483614921569824
1761915540881824300,6.64682421875,0.016185810789465904,0.014297463931143284,-0.043888673186302185
1761915540891878400,6.65687841796875,0.019501179456710815,0.002441337099298835,-0.048824578523635864
1761915540901933300,6.666933349609375,0.014837595634162426,0.013361645862460136,-0.04465021938085556
1761915540911987200,6.6769873046875,-0.002211695071309805,0.011563745327293873,-0.03250647336244583
1761915540922041300,6.687041259765625,-0.026546264067292213,-0.003380714450031519,-0.006048532668501139
1761915540932095200,6.69709521484375,-0.0398988202214241,-0.027634654194116592,0.01558991800993681
1761915540942149400,6.7071494140625,-0.04178120568394661,-0.034686293452978134,0.02994574047625065
1761915540952204500,6.71720458984375,-0.026820898056030273,-0.016711553558707237,0.028857840225100517
1761915540962258700,6.7272587890625,-0.004158256575465202,0.011355114169418812,0.015147143974900246
1761915540972312600,6.7373125,0.013900904916226864,0.04495514929294586,-0.00997631810605526
1761915540982366500,6.747366455078125,0.01797487586736679,0.058264560997486115,-0.029472367838025093
1761915540992420600,6.757420654296875,0.013294902630150318,0.05268869921565056,-0.03252914547920227
1761915541002475500,6.7674755859375,-0.0018314087064936757,0.025667015463113785,-0.016932561993598938
1761915541012529700,6.77752978515625,-0.014829232357442379,0.0014357106992974877,0.0020102374255657196
1761915541022583600,6.78758349609375,-0.024041783064603806,-0.0168924443423748,0.023844577372074127
1761915541032637700,6.7976376953125,-0.021527759730815887,-0.029127804562449455,0.03788742423057556
1761915541042691600,6.807691650390625,-0.010890885256230831,-0.02177598886191845,0.048453327268362045
1761915541052746500,6.81774658203125,0.0000778762623667717,0.01847902312874794,0.04609137028455734
1761915541062800600,6.827800537109375,0.010151222348213196,0.05595623329281807,0.04749730974435806
1761915541072854500,6.8378544921875,0.009854013100266457,0.06876976788043976,0.04826190322637558
1761915541082908700,6.84790869140625,0.0021551542449742556,0.0601644404232502,0.043562427163124084
1761915541092962600,6.857962646484375,0.0020057507790625095,0.03740479797124863,0.03349994122982025
1761915541103017500,6.868017578125,-0.0069449180737137794,0.0033002542331814766,0.015091396868228912
1761915541113071400,6.8780712890625,-0.006968353874981403,-0.02619558572769165,-0.0006361668929457664
1761915541123125500,6.88812548828125,0.003404370043426752,-0.029563993215560913,-0.017013240605592728
1761915541133179600,6.8981796875,0.01780940778553486,-0.006267991382628679,-0.03804928436875343
1761915541143233500,6.908233642578125,0.022317474707961082,0.014056984335184097,-0.054894957691431046
1761915541153288700,6.918288818359375,0.019244719296693802,0.005627014208585024,-0.0570148341357708
1761915541163342600,6.928342529296875,0.011194358579814434,-0.018257329240441322,-0.04874316230416298
1761915541173396500,6.938396484375,-0.0012479297583922744,-0.0522611029446125,-0.039330750703811646
1761915541183450400,6.948450439453125,-0.0061678169295191765,-0.06605114042758942,-0.027005158364772797
1761915541193504500,6.95850439453125,-0.0005221822066232562,-0.04212343692779541,-0.02401655912399292
1761915541203559700,6.9685595703125,0.002455071546137333,-0.006269893143326044,-0.021673373878002167
1761915541213613600,6.978613525390625,0.005886554718017578,0.007273079827427864,-0.017495673149824142
1761915541223667700,6.988667724609375,0.005689968355000019,-0.0027460830751806498,-0.0014106379821896553
1761915541233721600,6.9987216796875,0.004865187220275402,-0.021643873304128647,0.008263294585049152
1761915541243775500,7.008775390625,0.004812043160200119,-0.021828193217515945,0.0058772265911102295
1761915541253830700,7.01883056640625,0.016781354323029518,0.010328412055969238,-0.004117616917937994
1761915541263884500,7.028884521484375,0.024685505777597427,0.05494572967290878,-0.0179118849337101
1761915541273938700,7.038938720703125,0.02302662283182144,0.05843660235404968,-0.018928945064544678
1761915541283992600,7.04899267578125,0.012690979056060314,0.016218198463320732,-0.012827999889850616
1761915541294046700,7.059046630859375,-0.0041521829552948475,-0.03067900240421295,-0.003987104166299105
1761915541304101400,7.069101318359375,-0.017669102177023888,-0.05592132359743118,-0.008525591343641281
1761915541314155500,7.079155517578125,-0.02381274849176407,-0.04722050949931145,-0.01952524483203888
1761915541324209400,7.08920947265625,-0.0234089158475399,-0.022893136367201805,-0.03889824450016022
1761915541334263600,7.099263671875,-0.009998036548495293,0.014263019897043705,-0.05445217341184616
1761915541344318700,7.109318603515625,0.008122715167701244,0.049239516258239746,-0.05841797590255737
1761915541354372600,7.11937255859375,0.018684012815356255,0.0602082759141922,-0.04232821986079216
1761915541364426500,7.129426513671875,0.019442589953541756,0.04536909610033035,-0.02869773656129837
1761915541374480400,7.13948046875,0.01293622050434351,0.03248365595936775,-0.018017929047346115
1761915541384534500,7.149534423828125,0.009368760511279106,-0.0046384576708078384,-0.024243973195552826
1761915541394589700,7.159589599609375,0.003740169107913971,-0.014347810298204422,-0.043383046984672546
1761915541404643600,7.1696435546875,-0.0012131029507145286,-0.039690032601356506,-0.06087913364171982
1761915541414697700,7.17969775390625,0.0032178645487874746,-0.07168444991111755,-0.07169263064861298
1761915541424751600,7.189751708984375,0.0018182520288974047,-0.102207712829113,-0.06846583634614944
1761915541434805500,7.199805419921875,-0.002936555538326502,-0.09312181174755096,-0.0647192969918251
1761915541444860400,7.2098603515625,-0.016839709132909775,-0.11267577856779099,-0.05218421667814255
1761915541454914600,7.21991455078125,-0.012372256256639957,-0.1240520030260086,-0.04675456881523132
1761915541464968400,7.229968505859375,-0.014878086745738983,-0.11465249955654144,-0.04726743698120117
1761915541475022600,7.240022705078125,-0.021143704652786255,-0.1172243133187294,-0.040584497153759
1761915541485076700,7.25007666015625,-0.027016568928956985,-0.11054816097021103,-0.029875868931412697
1761915541495131400,7.26013134765625,-0.02229238860309124,-0.08464492857456207,-0.015235939994454384
1761915541505185500,7.270185546875,-0.020602578297257423,-0.04472726956009865,0.00041408464312553406
1761915541515239400,7.280239501953125,-0.01308500673621893,-0.009232394397258759,0.018843691796064377
1761915541525293600,7.29029345703125,-0.005290559493005276,0.005841181613504887,0.03285497799515724
1761915541535347500,7.300347412109375,0.004815603606402874,0.007023092824965715,0.035574596375226974
1761915541545402600,7.310402587890625,0.0018125118222087622,0.0030315881595015526,0.0223198551684618
1761915541555456500,7.32045654296875,0.001455381978303194,-0.0006323887500911951,-0.004130392335355282
1761915541565510400,7.330510498046875,0.0022800317965447903,0.009396818466484547,-0.03303699567914009
1761915541575564500,7.340564453125,0.0024153203703463078,0.00387262343429029,-0.04778451845049858
1761915541585618400,7.350618408203125,-0.006434655748307705,-0.013327725231647491,-0.04904524236917496
1761915541595673600,7.360673583984375,-0.014986599795520306,-0.027856599539518356,-0.030392464250326157
1761915541605727700,7.370727783203125,-0.012701858766376972,-0.032607123255729675,-0.010630717501044273
1761915541615781600,7.38078173828125,-0.014080843888223171,-0.01374128833413124,0.012442111037671566
1761915541625835800,7.390835693359375,-0.008036472834646702,0.0016210076864808798,0.023885391652584076
1761915541635889400,7.400889404296875,0.0006603460642509162,0.029732270166277885,0.02048639953136444
1761915541645944600,7.410944580078125,0.008095297031104565,0.07036960124969482,0.01418751198798418
1761915541655998500,7.42099853515625,0.010966184549033642,0.05944211408495903,0.013517727144062519
1761915541666052600,7.431052490234375,0.009776842780411243,0.025789132341742516,0.018862947821617126
1761915541676106500,7.4411064453125,0.012926029972732067,-0.019264360889792442,0.02435198798775673
1761915541686160600,7.45116064453125,0.000030385679565370083,-0.04135625809431076,0.01808617264032364
1761915541696215600,7.461215576171875,-0.009069635532796383,-0.04665994271636009,0.007548043504357338
1761915541706269400,7.47126953125,-0.008880126290023327,-0.052816588431596756,-0.0059186252765357494
1761915541716323600,7.481323486328125,-0.011542487889528275,-0.0664554312825203,-0.01791590079665184
1761915541726377500,7.49137744140625,-0.007451158948242664,-0.057086601853370667,-0.02918420359492302
1761915541736431600,7.501431640625,0.000547112722415477,-0.020806623622775078,-0.03298985958099365
1761915541746486800,7.51148681640625,0.010882875882089138,0.013660874217748642,-0.02394687384366989
1761915541756540400,7.52154052734375,0.015895744785666466,0.021755551919341087,-0.0000034570693969726562
1761915541766594600,7.531594482421875,0.021884305402636528,0.013780527748167515,0.016790514811873436
1761915541776648400,7.5416484375,0.020897604525089264,-0.003791275667026639,0.024365611374378204
1761915541786703600,7.55170361328125,0.02163304015994072,-0.010089634917676449,0.02346906252205372
1761915541796757500,7.561757568359375,0.03459518030285835,0.021026739850640297,0.010997211560606956
1761915541806811600,7.571811767578125,0.03839641809463501,0.055004898458719254,0.012574760243296623
1761915541816865500,7.581865478515625,0.0328594371676445,0.045034825801849365,0.021052135154604912
1761915541826919700,7.591919677734375,0.02606206014752388,0.02648179605603218,0.026924341917037964
1761915541836974600,7.601974609375,0.019970078021287918,0.007427410688251257,0.018610484898090363
1761915541847028500,7.612028564453125,0.012373194098472595,-0.006439839024096727,0.0005744406953454018
1761915541857082600,7.62208251953125,0.013870423659682274,-0.016044262796640396,-0.025806300342082977
1761915541867136500,7.632136474609375,0.00854379590600729,-0.014006768353283405,-0.04856458306312561
1761915541877190700,7.642190673828125,0.009927840903401375,-0.0022417218424379826,-0.05679961293935776
1761915541887245600,7.65224560546875,0.010709150694310665,0.008613728918135166,-0.0540732704102993
1761915541897299500,7.662299560546875,0.012794937938451767,0.011986622586846352,-0.03982323035597801
1761915541907353600,7.672353515625,0.01607682928442955,0.005670837126672268,-0.024052832275629044
1761915541917407500,7.682407470703125,0.0191945917904377,-0.0016416703583672643,-0.00880357250571251
1761915541927461600,7.692461669921875,0.013162470422685146,-0.0030711088329553604,-0.002476113848388195
1761915541937516500,7.7025166015625,0.01113873440772295,0.005325305741280317,-0.0014920756220817566
1761915541947570700,7.71257080078125,0.01067293155938387,0.01968768611550331,0.001000898890197277
1761915541957624600,7.72262451171875,0.01211742963641882,0.04049922525882721,0.0037530092522501945
1761915541967678200,7.73267822265625,0.007431928999722004,0.05054188147187233,0.014986182563006878
1761915541977732400,7.742732421875,0.0056904880329966545,0.045447785407304764,0.024608716368675232
1761915541987787300,7.752787353515625,-0.001110413926653564,0.035767752677202225,0.024335205554962158
1761915541997841400,7.76284130859375,-0.007089210674166679,0.021868715062737465,0.017519377171993256
1761915542007895300,7.772895263671875,-0.01982121542096138,0.008340996690094471,-0.005564949940890074
1761915542017949400,7.782949462890625,-0.019709628075361252,-0.0013049726840108633,-0.02589951641857624
1761915542028003300,7.79300341796875,-0.012793097645044327,0.0047447336837649345,-0.03887102007865906
1761915542038058200,7.803058349609375,-0.007333617657423019,0.015195510350167751,-0.047998473048210144
1761915542048112400,7.8131123046875,-0.006848630495369434,0.01564137637615204,-0.04124816879630089
1761915542058166300,7.823166259765625,-0.005327432882040739,0.006544815376400948,-0.020945560187101364
1761915542068220400,7.833220458984375,-0.001303807832300663,-0.0011658613802865148,0.0060784900560975075
1761915542078274300,7.8432744140625,-0.0016215229406952858,-0.005334773566573858,0.02580585703253746
1761915542088329200,7.8533291015625,-0.0001796390861272812,0.0026982170529663563,0.036041393876075745
1761915542098383000,7.863383056640625,0.0008169157663360238,0.03189471736550331,0.04156878590583801
1761915542108437200,7.873437255859375,0.007814018987119198,0.06241490691900253,0.04221200942993164
1761915542118491400,7.883491455078125,0.008507240563631058,0.06653721630573273,0.044278621673583984
1761915542128545300,7.893545166015625,0.007418758235871792,0.03928019851446152,0.03969510644674301
1761915542138600400,7.903600341796875,0.0028985748067498207,0.005651396699249744,0.03348167985677719
1761915542148654300,7.913654296875,-0.0027765249833464622,-0.024409107863903046,0.018355093896389008
1761915542158708200,7.923708251953125,-0.004904124420136213,-0.044142600148916245,0.005775651894509792
1761915542168762000,7.93376220703125,-0.00785012636333704,-0.0381515808403492,-0.005258615594357252
1761915542178816300,7.943816162109375,-0.0105308648198843,-0.013802832923829556,-0.007307385094463825
1761915542188871400,7.953871337890625,-0.009577221237123013,0.0013219915563240647,-0.00328809954226017
1761915542198925300,7.96392529296875,-0.01444255094975233,-0.0063071660697460175,0.00941091775894165
1761915542208979500,7.9739794921875,-0.012124521657824516,-0.03742644563317299,0.020322948694229126
1761915542219033300,7.984033447265625,-0.009423011913895607,-0.06007103621959686,0.028563566505908966
1761915542229087200,7.994087158203125,-0.009659948758780956,-0.05891425907611847,0.03324104845523834
1761915542239142400,8.004142333984374,-0.01211804710328579,-0.03680043667554855,0.04040015488862991
1761915542249196300,8.0141962890625,-0.01739722304046154,-0.014364105649292469,0.04000279679894447
1761915542259250400,8.02425048828125,-0.01510663889348507,0.0032966462895274162,0.029908884316682816
1761915542269304300,8.03430419921875,-0.008976520039141178,0.018593965098261833,0.020267968997359276
1761915542279359200,8.044359130859375,-0.01007161196321249,0.011782664805650711,0.006367066875100136
1761915542289413000,8.0544130859375,-0.015217432752251625,-0.005250499118119478,-0.006436025258153677
1761915542299467300,8.06446728515625,-0.0246380977332592,-0.029992863535881042,-0.017892412841320038
1761915542309521200,8.074521240234375,-0.03035254031419754,-0.04529238119721413,-0.019312605261802673
1761915542319575300,8.0845751953125,-0.03280904144048691,-0.055800147354602814,-0.011825927533209324
1761915542329630500,8.09463037109375,-0.026357628405094147,-0.04277881607413292,0.004639964550733566
1761915542339684400,8.104684326171874,-0.017638172954320908,-0.0034191596787422895,0.025714358314871788
1761915542349738200,8.11473828125,-0.009886618703603745,0.0547696128487587,0.04828799143433571
1761915542359792000,8.124792236328124,-0.0043938495218753815,0.08682075887918472,0.07272888720035553
1761915542369846300,8.13484619140625,-0.007500453852117062,0.0790054053068161,0.08543400466442108
1761915542379901400,8.1449013671875,-0.01635439693927765,0.05080811679363251,0.07697713375091553
1761915542389955300,8.154955322265625,-0.02185860648751259,0.011227181181311607,0.053239841014146805
1761915542400009500,8.165009521484375,-0.01921302266418934,-0.016505645588040352,0.009466526098549366
1761915542410063400,8.1750634765625,-0.006663213483989239,-0.021036358550190926,-0.03943194821476936
1761915542420117500,8.185117431640625,-0.008131947368383408,-0.021799353882670403,-0.07357659935951233
1761915542430172200,8.195172119140626,-0.021003827452659607,-0.027907095849514008,-0.08503111451864243
1761915542440226300,8.205226318359376,-0.035075172781944275,-0.04368419572710991,-0.07004550844430923
1761915542450280200,8.2152802734375,-0.04703840985894203,-0.05317659676074982,-0.031126022338867188
1761915542460334300,8.225334228515624,-0.04738515242934227,-0.046428412199020386,0.008161729201674461
1761915542470388500,8.235388427734375,-0.03603753820061684,-0.012187600135803223,0.04458007216453552
1761915542480443100,8.245443115234375,-0.01734055206179619,0.024787195026874542,0.06241392716765404
1761915542490497300,8.255497314453125,0.0063494122587144375,0.058975424617528915,0.07198946177959442
1761915542500551200,8.26555126953125,0.02123994380235672,0.06654758751392365,0.06182870641350746
1761915542510605300,8.275605224609375,0.018170084804296494,0.051957130432128906,0.051382794976234436
1761915542520659200,8.2856591796875,0.008687900379300117,0.02827949821949005,0.028168821707367897
1761915542530714400,8.29571435546875,-0.00026045425329357386,-0.006240391172468662,0.005439123138785362
1761915542540768500,8.3057685546875,-0.013244429603219032,-0.05175914242863655,-0.026356089860200882
1761915542550822100,8.315822265625,-0.020485201850533485,-0.07900547981262207,-0.06155039742588997
1761915542560876300,8.325876220703124,-0.015076055191457272,-0.07049454748630524,-0.09293149411678314
1761915542570930200,8.33593017578125,0.0005790955037809908,-0.023418603464961052,-0.10968012362718582
1761915542580985300,8.3459853515625,0.01291352603584528,0.022650353610515594,-0.10123550146818161
1761915542591039500,8.35603955078125,0.024749036878347397,0.04820636287331581,-0.07558968663215637
1761915542601093400,8.36609326171875,0.026652397587895393,0.05590955540537834,-0.03972942382097244
1761915542611147500,8.3761474609375,0.028664560988545418,0.04944848641753197,-0.004699422512203455
1761915542621201200,8.386201171875,0.03126940131187439,0.04424120485782623,0.01983547955751419
1761915542631256300,8.39625634765625,0.034906379878520966,0.027612220495939255,0.021272867918014526
1761915542641310200,8.406310302734376,0.03186957538127899,0.014846623875200748,0.008757876232266426
1761915542651364400,8.4163642578125,0.024827221408486366,0.007087990175932646,-0.013188810087740421
1761915542661418200,8.426418212890624,0.01028636284172535,0.007118084002286196,-0.031065277755260468
1761915542671472400,8.436472412109374,-0.011029636487364769,0.00996303092688322,-0.03757449612021446
1761915542681527300,8.44652734375,-0.028815291821956635,-0.0001686987088760361,-0.033853527158498764
1761915542691581200,8.456581298828125,-0.03741500526666641,-0.02018282562494278,-0.029223009943962097
1761915542701635300,8.46663525390625,-0.02751896344125271,-0.03492502123117447,-0.026462111622095108
1761915542711689200,8.476689208984375,-0.010853094048798084,-0.005518242251127958,-0.025640062987804413
1761915542721743400,8.486743408203125,0.0038688606582581997,0.04002607241272926,-0.01792248710989952
1761915542731798500,8.496798583984376,0.00031240409589372575,0.05078110471367836,0.01359691470861435
1761915542741852200,8.50685205078125,-0.01669880375266075,0.026461385190486908,0.05532066151499748
1761915542751906300,8.51690625,-0.036281369626522064,-0.0035480568185448647,0.09570489823818207
1761915542761960200,8.526960205078124,-0.04306124523282051,-0.031207649037241936,0.12309044599533081
1761915542772014300,8.537014404296874,-0.050570402294397354,-0.043955352157354355,0.12777851521968842
1761915542782069200,8.5470693359375,-0.045032624155282974,-0.047081902623176575,0.1094551682472229
1761915542792123400,8.557123291015625,-0.03358980268239975,-0.04205436259508133,0.07473686337471008
1761915542802177300,8.56717724609375,-0.0318656750023365,-0.052917398512363434,0.045023176819086075
1761915542812231400,8.5772314453125,-0.010562809184193611,-0.03082199953496456,0.013421053998172283
1761915542822285300,8.587285400390625,0.005588996224105358,0.0041503640823066235,-0.005270341876894236
1761915542832340200,8.59734033203125,0.012562254443764687,0.030312534421682358,-0.010404665023088455
1761915542842394400,8.607394287109376,0.008095601573586464,0.03874357044696808,0.0029391031712293625
1761915542852448300,8.6174482421875,0.0022386787459254265,0.02905692160129547,0.02361702360212803
1761915542862502400,8.62750244140625,-0.00016269355546683073,0.006511931773275137,0.04048176109790802
1761915542872557300,8.637557373046874,0.011712403036653996,-0.007702566683292389,0.04759526997804642
1761915542882611200,8.647611083984375,0.024450834840536118,0.004490716382861137,0.03569146990776062
1761915542892665300,8.657665283203125,0.033600952476263046,0.017194846644997597,0.016322024166584015
1761915542902719200,8.66771923828125,0.03426141291856766,0.026796074584126472,0.004436069168150425
1761915542912773400,8.6777734375,0.02689916454255581,0.012586365453898907,-0.0014471746981143951
1761915542922828300,8.687828369140625,0.014746361412107944,-0.0008223843178711832,0.0003272891044616699
1761915542932882400,8.69788232421875,0.006712972652167082,-0.01558155007660389,-0.002743649296462536
1761915542942936300,8.707936279296876,0.00205377209931612,-0.01127708237618208,-0.012549142353236675
1761915542952990200,8.717990234375,-0.00041077728383243084,0.0027648352552205324,-0.023406486958265305
1761915542963042300,8.728042236328125,0.0073739090003073215,0.02350872941315174,-0.03537153825163841
1761915542973096400,8.738096435546876,0.012467421591281891,0.044983040541410446,-0.033849526196718216
1761915542983150600,8.748150634765626,0.011714812368154526,0.05022760480642319,-0.01727534458041191
1761915542993205500,8.75820556640625,-0.0031672371551394463,0.039380993694067,0.010574685409665108
1761915543003259400,8.76825927734375,-0.017449235543608665,0.017644274979829788,0.04664480686187744
1761915543013313500,8.7783134765625,-0.026457462459802628,0.008019452914595604,0.06521857529878616
1761915543023367400,8.788367431640625,-0.029566437005996704,0.00214957888238132,0.06732647120952606
1761915543033421600,8.798421630859375,-0.032223302870988846,0.005216017831116915,0.049903906881809235
1761915543043476200,8.808476318359375,-0.027568630874156952,0.006160374730825424,0.026206834241747856
1761915543053530400,8.8185302734375,-0.021313069388270378,0.0054544927552342415,0.0035531288012862206
1761915543063584300,8.828584228515625,-0.012508392333984375,-0.0054823108948767185,-0.003976426552981138
1761915543073638400,8.838638427734375,-0.01212156843394041,-0.016581568866968155,-0.003180256113409996
1761915543083692300,8.8486923828125,-0.024271441623568535,-0.0273191686719656,0.007014323957264423
1761915543093747500,8.85874755859375,-0.025630585849285126,-0.034751515835523605,0.008765734732151031
1761915543103801600,8.868801513671874,-0.02685324288904667,-0.02918071672320366,0.001545637845993042
1761915543113855500,8.87885546875,-0.02383342757821083,-0.011015459895133972,-0.005493969656527042
1761915543123909400,8.888909423828125,-0.018201908096671104,0.0018364234128966928,-0.005071592517197132
1761915543133963300,8.89896337890625,-0.01524962019175291,0.004499143920838833,0.00041224434971809387
1761915543144018400,8.909018310546875,-0.017010768875479698,-0.008776180446147919,0.013286762870848179
1761915543154072600,8.919072509765625,-0.021404938772320747,-0.020894549787044525,0.030100025236606598
1761915543164126500,8.92912646484375,-0.032043471932411194,-0.04161607101559639,0.038742247968912125
1761915543174180600,8.9391806640625,-0.03736864775419235,-0.05459456518292427,0.04127860441803932
1761915543184234500,8.949234375,-0.031061217188835144,-0.03546534478664398,0.027379833161830902
1761915543194289400,8.959289306640626,-0.017717260867357254,0.0009963690536096692,0.010795303620398045
1761915543204343300,8.96934326171875,-0.020085874944925308,0.025817561894655228,-0.000971340574324131
1761915543214397400,8.9793974609375,-0.028373584151268005,0.01502892468124628,-0.0005892263725399971
1761915543224451600,8.98945166015625,-0.03560513257980347,-0.010864990763366222,0.009342500939965248
1761915543234506500,8.999506591796875,-0.04194283485412598,-0.04103256016969681,0.01908373460173607
1761915543244560400,9.009560302734375,-0.031464360654354095,-0.0540492944419384,0.01926642656326294
1761915543254614300,9.0196142578125,-0.02171647921204567,-0.04559978097677231,0.011774251237511635
1761915543264668400,9.02966845703125,-0.004985700827091932,-0.01176059152930975,0.0030460068956017494
1761915543274722300,9.039722412109375,0.007008885033428669,0.029662961140275,-0.002393219619989395
1761915543284777500,9.049777587890626,0.0019544714596122503,0.045334331691265106,0.003160003572702408
1761915543294831600,9.05983154296875,-0.007076960057020187,0.017855864018201828,0.015164610929787159
1761915543304885500,9.069885498046874,-0.01935945823788643,-0.0008978494442999363,0.01694173738360405
1761915543314939400,9.079939453125,-0.03245682641863823,-0.01685219816863537,0.006450396031141281
1761915543324993300,9.0899931640625,-0.03292500972747803,-0.028491543605923653,-0.008750660344958305
1761915543335048400,9.10004833984375,-0.029803551733493805,-0.029344098642468452,-0.02188209444284439
1761915543345102600,9.1101025390625,-0.015782278031110764,-0.008476899936795235,-0.019023990258574486
1761915543355156500,9.120156494140625,-0.009542163461446762,0.007184748537838459,-0.004088812042027712
1761915543365210600,9.130210693359375,-0.015402182936668396,0.011479629203677177,0.023881835862994194
1761915543375264500,9.140264404296875,-0.02081163227558136,0.0030029802583158016,0.04539410024881363
1761915543385319400,9.1503193359375,-0.020139450207352638,-0.011154383420944214,0.04864688590168953
1761915543395373300,9.160373291015626,-0.01794613152742386,-0.017524518072605133,0.035865362733602524
1761915543405427500,9.170427490234376,-0.013250179588794708,-0.026920417323708534,0.01337044220417738
1761915543415481300,9.1804814453125,-0.003327289829030633,-0.027606014162302017,-0.010193687863647938
1761915543425535500,9.190535400390624,0.004769252613186836,-0.019305473193526268,-0.021928906440734863
1761915543435590400,9.20059033203125,-0.0019212622428312898,-0.022702842950820923,-0.012148070149123669
1761915543445644300,9.210644287109375,-0.009083034470677376,-0.040886908769607544,-0.005802023224532604
1761915543455698400,9.220698486328125,-0.007837003096938133,-0.04458535835146904,-0.005071727093309164
1761915543465752300,9.23075244140625,-0.005928581580519676,-0.03224214166402817,-0.013750968500971794
1761915543475806500,9.240806396484375,-0.0030532274395227432,-0.021695880219340324,-0.018428221344947815
1761915543485861600,9.250861572265626,0.008188508450984955,-0.006854616105556488,-0.015723515301942825
1761915543495915500,9.26091552734375,0.024051275104284286,0.018503570929169655,-0.00888974778354168
1761915543505969400,9.270969482421876,0.03725416213274002,0.038592591881752014,0.00187661312520504
1761915543516023300,9.281023193359376,0.04031314328312874,0.04084949940443039,0.010139810852706432
1761915543526077400,9.291077392578124,0.044496435672044754,0.020415596663951874,0.019041690975427628
1761915543536132400,9.30113232421875,0.046468336135149,-0.00019041616178583354,0.012264109216630459
1761915543546186500,9.3111865234375,0.044378556311130524,-0.006726079620420933,-0.00391486007720232
1761915543556241400,9.321241455078125,0.03598624840378761,-0.008962118998169899,-0.023973364382982254
1761915543566295300,9.33129541015625,0.02699807658791542,-0.009535763412714005,-0.03315514326095581
1761915543576349400,9.341349365234375,0.016998209059238434,-0.02076197974383831,-0.030032634735107422
1761915543586403300,9.3514033203125,0.017506340518593788,-0.03169931471347809,-0.009091400541365147
1761915543596458500,9.36145849609375,0.023012777790427208,-0.03630748391151428,0.013672173023223877
1761915543606512600,9.3715126953125,0.03182970732450485,-0.02775181271135807,0.03467892110347748
1761915543616566500,9.38156640625,0.029551370069384575,-0.028989916667342186,0.04786822199821472
1761915543626620400,9.391620361328124,0.035036418586969376,0.012063509784638882,0.05544251948595047
1761915543636674300,9.40167431640625,0.04190673306584358,0.031140048056840897,0.06065070256590843
1761915543646729500,9.4117294921875,0.03911547362804413,0.028910981491208076,0.06274129450321198
1761915543656783400,9.421783447265625,0.01579331047832966,-0.0021621009800583124,0.05563735589385033
1761915543666837500,9.43183740234375,-0.003923668526113033,-0.01619802415370941,0.03407054767012596
1761915543676891400,9.441891357421875,-0.005180462263524532,-0.023450976237654686,0.010778594762086868
1761915543686945500,9.451945556640625,-0.0034398201387375593,-0.02755650505423546,-0.015036489814519882
1761915543697000400,9.46200048828125,-0.006119058467447758,-0.017783695831894875,-0.03240981698036194
1761915543707054300,9.472054443359376,-0.008341467007994652,-0.013696543872356415,-0.03953244164586067
1761915543717108500,9.4821083984375,-0.013532050885260105,-0.021402832120656967,-0.03250186890363693
1761915543727162400,9.492162353515624,-0.01600905880331993,-0.028230911120772362,-0.024391209706664085
1761915543737216500,9.502216552734374,-0.009703163988888264,-0.010633421130478382,-0.014531444758176804
1761915543747271400,9.512271484375,0.0046925535425543785,0.014030113816261292,-0.009232819080352783
1761915543757325300,9.5223251953125,0.025416934862732887,0.034411393105983734,-0.009280655533075333
1761915543767379500,9.53237939453125,0.03884965181350708,0.044526614248752594,-0.01648503914475441
1761915543777433300,9.542433349609375,0.03434180095791817,0.0383802093565464,-0.02300751954317093
1761915543787487500,9.552487548828125,0.018427817150950432,0.01647837460041046,-0.022425351664423943
1761915543797542400,9.56254248046875,0.006749820429831743,-0.009313874877989292,-0.02742086723446846
1761915543807596500,9.572596435546876,-0.0037270551547408104,-0.03201652318239212,-0.030583104118704796
1761915543817650400,9.582650390625,-0.007776548620313406,-0.0489761121571064,-0.03930399939417839
1761915543827704300,9.592704345703124,0.003738426836207509,-0.05066881701350212,-0.04924078285694122
1761915543837758500,9.602758544921874,0.021205749362707138,-0.03314325958490372,-0.060033418238162994
1761915543847813400,9.6128134765625,0.027697738260030746,-0.004607219714671373,-0.059077873826026917
1761915543857867500,9.622867431640625,0.02725493721663952,0.017526745796203613,-0.03994715213775635
1761915543867921400,9.63292138671875,0.021996526047587395,0.023784643039107323,-0.0033691683784127235
1761915543877975600,9.6429755859375,0.015818852931261063,0.010063877329230309,0.0456865131855011
1761915543888029400,9.653029541015625,0.014763709157705307,-0.005168338306248188,0.08215717226266861
1761915543898084400,9.66308447265625,0.019208379089832306,-0.020843181759119034,0.10001696646213531
1761915543908138500,9.673138427734376,0.02361777424812317,-0.02760947495698929,0.09140164405107498
1761915543918192400,9.6831923828125,0.01931254379451275,-0.03079907037317753,0.06263493001461029
1761915543928246500,9.69324658203125,0.014994761906564236,-0.02588207647204399,0.029860209673643112
1761915543938300400,9.703300537109374,-0.000855768215842545,-0.03468450531363487,0.0023175179958343506
1761915543948355300,9.713355224609375,-0.016100501641631126,-0.03988459333777428,-0.021603526547551155
1761915543958409500,9.723409423828125,-0.02472945675253868,-0.04220614209771156,-0.032608505338430405
1761915543968462600,9.733462646484375,-0.02080635353922844,-0.03790619969367981,-0.038685306906700134
1761915543978516500,9.7435166015625,-0.0060372138395905495,-0.03398459777235985,-0.03522085025906563
1761915543988570600,9.753570556640625,0.01764441467821598,-0.01763119176030159,-0.028089173138141632
1761915543998625800,9.763625732421875,0.03524475917220116,0.004629446659237146,-0.014047393575310707
1761915544008679700,9.7736796875,0.03970528766512871,0.02323881722986698,0.008297059684991837
1761915544018733800,9.78373388671875,0.03385629877448082,0.03297504037618637,0.025855926796793938
1761915544028787700,9.79378759765625,0.021301357075572014,0.03519505262374878,0.04573030024766922
1761915544038841600,9.803841552734376,0.009537484496831894,0.020742561668157578,0.0557015985250473
1761915544048896800,9.813896728515624,0.013567646965384483,0.007820905186235905,0.04758268594741821
1761915544058950700,9.82395068359375,0.014496981166303158,-0.029386069625616074,0.029197128489613533
1761915544069004800,9.8340048828125,0.028404807671904564,-0.04872541502118111,0.011032238602638245
1761915544079058700,9.84405859375,0.04638608172535896,-0.04947586730122566,-0.013426920399069786
1761915544089112800,9.85411279296875,0.05257606506347656,-0.026216618716716766,-0.04746744781732559
1761915544099167500,9.86416748046875,0.04855334013700485,0.0016796771669760346,-0.08021043241024017
1761915544109221600,9.8742216796875,0.04233113303780556,0.035889312624931335,-0.11404696106910706
1761915544119275500,9.884275634765626,0.054691679775714874,0.037041980773210526,-0.121361643075943
1761915544129329700,9.89432958984375,0.06417547166347504,0.05579010024666786,-0.10252296924591064
1761915544139383800,9.9043837890625,0.06270083785057068,0.06416244804859161,-0.056680820882320404
1761915544149438700,9.914438720703124,0.06267739832401276,0.033655669540166855,0.0020828936249017715
1761915544159492600,9.92449267578125,0.06619328260421753,0.007775315549224615,0.054294660687446594
1761915544169546500,9.93454638671875,0.05435926094651222,-0.022483520209789276,0.09606820344924927
1761915544179600600,9.9446005859375,0.03582104668021202,-0.05355745926499367,0.11356515437364578
1761915544189654500,9.954654541015625,0.012672582641243935,-0.0542573407292366,0.13615089654922485
1761915544199709700,9.964709716796875,0.017506824806332588,-0.09879031777381897,0.16042235493659973
1761915544209763800,9.974763916015625,0.006573483347892761,-0.14753097295761108,0.17343562841415405
1761915544219817700,9.984817626953125,0.0006149515393190086,-0.170164555311203,0.1833856701850891
1761915544229871900,9.994871826171876,0.0013278797268867493,-0.17108334600925446,0.18460460007190704
1761915544239925500,10.004925537109376,0.013019289821386337,-0.15101616084575653,0.16323497891426086
1761915544249980700,10.014980712890624,0.0352441668510437,-0.0848454087972641,0.12358904629945755
1761915544260034800,10.025034912109374,0.05053526535630226,0.00400834484025836,0.09161032736301422
1761915544270088700,10.035088623046875,0.05003192648291588,0.05300305038690567,0.08381178975105286
1761915544280142800,10.045142822265625,0.05342082306742668,0.07348865270614624,0.08842412382364273
1761915544290196700,10.05519677734375,0.04607396200299263,0.0743160992860794,0.09638138115406036
1761915544300251600,10.065251708984375,0.03766186907887459,0.04866967722773552,0.08628874272108078
1761915544310305500,10.075305419921875,0.017495084553956985,0.017353562638163567,0.05650901049375534
1761915544320359700,10.085359619140625,-0.003766953246667981,-0.02847416140139103,0.028368346393108368
1761915544330413600,10.09541357421875,-0.01800740882754326,-0.09751980751752853,0.015127643011510372
1761915544340467700,10.1054677734375,-0.014636524021625519,-0.15616583824157715,0.00837881863117218
1761915544350523000,10.11552294921875,0.00382184493355453,-0.1745099574327469,0.007050700485706329
1761915544360576500,10.125576416015624,0.03669217601418495,-0.15940211713314056,0.002423725090920925
1761915544370630700,10.135630615234374,0.05243891477584839,-0.13002903759479523,-0.0034370943903923035
1761915544380684500,10.1456845703125,0.04575198516249657,-0.10506031662225723,-0.008057678118348122
1761915544390738700,10.15573876953125,0.019376037642359734,-0.09242282062768936,-0.017044249922037125
1761915544400793900,10.1657939453125,-0.020041119307279587,-0.0952393114566803,-0.034374020993709564
1761915544410847700,10.17584765625,-0.056979961693286896,-0.14166328310966492,-0.04222848266363144
1761915544420902000,10.18590185546875,-0.04990755021572113,-0.19199997186660767,-0.008123120293021202
1761915544430955800,10.195955810546875,0.022020967677235603,-0.09356154501438141,0.057454291731119156
1761915544441009700,10.206009765625,0.08258157968521118,0.06893187016248703,0.11601772159337997
1761915544451064600,10.216064697265624,0.10180560499429703,0.24210259318351746,0.17039281129837036
1761915544461118700,10.22611865234375,0.09471335262060165,0.33626267313957214,0.2076282799243927
1761915544471172600,10.236172607421874,0.08369745314121246,0.34710225462913513,0.20167291164398193
1761915544481226800,10.246226806640625,0.08286641538143158,0.2861552834510803,0.14617545902729034
1761915544491281000,10.256281005859375,0.10700450837612152,0.19283601641654968,0.06233036145567894
1761915544501335600,10.26633544921875,0.10859338939189911,0.0995684489607811,-0.004344587214291096
