time,seconds_elapsed,z,y,x
1761915186986436400,0.132436279296875,-8.190873091474176,-3.924845878058672,-1.000423681115359
1761915186996490500,0.142490478515625,-7.686288661855459,-3.684008246460557,-1.1796109122253953
1761915187006544400,0.15254443359375,-7.0727487674772735,-3.990286610740423,-1.023895595987141
1761915187016598500,0.1625986328125,-6.760066381374001,-4.471194981217384,-0.8454055533610284
1761915187026653400,0.1726533203125,-6.948985609686375,-4.620548507338762,-0.6430880604237318
1761915187036707300,0.182707275390625,-6.98959468345046,-4.726959548312426,-0.42987931724637746
1761915187046761500,0.192761474609375,-6.887189955508709,-5.150720382678508,-0.24267975233346223
1761915187056815400,0.2028154296875,-6.343820160421728,-5.52513587911725,0.010753449204564093
1761915187066869500,0.212869384765625,-5.294911411470174,-5.338192919313907,0.36475568768978117
1761915187076923400,0.22292333984375,-3.427175757873058,-4.631589541313052,0.623833324855566
1761915187086978600,0.232978515625,-0.819871445262432,-3.8106530971676107,1.0485460531190036
1761915187097032400,0.243032470703125,-0.8019862444818019,-3.0239123526126144,1.5469950487226247
1761915187107086300,0.25308642578125,-0.48846565398871894,-2.1308447382360693,1.3036638467431068
1761915187117140500,0.263140380859375,0.6377233185201883,-0.5857096381664276,0.5698024594604969
1761915187127194400,0.2731943359375,1.275147361832857,1.310601537051797,-0.34928368553072214
1761915187137249500,0.28324951171875,1.0162187777489424,2.6932389672666788,-1.24096539850682
1761915187147303400,0.293303466796875,0.9367214626640081,3.451456212648749,-1.7270462031856177
1761915187157357600,0.303357666015625,0.9047054452002048,4.069217524114251,-1.8507585075721145
1761915187167411200,0.3134111328125,1.3328846805304289,4.592440603229403,-2.0318635550022126
1761915187177465300,0.32346533203125,2.0688801572322846,5.354513939517736,-2.3452239864975213
1761915187187520500,0.3335205078125,2.7433693180918692,6.083353114724159,-2.4058479665473103
1761915187197574400,0.343574462890625,3.3517630817532535,6.390631595957279,-2.2160512247480453
1761915187207628500,0.353628662109375,3.8650299995213744,6.434803330639005,-1.8871987712189553
1761915187217682400,0.363682373046875,4.102959050196409,6.496662113180756,-1.5806323837779461
1761915187227736600,0.373736572265625,4.4878333968073125,6.591202683618665,-1.354599522601813
1761915187237790500,0.38379052734375,4.807161796796321,6.605801117813587,-1.1948892915084957
1761915187247845400,0.393845458984375,5.034760007593035,6.542523700645566,-1.099618945491314
1761915187257899500,0.4038994140625,5.1968777382194995,6.2745022940456865,-1.0399266933336853
1761915187267953400,0.413953369140625,5.302777907061577,5.9446571762174365,-0.9971076884351671
1761915187278007600,0.424007568359375,5.482790775340796,5.6688511070907115,-0.9285667977809905
1761915187288061400,0.4340615234375,5.671562119615078,5.311240614980459,-0.7403348210804164
1761915187298116400,0.444116455078125,5.75108047748804,4.932386259311437,-0.5503391957081853
1761915187308170200,0.454170166015625,5.469381258669495,4.7946027594745155,-0.4292513946063816
1761915187318224400,0.464224365234375,4.810289573428035,4.811726328232884,-0.36368279776126144
1761915187328278500,0.474278564453125,3.8319945758819576,4.860046414765716,-0.4865808631554246
1761915187338332400,0.48433251953125,2.8593232634365555,4.951918058255314,-0.7589204252153634
1761915187348386600,0.494386474609375,2.5702941401213404,4.755519287842512,-0.9887731369405984
1761915187358441500,0.50444140625,2.484080084002018,4.033414973849058,-0.9210027922675013
1761915187368495400,0.514495361328125,2.440966333940625,2.7733091138035055,-0.5222039652004837
1761915187378549200,0.52454931640625,2.2717495849639175,1.3683926317632198,0.06730798785835504
1761915187388603400,0.534603271484375,1.3355471777379513,0.43720483782887454,0.8151081763833761
1761915187398657300,0.5446572265625,-0.7022983742833138,-0.1750917784899473,1.571935136450827
1761915187408712400,0.55471240234375,-3.0207904211997985,-1.0474930369347333,1.9767004707068203
1761915187418766600,0.5647666015625,-4.264899086168408,-2.546402392402291,2.015901431238651
1761915187428820500,0.574820556640625,-4.637274016690254,-4.58580627978146,1.7726053005725144
1761915187438874400,0.584874267578125,-5.102867329135536,-6.443808474871516,1.5514438448250292
1761915187448928300,0.59492822265625,-6.234748960328102,-7.001703638917207,1.2409957936450837
1761915187458983400,0.6049833984375,-7.77190942825675,-6.3897892999142405,0.9476894314020872
1761915187469037600,0.61503759765625,-9.093957072952389,-5.855116606023907,1.0169535217642784
1761915187479091500,0.625091552734375,-9.264221869677305,-6.1847892898947,1.3156807400122283
1761915187489145600,0.6351455078125,-9.087599228358268,-7.918602795258164,2.1793650235161186
1761915187499199500,0.645199462890625,-10.299375064998864,-9.924571446025372,3.644568216475844
1761915187509253400,0.65525341796875,-11.575396871578693,-10.263914460039139,4.754520339933038
1761915187519308300,0.665308349609375,-11.240098749041557,-9.428539740696548,5.202057186684012
1761915187529362400,0.675362548828125,-10.096129789692164,-8.80581291577816,5.319219338774681
1761915187539416600,0.68541650390625,-9.132009447970987,-8.172160792219639,5.2583039745628835
1761915187549470500,0.695470458984375,-7.68501908031106,-7.132201657921075,4.589291783809662
1761915187559524600,0.705524658203125,-5.945426407024264,-5.928721355938911,3.498281676709652
1761915187569579300,0.715579345703125,-3.9794717867374416,-4.504757059079409,2.3476959295690056
1761915187579633400,0.72563330078125,-2.227093281635642,-2.9260552049726245,1.3276470721378921
1761915187589687300,0.735687255859375,-0.8228980996072291,-1.214245441624522,0.4442734610408544
1761915187599741400,0.745741455078125,0.23386253188848494,0.6238730723440646,-0.45699499544799327
1761915187609795300,0.75579541015625,0.42302316774129867,2.4207892228305337,-1.2710833272643387
1761915187619849200,0.76584912109375,0.5955488951355219,3.5466619689971206,-1.9052086212925612
1761915187629904400,0.775904296875,1.327470254266262,4.111637446692586,-2.1168967307738957
1761915187639958000,0.7859580078125,2.0632067877709863,4.749339137902855,-2.0290902908965944
1761915187650012200,0.79601220703125,2.8650562541306015,5.47647793893218,-1.9229390699028968
1761915187660066000,0.806066162109375,3.349011152696609,6.2763908842712635,-1.752561898844689
1761915187670120200,0.8161201171875,3.627736908662319,6.851085791948437,-1.5188880213961005
1761915187680175400,0.82617529296875,3.674432608863711,7.110141217282414,-1.4129143489263951
1761915187690229200,0.836229248046875,4.170454377320408,7.262770988595485,-1.4606313549995422
1761915187700283400,0.846283447265625,4.692082880720496,7.358500476557016,-1.4053675868086517
1761915187710337300,0.856337158203125,4.44854241990447,7.240600073319673,-1.0772517769910395
1761915187720391200,0.86639111328125,4.323110452118516,6.969214743244647,-0.7195001228444278
1761915187730445000,0.876445068359375,4.4234693534463645,6.692023357239365,-0.3837577636711299
1761915187740500200,0.886500244140625,4.542548152813315,6.367753409194946,0.09804843242838979
1761915187750554400,0.896554443359375,4.913498603489995,5.878446628206968,0.5521607120469212
1761915187760608300,0.906608154296875,5.34037084787488,5.407041414612531,0.7422397779189049
1761915187770662400,0.916662353515625,5.5618222264796495,5.051399592226743,0.7955791539184749
1761915187780716300,0.92671630859375,5.17050586412251,4.966743286943435,0.7654933738648891
1761915187790771200,0.936771240234375,4.731623448470234,4.866663202556968,0.4762142213113606
1761915187800825000,0.9468251953125,4.078908312523365,4.947983641415834,0.23243659073859452
1761915187810879200,0.956879150390625,3.590761222964525,4.973663441595435,-0.008952537262439728
1761915187820933400,0.966933349609375,3.6368449287474154,4.69873415530324,-0.16533040906265378
1761915187830987300,0.9769873046875,3.511981700760126,4.033198700749874,-0.02977905219197273
1761915187841042200,0.987042236328125,2.861789945811033,2.795322792690992,0.7054163601733744
1761915187851096000,0.997095947265625,1.6916203772783278,1.6856681908756495,1.6530753964371978
1761915187861150200,1.007150146484375,0.3680401161879301,1.1108172158539296,1.8908061480611562
1761915187871204000,1.0172041015625,-0.1363970139145851,0.49089668052792546,1.4562328277796506
1761915187881258200,1.02725830078125,-0.08650748610794544,-0.06704290718138217,0.8606981072999537
1761915187891312000,1.03731201171875,-0.7976993609428406,-0.2838859152078628,0.17140402988791464
1761915187901367300,1.0473671875,-2.579258367821574,-0.19324644386172293,-0.08403788112401962
1761915187911421200,1.057421142578125,-4.506092691597342,-1.121336856302619,1.0056479916349053
1761915187921475000,1.06747509765625,-5.8808624571770425,-3.2234815697550774,3.301518749159574
1761915187931529200,1.077529296875,-6.971138989305496,-4.7147412872523065,5.254979214054345
1761915187941583000,1.0875830078125,-7.5147712347209445,-5.1258945689797395,5.93931756875515
1761915187951638300,1.09763818359375,-6.714846598944067,-6.002963234713674,5.669832519343495
1761915187961692400,1.1076923828125,-5.600510561314225,-7.526870837837457,5.082679696631431
1761915187971746300,1.117746337890625,-4.664694523057341,-8.76077199704647,4.890331662914156
1761915187981800200,1.12780029296875,-4.430548498052358,-9.190676740995048,4.947802439630031
1761915187991854000,1.13785400390625,-4.736977668979764,-8.533170863640308,4.588170670825242
1761915188001908200,1.147908203125,-5.053389889261126,-6.977747593790292,3.6602667208671567
1761915188011963100,1.157963134765625,-4.928198159971833,-5.192575072589516,2.4304075305253265
1761915188022017300,1.168017333984375,-4.068449462351203,-3.9177871917188165,1.6877074416182933
1761915188032071200,1.1780712890625,-3.157480865103006,-2.8841303724348544,1.2569313216626643
1761915188042125300,1.188125244140625,-1.959373488330841,-1.6552309670358896,0.8335969690803438
1761915188052179500,1.198179443359375,-0.20245383266806602,-1.0520715968966483,0.6183697987526655
1761915188062233000,1.208233154296875,1.1951204699158668,-0.6803899093359709,0.469103074131906
1761915188072288300,1.218288330078125,2.1019196725249287,0.07450257553756237,0.3085913904625922
1761915188082342100,1.228342041015625,2.5710855827599763,0.9623556701362133,0.029950107043096794
1761915188092396300,1.238396240234375,2.4700877990067003,2.1170582049459217,-0.5873831974018365
1761915188102450200,1.2484501953125,2.2273738521426916,3.145010675108433,-1.1056846022058278
1761915188112504300,1.25850439453125,2.1780910580575465,3.6158126621127127,-1.2095897247731684
1761915188122559200,1.268559326171875,2.443646951326728,3.6386335657298563,-0.864948896612227
1761915188132613000,1.278613037109375,3.1646926961779593,3.467088666066527,-0.2574966150520369
1761915188142667300,1.288667236328125,3.8164369412660597,3.02638195759654,0.5238576506916434
1761915188152721200,1.29872119140625,4.2470057020813226,2.6530443195223805,1.1679890096232295
1761915188162775300,1.308775390625,4.428223269975185,2.7490964635670183,1.4579324713043869
1761915188172830500,1.31883056640625,4.5165234847188,3.0103871006071565,1.5136904527530073
1761915188182884000,1.328884033203125,4.626083929634094,3.21153978754878,1.4168255310207605
1761915188192938200,1.338938232421875,4.702839837056398,3.3151182354450226,1.2472370261222123
1761915188202992000,1.3489921875,4.695351527127623,3.3730455237567423,1.0928261435460298
1761915188213046300,1.35904638671875,4.5779982363790275,3.3864649773001667,0.9078464466396718
1761915188223100200,1.36910009765625,4.672352928856015,3.537317802068591,0.6692935649778694
1761915188233155300,1.3791552734375,4.79520949319601,3.9467859071880578,0.3680091730603948
1761915188243209200,1.389209228515625,5.029893278339505,4.379297034242749,0.036683662214968354
1761915188253263400,1.399263427734375,5.393216302877664,4.718732987236977,-0.19088280173661187
1761915188263317000,1.40931689453125,5.52047373252511,4.926679572102427,-0.24775135650932786
1761915188273371100,1.41937109375,5.311514755746722,4.94886743851304,-0.22806886051576583
1761915188283426300,1.42942626953125,4.814290041241049,4.805613982832432,-0.2517066517400555
1761915188293480200,1.439480224609375,4.167247690233588,4.4576060163259505,-0.4377233087450266
1761915188303534300,1.449534423828125,3.7890409848183393,3.9539123980671165,-0.5553191030126065
1761915188313588200,1.459588134765625,3.816587747913599,3.13479498604238,-0.3960058718802407
1761915188323642400,1.469642333984375,4.284733667451143,1.3239596157968043,0.22701248333062976
1761915188333696000,1.479696044921875,3.9348710129886864,-1.0054384405374526,1.0161433013599366
1761915188343751200,1.489751220703125,1.9522645331084727,-2.341545005723834,1.3645301111161707
1761915188353805300,1.499805419921875,-1.5162918674230574,-2.485681673979759,0.9903113793585449
1761915188363859200,1.509859130859375,-3.8778070635080337,-3.429919503623247,0.39352706067655235
1761915188373913300,1.519913330078125,-5.5178615042001,-5.4564247464627025,-0.14641546337548642
1761915188383967200,1.52996728515625,-6.822975549751519,-6.9677727277427906,-1.070608539584279
1761915188394022100,1.540022216796875,-7.815660891699791,-7.3465721383541815,-1.7406804685235022
1761915188404076300,1.550076171875,-8.758584716135262,-7.823223435908556,-1.7090081499308347
1761915188414130200,1.560130126953125,-10.155768558096884,-8.259618126398324,-1.1609398217640816
1761915188424184300,1.570184326171875,-11.686420959305762,-8.795389721441268,0.03489785651043057
1761915188434238200,1.58023828125,-12.40029403604865,-9.706377607911824,1.2096933312781155
1761915188444292400,1.590292236328125,-11.933864272779225,-10.01698318774104,2.0063729937843977
1761915188454347000,1.600346923828125,-10.667185464084147,-10.020065956187247,2.80599499335289
1761915188464401200,1.610401123046875,-9.556891979843378,-9.53599824489653,3.4283217130377888
1761915188474455000,1.620455078125,-9.126770962795614,-8.167375311508774,3.767539347106218
1761915188484509200,1.63050927734375,-8.305404895061255,-7.034487133622169,3.953603770509362
1761915188494563300,1.640563232421875,-7.080139462250471,-6.048645958480239,3.832662976662814
1761915188504618200,1.6506181640625,-4.9102539224803445,-5.160425784134865,3.594588964559138
1761915188514672400,1.66067236328125,-2.6355484103202818,-3.7249043204724788,3.08292012963742
1761915188524726300,1.670726318359375,-0.9054699998319149,-1.8239730842381714,2.387948591110855
1761915188534780200,1.6807802734375,0.45120530613064763,0.17029285377562045,1.579365578712523
1761915188544834000,1.690833984375,1.7666712343484163,2.0045412483125924,0.8757219273000955
1761915188554888200,1.70088818359375,2.9342291590780016,3.60418009198606,0.33839605201985684
1761915188564943400,1.710943359375,2.984207534211874,4.616230059617758,0.6858553351350128
1761915188574997200,1.720997314453125,2.271258002054691,5.812360583359003,0.6603727380279452
1761915188585051400,1.731051513671875,2.440455461809039,6.968027579286694,0.2359955253291875
1761915188595105300,1.741105224609375,3.0040631582826376,7.253563015267252,0.048735535465925926
1761915188605159200,1.7511591796875,4.004229795897007,7.132158403301238,0.36518384997397657
1761915188615216400,1.76121630859375,5.12179122531414,7.061197445893288,0.9091130325093865
1761915188625270300,1.771270263671875,5.786327731958031,7.144356206095218,1.219798180380836
1761915188635324400,1.781324462890625,6.036694239401817,7.012474039256572,1.3219475453220306
1761915188645378300,1.79137841796875,6.263941737064719,6.750913353103399,1.2545172462582588
1761915188655432400,1.801432373046875,6.565972965294122,6.4192895351648325,1.1527271430835127
1761915188665486300,1.811486328125,6.677787326616048,5.848075455340743,1.0494387641750276
1761915188675541500,1.82154150390625,6.477791408494115,5.339457824683189,0.8231238711871206
1761915188685595400,1.831595458984375,5.922072419443726,4.772518937960267,0.6117789491202682
1761915188695649300,1.841649169921875,5.39001663005352,4.306576665946841,0.46509745521973817
1761915188705703400,1.851703369140625,5.200986927103996,4.192445259854197,0.1861922510338947
1761915188715757300,1.86175732421875,5.23943677700758,4.201701748499274,-0.04996383515186607
1761915188725812500,1.8718125,5.313014638915658,4.2379415211379525,-0.314451478135027
1761915188735866600,1.88186669921875,5.365671293348074,4.396715202033519,-0.6196710906095803
1761915188745920500,1.89192041015625,5.370911532089114,4.533598538160324,-0.8304031414750963
1761915188755974700,1.901974609375,5.227735233297944,4.507527692836523,-0.9864897021785378
1761915188766028300,1.9120283203125,5.071033682501316,4.432862035691738,-1.0747308071460575
1761915188776082400,1.92208251953125,4.646294358491898,4.442248872718214,-1.2321933323778211
1761915188786137300,1.932137451171875,4.166993423211574,4.42584601944983,-1.4007020792156457
1761915188796191500,1.94219140625,3.371018401843309,4.112425382199883,-1.435698281534016
1761915188806245400,1.952245361328125,3.0143185948371887,2.623393862146139,-1.0714658140007405
1761915188816299500,1.962299560546875,3.060675856864452,0.5224275448232889,-0.6555478751547634
1761915188826353700,1.972353759765625,1.684180582666397,-1.0461994899928568,-0.8804322238828987
1761915188836408300,1.982408203125,-0.76868077172935,-1.5914239730358122,-1.5621153148345648
1761915188846462500,1.99246240234375,-3.227390852153301,-2.4875983212560415,-2.057304577989876
1761915188856516400,2.002516357421875,-6.014947102496028,-4.027542282423377,-1.6696429387480018
1761915188866570500,2.012570556640625,-8.456313833931087,-5.419644291076064,-0.8442346098855137
1761915188876624400,2.022624267578125,-9.036699062204361,-6.516810582718253,-0.1122322214078158
1761915188886678500,2.032678466796875,-8.728312327468394,-7.650884170997142,0.7805117139723151
1761915188896733400,2.0427333984375,-8.467370649996399,-8.609961257854103,1.4844694728352128
1761915188906787300,2.052787353515625,-8.422941141161322,-8.76759804367423,1.196870382323116
1761915188916841500,2.062841552734375,-8.23228588283658,-8.902592205053567,0.5629470406077802
1761915188926895400,2.072895263671875,-7.9350804673284285,-9.700077046462892,0.4503364143416285
1761915188936949500,2.082949462890625,-7.258764675563573,-10.601305170941352,0.7072711942598223
1761915188947003400,2.09300341796875,-6.067841657337546,-11.092502295720577,1.1156085417836903
1761915188957058300,2.103058349609375,-4.93409715488255,-11.084762056857347,1.4176229650087653
1761915188967112400,2.113112548828125,-4.126832093214989,-10.533549731576443,1.5097915456183253
1761915188977166300,2.123166259765625,-3.6114971370011566,-10.003867685580254,1.544060748836398
1761915188987220500,2.133220458984375,-3.088559889090061,-9.427168452343345,1.4691279651880262
1761915188997274400,2.1432744140625,-2.159066624113917,-8.221834631448983,1.0543163070835173
1761915189007329500,2.15332958984375,-1.156145134833455,-6.41008039279282,0.27349764605388044
1761915189017383400,2.163383544921875,-0.6002905367046594,-4.627781965723633,-0.7808312282502651
1761915189027437600,2.1734375,-0.9688497083306312,-3.165920192146301,-1.6102056842647492
1761915189037491200,2.1834912109375,-0.9702326871216297,-1.7195482486456632,-1.8797398335151374
1761915189047545300,2.19354541015625,0.019935119047760963,-0.0776075558155775,-2.085757642275095
1761915189057599500,2.203599609375,1.1621458365529775,1.5123749862402676,-2.4973703582078217
1761915189067654400,2.213654296875,2.462774261122942,2.9876842704117297,-2.9281916324794293
1761915189077708500,2.22370849609375,3.886551510977745,4.383799021837115,-3.282022021529078
1761915189087762400,2.233762451171875,4.939762925559282,5.391762012416124,-3.4255724143296478
1761915189097816600,2.243816650390625,5.490044107469916,5.88269376425743,-3.217901723796129
1761915189107870500,2.253870361328125,5.934865265521407,5.775264486151934,-2.7046064567163586
1761915189117925400,2.26392529296875,6.201930394309759,5.64270602748692,-2.196583869342506
1761915189127979500,2.2739794921875,6.317873818260431,5.760493617999553,-1.9060273903295397
1761915189138033400,2.284033447265625,6.498709693360328,5.7112868117600675,-1.752799945384264
1761915189148087600,2.294087646484375,6.551072333282232,5.288679823604226,-1.684313269135356
1761915189158141400,2.304141357421875,6.348444897612929,4.917250649499893,-1.7249968694403766
1761915189168195600,2.314195556640625,5.98793809953928,4.8069028535991905,-1.823867578037083
1761915189178250500,2.32425048828125,5.584859403195977,4.957598441979289,-1.8612042060017584
1761915189188304400,2.334304443359375,5.1741573723673815,5.136454541438818,-1.8748355487301944
1761915189198358500,2.344358642578125,4.830721536082029,5.4553334440946575,-1.637244351707399
1761915189208412400,2.354412353515625,4.920658412116766,5.681339417263865,-1.1694079365104437
1761915189218466600,2.364466552734375,5.077610722804069,6.0256076127201315,-0.883777807983756
1761915189228521500,2.374521484375,5.141142991515994,6.415532812979817,-0.6914668914064764
1761915189238575400,2.384575439453125,5.161605933830142,6.393030473792552,-0.5425508799195289
1761915189248629200,2.394629150390625,5.206158776783943,6.1619596184492105,-0.4344327427670359
1761915189258683400,2.404683349609375,4.894321024811267,6.041618836322426,-0.5187418420478701
1761915189268737300,2.4147373046875,4.265304159837961,5.695830299431085,-0.6594347995907068
1761915189278791400,2.42479150390625,3.4128216538280247,5.111230083811283,-0.8674583952151238
1761915189288846600,2.4348466796875,2.6686136445760726,3.9015310534447427,-0.8208278692044317
1761915189298900500,2.444900390625,2.384580429852009,2.0691765098303554,-0.3135489398047328
1761915189308954400,2.454954345703125,2.1232021145284175,-0.07788929536640643,0.7090314819306135
1761915189319008300,2.46500830078125,1.259542965465784,-2.308829315558076,2.057454946245998
1761915189329062400,2.4750625,-1.0766729541897773,-4.119837119761109,3.066429890346527
1761915189339117600,2.48511767578125,-5.098135624438524,-4.982916423109174,2.9551176333278417
1761915189349171500,2.49517138671875,-8.436194590488075,-5.314360208305716,1.9919108993202446
1761915189359225600,2.5052255859375,-8.847685141345858,-7.346658647593856,2.166822206676751
1761915189369279500,2.515279541015625,-8.653471898278594,-9.386385191056132,3.452234211283922
1761915189379333400,2.52533349609375,-8.005950239321589,-9.755038470706342,4.928761639073491
1761915189389387300,2.53538720703125,-6.824243962252139,-10.021279423630236,5.713307503932714
1761915189399442400,2.5454423828125,-7.257813658449053,-9.83964041545391,5.552026224130392
1761915189409496600,2.55549658203125,-8.53760738478303,-9.173815622565149,5.243679236882925
1761915189419550500,2.565550537109375,-9.501643555352091,-8.78395413519144,4.738881164513528
1761915189429604600,2.5756044921875,-8.492735977399349,-8.65823458263576,4.315864718773961
1761915189439658500,2.585658447265625,-6.6441393240362405,-7.922803754079341,3.9580958212316033
1761915189449712600,2.595712646484375,-5.345639728188514,-6.585265694785118,3.57795844001472
1761915189459767300,2.605767333984375,-4.216296091040968,-5.677744023120403,3.202715260580182
1761915189469821400,2.615821533203125,-2.9497558140337468,-4.959500476208329,2.7898446535408494
1761915189479875300,2.625875244140625,-1.7033534851700067,-3.9932057130575176,2.348936723410338
1761915189489929500,2.635929443359375,-0.5877805992215871,-2.9318150836735963,1.9407313317030668
1761915189499983600,2.645983642578125,0.4330295979708433,-1.8805793530791997,1.7449363724023104
1761915189510038300,2.656038330078125,1.3972247584939002,-0.9181605545789003,1.555977250470966
1761915189520092400,2.666092529296875,2.2533190252602098,-0.09879238266348839,1.1998061435140668
1761915189530146300,2.676146240234375,3.103879038774967,0.630526685014367,0.8025618524126708
1761915189540200400,2.686200439453125,3.909218100816011,1.2072913847029207,0.43902138573154803
1761915189550254300,2.69625439453125,4.382368112251163,1.9842869803130625,-0.07062222697287797
1761915189560308500,2.70630859375,4.436496592801809,3.1457641238242386,-0.7797994009844958
1761915189570363600,2.71636376953125,4.4689153458476065,4.425875830066204,-1.7201364237971604
1761915189580417300,2.726417236328125,4.6884950853616,5.508790893515944,-2.624949274894595
1761915189590471400,2.736471435546875,5.144465998458862,6.028336745423078,-3.1263837160497903
1761915189600525300,2.746525390625,5.516103846877813,6.22421587587595,-3.180312290114164
1761915189610579500,2.756579345703125,5.606233615136146,6.21806144489944,-3.00310688047111
1761915189620632000,2.766632080078125,5.746214917278289,6.326859673270583,-2.741899830061197
1761915189630686000,2.77668603515625,5.821368065679073,6.5981140704423185,-2.537215461862087
1761915189640740000,2.786739990234375,5.943597438031435,6.593851152300834,-2.2790604924991724
1761915189650794000,2.7967939453125,6.17175269818902,6.262452375289797,-1.8765043587252497
1761915189660848000,2.80684814453125,6.436019136169552,5.907916468319296,-1.5066783820338547
1761915189670902000,2.816902099609375,6.60678311458826,5.84019259313643,-1.3098835980407892
1761915189680957200,2.826957275390625,6.575406564071774,5.832621865621209,-1.2340937591716648
1761915189691011000,2.837010986328125,6.201628781014681,5.533625475043058,-1.0478216843672097
1761915189701065000,2.84706494140625,5.681984729430079,5.035990426170826,-0.858167565909028
1761915189711119000,2.857119140625,5.234104768329859,4.631632211410999,-0.907117328647524
1761915189721173000,2.867173095703125,4.610079135772586,4.519992622134089,-1.3501833135947585
1761915189731228200,2.877228271484375,3.774132169499993,4.458699072259664,-1.9452201675549148
1761915189741282000,2.887281982421875,2.515610948297381,4.245673576694727,-2.3459730512991546
1761915189751336200,2.897336181640625,0.9761305129885673,3.479183593007922,-2.441574236705899
1761915189761390000,2.90739013671875,-0.5428390492111445,2.3688322411000726,-2.053022955147922
1761915189771444000,2.91744384765625,-1.3590975646734238,0.8109183234781027,-1.686309265258163
1761915189781497900,2.927497802734375,-1.0423206027328968,-1.2217097861558197,-1.6441043006047606
1761915189791553000,2.937552978515625,-0.8535171097546815,-3.1669097877055403,-1.784321018937975
1761915189801607200,2.947607177734375,-2.090077259039879,-4.974373635691404,-2.058098504846543
1761915189811661000,2.9576611328125,-5.277468693760037,-5.770816859093308,-2.2038617513909933
1761915189821715200,2.967715087890625,-8.72826439667344,-6.30082915995717,-2.0453084352478386
1761915189831769000,2.97776904296875,-11.740680957281588,-7.642415033337474,-1.3235386139057577
1761915189841824000,2.987823974609375,-13.380600373417138,-8.163231051310897,-0.5338140312343835
1761915189851878100,2.997878173828125,-11.32914715180397,-8.015583744585514,0.15843480433002113
1761915189861932000,3.00793212890625,-8.600748023828864,-8.396324936914443,0.5462538260906934
1761915189871986200,3.017986083984375,-8.507716688910126,-9.762733701384066,0.856519944832474
1761915189882040000,3.0280400390625,-9.062308135235309,-10.951270116734504,1.2759331053830683
1761915189892094200,3.03809423828125,-8.9504248003304,-11.372347995626926,1.5253187850959598
1761915189902148900,3.04814892578125,-8.585058287265896,-11.600309194517134,2.11414713980481
1761915189912203000,3.058203125,-7.70693222143352,-11.40943474048376,2.5188626435697077
1761915189922257000,3.0682568359375,-5.950969428104162,-10.360440066814421,2.254098192939162
1761915189932311000,3.07831103515625,-4.424370686200261,-8.726942792680859,1.4026264714069663
1761915189942365200,3.088365234375,-3.0911265247076747,-6.441141301488876,0.30936449372693897
1761915189952419000,3.098419189453125,-1.472660815489292,-3.5814854450970888,-0.7600770479045807
1761915189962474000,3.108473876953125,0.16613164244294165,-0.8877963959753513,-1.536152021538466
1761915189972527900,3.11852783203125,0.6015513504207134,0.7954395993173122,-1.8009677639648318
1761915189982582000,3.12858203125,0.4854617959976196,1.784316196632385,-1.7740394250288605
1761915189992636000,3.138635986328125,0.7610311337590218,2.7569945233404636,-1.7289339166283606
1761915190002690000,3.14868994140625,1.2570511486500502,3.624987902215123,-1.6669184822201728
1761915190012745200,3.1587451171875,1.900177787518501,4.621479066187143,-1.599133378369361
1761915190022799000,3.168799072265625,2.3476573511242864,5.461058836004137,-1.5028997402779758
1761915190032853200,3.178853271484375,2.932296145188808,5.946393206229805,-1.217186755773425
1761915190042907000,3.188906982421875,3.8778222610771653,6.459397089147568,-1.1035885067094118
1761915190052961000,3.1989609375,5.112649302959442,6.656997052043676,-1.0891895406093448
1761915190063015000,3.209014892578125,6.314819106864928,6.547813039225339,-1.0004334718570114
1761915190073070000,3.219070068359375,7.228463060802221,6.523158490440249,-0.8709975291267037
1761915190083124200,3.229124267578125,7.742859274861216,6.681839816877246,-0.8621785551160573
1761915190093178000,3.23917822265625,7.868613898730278,6.747039726540446,-0.7590615872517228
1761915190103232300,3.249232177734375,7.580699458658695,6.62209583453238,-0.5940380521811545
1761915190113286100,3.2592861328125,7.282326752936839,6.219228735113144,-0.4122951452389359
1761915190123341000,3.269341064453125,7.145987022167444,5.828734795054793,-0.3687617084607482
1761915190133395000,3.27939501953125,7.164969955056906,5.638668734794855,-0.46682636137157674
1761915190143449000,3.289448974609375,7.222553544497489,5.486648619812726,-0.5713450127273798
1761915190153503000,3.2995029296875,7.160360415434837,5.112423677510023,-0.652298956361413
1761915190163557000,3.30955712890625,7.137202242687344,4.693838199955224,-0.757184979724884
1761915190173611300,3.319611328125,6.979637353059649,4.364991445514559,-1.0095775861687957
1761915190183666000,3.329666015625,6.632267684456705,3.97195951141119,-1.408258485944569
1761915190193720000,3.339719970703125,5.971299099427461,3.993484529998898,-2.0367121640771626
1761915190203774000,3.34977392578125,5.150189636802673,4.262881901127099,-2.6549112824380394
1761915190213828000,3.359828125,3.8326498249202965,4.231042409273982,-2.877353717906773
1761915190223882000,3.369882080078125,2.2353554985463617,3.7620992018789052,-2.225738652156293
1761915190233937200,3.379937255859375,0.48606560710966584,2.5355589268267154,-1.1298825663298369
1761915190243991000,3.389990966796875,-1.111390631827712,1.1495645873993634,-0.28954905553609134
1761915190254045000,3.400044921875,-2.3660312122046947,-0.023650340178608894,-0.11051701498776674
1761915190264099000,3.41009912109375,-2.7119132725983857,-1.382709910929203,-0.5420753713622689
1761915190274153000,3.420153076171875,-2.10730779530406,-2.583997086781263,-1.2311162046656012
1761915190284207000,3.43020703125,-2.305563591760397,-3.217840348997712,-1.4036413475379348
1761915190294262300,3.44026220703125,-4.594942941439151,-3.2414702309101817,-1.067087379720807
1761915190304316200,3.450316162109375,-7.104421086069941,-3.1157810734927653,-0.4716483747005462
1761915190314370000,3.4603701171875,-8.243176110163331,-4.154867516610026,1.0430094617798924
1761915190324424000,3.470423828125,-8.267207558614015,-6.210635094290971,3.4646263676062223
1761915190334478000,3.48047802734375,-8.816047309544683,-7.416798936268687,5.167997096171975
1761915190344532000,3.490531982421875,-10.8316956428051,-7.766229044532776,5.446500149297714
1761915190354587100,3.500587158203125,-11.755863328844308,-8.550729316684603,4.4378126438364385
1761915190364641000,3.51064111328125,-10.86638350982666,-9.13916341137886,3.533241054148972
1761915190374695200,3.520695068359375,-9.460659803056716,-9.619299628439546,3.758660751862824
1761915190384749000,3.5307490234375,-8.19744896273315,-9.964330624961853,4.283170948179066
1761915190394803000,3.540802978515625,-7.641707177329063,-9.610305005601047,4.3418975701749325
1761915190404858000,3.550858154296875,-7.565103830119967,-8.561080030307172,3.9044796741172667
1761915190414912000,3.560912109375,-6.7825581991672514,-7.411657481727004,3.3373639695227144
1761915190424966100,3.570966064453125,-5.286376222836971,-5.866641624122858,2.6630744228884575
1761915190435020000,3.58102001953125,-3.3518811551749703,-4.351107297068834,2.2513187913537025
1761915190445074200,3.59107421875,-1.1650865661799907,-3.053007514193654,2.028226221413165
1761915190455128000,3.601128173828125,0.676989745503664,-1.6579671140015124,1.688126689943671
1761915190465183000,3.611182861328125,1.7637480403780936,-0.18470716357529163,0.7598914622046054
1761915190475237000,3.621237060546875,2.51773919249773,1.3356325179338455,-1.07396851753667
1761915190485291000,3.631291015625,3.1177813073992726,2.812361605775356,-2.5467750251069665
1761915190495345200,3.64134521484375,3.7156490008711813,3.750035254597664,-3.3751275907278058
1761915190505399000,3.65139892578125,4.039460099232197,4.354744192266464,-3.772151809337735
1761915190515454000,3.661453857421875,4.367160606247187,4.691970652517676,-3.553648174622655
1761915190525508000,3.671508056640625,4.742186343538761,4.733220946794748,-2.9285452682226896
1761915190535562000,3.68156201171875,4.954567695981264,4.620685285460949,-1.9993021786153315
1761915190545616100,3.6916162109375,4.6990679173022505,4.337625299683213,-0.7593567708060145
1761915190555670000,3.701669921875,4.964371881636977,3.823715407836437,-0.2933089925915003
1761915190565724200,3.71172412109375,5.606739226570725,3.678507895478606,-0.31567250782996414
1761915190575779000,3.721779052734375,5.839600472462177,3.787297356021404,-0.5288999557077885
1761915190585833000,3.7318330078125,6.026496670514345,3.8812539890915154,-0.8837401063218713
1761915190595886800,3.741886962890625,6.125395436161756,4.057802980652451,-1.1888041263759135
1761915190605941000,3.75194091796875,6.060490125530958,4.2148084828317165,-1.4711302449211476
1761915190615996200,3.76199609375,5.954786356043815,4.219359570264816,-1.555465647687018
1761915190626051000,3.772051025390625,5.9279907035768025,4.235757747358083,-1.620413920676708
1761915190636105000,3.78210498046875,6.150978205707669,4.284820761212706,-1.6465703984573483
1761915190646159000,3.7921591796875,6.351543448150157,4.257210869753361,-1.6675976966559887
1761915190656213000,3.802212890625,6.252205706563592,4.33666025404334,-1.855041007196903
1761915190666267100,3.81226708984375,6.046043082505464,4.646927395698428,-2.2929785432145
1761915190676321000,3.822321044921875,5.848312771227955,4.90895745292902,-2.7411145249024034
1761915190686376200,3.832376220703125,5.635118933358788,4.835690556666255,-2.858833434092998
1761915190696430000,3.84243017578125,5.081829801803827,4.640777056375145,-2.7493831715539097
1761915190706484000,3.85248388671875,4.017530006974935,4.2639626821011305,-2.261407639169693
1761915190716538000,3.8625380859375,3.2336066579282283,3.5050013403534885,-1.4455691026851534
1761915190726592000,3.872592041015625,2.7799001826316116,2.466817399033904,-0.6534519257888197
1761915190736646100,3.882646240234375,2.325329199460149,1.1589970171332358,-0.012832593566179275
1761915190746701000,3.892701171875,1.7309031708747147,-0.2319552369624376,0.5204772875383497
1761915190756755200,3.902755126953125,0.9738029468238353,-1.4869704958707093,0.7626914681866764
1761915190766809000,3.91280908203125,0.21763503518700597,-2.7111919725865126,0.7457295197308063
1761915190776863000,3.922863037109375,-0.6268646553754806,-3.952207347714901,0.5680386646583676
1761915190786917000,3.932917236328125,-2.6528619486927987,-4.509349647566676,0.13234861530661582
1761915190796972000,3.942971923828125,-4.82822095143795,-4.887666243097186,0.0916898571819067
1761915190807026200,3.953026123046875,-6.49585371940732,-5.717192236411571,1.0171905453905463
1761915190817080000,3.963080078125,-7.300880062237382,-7.12749450314343,2.829272408565879
1761915190827134200,3.97313427734375,-7.788856471404433,-8.683772928518056,4.684962819582224
1761915190837188000,3.98318798828125,-9.48540261464715,-9.74659680557549,5.660719238561391
1761915190847242200,3.9932421875,-11.873185055410861,-10.077592262482643,6.244067992815375
1761915190857295000,4.003295166015625,-13.48227678708434,-10.474054755556583,6.631996466299891
1761915190867349200,4.013349365234375,-13.542373820650576,-10.137159719216823,6.3929205836772915
1761915190877403100,4.023403076171875,-12.276968100631237,-8.819747333106399,5.024733703619241
1761915190887458000,4.0334580078125,-10.706130988550186,-7.526562794801593,3.5047324602842327
1761915190897512200,4.04351220703125,-9.198954155474901,-6.790875945657492,2.4599673870086667
1761915190907566000,4.053566162109375,-7.111122629535198,-6.479673568978905,2.092598301950097
1761915190917620200,4.0636201171875,-4.564816683244705,-5.926034308812022,1.6523342226810753
1761915190927674000,4.073674072265625,-2.283621224543452,-4.606662605327368,0.9158062465377151
1761915190937729000,4.08372900390625,-1.5615122343748806,-2.5272224756360053,-0.11460559947565198
1761915190947783000,4.093782958984375,-1.2331629080623387,-0.8819429937720298,-1.1622276696175335
1761915190957837000,4.103837158203125,-0.5035708686619996,0.17986966041624544,-1.9148023790679871
1761915190967891200,4.11389111328125,0.30233927126526833,1.3136831364542245,-2.202661435690522
1761915190977945000,4.123945068359375,1.178003330898285,2.2855822954833505,-2.1733973472833634
1761915190987999200,4.133999267578125,1.9475258141487837,3.3688457339793443,-2.327026943288743
1761915190998054100,4.14405419921875,2.6798838111311194,4.528716026815772,-2.7259605026513336
1761915191008108000,4.15410791015625,3.6969782026708122,5.081186827725172,-2.8209792119950055
1761915191018162000,4.164161865234375,4.47038191126883,5.3135553216636175,-2.3924629997953772
1761915191028216000,4.174216064453125,4.873641224876046,5.156020242652296,-1.623505603081733
1761915191038270000,4.18427001953125,5.763468834418058,4.88312684610188,-1.1031149709135293
1761915191048325000,4.1943251953125,6.5347635880380865,4.678698498490452,-0.7258572367861866
1761915191058379300,4.204379150390625,6.813768160945177,4.129506280860305,-0.4945519881650805
1761915191068433200,4.21443310546875,7.126769111478328,3.7257758426100014,-0.5140840793699026
1761915191078487000,4.224487060546875,7.475025499787926,3.666607029804587,-0.8014157511174679
1761915191088541000,4.234541015625,7.448067350235581,3.6411055088013407,-1.0801987902283667
1761915191098595000,4.244594970703125,7.119318210950493,3.803058404254913,-1.2225737095087765
1761915191108650200,4.254650146484375,6.73807959049344,4.123970858564973,-1.3479562851950526
1761915191118704000,4.2647041015625,6.307740546780824,4.382303230321407,-1.6622615963250398
1761915191128758300,4.27475830078125,6.259934839510917,4.675278460913896,-1.7894658344805239
1761915191138812200,4.284812255859375,6.353445482379198,4.985077985057234,-1.818951456683874
1761915191148866300,4.2948662109375,6.618238574582338,5.292150130063295,-1.960413937294483
1761915191158921000,4.3049208984375,6.696493196129799,5.6111038515210145,-2.0749138844385744
1761915191168975000,4.31497509765625,6.396576183575392,5.534390614196658,-1.8599808016866444
1761915191179029000,4.325029052734375,5.94099514657855,5.286090976154804,-1.6172998803094027
1761915191189083100,4.335083251953125,5.310190813666582,5.313139726600051,-1.542994288648665
1761915191199137300,4.34513720703125,4.836885903930664,5.144702145302295,-1.3907726597450674
1761915191209191200,4.355191162109375,4.417368113961816,4.767883094853162,-1.14104810346663
1761915191219246000,4.36524609375,4.336705262228846,4.020669474044442,-0.8129977601006627
1761915191229300000,4.375300048828125,4.711659687849879,2.4959230820089577,-0.39499139760807156
1761915191239354000,4.38535400390625,4.429467717078328,0.776799196255207,0.08804112541601061
1761915191249408000,4.395407958984375,3.1788381259083747,-0.5960001460343599,0.30378157902806996
1761915191259462100,4.405462158203125,1.3169511983394622,-1.5629712010115384,0.1514237565241754
1761915191269517000,4.41551708984375,-0.6123112293660641,-2.4698528212070463,0.12779898917824029
1761915191279571000,4.425571044921875,-2.6433395025879145,-3.232869575825333,0.06662570468261837
1761915191289625000,4.435625,-3.984012352776527,-4.270070351326465,-0.21541918576844035
1761915191299679000,4.445678955078125,-4.594937096220255,-6.584276099225878,-0.1324004185590893
1761915191309733000,4.455733154296875,-5.415676556488871,-9.10876359694004,0.6273161985352635
1761915191319787000,4.465787109375,-7.210240006369352,-10.478529855144023,1.831295974472165
1761915191329842200,4.47584228515625,-8.979773644411564,-10.863402448189259,3.0117636496573685
1761915191339896300,4.485896240234375,-10.184110855484008,-10.867852997857332,3.6516198885530233
1761915191349950000,4.495949951171875,-11.036236218619345,-10.519590179806947,3.860747207635641
1761915191360004000,4.506004150390625,-11.037070915877818,-10.239210226893425,4.137055381065607
1761915191370058000,4.51605810546875,-10.330448248654603,-9.810692553389071,4.202043109282851
1761915191380113200,4.526113037109375,-9.250321939140557,-8.95046279425323,3.9555630878835912
1761915191390167000,4.5361669921875,-7.929400668126344,-8.10691821245849,3.759626382024586
1761915191400221200,4.54622119140625,-6.323221609029173,-7.413353764250874,3.561874443437159
1761915191410275000,4.556275146484375,-4.594622623443604,-6.4931175724416965,3.0694448542535304
1761915191420329200,4.5663291015625,-2.6903806552261114,-5.2384091875255105,2.2529691889092325
1761915191430384000,4.576384033203125,-0.8074503551065921,-3.5804449961334464,1.2191869896799326
1761915191440440000,4.586440185546875,0.5860749643474817,0.15545301204025744,-0.15968874991387128
1761915191450494000,4.596493896484375,-0.08599778302013873,1.1519646342784167,-0.29470687669068574
1761915191460548000,4.606548095703125,-0.2525748311430216,1.5829045664936303,-0.635672523470223
1761915191470603000,4.61660302734375,0.25244565180540085,2.5206156247168776,-1.4624959798276425
1761915191480657200,4.6266572265625,0.8839321217626332,3.226327606835961,-2.1395538221314547
1761915191490711300,4.636711181640625,1.775282410827279,3.5210856291919943,-2.4881147463455795
1761915191500765200,4.64676513671875,3.0596535280793904,3.65186831035614,-2.652660873162746
1761915191510819000,4.656819091796875,4.489719064423442,3.6178847922116515,-2.6009488061040638
1761915191520874000,4.6668740234375,5.808961588570475,3.6687095550417896,-2.5604192273169755
1761915191530928000,4.67692822265625,6.743361914810538,3.9945308241814375,-2.616105166442692
1761915191540982000,4.68698193359375,7.2327458526879544,4.3796202748477455,-2.6456910341501234
1761915191551036200,4.6970361328125,7.436298586508631,4.459140970808267,-2.4354287196882067
1761915191561090000,4.707090087890625,7.433008312791586,4.30391066160798,-2.006670369295776
1761915191571144200,4.717144287109375,7.507970907056332,4.23908484595418,-1.6469418621182441
1761915191581199000,4.72719921875,7.590065252897143,4.25844245737493,-1.3555502474553882
1761915191591253000,4.7372529296875,7.594624523636698,4.403308024427295,-1.1834981289222837
1761915191601307100,4.74730712890625,7.52929075846076,4.545159796616435,-1.1906157058425246
1761915191611361000,4.757361083984375,7.259564886030554,4.472206204086542,-1.3048610937036573
1761915191621413400,4.767413330078125,6.811870802891254,4.4924254007726905,-1.444931973825395
1761915191631468500,4.777468505859375,6.311622941172122,4.488042071121931,-1.5107526457354425
1761915191641522700,4.787522705078125,5.758704396495223,4.4336312664985655,-1.4790788658380507
1761915191651576600,4.79757666015625,5.246711736446619,4.493646467000246,-1.518919439447671
1761915191661630700,4.807630615234375,4.787981880030036,4.487221402388811,-1.6423285231038927
1761915191671684600,4.8176845703125,4.319324503839016,4.306638625267148,-1.759468024971336
1761915191681739500,4.827739501953125,3.5344016223609445,3.9129339064687487,-1.7398190293885767
1761915191691793400,4.83779345703125,2.668198634034395,3.072135993033647,-1.3934826493561268
1761915191701847600,4.84784765625,2.306449142423272,1.7621446968346832,-1.0646920090168714
1761915191711901700,4.857901611328125,1.6589000109374523,0.26855390604138374,-0.9090779611960053
1761915191721955600,4.86795556640625,-0.06283610314130783,-1.0019640424251557,-0.7181092530079185
1761915191732009700,4.878009765625,-2.199097605729103,-1.5811661983937024,-0.9938029478013515
1761915191742064400,4.888064453125,-4.3248739546597,-2.0396277592629195,-1.7690740577064454
1761915191752118500,4.898118408203125,-6.276693666610122,-2.7139532539933917,-2.285459692016989
1761915191762172400,4.90817236328125,-7.757948707443475,-3.6994817099243402,-2.1456671904452143
1761915191772226600,4.9182265625,-8.459699969238041,-5.06225942441523,-1.2131246209010482
1761915191782280400,4.928280517578125,-8.636912393143772,-6.176389125818014,0.017975655543059108
1761915191792335600,4.938335693359375,-8.614138251277804,-6.610983488887548,1.0020675027996302
1761915191802389500,4.948389404296875,-8.687637787252664,-6.4346151145905255,1.2938529390856623
1761915191812443400,4.958443359375,-9.140687844467163,-6.533574085992575,1.1520803696125745
1761915191822497500,4.96849755859375,-10.175794278037548,-6.897027458912134,1.0665752654802054
1761915191832551400,4.978551513671875,-11.269586709332465,-7.098515076896548,1.0488578955471515
1761915191842605600,4.98860546875,-11.278078643345832,-7.054957090198993,0.8889994150895625
1761915191852660700,4.99866064453125,-10.440381618535518,-6.768172530940174,0.4227515111930668
1761915191862714600,5.008714599609375,-9.606648821181059,-6.660707012477517,0.055778366649523375
1761915191872768800,5.018768798828125,-8.666208045732974,-6.516977755978703,-0.29203298130631444
1761915191882822400,5.028822509765625,-7.410503635516762,-6.124934832912683,-0.6040913902923465
1761915191892876500,5.03887646484375,-5.538280607372522,-5.15454140227139,-0.7294383101433515
1761915191902931500,5.048931396484375,-3.5653099708437916,-3.7155204060554503,-0.5859382592905312
1761915191912985600,5.058985595703125,-1.859595601761341,-2.154068377435207,-0.2838230060394853
1761915191923039700,5.069039794921875,-0.576919013467431,-0.7141933947384357,0.07400733936652541
1761915191933093600,5.07909375,0.4393739985615015,0.6040186173170805,0.26380868427567183
1761915191943147800,5.089147705078125,1.373090434190631,1.6439683992654084,0.16752521569319068
1761915191953202400,5.099202392578125,2.3387071519494054,2.461884034284949,-0.26404103172682225
1761915191963256600,5.109256591796875,3.254703806492686,3.3506104045867917,-0.8701600553892552
1761915191973310500,5.119310546875,4.090614532408118,4.2079765909850595,-1.3268085754871368
1761915191983364600,5.129364501953125,4.692433009332418,4.7677819725662465,-1.4385700375780461
1761915191993418500,5.13941845703125,5.034038707581162,4.962710670426488,-1.3534525445237755
1761915192003473400,5.149473388671875,5.487476302808523,5.120717458602786,-1.2487325253769754
1761915192013527600,5.159527587890625,6.0769520155102015,5.16375463629663,-1.0815443596184253
1761915192023581400,5.16958154296875,6.377896033024787,5.029848270153999,-0.8539709910020231
1761915192033635600,5.179635498046875,6.434654277557134,4.9931870572328565,-0.5501060445394367
1761915192043689500,5.189689453125,6.510037727582454,4.909992641195655,-0.29665559960566457
1761915192053743600,5.19974365234375,6.596703619122505,4.733219193229079,-0.21941044736169277
1761915192063798800,5.209798828125,6.838994372138381,4.473532484254241,-0.24710195268988608
1761915192073852400,5.219852294921875,7.100397821903228,4.297441757854819,-0.5068494519412517
1761915192083906600,5.229906494140625,7.339836692619324,4.20903925178051,-0.8019781342405825
1761915192093960400,5.23996044921875,7.5502528824687,4.153184678089619,-0.9578246756430715
1761915192104014600,5.2500146484375,7.491922274053096,4.159164337021112,-1.0138728722099215
1761915192114069500,5.260069580078125,7.133866376262903,4.106464427968859,-0.9461709165979176
1761915192124123600,5.27012353515625,6.766863786429166,4.037171111512184,-0.7530537251390517
1761915192134177500,5.280177490234375,6.545100273135304,4.0854742469102145,-0.5426881694983691
1761915192144231700,5.290231689453125,6.112226742509007,4.096582500901818,-0.32697716117650266
1761915192154285600,5.30028564453125,5.318548307645321,3.9950913806736468,-0.045865971378982066
1761915192164340500,5.310340576171875,4.213207477375865,3.6211318113088606,0.3057829089131206
1761915192174394600,5.32039453125,3.287279795926809,2.793206238928437,0.5431369361791759
1761915192184448500,5.330448486328125,2.712065832811594,1.5483604918569325,0.9054171736661344
1761915192194502700,5.340502685546875,1.8669652537465093,0.2680149768590927,1.0644706213511526
1761915192204556500,5.350556640625,0.34116321517825127,-0.6421095707803964,0.8890645892802626
1761915192214611500,5.360611572265625,-1.6382979524135588,-1.788445259261131,0.6238933844797313
1761915192224665600,5.37066552734375,-4.129867515388131,-3.0094845988094803,-0.05433759325668215
1761915192234719500,5.380719482421875,-6.851085207426547,-3.53191097458899,-0.7630537256278097
1761915192244773600,5.390773681640625,-8.115254663649202,-4.054830686843395,-1.2493679006710647
1761915192254827500,5.40082763671875,-8.003632610028982,-5.084972776004672,-1.205464315406233
1761915192264882700,5.410882568359375,-7.91075909602046,-5.694168503698706,-0.5799223600018769
1761915192274936600,5.4209365234375,-8.249847258490323,-5.368146159029006,0.2324432031424716
1761915192284990500,5.430990478515625,-9.181248402914404,-5.0939901951968665,0.7265097093455493
1761915192295044600,5.441044677734375,-10.429827491295336,-5.384079056698083,0.7716903288088739
1761915192305098500,5.451098388671875,-11.617779384756087,-5.8666433776885265,0.7207059915028512
1761915192315152600,5.461152587890625,-11.940573415029048,-6.590607640334963,0.9222756617475301
1761915192325207600,5.47120751953125,-11.358667845320701,-7.43805390574336,1.3752224777832627
1761915192335261700,5.48126171875,-10.557433295989036,-8.236403255027533,1.665642178674042
1761915192345315600,5.491315673828125,-9.88294530417323,-8.463168522131442,1.5741316235817968
1761915192355369500,5.501369384765625,-9.050492025235295,-7.930049487423896,1.0236320496801286
1761915192365423400,5.51142333984375,-8.075265183088183,-6.912478710544109,0.2798181177796796
1761915192375478500,5.521478515625,-6.936320189380646,-5.663111686655879,-0.42171135449036956
1761915192385532700,5.53153271484375,-5.3175972905308,-4.267981270092726,-0.945542701696977
1761915192395586600,5.541586669921875,-3.227118464952707,-2.9410476069211957,-1.0731035712704062
1761915192405640700,5.551640625,-1.16656131490767,-1.7223083610087633,-0.9124841894429176
1761915192415694600,5.561694580078125,0.7780196779608726,-0.3416092053800821,-0.7823105070225894
1761915192425749500,5.57174951171875,2.3332313508868214,1.042711647877097,-0.7951824827510863
1761915192435803600,5.5818037109375,2.967992896991968,2.1331571068316695,-0.8798033513948321
1761915192445857500,5.591857421875,3.299085384532809,2.931289598494768,-0.9838444483667611
1761915192455911700,5.60191162109375,3.751841427236795,3.7956776463538406,-1.3096771156832574
1761915192465965600,5.611965576171875,4.436163999846578,4.712119706577062,-1.7291954901739954
1761915192476020500,5.6220205078125,5.047328397265076,5.169177830389142,-1.9496984820127485
1761915192486074400,5.632074462890625,5.589109461855888,5.495020726838708,-1.8227957110218702
1761915192496128500,5.64212841796875,6.190730370381474,5.676347015804052,-1.43720590961799
1761915192506182700,5.6521826171875,6.545740324604511,5.8610518412917845,-0.9645321373924612
1761915192516236500,5.662236572265625,6.72855013012588,5.906960190507769,-0.39345644312575456
1761915192526291700,5.672291748046875,7.044233451610803,5.834536759331822,0.02349843755252659
1761915192536345600,5.682345703125,7.414850140288472,5.87527267434597,0.14260945868864655
1761915192546399500,5.6923994140625,7.910701812875271,5.859499935674667,0.05890329373702406
1761915192556453400,5.702453369140625,8.126575099086761,5.739379518300295,-0.05831380341127514
1761915192566507500,5.712507568359375,7.81834793882668,5.492863841065764,-0.05387012187540531
1761915192576562700,5.722562744140625,7.396150115993619,5.319840101021528,-0.18788783943802118
1761915192586616600,5.732616455078125,7.05597065115571,5.282154221227764,-0.4673236433692276
1761915192596670700,5.742670654296875,6.678334439104795,5.083364171764254,-0.7745666148975491
1761915192606724600,5.752724609375,6.108167822507023,5.108649419668317,-1.0699617661133407
1761915192616782800,5.762782958984375,5.814856491827965,5.2303334330976,-1.3002685052163898
1761915192626838000,5.772838134765625,5.383890840649604,5.338416206675768,-1.5644614395692944
1761915192636892000,5.782891845703125,4.819073768386245,5.41577300260067,-1.8046436759985982
1761915192646946000,5.792946044921875,4.221251083099842,5.49078294313848,-1.9532585125818847
1761915192657000000,5.803,3.7188171095132825,4.9843876647055145,-1.7763531087987123
1761915192667053800,5.8130537109375,3.117349930244684,3.7788217886209488,-1.2814952695548534
1761915192677108700,5.823108642578125,2.5729542992413044,2.395328033837676,-0.6692861853890121
1761915192687163000,5.833162841796875,1.9558061512380838,0.9441559965789318,-0.3996829164251685
1761915192697216800,5.843216796875,1.1949673251807689,-0.4685387182474136,-0.6028118718758225
1761915192707271000,5.85327099609375,0.3075461922585964,-1.6091057601988314,-1.0548382851310074
1761915192717324800,5.86332470703125,-1.2112053432762622,-2.4332149891614914,-1.409421246113628
1761915192727379700,5.873379638671875,-3.029783874994516,-2.7001673052251336,-1.6834424776501953
1761915192737433900,5.883433837890625,-4.12270712223947,-3.4890953306913373,-1.5158685274444519
1761915192747487700,5.89348779296875,-5.029143336755037,-4.896512981897592,-0.8795669122904538
1761915192757542000,5.9035419921875,-5.47021186427474,-5.966923368561267,-0.03176101978942752
1761915192767595800,5.913595703125,-5.723136824029684,-6.543399314436316,0.5705437793470919
1761915192777651000,5.92365087890625,-6.8585244175165885,-6.858173704382777,0.5545644121877848
1761915192787704800,5.933704833984375,-8.208667106840014,-7.363827224537729,0.42794308848679063
1761915192797758700,5.9437587890625,-9.54995195144713,-8.01624250075519,0.6163539288856089
1761915192807812900,5.953812744140625,-10.552905589431523,-8.648706875833868,0.8832403401061892
1761915192817866800,5.96386669921875,-11.106245574390888,-9.145163528576493,0.9420600472129881
1761915192827922000,5.973921875,-11.640709009444713,-9.118897452941537,0.6938738064177334
1761915192837975800,5.983975830078125,-12.355344302731751,-8.47600637639463,0.0634279315546155
1761915192848030000,5.994030029296875,-12.506463084959982,-7.373174898597598,-0.6319699426252394
1761915192858083800,6.004083740234375,-11.04172838629484,-5.730112508261203,-1.00951387328282
1761915192868137700,6.0141376953125,-8.245872509640455,-3.7715403994411227,-1.019772743903473
1761915192878193000,6.02419287109375,-5.1616076873958106,-2.2346868055045603,-0.7675080746881663
1761915192888246800,6.034246826171875,-2.2354794171869754,-1.3316110073328018,-0.41978951958231625
1761915192898301000,6.044301025390625,0.36900983800292014,-0.32666122709512707,-0.25880517689995464
1761915192908354800,6.054354736328125,1.5848691445648668,0.9666144966244697,-0.428955553464964
1761915192918409000,6.064408935546875,1.337015496724844,2.193347663900256,-0.7167263472821563
1761915192928464000,6.0744638671875,1.408486157220602,2.5973423060446974,-0.5421919104140251
1761915192938517800,6.084517822265625,1.5469009406983851,2.897084546554088,-0.09538768878653645
1761915192948572000,6.094572021484375,1.9582289944708346,3.2573306478649378,0.6367485552038997
1761915192958625800,6.104625732421875,2.8484207611501215,3.7042128300994634,1.4304825927123426
1761915192968680000,6.114679931640625,3.81863708165884,4.3922909558504815,1.9430533449098466
1761915192978734800,6.12473486328125,4.777333060243725,4.874337974968553,2.260266067919135
1761915192988788700,6.134788818359375,5.661285640272498,5.109117037180066,2.4739482738271352
1761915192998843000,6.1448427734375,6.35319764509797,5.353661706602573,2.6076746072277426
1761915193008896800,6.154896728515625,6.656777271813154,5.637829945883155,2.6633827581852674
1761915193018952000,6.164951904296875,6.910223625093698,5.861823994708061,2.677847921389341
1761915193029005800,6.175005859375,7.203126374971866,6.113332073402405,2.5614932862892745
1761915193039060000,6.18506005859375,7.4249068394005295,6.094987438416481,2.285581418700516
1761915193049113900,6.19511376953125,7.665818705278634,5.773181250137091,2.0825842729359865
1761915193059167700,6.205167724609375,7.579927889764308,5.358657615193724,2.012102623477578
1761915193069223000,6.215222900390625,7.252272975456714,4.987112705755234,1.8932704923480748
1761915193079276800,6.22527685546875,6.9484969493865965,4.6977270240873095,1.7230958581246434
1761915193089331000,6.2353310546875,6.698343207910656,4.6524669096469875,1.2760440184116362
1761915193099384800,6.245384765625,6.185541569566726,4.659628471839428,0.5781633875053376
1761915193109439000,6.25543896484375,5.2927603709161275,4.524639571157097,-0.11000058989822864
1761915193119494000,6.265493896484375,4.28617392938733,4.238126814576983,-0.7584558033782989
1761915193129547800,6.2755478515625,3.207377991694212,4.279039255201816,-1.3581949167452751
1761915193139602000,6.285601806640625,1.991921420714259,3.9319057334423064,-1.6366734199516475
1761915193149655800,6.29565576171875,0.5731552770197391,2.4072423435151578,-1.565394628766179
1761915193159710000,6.3057099609375,-0.3189367703229189,0.7485755568116903,-1.6012180756889283
1761915193169764900,6.315764892578125,-0.8479694124996662,-0.7017319725722074,-1.704084868184477
1761915193179818800,6.32581884765625,-1.824938129878044,-2.4451024108320474,-1.7726590765863657
1761915193189872600,6.33587255859375,-3.6685786221385,-3.9348669213354586,-1.8849796338647602
1761915193199926800,6.3459267578125,-6.2246133507609365,-3.8357214874505994,-2.338927370571345
1761915193209981000,6.35598095703125,-9.059930884709953,-3.301786460185051,-2.1106465843379496
1761915193220035800,6.366035888671875,-11.055811856704949,-3.6215555896788834,-1.16750809423849
1761915193230090000,6.376090087890625,-10.414785404986143,-3.6641415164738893,-0.48345834722071884
1761915193240144000,6.386143798828125,-8.036661019405722,-4.106421173349022,-0.14183657462000845
1761915193250197800,6.39619775390625,-7.704387213125824,-4.497638166984915,-0.16255816787034272
1761915193260251600,6.406251708984375,-8.208921958383918,-5.273965654075146,0.06654226418286562
1761915193270306800,6.416306884765625,-8.907824260488152,-6.234987445259094,0.6488312802508474
1761915193280361000,6.42636083984375,-9.232916046309471,-6.773932994163036,0.9521176231078803
1761915193290414800,6.436414794921875,-8.45977712612748,-6.895954276722669,0.6670822456039488
1761915193300469000,6.446468994140625,-7.668595184254646,-6.101762631639838,0.14141469594612716
1761915193310523000,6.45652294921875,-7.286646369701623,-4.981112004035711,-0.12542188478335736
1761915193320577800,6.466577880859375,-6.696874888923764,-4.290582978001237,0.06133505092859268
1761915193330631700,6.476631591796875,-4.831922144043445,-3.3689877727985382,0.1674578495454043
1761915193340685800,6.486685791015625,-2.1197990280866623,-2.1105431239634753,0.11005787304341792
1761915193350740000,6.496739990234375,0.09819149416089057,-0.7895160544872284,0.012256620309129357
1761915193360793900,6.5067939453125,0.9765782567560672,0.35238135928511616,-0.10223602031134069
1761915193370848800,6.516848876953125,1.092835568961501,1.3621125285804272,-0.22180698710940777
1761915193380902700,6.526902587890625,1.1785229708582161,2.195580537518859,-0.28219153238013384
1761915193390956800,6.536956787109375,1.288152389356494,2.640911983180046,-0.11271101790070533
1761915193401010700,6.5470107421875,1.7775965329885481,2.8927064776003357,0.18435835013762114
1761915193411065900,6.55706591796875,2.572230661141872,3.2172961591184137,0.47024216116443274
1761915193421120000,6.5671201171875,3.591467909929156,3.404711997130513,0.6769339236631989
1761915193431174000,6.577173828125,4.5080859112411735,3.3810686712145803,0.9751749658294021
1761915193441228000,6.58722802734375,5.401759674817323,3.3868367332220077,1.3079175586648284
1761915193451281700,6.59728173828125,6.066971888765693,3.581553249636292,1.3726353838995098
1761915193461336800,6.6073369140625,6.568247339966893,3.660402329945564,1.2716083740517496
1761915193471391000,6.617390869140625,6.880780088466405,3.878887844482064,1.1279312861315904
1761915193481444900,6.62744482421875,7.115951949387789,3.8999130968540903,1.0437686095841228
1761915193491499000,6.6374990234375,7.354831432655454,3.4422201822698115,1.0921189451247453
1761915193501553000,6.647552978515625,7.4569181806892155,2.9851164657503366,1.1067528890244662
1761915193511607800,6.65760791015625,7.372347800123691,2.586332251730561,0.9275620046526193
1761915193521661700,6.66766162109375,7.009280211651324,2.2834464524984357,0.46486719012781974
1761915193531715800,6.6777158203125,6.4043006403476,2.2177520373165605,-0.22854718208462
1761915193541769700,6.687769775390625,5.406880086570978,2.0970137803047892,-0.7599132356449961
1761915193551825000,6.697824951171875,4.071871838015317,1.783236584702134,-1.0927684950746595
1761915193561879000,6.707879150390625,2.780755338156223,1.3365823660045861,-1.587459745579958
1761915193571932700,6.7179326171875,1.5165765295833349,1.0101192918300628,-2.121791809339076
1761915193581986800,6.72798681640625,0.5383236176133156,0.35440848119854923,-2.3071951384849845
1761915193592040700,6.738040771484375,-0.009887187764048577,-0.1990864020615816,-2.2106255464375018
1761915193602095900,6.748095947265625,-0.9327665875583887,-0.24784897166490552,-1.8870622853577137
1761915193612150000,6.75814990234375,-2.3616958133488892,-0.6983844157099723,-1.3394012228175998
1761915193622203100,6.768203125,-4.020606930202246,-1.142351587280631,-0.9959276848703622
1761915193632257300,6.77825732421875,-5.387900660812854,-1.6416858412861823,-0.7557559698350728
1761915193642311200,6.788311279296875,-6.723744191148877,-2.04798174611032,-0.6002854221381246
1761915193652366000,6.798365966796875,-8.262078379032015,-1.997244077041745,-0.24829525412768125
1761915193662420200,6.808420166015625,-9.283020678171514,-1.726956479075551,0.3835552268363535
1761915193672474000,6.81847412109375,-8.855547545284033,-1.487636850824952,0.9474430554255843
1761915193682528300,6.8285283203125,-7.325439918476342,-2.31993756954968,1.3929457660004496
1761915193692582100,6.83858203125,-6.70413757340312,-3.156513481375575,1.8877737946279345
1761915193702637300,6.84863720703125,-6.165920338773727,-3.7723166445106266,2.437655894218385
1761915193712691000,6.85869091796875,-5.035213012057542,-4.3022775074481965,2.6542586637482044
1761915193722745000,6.8687451171875,-4.16847577072382,-4.60669533855319,2.5991052240639925
1761915193732799200,6.87879931640625,-4.072885983493924,-4.529643078532815,2.4169608967140315
1761915193742854100,6.888854248046875,-3.766003223580122,-4.262156509461999,2.1326301603481173
1761915193752908300,6.898908203125,-3.391076855009794,-3.843931681913137,1.5389140335977076
1761915193762962200,6.908962158203125,-3.0107004043400285,-3.360114145991206,0.5412872166592627
1761915193773016300,6.919016357421875,-2.8237288029640912,-2.7839193551450965,-0.5589568749930709
1761915193783070200,6.9290703125,-2.7724890295922755,-1.80437464979887,-1.5188412596449254
1761915193793125000,6.939125,-2.3172984532177447,-0.4339788615196943,-2.105800605611503
1761915193803179300,6.94917919921875,-1.7668185338646172,0.8776537721455097,-2.335566223575175
1761915193813233200,6.959233154296875,-1.5734768129348753,2.1728636787980795,-2.0376513446234163
1761915193823287300,6.969287353515625,-1.3974503839433192,3.1438124052345753,-1.315621995562315
1761915193833341200,6.979341064453125,-1.0983096164584158,3.5545565216392276,-0.6960772347461431
1761915193843396000,6.98939599609375,-0.9810954419195651,3.4327322229564188,-0.04801978841200471
1761915193853450200,6.9994501953125,-0.3447773140221834,3.3647686937987804,0.431283119629696
1761915193863504100,7.009504150390625,0.6460609387546777,3.8958424864143133,0.34428251624256373
1761915193873558300,7.019558349609375,1.828746289989352,4.619771093225479,-0.02354088845476508
1761915193883613200,7.02961328125,2.7951065195918083,5.189557770594954,-0.3475301929268986
1761915193893667300,7.039667236328125,3.5333681876599785,5.530259798002243,-0.5116857860565185
1761915193903721200,7.04972119140625,4.144945257532596,5.7872390015840525,-0.5320549126073718
1761915193913775000,7.059775146484375,4.42006392891705,5.900632156530023,-0.32742125168219205
1761915193923829000,7.0698291015625,4.6316731279432775,5.894737837794422,-0.1084847785077989
1761915193933884200,7.07988427734375,4.8770583398431535,5.836911671769618,0.05285283459164202
1761915193943938300,7.089938232421875,4.95964719120264,5.588944626682997,0.07596000780425965
1761915193953992200,7.0999921875,4.920927292186022,5.305543864643574,-0.17489340637363493
1761915193964046300,7.11004638671875,4.706873622617125,4.971985279250145,-0.39261436627842483
1761915193974100200,7.120100341796875,4.471677211776376,4.693582179367542,-0.5111630042914301
1761915193984155100,7.130155029296875,4.317483259886503,4.624278926038742,-0.7419982973132282
1761915193994209300,7.140209228515625,4.074304033598303,4.533039735233784,-0.9835852859739214
1761915194004263200,7.15026318359375,3.7893677325546737,4.402755066719651,-1.2014417818918823
1761915194014317300,7.1603173828125,3.273181712469458,4.205135814601182,-1.4388237200781702
1761915194024372200,7.170372314453125,2.6530992645800113,3.723191671335697,-1.440055015438795
1761915194034426000,7.180426025390625,2.3028747910678384,2.8543665178120134,-1.1779152142234146
1761915194044480000,7.19047998046875,2.2436814283430575,1.7621552182286977,-0.8059140123847871
1761915194054534100,7.2005341796875,2.2577555464029313,0.5373462970137596,-0.2767682652223855
1761915194064588000,7.210588134765625,1.4071370806992054,-0.7591407899677753,0.0038457156427204606
1761915194074643200,7.220643310546875,0.02991466127038002,-1.7732874376177787,0.06978621454015374
1761915194084697300,7.230697265625,-2.2654554532557722,-2.566023038673401,0.2883122072175145
1761915194094751200,7.240751220703125,-4.994216400280594,-2.568738727372885,0.2445832478672266
1761915194104805000,7.25080517578125,-6.955078081342577,-1.8437831156015394,-0.05916925119683146
1761915194114859000,7.26085888671875,-7.3046841306954615,-2.0638561915904283,-0.2825486021894961
1761915194124914200,7.2709140625,-6.185414143794775,-3.2898066840559244,-0.06329378378093242
1761915194134968300,7.28096826171875,-5.288786791110039,-4.209619682016968,0.13233743632547557
1761915194145022200,7.291022216796875,-5.314879263743758,-4.4468098970234395,0.4234987493637949
1761915194155076400,7.301076416015625,-6.445827998000383,-4.103253649228811,0.6462646446332335
1761915194165131000,7.311131103515625,-7.454359728378057,-3.858905963683128,0.5741393196210265
1761915194175185200,7.32118505859375,-7.223165538915992,-4.342020319771766,0.8589559398077428
1761915194185239000,7.331239013671875,-7.034110117003321,-5.157493237814307,1.7331155862271785
1761915194195293200,7.341293212890625,-7.215346389597654,-5.780282022053003,2.7033067722946402
1761915194205347300,7.351347412109375,-7.31235247336626,-5.304156794199347,2.9376521192640066
1761915194215402200,7.36140234375,-6.85007281551361,-4.3681607232004405,2.5589082382321355
1761915194225456000,7.3714560546875,-6.508266626256704,-3.819206405979395,2.2232864366985856
1761915194235510000,7.381510009765625,-6.166904673635959,-3.595882803761959,1.894722298591584
1761915194245564200,7.391564208984375,-5.38171758826375,-3.0898271325469016,1.354892368068546
1761915194255618000,7.4016181640625,-4.0083226181685925,-2.0155682537615296,0.8708296252138912
1761915194265673200,7.411673095703125,-2.3729858536481854,-0.7592723073929548,0.45604178637638687
1761915194275727400,7.421727294921875,-0.8032160785377025,0.02235737775862217,0.43825098588094114
1761915194285781200,7.43178125,0.2751303618222475,0.880049727371335,0.6015948973014951
1761915194295835100,7.441835205078125,1.1594161193281411,1.8204308815866708,0.7331975165463983
1761915194305890000,7.45189013671875,1.7361141835212706,2.7454999003797766,0.7437284090414643
1761915194315944200,7.461944091796875,2.0230121400266885,3.535495262816548,0.873659295681864
1761915194325998000,7.471998046875,2.5441560747802257,4.111367982101441,0.9223803642310202
1761915194336052200,7.48205224609375,3.1147458852261303,4.634534947115182,0.7889005529373884
1761915194346106400,7.4921064453125,3.4308021316766735,4.921324182549118,0.5810406234420835
1761915194356161000,7.5021611328125,3.891951908716559,5.2188762195378535,0.29175737923532724
1761915194366215200,7.512215087890625,4.50644983447194,5.557783764743805,-0.13276742524057625
1761915194376269000,7.52226904296875,5.145536842560768,5.676705912244319,-0.4697375726431608
1761915194386323200,7.5323232421875,5.553920075052976,5.448924746096134,-0.5641593390069901
1761915194396378400,7.54237841796875,5.859298275622725,5.324768789595365,-0.6431767616204918
1761915194406432300,7.552432373046875,5.934257947278023,5.311661470741034,-0.7745311051927507
1761915194416486100,7.562486083984375,5.719242739200592,5.2287528859078884,-0.9578627426311374
1761915194426540000,7.5725400390625,5.390652005347609,5.069929520651698,-1.0292954092040658
1761915194436594200,7.58259423828125,5.250426957577466,4.928232062241435,-1.0468537161178886
1761915194446649000,7.592649169921875,5.33725534620285,4.871455697530508,-1.063937391257286
1761915194456703200,7.602703125,5.582217364254594,4.681840303647518,-0.9118852737016976
1761915194466757400,7.61275732421875,5.66124413921833,4.45064962131679,-0.6303612653195858
1761915194476811300,7.622811279296875,5.213764575612545,4.355338066506386,-0.269618320402503
1761915194486865400,7.632865478515625,4.557205039197206,4.3021284543663265,0.029339199469983576
1761915194496920000,7.642920166015625,3.6638662066638465,4.221973552155495,0.14066680018827318
1761915194506974200,7.65297412109375,2.6267759057998656,3.4378409442722795,0.5644339181646705
1761915194517028000,7.663028076171875,2.026379570633173,1.937157564869523,1.1688402196250856
1761915194527082200,7.673082275390625,1.3562556192457675,0.3872369840890169,1.5780907364711165
1761915194537137200,7.68313720703125,-0.05141103828549385,-0.6012655192166566,1.6240281656511126
1761915194547191000,7.69319091796875,-2.4026409871995447,-0.9445201537162065,1.4150146822065115
1761915194557245200,7.7032451171875,-4.589413364362716,-1.5404098251134157,1.274202920589596
1761915194567299000,7.713299072265625,-6.3634612649589775,-1.9640327123135328,1.0934842421285806
1761915194577353200,7.723353271484375,-7.411147778639197,-1.5550871697634459,0.9216068956404924
1761915194587408100,7.733408203125,-7.270647421059012,-1.717344016599655,1.2571459873266517
1761915194597462300,7.743462158203125,-6.518909600824117,-3.2465953188389536,2.198797745999694
1761915194607516400,7.753516357421875,-6.194750127416849,-4.846481999793649,3.299520268818736
1761915194617567200,7.763567138671875,-6.3634764625281095,-5.412036738681793,3.9999651241898535
1761915194627622400,7.773622314453125,-6.148168993505835,-5.409830168548226,3.9070486478224393
1761915194637676300,7.78367626953125,-5.748807271859049,-5.511056500360369,3.2642218686833977
1761915194647730400,7.79373046875,-5.526936206537485,-5.5115118429124355,2.5429072437629103
1761915194657784600,7.80378466796875,-5.453177142843604,-5.578967422547936,2.283096470016986
1761915194667838200,7.813838134765625,-5.627466372779011,-5.2775645553499455,2.201470033948868
1761915194677893400,7.823893310546875,-5.535992204174399,-4.477779035782814,1.8715917445033787
1761915194687947300,7.833947265625,-5.411392011037469,-3.745778766196966,1.397026459442824
1761915194698001400,7.84400146484375,-5.115522812569141,-3.0218425606012342,0.8253728191576898
1761915194708055300,7.85405517578125,-4.369779848834872,-1.9025585451751947,-0.04144220011997968
1761915194718109400,7.864109375,-3.2973779960930347,-0.5118810163676738,-0.8639458570495248
1761915194728164400,7.874164306640625,-2.3138708168566224,0.3520680555522442,-1.151513529510051
1761915194738218200,7.88421826171875,-1.4408973114818333,0.5473480510681867,-0.9629584583349525
1761915194748272400,7.8942724609375,-0.34402971052527426,0.787675979578495,-0.7548946768306195
1761915194758326300,7.904326171875,0.6433166084825992,1.421856510925293,-0.8944665213890374
1761915194768381400,7.91438134765625,1.1635831758797168,2.0776210975706575,-0.8280656384382397
1761915194778435600,7.924435546875,1.731294216018915,2.7296827380448576,-0.778148053580895
1761915194788489200,7.9344892578125,2.4677748458892106,3.4293267984271045,-0.8916942071314901
1761915194798543400,7.94454345703125,3.146901018899679,3.888355345529318,-0.8628495131801813
1761915194808597200,7.95459716796875,3.8125884491443633,4.145290709969401,-0.7105117836162448
1761915194818652400,7.96465234375,4.565424586009979,4.1772056051462885,-0.4979182862604037
1761915194828706300,7.974706298828125,5.276970096588134,4.070950631517172,-0.18078834616374223
1761915194838760400,7.984760498046875,5.842510222429037,3.8941543871968984,0.1780148993950337
1761915194848814300,7.994814453125,6.080486619377136,3.849413912716508,0.46771125444732603
1761915194858866400,8.004866455078124,6.061781918907165,3.8596231720417737,0.36128567349165674
1761915194868920300,8.01492041015625,6.139438574561476,3.7725183045625683,0.5450305679060519
1761915194878975500,8.0249755859375,6.261378608578443,3.6466619738847017,0.5101335881784558
1761915194889029400,8.035029296875,6.437370550778508,3.490688737362623,0.4423837017714977
1761915194899083300,8.045083251953125,6.5097460511595004,3.2712638961493967,0.46394423006400465
1761915194909137200,8.05513720703125,6.351466291260719,3.040580578818917,0.4712266421571374
1761915194919192300,8.0651923828125,6.130638012990355,2.843506101101637,0.529068224946782
1761915194929246500,8.07524658203125,5.729440308088064,2.7147464501976963,0.4395289699275046
1761915194939300400,8.08530029296875,5.446316609424352,2.516829091915488,0.3078717709511518
1761915194949354500,8.0953544921875,5.070090848693251,2.117744433644414,0.16646774252951144
1761915194959408400,8.105408447265624,4.541082756435871,1.623688996824622,0.0032883740209043023
1761915194969463300,8.11546337890625,3.79991250744462,0.9368991573184728,0.22415683817118404
1761915194979517400,8.125517333984375,2.7847312560498714,-0.15797639303803443,0.8984371785856783
1761915194989571300,8.1355712890625,1.3136322830498217,-1.1886363685935735,1.6757766191974282
1761915194999625500,8.14562548828125,-0.7784417027652263,-1.7569640793263912,2.0186615436017514
1761915195009679400,8.155679443359375,-3.4993542743772266,-2.020042184305191,1.7650220058366655
1761915195019734300,8.165734375,-6.1666381316542624,-2.3755074810802936,1.4017600638359784
1761915195029788200,8.1757880859375,-8.31057908282876,-2.9069653045773505,1.2079851391207426
1761915195039842300,8.18584228515625,-9.12910905035436,-3.4965602597445247,1.4338810029789804
1761915195049896200,8.195896240234376,-8.522882693859934,-4.073450047117471,1.6990923205941915
1761915195059951400,8.205951416015624,-6.579079115104675,-5.008802559515834,1.8939771793127058
1761915195070005500,8.216005615234375,-6.36996524002552,-5.3605280852407216,1.7079852366238832
1761915195080059400,8.226059326171875,-6.4909869901537895,-5.669037569573521,1.7629577667832375
1761915195090113300,8.23611328125,-6.225716928088665,-6.025497722604871,2.0176728248253464
1761915195100167200,8.246167236328125,-6.586336538887023,-5.68047140225768,1.9041357313640415
1761915195110222300,8.256222412109375,-6.960173943176865,-4.9724417908459895,1.7346631079301238
1761915195120276500,8.2662763671875,-6.5663242629498235,-4.6666158465087415,1.7546255533762276
1761915195130330400,8.276330322265625,-5.451207888597249,-4.614557742491364,1.7210209515467285
1761915195140384500,8.286384521484376,-4.141483134379983,-4.156345187947154,1.5595166766434907
1761915195150439200,8.296439208984374,-2.9734575921386477,-3.739646547052264,1.3342436939239501
1761915195160493300,8.306493408203124,-1.6935919696122408,-3.2984839115083218,1.0737599893525243
1761915195170547200,8.316547119140624,-0.44414194361567494,-2.4073808752030135,0.5918469718776643
1761915195180601300,8.326601318359375,0.7224895139187574,-1.232015491592884,0.12513218112178146
1761915195190655500,8.336655517578125,1.7653671660125254,-0.06186696584820747,-0.08203377475999295
1761915195200710400,8.34671044921875,2.623113876160979,0.9929928004622459,-0.2621300835389644
1761915195210764300,8.356764404296875,3.1273347331643104,1.890802640929818,-0.25038345857858657
1761915195220818200,8.366818115234375,3.477811135610938,2.4937170963972806,-0.05310936663597822
1761915195230872300,8.376872314453125,3.3889795904695985,2.902219571354985,0.1909670276876539
1761915195240927500,8.386927490234376,3.6272511709719892,3.2860710046589374,0.4307509855143726
1761915195250981400,8.3969814453125,4.298147275775671,3.584245557460189,0.5258909100849181
1761915195261035500,8.407035400390624,4.940893975415825,3.6032243986964225,0.6055298986628651
1761915195271089400,8.41708935546875,5.671760272535681,3.4250691409826275,0.6907201646924018
1761915195281143600,8.4271435546875,6.209568341842293,3.222512432461977,0.770141199670732
1761915195291198200,8.4371982421875,6.513669946604967,3.214467073172331,0.8163142642375081
1761915195301252400,8.44725244140625,6.577858048877119,3.3925814143538475,0.6638387336380779
1761915195311306200,8.45730615234375,6.762986068212985,3.440419854849577,0.4084039099540561
1761915195321360400,8.4673603515625,7.003951125583052,3.3481974982261655,0.1751874939493835
1761915195331414500,8.47741455078125,6.899260332530736,3.0981542313873764,0.07854768620990216
1761915195341469200,8.48746923828125,6.424121193104982,2.740170814311504,0.19022614619247613
1761915195351523300,8.4975234375,5.84720393320322,2.5455700332313773,0.3187882286977023
1761915195361577200,8.5075771484375,5.056970085835457,2.451992754867673,0.45808856283836064
1761915195371631400,8.51763134765625,3.996030122828483,2.2141788550049064,0.5364606732856482
1761915195381686500,8.5276865234375,3.0317081210553645,1.8586732262194157,0.5661779122877866
1761915195391740400,8.537740478515625,1.9668086067676542,1.5041671298652886,0.47615390595886853
1761915195401794600,8.547794677734375,0.5317793105363845,1.0265934567689896,0.20982662645839154
1761915195411848200,8.55784814453125,-0.807653768724203,0.29107728801667687,-0.014552731889672576
1761915195421902300,8.56790234375,-1.9710364535957574,-0.6659329294383526,-0.09084387134443968
1761915195431957200,8.577957275390625,-3.1126456980764865,-1.2888672596275805,-0.15429635281842202
1761915195442011400,8.588011474609376,-4.097603076121211,-1.8628186554610728,-0.4334188164841383
1761915195452065500,8.5980654296875,-5.377872018751502,-2.2619623504430053,-0.7594502943083643
1761915195462119400,8.608119384765626,-7.455394332122802,-2.3075246627002954,-1.0168620440885423
1761915195472174300,8.61817431640625,-9.774667884805798,-2.1015660367816684,-1.0299495622638613
1761915195482228200,8.628228271484375,-10.159252308559417,-2.5680373011052606,-0.50608087872155
1761915195492282400,8.638282470703125,-8.269141157025098,-3.7079426642775535,0.3547603633761406
1761915195502336300,8.648336181640625,-6.626436494085192,-4.2796781376272435,0.8991204846747219
1761915195512390400,8.658390380859375,-6.064928400239348,-4.4611768605500455,1.2373533454895018
1761915195522445600,8.668445556640625,-5.521857295837998,-4.779567102906108,1.532859263603389
1761915195532499200,8.678499267578125,-5.151753817379475,-5.290342203858494,1.4483417822688818
1761915195542553300,8.68855322265625,-6.055947805926204,-5.21509728552103,1.228384441614151
1761915195552607200,8.698607177734376,-6.9274740351021284,-4.871587799477577,1.0925381203848867
1761915195562661400,8.708661376953126,-7.0983625166833395,-4.52456124522388,0.7466152895893902
1761915195572716300,8.71871630859375,-7.201460487586259,-4.3562300469100474,0.3716127870429307
1761915195582770400,8.7287705078125,-6.483097113686799,-4.17157022960782,0.07259144468661398
1761915195592824600,8.738824462890625,-5.189146267184615,-3.579406885257363,-0.418350463222526
1761915195602878200,8.748878173828125,-3.824775146022439,-2.6873089926958085,-0.9350998528115451
1761915195612933400,8.758933349609375,-2.603352944636345,-1.6585615727633236,-1.3238748601227999
1761915195622987500,8.768987548828125,-1.1747072119623423,-0.6404378381758928,-1.6428901025094091
1761915195633041400,8.77904150390625,0.26915011836886404,0.18253624927699566,-1.8217364112272858
1761915195643095600,8.789095458984375,1.6507658043205737,0.6532347759068012,-1.9084775599606334
1761915195653149400,8.7991494140625,2.8325667739361524,1.0338169782817364,-1.838797874534875
1761915195663204400,8.809204345703124,3.756340492221713,1.29054659101665,-1.690909598660469
1761915195673258500,8.819258544921874,4.214826018488407,1.6156716945856808,-1.595179964568466
1761915195683312400,8.8293125,4.17591614985764,2.022534001120925,-1.5084965373717247
1761915195693366500,8.839366455078125,3.7211055127114054,2.4328484939366577,-1.2228855519369244
1761915195703420400,8.84942041015625,3.675402915200591,2.5641569525405763,-0.9857442906387149
1761915195713475600,8.8594755859375,4.316678373244405,2.6594962721407414,-0.8975906447589397
1761915195723529200,8.869529296875,5.130455593284965,2.3804691951408983,-0.8781792573243379
1761915195733583400,8.879583251953125,5.806527054899931,1.7001979437485337,-0.9750226978771388
1761915195743637200,8.88963720703125,6.4223787333518265,1.258183075289428,-1.2431319288909435
1761915195753692400,8.8996923828125,6.857472862637042,1.3717562629774211,-1.6532763258367775
1761915195763746600,8.90974658203125,6.937289911195635,1.7166469742462038,-2.0051655176907777
1761915195773800400,8.919800537109374,6.486615935462713,1.92976833140105,-2.1975474536776543
1761915195783854600,8.9298544921875,5.508711983060836,2.0911451805323362,-2.227473805385828
1761915195793908500,8.939908447265625,4.9470992597967385,2.2287778737217185,-2.257728073874116
1761915195803963400,8.94996337890625,4.984030521830916,2.522930331400037,-2.3638866013914344
1761915195814017500,8.960017578125,4.950886377120018,2.8081735064357516,-2.5003119646176692
1761915195824071400,8.970071533203125,4.718458846470713,2.71606337801516,-2.5366183727517724
1761915195834125600,8.98012548828125,4.084727812457085,2.4952841995835304,-2.307611171939969
1761915195844180200,8.99018017578125,3.6773891205817457,2.0825001017838716,-1.8631606007665396
1761915195854234400,9.000234375,3.6320945193499323,1.354859780973196,-1.3136623859271406
1761915195864288300,9.010288330078126,3.303720058596134,0.4888824180960655,-0.8138429787531495
1761915195874342400,9.02034228515625,2.6968893064677713,-0.500159014391899,-0.47289530602172014
1761915195884396500,9.030396484375,2.188013901656866,-1.396238670065999,-0.5820194053463638
1761915195894451500,9.040451416015625,0.9698059861421584,-1.4991098464757202,-0.9358405881762504
1761915195904505600,9.050505615234375,-1.7556208480238913,-1.0176508563786744,-1.0613985204294323
1761915195914559500,9.0605595703125,-3.965426310250163,-0.37525136274099347,-0.729061439654976
1761915195924613400,9.07061328125,-4.740045824378728,-0.2595885092973709,-0.019420009132474658
1761915195934668500,9.08066845703125,-4.410043470162153,-1.6013970855176447,1.2265497735328972
1761915195944722400,9.090722412109375,-3.9073207427620886,-3.3595617728054523,2.3908809913009406
1761915195954776600,9.100776611328126,-3.8227538693279026,-4.278014003807306,2.9299551350206134
1761915195964830500,9.11083056640625,-4.637267002427578,-4.142349980342388,2.976267388862371
1761915195974884600,9.120884521484374,-4.966162272185087,-3.787580849137902,2.757023457174003
1761915195984939300,9.130939208984374,-4.5014322985708715,-4.311159317561984,2.708967866796255
1761915195994993400,9.140993408203125,-4.406089179578423,-5.181819869819283,2.8819518593519926
1761915196005047300,9.15104736328125,-4.465583571076393,-5.884948265185952,3.140084324622154
1761915196015101400,9.161101318359375,-3.9974902585089205,-6.066264032757282,3.0411592554897067
1761915196025155600,9.171155517578125,-4.008902463883161,-5.605476074767112,2.640887725521624
1761915196035210500,9.18121044921875,-4.2899902728050945,-5.254671171018481,2.258724829826504
1761915196045264400,9.191264404296875,-4.237756227698922,-4.892030283525586,1.7489383015200495
1761915196055318300,9.201318359375,-3.5075545319676396,-4.079501602241397,1.027121499231085
1761915196065372400,9.211372314453126,-2.2591642441570756,-2.5240795014351605,0.16778160160705446
1761915196075426300,9.22142626953125,-0.8895943853080273,-0.754202749043703,-0.6077611648462713
1761915196085481500,9.2314814453125,0.18866554581224917,0.5512795452982187,-0.7807799364544451
1761915196095535600,9.24153564453125,0.7599129433840512,1.0583464393824338,-0.5440114539913833
1761915196105589500,9.251589599609375,0.8959896393030882,0.952788800367713,-0.38462015265412625
1761915196115643400,9.261643310546875,0.9065466891527175,0.7622142060637473,-0.4441971078690141
1761915196125698300,9.2716982421875,0.7684966473340987,1.1333365061759948,-0.39683110719062387
1761915196135752400,9.28175244140625,1.1019523568749428,2.0483628543823955,-0.2917639551065862
1761915196145806600,9.291806640625,1.6161504180133341,3.0209096636652943,-0.26525227068010715
1761915196155860500,9.301860595703126,2.5973200942128893,3.7634091154336926,-0.213608921476081
1761915196165914600,9.31191455078125,3.3854414794713255,4.274875121259689,-0.3213810947351157
1761915196175969300,9.32196923828125,4.063106932279467,4.803907763436436,-0.6263561943966895
1761915196186023400,9.3320234375,4.614027581137418,5.184907898962497,-0.7681005606885999
1761915196196077300,9.342077392578124,4.747786063241958,5.308454783654213,-0.57023953570351
1761915196206131500,9.35213134765625,4.8390568182289595,5.07788953974545,-0.0716559539347887
1761915196216186600,9.3621865234375,4.455172651699185,4.800940730324387,0.5143560281790792
1761915196226240500,9.372240478515625,4.154136279726028,4.735319380378723,0.8516917940236628
1761915196236294400,9.38229443359375,4.256804627040029,4.843872694078088,0.945401320464909
1761915196246348300,9.392348388671875,4.431575503012538,4.848126259869336,0.7467680689983069
1761915196256402400,9.40240234375,4.482182239177823,4.736877715736627,0.3254839269440621
1761915196266457300,9.412457275390626,4.43300816616416,4.806694179284572,0.03050714727081358
1761915196276511500,9.422511474609376,4.28444082198441,4.943448920595646,-0.18263327991068362
1761915196286565600,9.432565673828124,4.177628214472532,4.772051320448518,-0.29123744701445103
1761915196296619500,9.44261962890625,4.508811887428164,4.1399323978066445,-0.30047756904661654
1761915196306673400,9.45267333984375,5.361384994331002,3.147650960484147,-0.03857815245836973
1761915196316728300,9.462728271484375,5.820034186726808,1.9874182640761135,0.5493145288355649
1761915196326782500,9.472782470703125,5.072718859109282,0.9859119022905826,0.9995921987272799
1761915196336836400,9.48283642578125,3.8010774595707653,0.0974842226743698,1.08705851993002
1761915196346890500,9.492890380859375,1.7601006237864494,-0.8654360956072806,0.685394804951176
1761915196356945400,9.5029453125,-0.3175456082254648,-1.7577093447357415,0.028051863073185086
1761915196366999300,9.512999267578126,-2.396071545681357,-2.256631510809064,-0.6095685430618003
1761915196377053400,9.523053466796876,-3.6538416562557217,-2.9016256971150636,-0.9480214398354291
1761915196387107300,9.533107421875,-3.7493829281687736,-4.539352571642398,-0.6443230090461671
1761915196397161500,9.543161376953124,-3.177231275233626,-6.111416595169901,-0.3482541598198935
1761915196407216600,9.553216552734375,-2.940101850503683,-6.293653569239377,-0.5064247237231582
1761915196417270500,9.5632705078125,-3.0825773075491187,-6.181989430043101,-0.5805415148135274
1761915196427324400,9.573324462890625,-3.8241654896914956,-6.916568025684357,0.01168024519328028
1761915196437378300,9.58337841796875,-5.304798599234223,-7.9920573230475185,0.8661884483445436
1761915196447432400,9.593432373046875,-6.629658378741145,-8.555496092694998,1.7353028671383857
1761915196457487400,9.6034873046875,-7.018080773222446,-8.169377298980951,2.0251031209565697
1761915196467541500,9.61354150390625,-7.166242459210753,-7.181044307023287,1.8379171461775898
1761915196477595400,9.623595458984376,-7.434830852043628,-6.220358615925908,1.4075734262898563
1761915196487649500,9.6336494140625,-7.418308756309747,-5.398339637240767,0.962852221481502
1761915196497704400,9.643704345703124,-6.147200440734625,-4.485583572053909,0.4303153340434655
1761915196507758300,9.65375830078125,-3.8325545478522773,-2.8479169032812117,-0.14144293565992266
1761915196517812500,9.6638125,-1.528890652233362,-0.6665174513280391,-0.5496246176980436
1761915196527866400,9.673866455078125,0.29941899990439413,0.9157587541341781,-0.4857783876661211
1761915196537920500,9.68392041015625,1.5278478651821612,1.3455939399778842,-0.1088229244209826
1761915196547975400,9.693975341796875,1.4693781405568123,1.404418469390273,0.29307679127082226
1761915196558029300,9.704029296875,1.194333118930459,1.977601803460717,0.4584299966871738
1761915196568083500,9.71408349609375,1.0789181027680634,2.848781995677948,0.4302102297011763
1761915196578137300,9.724137451171876,1.5846709916442632,3.529751166206598,0.3102497521288693
1761915196588191500,9.73419140625,2.3067659532874822,4.147166440713406,0.017445494189113377
1761915196598246400,9.744246337890624,2.9849504615336655,4.551514134079218,-0.22404680192545054
1761915196608300500,9.754300537109375,3.526667813238501,4.688282903915644,-0.40550943062156436
1761915196618354400,9.7643544921875,3.8227491931527853,4.571290263172984,-0.5471364541441202
1761915196628409000,9.7744091796875,4.248685033470392,4.451286750176549,-0.7745584315910935
1761915196638464000,9.784464111328125,4.919145084944367,4.34837348819077,-1.1260355355128646
1761915196648518100,9.79451806640625,5.127241891935467,4.228616058909893,-1.337948832052201
1761915196658572000,9.804572021484375,5.124063261899352,4.021994585168361,-1.3062507944963873
1761915196668626200,9.814626220703126,4.802821721765398,3.597034896406531,-1.0665011042654513
1761915196678680000,9.82468017578125,4.360507578098773,2.924626633474231,-0.7967224787347018
1761915196688735000,9.83473486328125,4.607638172361255,2.884468810608983,-0.9325830476850271
1761915196698789000,9.8447890625,4.9234097566515205,3.2196313240677115,-1.3676812686234712
1761915196708843000,9.854843017578125,2.76444308578074,1.8724942463010548,-1.4658826996564864
1761915196718897200,9.864897216796875,2.9599235723048447,1.2675801414489745,-1.5075762076564132
1761915196728951000,9.874950927734375,3.4306700297296047,1.43307056337893,-1.5501941370248793
1761915196739006000,9.885005859375,3.163984255647659,1.6213070701241492,-1.9081494970500468
1761915196749060000,9.89506005859375,2.632320095923543,1.3055945225447416,-1.9298837744742632
1761915196759114000,9.905114013671875,2.2627461942970752,0.11015665724277496,-1.4574027483418583
1761915196769168100,9.915168212890626,1.930555390125513,-1.3989321469336746,-0.7146265254586934
1761915196779222000,9.925221923828126,0.4973404498398304,-2.430968087017536,0.1013335915789008
1761915196789277200,9.935277099609374,-1.2391349682092665,-2.998103373095393,0.32316987784802914
1761915196799331000,9.9453310546875,-1.8232927007585762,-3.699172497844696,0.058238546217978
1761915196809385000,9.955385009765624,-2.440177229389548,-4.549959305852651,-0.1729004059255123
1761915196819439000,9.965439208984375,-4.19079866169095,-4.847204468849301,-0.2302215450376272
1761915196829493000,9.975492919921875,-6.20776684537828,-4.406462104544043,0.005378185907006263
1761915196839548200,9.985548095703125,-6.572530131852626,-4.036887618395686,0.21855741072893142
1761915196849602000,9.99560205078125,-4.8402971736788745,-4.1168922984808685,0.5153466466516256
1761915196859656200,10.00565625,-3.1749884647428988,-4.204247341328859,0.8505249422013759
1761915196869710000,10.0157099609375,-3.0513503946363922,-3.833468155565858,1.464016613523662
1761915196879765000,10.025764892578126,-3.023508447986841,-3.7454116864502427,1.7946712941691279
1761915196889819100,10.035819091796874,-2.6200340303242204,-4.140049886706471,1.9542256040483712
1761915196899873000,10.045873046875,-3.095295919346809,-4.8180070159375665,2.5014050205513834
1761915196909927200,10.05592724609375,-3.748249540224671,-5.485465547508001,3.2445901164963837
1761915196919981000,10.06598095703125,-3.099429658150673,-5.69850682516396,3.4186648268982767
1761915196930036000,10.076035888671875,-1.7098042687445878,-5.113932328507304,2.694157543416321
1761915196940089900,10.08608984375,-0.8852543102771043,-4.283058427715301,1.6023150771453976
1761915196950144000,10.09614404296875,-0.632030075314641,-3.463840477925539,0.6757946905001998
1761915196960198100,10.1061982421875,-0.31076749239265916,-2.0061989523917436,0.09151245478838682
1761915196970252000,10.116251953125,0.4417074099451303,-0.06438567067086697,-0.5215273811131715
1761915196980307200,10.12630712890625,0.8618868786931038,1.5860118848592042,-1.176650308854133
1761915196990361000,10.136361083984376,0.9333809200644493,2.637480255165696,-1.650399601356685
1761915197000415000,10.1464150390625,0.7314023036926984,2.96493117133379,-1.726497337131202
1761915197010468900,10.15646875,0.448789477160573,2.7820173209160566,-1.462648686171323
1761915197020523000,10.16652294921875,0.5545119513481855,2.6374200494110585,-1.1638824510872363
1761915197030578200,10.176578125,0.4452262317210436,2.9138433736532923,-0.916086232522875
1761915197040632000,10.186632080078125,0.2762444605439901,3.4319664992809296,-0.6925907808698714
1761915197050686200,10.196686279296875,0.37787060532867905,3.6602035925030707,-0.4258404171191156
1761915197060740000,10.206739990234375,1.1524240684837102,3.5033044733077285,-0.5132223479740321
1761915197070795000,10.216794921875,1.9202818333923815,3.451587730073929,-0.907879399061203
1761915197080849200,10.22684912109375,2.510837158024311,3.5348394292563197,-1.266092825500667
1761915197090903000,10.236903076171876,3.068956193953752,3.546685934394598,-1.2665092973470686
1761915197100957200,10.246957275390624,3.2231372863620518,3.394527287724614,-0.9267167860001325
1761915197111011000,10.257010986328124,2.8937440039545295,3.3312732514321803,-0.5480367639847099
1761915197121066000,10.26706591796875,2.3561691588819027,3.366421721702814,-0.3460458726532757
1761915197131119900,10.277119873046875,2.2701485795080663,3.3664351657062768,-0.2791455888129771
1761915197141174000,10.287174072265625,2.3561036924302576,2.9942233167916537,-0.3702938864640891
1761915197151228000,10.297227783203125,2.566910342901945,2.2825521340072155,-0.5776816684029996
1761915197161282000,10.307281982421875,2.593341253709793,1.8656261140972374,-0.6746801533870399
1761915197171337200,10.317337158203125,2.5254513743102547,1.737038312628865,-0.269883108818531
1761915197181391000,10.32739111328125,2.6210990292072296,1.6227502546697854,1.5533220597870647
1761915197191445000,10.337445068359376,-0.39691432849466796,-0.10831892042160034,2.02121941139102
1761915197201499000,10.347498779296876,0.09755845695436001,-1.4997037207156418,0.9050238634996116
1761915197211553000,10.357552978515624,-0.5916916351854801,-1.611635570937395,0.7686549066357314
1761915197221608200,10.367608154296875,-1.3054793717324733,-0.6765080994665622,0.6290149652771652
1761915197231662000,10.377662109375,-1.2305904272258281,0.2142839711934328,0.2295586972147226
1761915197241716200,10.38771630859375,-0.2474362992107868,1.1384253537476061,0.9689137134775518
