time,seconds_elapsed,z,y,x
1761915186986436400,0.132436279296875,-1.1616584062576294,-1.0978482961654663,-0.4621998071670532
1761915186996490500,0.142490478515625,-1.1980897188186646,-0.06116342172026634,-0.057919856160879135
1761915187006544400,0.15254443359375,-1.1130506992340088,0.8807716369628906,0.3962162137031555
1761915187016598500,0.1625986328125,-1.0036591291427612,1.450835108757019,0.7689929604530334
1761915187026653400,0.1726533203125,-0.9059617519378662,1.5683339834213257,0.9936121702194214
1761915187036707300,0.182707275390625,-0.8173832893371582,1.2979148626327515,1.0502139329910278
1761915187046761500,0.192761474609375,-0.7533832788467407,0.7652812600135803,0.9967601895332336
1761915187056815400,0.2028154296875,-0.7473848462104797,0.09877383708953857,0.9342244863510132
1761915187066869500,0.212869384765625,-0.8152821660041809,-0.43444424867630005,0.9508439302444458
1761915187076923400,0.22292333984375,-0.9432691931724548,-0.723130464553833,1.0764402151107788
1761915187086978600,0.232978515625,-1.0679032802581787,-1.267446517944336,1.2206403017044067
1761915187097032400,0.243032470703125,-1.1387320756912231,-1.814742088317871,1.3150938749313354
1761915187107086300,0.25308642578125,-1.2281076908111572,-2.1077070236206055,1.3141494989395142
1761915187117140500,0.263140380859375,-1.3382930755615234,-2.271221160888672,1.1733959913253784
1761915187127194400,0.2731943359375,-1.4127897024154663,-2.4630510807037354,0.8777705430984497
1761915187137249500,0.28324951171875,-1.4008978605270386,-2.6427576541900635,0.5084440112113953
1761915187147303400,0.293303466796875,-1.3023910522460938,-2.7845299243927,0.18451283872127533
1761915187157357600,0.303357666015625,-1.1385469436645508,-2.7647221088409424,0.007747865281999111
1761915187167411200,0.3134111328125,-0.9997391700744629,-2.522169828414917,0.013899766840040684
1761915187177465300,0.32346533203125,-0.9079961180686951,-2.142829418182373,0.16830728948116302
1761915187187520500,0.3335205078125,-0.8610999584197998,-1.718196988105774,0.4246639907360077
1761915187197574400,0.343574462890625,-0.8496154546737671,-1.3478716611862183,0.7073720097541809
1761915187207628500,0.353628662109375,-0.8791765570640564,-1.1133191585540771,0.9361511468887329
1761915187217682400,0.363682373046875,-0.9318877458572388,-0.956714391708374,1.0699121952056885
1761915187227736600,0.373736572265625,-0.9777519106864929,-0.8913146257400513,1.0956915616989136
1761915187237790500,0.38379052734375,-0.9909598231315613,-0.8886070847511292,1.0415056943893433
1761915187247845400,0.393845458984375,-0.9601063132286072,-0.929850697517395,0.9287514686584473
1761915187257899500,0.4038994140625,-0.9061867594718933,-0.957085907459259,0.7843186259269714
1761915187267953400,0.413953369140625,-0.8407115936279297,-0.9335419535636902,0.6362521648406982
1761915187278007600,0.424007568359375,-0.7744922637939453,-0.8373082876205444,0.5028625726699829
1761915187288061400,0.4340615234375,-0.7301604747772217,-0.67924964427948,0.37348565459251404
1761915187298116400,0.444116455078125,-0.7467917799949646,-0.5668145418167114,0.2457496076822281
1761915187308170200,0.454170166015625,-0.8223533630371094,-0.5899222493171692,0.12708687782287598
1761915187318224400,0.464224365234375,-0.9476292729377747,-0.7862635254859924,0.03392584249377251
1761915187328278500,0.474278564453125,-1.1156222820281982,-1.0262929201126099,0.003084304742515087
1761915187338332400,0.48433251953125,-1.2784870862960815,-1.1099635362625122,0.0596730038523674
1761915187348386600,0.494386474609375,-1.3818649053573608,-1.040265440940857,0.1967107653617859
1761915187358441500,0.50444140625,-1.4057087898254395,-0.814903736114502,0.35707342624664307
1761915187368495400,0.514495361328125,-1.3900041580200195,-0.5186368823051453,0.4453255236148834
1761915187378549200,0.52454931640625,-1.427226185798645,-0.40916192531585693,0.372078001499176
1761915187388603400,0.534603271484375,-1.532659649848938,-0.7367403507232666,0.09832422435283661
1761915187398657300,0.5446572265625,-1.6141066551208496,-1.3333004713058472,-0.30194154381752014
1761915187408712400,0.55471240234375,-1.576108694076538,-1.7231196165084839,-0.6496111154556274
1761915187418766600,0.5647666015625,-1.4036718606948853,-1.6351330280303955,-0.84343421459198
1761915187428820500,0.574820556640625,-1.2426939010620117,-1.1603140830993652,-0.8859806060791016
1761915187438874400,0.584874267578125,-1.3058356046676636,-0.5557461977005005,-0.8248199224472046
1761915187448928300,0.59492822265625,-1.6158411502838135,0.03586941584944725,-0.6649455428123474
1761915187458983400,0.6049833984375,-1.9518781900405884,0.5885169506072998,-0.33078572154045105
1761915187469037600,0.61503759765625,-1.9913246631622314,1.20508873462677,0.21138887107372284
1761915187479091500,0.625091552734375,-1.5978845357894897,1.60274338722229,0.747787594795227
1761915187489145600,0.6351455078125,-1.0083835124969482,1.2276533842086792,1.012290358543396
1761915187499199500,0.645199462890625,-0.5157877206802368,0.12479264289140701,1.0598400831222534
1761915187509253400,0.65525341796875,-0.22660386562347412,-1.1407694816589355,1.0890039205551147
1761915187519308300,0.665308349609375,-0.11531245708465576,-2.2407398223876953,1.1080288887023926
1761915187529362400,0.675362548828125,-0.1290740668773651,-3.0633585453033447,1.12107253074646
1761915187539416600,0.68541650390625,-0.0960935577750206,-3.489154815673828,1.2128305435180664
1761915187549470500,0.695470458984375,0.09170909970998764,-3.547367811203003,1.4088807106018066
1761915187559524600,0.705524658203125,0.4055190682411194,-3.3338284492492676,1.7030003070831299
1761915187569579300,0.715579345703125,0.7327861189842224,-3.031357765197754,2.022101879119873
1761915187579633400,0.72563330078125,0.9308055639266968,-2.74922776222229,2.2823140621185303
1761915187589687300,0.735687255859375,0.8885889053344727,-2.5770606994628906,2.3621790409088135
1761915187599741400,0.745741455078125,0.6114670038223267,-2.6481773853302,2.1366913318634033
1761915187609795300,0.75579541015625,0.21929922699928284,-2.8133997917175293,1.6328045129776
1761915187619849200,0.76584912109375,-0.18363529443740845,-2.877861261367798,0.9977809190750122
1761915187629904400,0.775904296875,-0.5325234532356262,-2.7657949924468994,0.40412023663520813
1761915187639958000,0.7859580078125,-0.7829259634017944,-2.4427478313446045,-0.040022775530815125
1761915187650012200,0.79601220703125,-0.9283827543258667,-2.004531145095825,-0.3318365216255188
1761915187660066000,0.806066162109375,-0.9676660895347595,-1.5531425476074219,-0.4848710298538208
1761915187670120200,0.8161201171875,-0.9139671921730042,-1.122550129890442,-0.5207353234291077
1761915187680175400,0.82617529296875,-0.8304635286331177,-0.5902235507965088,-0.4271884560585022
1761915187690229200,0.836229248046875,-0.7544372081756592,-0.11005187779664993,-0.2569195330142975
1761915187700283400,0.846283447265625,-0.7094897031784058,0.08656077086925507,-0.09064240008592606
1761915187710337300,0.856337158203125,-0.6935432553291321,0.055985819548368454,0.06896403431892395
1761915187720391200,0.86639111328125,-0.7039183378219604,-0.11244650185108185,0.21897505223751068
1761915187730445000,0.876445068359375,-0.7297645807266235,-0.3419044315814972,0.3473772406578064
1761915187740500200,0.886500244140625,-0.734196662902832,-0.533042311668396,0.4358464181423187
1761915187750554400,0.896554443359375,-0.6891477108001709,-0.6561391949653625,0.4874451756477356
1761915187760608300,0.906608154296875,-0.6183776259422302,-0.7892487645149231,0.5183660984039307
1761915187770662400,0.916662353515625,-0.5686106085777283,-1.0592436790466309,0.5390031933784485
1761915187780716300,0.92671630859375,-0.5589295029640198,-1.3631179332733154,0.5258985757827759
1761915187790771200,0.936771240234375,-0.6337627172470093,-1.6870509386062622,0.45132365822792053
1761915187800825000,0.9468251953125,-0.7977730631828308,-1.9142299890518188,0.35589367151260376
1761915187810879200,0.956879150390625,-0.9874979853630066,-1.929395079612732,0.28829947113990784
1761915187820933400,0.966933349609375,-1.1274323463439941,-1.8077400922775269,0.20825152099132538
1761915187830987300,0.9769873046875,-1.1750003099441528,-1.6875969171524048,0.11964574456214905
1761915187841042200,0.987042236328125,-1.1657873392105103,-1.6657767295837402,0.02997531183063984
1761915187851096000,0.997095947265625,-1.152034044265747,-1.6703370809555054,-0.019560014829039574
1761915187861150200,1.007150146484375,-1.1522090435028076,-1.3566330671310425,-0.02248375117778778
1761915187871204000,1.0172041015625,-1.1669336557388306,-0.7102543115615845,0.002562214620411396
1761915187881258200,1.02725830078125,-1.1820189952850342,-0.08568724989891052,-0.008235609158873558
1761915187891312000,1.03731201171875,-1.202369213104248,0.16121573746204376,-0.12943419814109802
1761915187901367300,1.0473671875,-1.1324745416641235,0.0285232774913311,-0.2369958907365799
1761915187911421200,1.057421142578125,-0.9343824982643127,-0.3248630166053772,-0.1567700356245041
1761915187921475000,1.06747509765625,-0.7138470411300659,-0.7757539749145508,0.08759481459856033
1761915187931529200,1.077529296875,-0.521523654460907,-1.0634491443634033,0.34389156103134155
1761915187941583000,1.0875830078125,-0.1939910650253296,-0.8667216897010803,0.4839245676994324
1761915187951638300,1.09763818359375,0.3305981457233429,-0.2871491014957428,0.4580826163291931
1761915187961692400,1.1076923828125,0.8881929516792297,0.36712321639060974,0.26038363575935364
1761915187971746300,1.117746337890625,1.3086086511611938,0.6680036783218384,-0.09540882706642151
1761915187981800200,1.12780029296875,1.5109843015670776,0.47792163491249084,-0.5302924513816833
1761915187991854000,1.13785400390625,1.481744408607483,-0.09139296412467957,-0.9489789009094238
1761915188001908200,1.147908203125,1.277966022491455,-0.7494854927062988,-1.2500903606414795
1761915188011963100,1.157963134765625,1.0271505117416382,-1.2428280115127563,-1.3531475067138672
1761915188022017300,1.168017333984375,0.8226525783538818,-1.5768353939056396,-1.2859669923782349
1761915188032071200,1.1780712890625,0.6887067556381226,-1.6780723333358765,-1.1338069438934326
1761915188042125300,1.188125244140625,0.679149329662323,-1.4927706718444824,-0.9856216907501221
1761915188052179500,1.198179443359375,0.739439845085144,-1.1847140789031982,-0.9546437859535217
1761915188062233000,1.208233154296875,0.7553938627243042,-0.8664847612380981,-1.0743480920791626
1761915188072288300,1.218288330078125,0.6786202788352966,-0.6323702931404114,-1.3201408386230469
1761915188082342100,1.228342041015625,0.4844966530799866,-0.5678412318229675,-1.6663390398025513
1761915188092396300,1.238396240234375,0.2208668738603592,-0.6261963844299316,-2.0215821266174316
1761915188102450200,1.2484501953125,-0.02114434912800789,-0.7007583379745483,-2.2569496631622314
1761915188112504300,1.25850439453125,-0.18329890072345734,-0.6565277576446533,-2.265183210372925
1761915188122559200,1.268559326171875,-0.2385130077600479,-0.43333110213279724,-2.0436227321624756
1761915188132613000,1.278613037109375,-0.1702447384595871,-0.11266735941171646,-1.619864583015442
1761915188142667300,1.288667236328125,-0.013921563513576984,0.19045795500278473,-1.0769885778427124
1761915188152721200,1.29872119140625,0.15790770947933197,0.38671907782554626,-0.4984475076198578
1761915188162775300,1.308775390625,0.30710846185684204,0.4585212171077728,0.030856486409902573
1761915188172830500,1.31883056640625,0.40848514437675476,0.42145320773124695,0.4451002776622772
1761915188182884000,1.328884033203125,0.4599301517009735,0.2903890013694763,0.7117915153503418
1761915188192938200,1.338938232421875,0.4663752615451813,0.07268624752759933,0.8360303640365601
1761915188202992000,1.3489921875,0.4360235631465912,-0.225397989153862,0.8487894535064697
1761915188213046300,1.35904638671875,0.35005006194114685,-0.5040006041526794,0.8166008591651917
1761915188223100200,1.36910009765625,0.18688932061195374,-0.7111048698425293,0.7832242846488953
1761915188233155300,1.3791552734375,-0.03716214746236801,-0.7674328684806824,0.7772601842880249
1761915188243209200,1.389209228515625,-0.3111313283443451,-0.6461782455444336,0.7886158227920532
1761915188253263400,1.399263427734375,-0.5977382659912109,-0.42609432339668274,0.7839031219482422
1761915188263317000,1.40931689453125,-0.8328129649162292,-0.22723570466041565,0.7449643015861511
1761915188273371100,1.41937109375,-0.9701758623123169,-0.11781121045351028,0.6691232919692993
1761915188283426300,1.42942626953125,-0.9944215416908264,-0.08207260072231293,0.5831617116928101
1761915188293480200,1.439480224609375,-0.9365435838699341,-0.0001982369867619127,0.5428060293197632
1761915188303534300,1.449534423828125,-0.7901349663734436,0.2505601942539215,0.5808230042457581
1761915188313588200,1.459588134765625,-0.5126131176948547,0.7283296585083008,0.6583199501037598
1761915188323642400,1.469642333984375,-0.1567704975605011,1.1439368724822998,0.6699531078338623
1761915188333696000,1.479696044921875,0.09170908480882645,1.0667510032653809,0.5487198829650879
1761915188343751200,1.489751220703125,0.117116279900074,0.33510416746139526,0.2875424921512604
1761915188353805300,1.499805419921875,0.021623050794005394,-0.5151821374893188,0.015139215625822544
1761915188363859200,1.509859130859375,-0.04738864302635193,-1.149811863899231,-0.18118084967136383
1761915188373913300,1.519913330078125,-0.13747859001159668,-1.3826709985733032,-0.24997936189174652
1761915188383967200,1.52996728515625,-0.3834152817726135,-1.0680427551269531,-0.16836537420749664
1761915188394022100,1.540022216796875,-0.7396439909934998,-0.3043240010738373,0.07189276814460754
1761915188404076300,1.550076171875,-1.1060773134231567,0.5846845507621765,0.38689833879470825
1761915188414130200,1.560130126953125,-1.3246634006500244,1.2755546569824219,0.684739351272583
1761915188424184300,1.570184326171875,-1.2247612476348877,1.7307379245758057,0.9266640543937683
1761915188434238200,1.58023828125,-0.8479878902435303,2.021023988723755,1.1163769960403442
1761915188444292400,1.590292236328125,-0.29269835352897644,2.138983726501465,1.2666840553283691
1761915188454347000,1.600346923828125,0.2863929867744446,1.8929553031921387,1.324384093284607
1761915188464401200,1.610401123046875,0.7306337952613831,1.149274468421936,1.2650290727615356
1761915188474455000,1.620455078125,1.0654191970825195,0.14059790968894958,1.1364690065383911
1761915188484509200,1.63050927734375,1.3539495468139648,-0.8496988415718079,1.0615836381912231
1761915188494563300,1.640563232421875,1.6303519010543823,-1.388542890548706,1.122510313987732
1761915188504618200,1.6506181640625,1.8172733783721924,-1.3989691734313965,1.2579345703125
1761915188514672400,1.66067236328125,1.9295456409454346,-1.0323575735092163,1.3577027320861816
1761915188524726300,1.670726318359375,2.0219132900238037,-0.38148555159568787,1.3647243976593018
1761915188534780200,1.6807802734375,2.1551754474639893,0.47816604375839233,1.2747186422348022
1761915188544834000,1.690833984375,2.4093995094299316,1.369986653327942,1.0381765365600586
1761915188554888200,1.70088818359375,2.698962450027466,1.92226243019104,0.5994704365730286
1761915188564943400,1.710943359375,2.8687527179718018,1.9674049615859985,0.00875273160636425
1761915188574997200,1.720997314453125,2.8948209285736084,1.8404909372329712,-0.5702134370803833
1761915188585051400,1.731051513671875,2.771118402481079,1.722164511680603,-1.0459691286087036
1761915188595105300,1.741105224609375,2.473644971847534,1.8304928541183472,-1.3597800731658936
1761915188605159200,1.7511591796875,2.050384521484375,2.156871795654297,-1.5066355466842651
1761915188615216400,1.76121630859375,1.600224256515503,2.5551505088806152,-1.5449299812316895
1761915188625270300,1.771270263671875,1.2436881065368652,2.915229082107544,-1.5587912797927856
1761915188635324400,1.781324462890625,0.9937155246734619,3.245992422103882,-1.5822076797485352
1761915188645378300,1.79137841796875,0.8507968187332153,3.539581537246704,-1.5963234901428223
1761915188655432400,1.801432373046875,0.8014013171195984,3.707559823989868,-1.567960262298584
1761915188665486300,1.811486328125,0.8015710115432739,3.6660146713256836,-1.4632357358932495
1761915188675541500,1.82154150390625,0.8235846757888794,3.3688156604766846,-1.2735568284988403
1761915188685595400,1.831595458984375,0.8447327017784119,2.878070592880249,-0.9637981057167053
1761915188695649300,1.841649169921875,0.8214686512947083,2.33107590675354,-0.5547373294830322
1761915188705703400,1.851703369140625,0.721535325050354,1.8355495929718018,-0.09937432408332825
1761915188715757300,1.86175732421875,0.5481688380241394,1.4178458452224731,0.32234761118888855
1761915188725812500,1.8718125,0.30231356620788574,1.071067452430725,0.6592745184898376
1761915188735866600,1.88186669921875,0.03947821632027626,0.7792097330093384,0.8864781260490417
1761915188745920500,1.89192041015625,-0.2111126035451889,0.5185256600379944,0.9726552963256836
1761915188755974700,1.901974609375,-0.4600372016429901,0.32692208886146545,0.9481227397918701
1761915188766028300,1.9120283203125,-0.7057250738143921,0.15273703634738922,0.8316939473152161
1761915188776082400,1.92208251953125,-0.9143571257591248,0.05855141952633858,0.6698856353759766
1761915188786137300,1.932137451171875,-1.0126820802688599,-0.008910348638892174,0.5085041522979736
1761915188796191500,1.94219140625,-0.900152862071991,0.2350407987833023,0.42365580797195435
1761915188806245400,1.952245361328125,-0.5614086389541626,0.7347220182418823,0.43451884388923645
1761915188816299500,1.962299560546875,-0.17881758511066437,1.0713809728622437,0.44611212611198425
1761915188826353700,1.972353759765625,-0.005142968613654375,0.971369206905365,0.366256445646286
1761915188836408300,1.982408203125,-0.05490413308143616,0.5356723070144653,0.2551768124103546
1761915188846462500,1.99246240234375,-0.20006978511810303,-0.24597889184951782,0.30045679211616516
1761915188856516400,2.002516357421875,-0.31950831413269043,-1.044785737991333,0.6437904834747314
1761915188866570500,2.012570556640625,-0.3805142641067505,-1.3629456758499146,1.2176573276519775
1761915188876624400,2.022624267578125,-0.3820900619029999,-1.130155086517334,1.8280173540115356
1761915188886678500,2.032678466796875,-0.40049588680267334,-0.5379677414894104,2.244694709777832
1761915188896733400,2.0427333984375,-0.496682345867157,0.16139401495456696,2.266394853591919
1761915188906787300,2.052787353515625,-0.5701371431350708,0.8188691139221191,1.851975440979004
1761915188916841500,2.062841552734375,-0.5564937591552734,1.343805193901062,1.1297948360443115
1761915188926895400,2.072895263671875,-0.47294387221336365,1.829367995262146,0.28930798172950745
1761915188936949500,2.082949462890625,-0.351428359746933,2.3270375728607178,-0.4656044542789459
1761915188947003400,2.09300341796875,-0.21897175908088684,2.7122840881347656,-1.0070827007293701
1761915188957058300,2.103058349609375,-0.11132919043302536,2.819077968597412,-1.3571336269378662
1761915188967112400,2.113112548828125,-0.002322919201105833,2.568621873855591,-1.5763766765594482
1761915188977166300,2.123166259765625,0.13209879398345947,2.046515464782715,-1.6995909214019775
1761915188987220500,2.133220458984375,0.2502530813217163,1.4242463111877441,-1.7258435487747192
1761915188997274400,2.1432744140625,0.28245124220848083,0.7917493581771851,-1.6797492504119873
1761915189007329500,2.15332958984375,0.19325779378414154,0.07754059880971909,-1.6118409633636475
1761915189017383400,2.163383544921875,-0.051726117730140686,-0.8597067594528198,-1.6054928302764893
1761915189027437600,2.1734375,-0.4687146246433258,-1.7488800287246704,-1.6506457328796387
1761915189037491200,2.1834912109375,-0.9449917078018188,-2.2665233612060547,-1.7191967964172363
1761915189047545300,2.19354541015625,-1.3266777992248535,-2.3332011699676514,-1.7905372381210327
1761915189057599500,2.203599609375,-1.5461814403533936,-1.9614355564117432,-1.8247977495193481
1761915189067654400,2.213654296875,-1.6141139268875122,-1.2222709655761719,-1.781103491783142
1761915189077708500,2.22370849609375,-1.549942135810852,-0.33165186643600464,-1.6536788940429688
1761915189087762400,2.233762451171875,-1.3879491090774536,0.5036929845809937,-1.4443504810333252
1761915189097816600,2.243816650390625,-1.141890048980713,1.172818899154663,-1.16105055809021
1761915189107870500,2.253870361328125,-0.8792939186096191,1.6194803714752197,-0.8266950845718384
1761915189117925400,2.26392529296875,-0.6732057332992554,1.8448407649993896,-0.48753300309181213
1761915189127979500,2.2739794921875,-0.501259446144104,1.8896623849868774,-0.1838781088590622
1761915189138033400,2.284033447265625,-0.3222934603691101,1.7487398386001587,0.0849917083978653
1761915189148087600,2.294087646484375,-0.13486212491989136,1.3936588764190674,0.349677711725235
1761915189158141400,2.304141357421875,0.022404994815587997,0.8520501852035522,0.6627394556999207
1761915189168195600,2.314195556640625,0.1041409820318222,0.18942105770111084,1.0441234111785889
1761915189178250500,2.32425048828125,0.114664725959301,-0.5543771982192993,1.4841614961624146
1761915189188304400,2.334304443359375,0.03711657226085663,-1.2911771535873413,1.916069746017456
1761915189198358500,2.344358642578125,-0.14724740386009216,-1.8781087398529053,2.2980501651763916
1761915189208412400,2.354412353515625,-0.42372897267341614,-2.2732014656066895,2.5908970832824707
1761915189218466600,2.364466552734375,-0.7215251922607422,-2.5122785568237305,2.767406702041626
1761915189228521500,2.374521484375,-0.9262968301773071,-2.5854134559631348,2.8138587474823
1761915189238575400,2.384575439453125,-1.039040207862854,-2.4909496307373047,2.7375125885009766
1761915189248629200,2.394629150390625,-1.073932409286499,-2.318497896194458,2.5138051509857178
1761915189258683400,2.404683349609375,-1.0496095418930054,-2.115288019180298,2.1471006870269775
1761915189268737300,2.4147373046875,-0.9769363403320312,-1.913596749305725,1.673307180404663
1761915189278791400,2.42479150390625,-0.8303834199905396,-1.5966832637786865,1.1789888143539429
1761915189288846600,2.4348466796875,-0.6207293272018433,-1.0459089279174805,0.7888681888580322
1761915189298900500,2.444900390625,-0.37000784277915955,-0.3236319124698639,0.5666087865829468
1761915189308954400,2.454954345703125,-0.11267050355672836,0.3062414824962616,0.4488224387168884
1761915189319008300,2.46500830078125,0.09948809444904327,0.37649914622306824,0.2585718035697937
1761915189329062400,2.4750625,0.16527649760246277,-0.40227049589157104,-0.06309930235147476
1761915189339117600,2.48511767578125,0.09246274083852768,-1.4758293628692627,-0.32373756170272827
1761915189349171500,2.49517138671875,-0.021503841504454613,-2.0259923934936523,-0.32967013120651245
1761915189359225600,2.5052255859375,-0.31415143609046936,-2.01308536529541,-0.09327837824821472
1761915189369279500,2.515279541015625,-0.8444772362709045,-1.2856369018554688,0.2950657904148102
1761915189379333400,2.52533349609375,-1.2550524473190308,-0.17878571152687073,0.6845430135726929
1761915189389387300,2.53538720703125,-1.296600580215454,0.5754910111427307,0.8386186361312866
1761915189399442400,2.5454423828125,-0.958578884601593,0.6515213251113892,0.5840499997138977
1761915189409496600,2.55549658203125,-0.32717326283454895,0.32931721210479736,-0.07804138958454132
1761915189419550500,2.565550537109375,0.39251112937927246,0.22615113854408264,-0.8566197752952576
1761915189429604600,2.5756044921875,0.9531886577606201,0.45667847990989685,-1.3756394386291504
1761915189439658500,2.585658447265625,1.245431900024414,0.829167902469635,-1.5519382953643799
1761915189449712600,2.595712646484375,1.388870358467102,1.2031428813934326,-1.4959242343902588
1761915189459767300,2.605767333984375,1.4683867692947388,1.4949718713760376,-1.3174386024475098
1761915189469821400,2.615821533203125,1.4974024295806885,1.6560388803482056,-1.1132339239120483
1761915189479875300,2.625875244140625,1.4691436290740967,1.6742782592773438,-0.9726315140724182
1761915189489929500,2.635929443359375,1.3830865621566772,1.5774036645889282,-0.965446412563324
1761915189499983600,2.645983642578125,1.2844089269638062,1.4029282331466675,-1.1006848812103271
1761915189510038300,2.656038330078125,1.2397749423980713,1.1729991436004639,-1.3468912839889526
1761915189520092400,2.666092529296875,1.2554916143417358,0.9695757031440735,-1.6443588733673096
1761915189530146300,2.676146240234375,1.3058209419250488,0.8547208309173584,-1.9236596822738647
1761915189540200400,2.686200439453125,1.3514033555984497,0.7662463784217834,-2.12158465385437
1761915189550254300,2.69625439453125,1.363390564918518,0.6445409059524536,-2.179464817047119
1761915189560308500,2.70630859375,1.304671287536621,0.544689416885376,-2.0942459106445312
1761915189570363600,2.71636376953125,1.1612519025802612,0.5321564674377441,-1.8956185579299927
1761915189580417300,2.726417236328125,0.9470047354698181,0.6628960967063904,-1.6407936811447144
1761915189590471400,2.736471435546875,0.683769941329956,0.8324430584907532,-1.3665589094161987
1761915189600525300,2.746525390625,0.41511693596839905,0.928759753704071,-1.0985426902770996
1761915189610579500,2.756579345703125,0.16509327292442322,0.9354387521743774,-0.8496465682983398
1761915189620632000,2.766632080078125,-0.032498907297849655,0.8384780883789062,-0.6419421434402466
1761915189630686000,2.77668603515625,-0.13646215200424194,0.7004305720329285,-0.4884225130081177
1761915189640740000,2.786739990234375,-0.12748223543167114,0.5635718107223511,-0.3687936067581177
1761915189650794000,2.7967939453125,-0.028689198195934296,0.4726543724536896,-0.26874056458473206
1761915189660848000,2.80684814453125,0.09107448160648346,0.43251121044158936,-0.18344272673130035
1761915189670902000,2.816902099609375,0.19865980744361877,0.4239031672477722,-0.11786273121833801
1761915189680957200,2.826957275390625,0.2959642708301544,0.3865898847579956,-0.06459018588066101
1761915189691011000,2.837010986328125,0.3813365697860718,0.3292995095252991,0.008281196467578411
1761915189701065000,2.84706494140625,0.4513963460922241,0.29481980204582214,0.12973520159721375
1761915189711119000,2.857119140625,0.4649146795272827,0.2536316514015198,0.2850460410118103
1761915189721173000,2.867173095703125,0.39201784133911133,0.17353549599647522,0.42201295495033264
1761915189731228200,2.877228271484375,0.2513324022293091,-0.03392898663878441,0.5025602579116821
1761915189741282000,2.887281982421875,0.09793752431869507,-0.36340248584747314,0.5439378023147583
1761915189751336200,2.897336181640625,-0.024773644283413887,-0.764096736907959,0.584351658821106
1761915189761390000,2.90739013671875,-0.04157153144478798,-0.9289730191230774,0.6851973533630371
1761915189771444000,2.91744384765625,0.02678898349404335,-0.6139724850654602,0.8009051084518433
1761915189781497900,2.927497802734375,0.10324780642986298,0.07521872967481613,0.7966710329055786
1761915189791553000,2.937552978515625,0.0895310714840889,0.6843470335006714,0.5429275631904602
1761915189801607200,2.947607177734375,-0.16700297594070435,0.6814782619476318,0.039119526743888855
1761915189811661000,2.9576611328125,-0.5503833889961243,0.13809294998645782,-0.4984873831272125
1761915189821715200,2.967715087890625,-0.8104434609413147,-0.7415978908538818,-0.8145825266838074
1761915189831769000,2.97776904296875,-0.8955927491188049,-1.3776006698608398,-0.6444350481033325
1761915189841824000,2.987823974609375,-0.7696004509925842,-0.9282596707344055,0.14704738557338715
1761915189851878100,2.997878173828125,-0.36809873580932617,0.33493825793266296,1.226631760597229
1761915189861932000,3.00793212890625,0.2207288146018982,1.3543238639831543,2.033454656600952
1761915189871986200,3.017986083984375,0.7636662125587463,1.7231764793395996,2.325827121734619
1761915189882040000,3.0280400390625,1.091340184211731,1.4309755563735962,2.1372251510620117
1761915189892094200,3.03809423828125,1.1467595100402832,0.6026681661605835,1.5902094841003418
1761915189902148900,3.04814892578125,0.9949443340301514,-0.4398256838321686,0.873947024345398
1761915189912203000,3.058203125,0.8002831339836121,-1.3296059370040894,0.19801554083824158
1761915189922257000,3.0682568359375,0.6729155778884888,-1.9345206022262573,-0.31974315643310547
1761915189932311000,3.07831103515625,0.5512009263038635,-2.144690752029419,-0.6155740022659302
1761915189942365200,3.088365234375,0.34193581342697144,-1.8885173797607422,-0.687156617641449
1761915189952419000,3.098419189453125,0.07329827547073364,-1.3369272947311401,-0.6024476289749146
1761915189962474000,3.108473876953125,-0.13988615572452545,-0.8992477059364319,-0.46093469858169556
1761915189972527900,3.11852783203125,-0.23486816883087158,-0.7408308386802673,-0.32736584544181824
1761915189982582000,3.12858203125,-0.2504148781299591,-0.7760851979255676,-0.19071455299854279
1761915189992636000,3.138635986328125,-0.25638633966445923,-0.9154893755912781,-0.0450875461101532
1761915190002690000,3.14868994140625,-0.2914969027042389,-1.103419542312622,0.10834915190935135
1761915190012745200,3.1587451171875,-0.35057762265205383,-1.3537307977676392,0.23518842458724976
1761915190022799000,3.168799072265625,-0.4508512318134308,-1.5203660726547241,0.32130733132362366
1761915190032853200,3.178853271484375,-0.5830377340316772,-1.4903236627578735,0.37816497683525085
1761915190042907000,3.188906982421875,-0.7034413814544678,-1.175330400466919,0.3899441361427307
1761915190052961000,3.1989609375,-0.8008319735527039,-0.6539294123649597,0.34812089800834656
1761915190063015000,3.209014892578125,-0.8938700556755066,-0.029189899563789368,0.2487192153930664
1761915190073070000,3.219070068359375,-0.9932705760002136,0.5509146451950073,0.08485832065343857
1761915190083124200,3.229124267578125,-1.0745673179626465,0.9682841300964355,-0.10547354072332382
1761915190093178000,3.23917822265625,-1.123535394668579,1.156726360321045,-0.2793307602405548
1761915190103232300,3.249232177734375,-1.1034834384918213,1.1621172428131104,-0.3858848810195923
1761915190113286100,3.2592861328125,-1.0391590595245361,1.0623382329940796,-0.3887164294719696
1761915190123341000,3.269341064453125,-0.9575482606887817,0.9325170516967773,-0.2971058189868927
1761915190133395000,3.27939501953125,-0.8772531151771545,0.769498884677887,-0.13846158981323242
1761915190143449000,3.289448974609375,-0.7884345650672913,0.5721594095230103,0.052053239196538925
1761915190153503000,3.2995029296875,-0.7136830687522888,0.35046398639678955,0.21721144020557404
1761915190163557000,3.30955712890625,-0.6790561079978943,0.131355881690979,0.3322157859802246
1761915190173611300,3.319611328125,-0.707649290561676,-0.07720225304365158,0.40934011340141296
1761915190183666000,3.329666015625,-0.8985854387283325,-0.2822187840938568,0.4598592221736908
1761915190193720000,3.339719970703125,-1.2463150024414062,-0.531191885471344,0.48930108547210693
1761915190203774000,3.34977392578125,-1.6915676593780518,-0.9433746337890625,0.4950471520423889
1761915190213828000,3.359828125,-2.1320607662200928,-1.5887296199798584,0.5098698735237122
1761915190223882000,3.369882080078125,-2.410784959793091,-2.3468856811523438,0.5380181074142456
1761915190233937200,3.379937255859375,-2.437349557876587,-2.9704372882843018,0.5241912007331848
1761915190243991000,3.389990966796875,-2.1601884365081787,-3.2046196460723877,0.4627739191055298
1761915190254045000,3.400044921875,-1.6049150228500366,-2.732285737991333,0.4081892669200897
1761915190264099000,3.41009912109375,-0.9728108048439026,-1.4798996448516846,0.40639615058898926
1761915190274153000,3.420153076171875,-0.5280650854110718,-0.004207309801131487,0.46106022596359253
1761915190284207000,3.43020703125,-0.4078305959701538,0.8489112854003906,0.5377254486083984
1761915190294262300,3.44026220703125,-0.5065712332725525,1.0124198198318481,0.6701604723930359
1761915190304316200,3.450316162109375,-0.6167305111885071,0.8708951473236084,0.9412558674812317
1761915190314370000,3.4603701171875,-0.5852830410003662,0.6827625036239624,1.2669734954833984
1761915190324424000,3.470423828125,-0.44830650091171265,0.1659417450428009,1.2734817266464233
1761915190334478000,3.48047802734375,-0.13110758364200592,-0.8741351366043091,0.7211911082267761
1761915190344532000,3.490531982421875,0.4375646710395813,-1.8331828117370605,-0.0917835608124733
1761915190354587100,3.500587158203125,0.9941498637199402,-2.1690149307250977,-0.699759304523468
1761915190364641000,3.51064111328125,1.2081291675567627,-1.8404624462127686,-0.8920086026191711
1761915190374695200,3.520695068359375,1.0363132953643799,-1.1712926626205444,-0.7336663007736206
1761915190384749000,3.5307490234375,0.6415616273880005,-0.6620451211929321,-0.42675989866256714
1761915190394803000,3.540802978515625,0.23704558610916138,-0.5516520738601685,-0.2039577215909958
1761915190404858000,3.550858154296875,0.017527608200907707,-0.6745840907096863,-0.14126823842525482
1761915190414912000,3.560912109375,-0.02606743574142456,-0.7850537300109863,-0.21682561933994293
1761915190424966100,3.570966064453125,0.056411996483802795,-0.7231203317642212,-0.38340023159980774
1761915190435020000,3.58102001953125,0.20677144825458527,-0.48632457852363586,-0.5868030786514282
1761915190445074200,3.59107421875,0.38017144799232483,-0.22610817849636078,-0.8252531886100769
1761915190455128000,3.601128173828125,0.5441403985023499,-0.08662297576665878,-1.1352289915084839
1761915190465183000,3.611182861328125,0.5894524455070496,0.052330382168293,-1.5382472276687622
1761915190475237000,3.621237060546875,0.40734660625457764,0.2682226300239563,-2.0031559467315674
1761915190485291000,3.631291015625,0.04000137001276016,0.6178703904151917,-2.414036512374878
1761915190495345200,3.64134521484375,-0.3845672607421875,1.0146605968475342,-2.6298325061798096
1761915190505399000,3.65139892578125,-0.7617949843406677,1.4027146100997925,-2.5718932151794434
1761915190515454000,3.661453857421875,-1.0135318040847778,1.7226111888885498,-2.277845621109009
1761915190525508000,3.671508056640625,-1.1077663898468018,1.8971084356307983,-1.8215692043304443
1761915190535562000,3.68156201171875,-1.0015605688095093,1.8658627271652222,-1.2295057773590088
1761915190545616100,3.6916162109375,-0.696287214756012,1.832776427268982,-0.5567727088928223
1761915190555670000,3.701669921875,-0.33201271295547485,1.8247735500335693,0.07958898693323135
1761915190565724200,3.71172412109375,-0.0008491856278851628,1.6906721591949463,0.5997354984283447
1761915190575779000,3.721779052734375,0.2387724071741104,1.4432893991470337,0.945721447467804
1761915190585833000,3.7318330078125,0.3387698531150818,1.0585545301437378,1.1190924644470215
1761915190595886800,3.741886962890625,0.2975975573062897,0.5921387076377869,1.1428567171096802
1761915190605941000,3.75194091796875,0.14130090177059174,0.11195237934589386,1.113200306892395
1761915190615996200,3.76199609375,-0.09229226410388947,-0.27097728848457336,1.109152913093567
1761915190626051000,3.772051025390625,-0.3409295082092285,-0.4394717812538147,1.1503099203109741
1761915190636105000,3.78210498046875,-0.5780518054962158,-0.40202596783638,1.1846016645431519
1761915190646159000,3.7921591796875,-0.7912197113037109,-0.2592400312423706,1.1468702554702759
1761915190656213000,3.802212890625,-0.9841770529747009,-0.031708378344774246,1.027788519859314
1761915190666267100,3.81226708984375,-1.1332099437713623,0.26177942752838135,0.8740018606185913
1761915190676321000,3.822321044921875,-1.179141640663147,0.5565310120582581,0.761578381061554
1761915190686376200,3.832376220703125,-1.1197434663772583,0.6484111547470093,0.7178178429603577
1761915190696430000,3.84243017578125,-0.9743824601173401,0.423505574464798,0.7140159010887146
1761915190706484000,3.85248388671875,-0.7480361461639404,0.005250008776783943,0.7402618527412415
1761915190716538000,3.8625380859375,-0.4207283854484558,-0.4206492304801941,0.8290727138519287
1761915190726592000,3.872592041015625,0.010163338854908943,-0.783257007598877,0.968254029750824
1761915190736646100,3.882646240234375,0.48561233282089233,-1.0449851751327515,1.1458518505096436
1761915190746701000,3.892701171875,0.8946706652641296,-1.2372331619262695,1.330824375152588
1761915190756755200,3.902755126953125,1.1403855085372925,-1.3304187059402466,1.435214638710022
1761915190766809000,3.91280908203125,1.1396464109420776,-1.3804686069488525,1.3659135103225708
1761915190776863000,3.922863037109375,0.7993239164352417,-1.6241947412490845,1.0316810607910156
1761915190786917000,3.932917236328125,0.1357552707195282,-1.8800930976867676,0.5235028266906738
1761915190796972000,3.942971923828125,-0.6292467713356018,-1.7990782260894775,0.032768234610557556
1761915190807026200,3.953026123046875,-1.1783504486083984,-1.1161435842514038,-0.2656746506690979
1761915190817080000,3.963080078125,-1.210108995437622,-0.04425603523850441,-0.3037335276603699
1761915190827134200,3.97313427734375,-0.7269697785377502,0.6485163569450378,-0.2571657598018646
1761915190837188000,3.98318798828125,-0.010258411057293415,0.6250524520874023,-0.33760160207748413
1761915190847242200,3.9932421875,0.6635567545890808,-0.0001624059514142573,-0.5127707719802856
1761915190857295000,4.003295166015625,1.0369683504104614,-0.6688185334205627,-0.582741916179657
1761915190867349200,4.013349365234375,1.120531678199768,-1.0140066146850586,-0.4493921399116516
1761915190877403100,4.023403076171875,1.0697036981582642,-1.0744637250900269,-0.24081937968730927
1761915190887458000,4.0334580078125,1.0086792707443237,-1.00810968875885,-0.11557144671678543
1761915190897512200,4.04351220703125,1.0104247331619263,-0.7618293166160583,-0.08792523294687271
1761915190907566000,4.053566162109375,1.0588027238845825,-0.3148808181285858,-0.12248533964157104
1761915190917620200,4.0636201171875,1.056370735168457,0.20915816724300385,-0.2655671238899231
1761915190927674000,4.073674072265625,0.9470487236976624,0.42300814390182495,-0.6922093033790588
1761915190937729000,4.08372900390625,0.8248903155326843,0.4249906539916992,-1.357177972793579
1761915190947783000,4.093782958984375,0.7564838528633118,0.3747807443141937,-2.002042293548584
1761915190957837000,4.103837158203125,0.7079463601112366,0.40234479308128357,-2.3832497596740723
1761915190967891200,4.11389111328125,0.6727039217948914,0.5470671057701111,-2.433170795440674
1761915190977945000,4.123945068359375,0.6189427375793457,0.7911627292633057,-2.2434282302856445
1761915190987999200,4.133999267578125,0.5473958253860474,1.1000747680664062,-1.939154863357544
1761915190998054100,4.14405419921875,0.5072379112243652,1.4704370498657227,-1.5835329294204712
1761915191008108000,4.15410791015625,0.48484018445014954,1.7567822933197021,-1.2123692035675049
1761915191018162000,4.164161865234375,0.4861351251602173,1.9003289937973022,-0.7827463150024414
1761915191028216000,4.174216064453125,0.4999638497829437,2.0411229133605957,-0.2621172070503235
1761915191038270000,4.18427001953125,0.5202898979187012,2.089547872543335,0.26106053590774536
1761915191048325000,4.1943251953125,0.5571062564849854,1.979089379310608,0.6046794056892395
1761915191058379300,4.204379150390625,0.6215100884437561,1.7468701601028442,0.7432377338409424
1761915191068433200,4.21443310546875,0.7321511507034302,1.42972993850708,0.7111205458641052
1761915191078487000,4.224487060546875,0.8486929535865784,0.9784167408943176,0.5566800236701965
1761915191088541000,4.234541015625,0.8671888709068298,0.42738232016563416,0.36967843770980835
1761915191098595000,4.244594970703125,0.7760395407676697,-0.15143628418445587,0.2635751962661743
1761915191108650200,4.254650146484375,0.5977243781089783,-0.6457259058952332,0.27526748180389404
1761915191118704000,4.2647041015625,0.32819029688835144,-0.9006984233856201,0.39883238077163696
1761915191128758300,4.27475830078125,0.03339807316660881,-0.8753754496574402,0.5846093893051147
1761915191138812200,4.284812255859375,-0.19195277988910675,-0.6077579855918884,0.8059815764427185
1761915191148866300,4.2948662109375,-0.29194891452789307,-0.30029815435409546,1.017772912979126
1761915191158921000,4.3049208984375,-0.25064659118652344,-0.11175224184989929,1.1255877017974854
1761915191168975000,4.31497509765625,-0.08047646284103394,-0.15428666770458221,1.1247320175170898
1761915191179029000,4.325029052734375,0.13561581075191498,-0.41613757610321045,1.0707651376724243
1761915191189083100,4.335083251953125,0.36254990100860596,-0.7854101657867432,1.0319328308105469
1761915191199137300,4.34513720703125,0.566969633102417,-1.1521223783493042,1.0757312774658203
1761915191209191200,4.355191162109375,0.767661452293396,-1.345007300376892,1.2006926536560059
1761915191219246000,4.36524609375,0.9793312549591064,-1.2734993696212769,1.3236207962036133
1761915191229300000,4.375300048828125,1.1475721597671509,-1.1491209268569946,1.3487259149551392
1761915191239354000,4.38535400390625,1.2139410972595215,-1.206146240234375,1.2492647171020508
1761915191249408000,4.395407958984375,1.0896586179733276,-1.492085576057434,1.0800315141677856
1761915191259462100,4.405462158203125,0.7765827178955078,-1.909397006034851,0.8943848609924316
1761915191269517000,4.41551708984375,0.3462073504924774,-2.2828238010406494,0.6786109805107117
1761915191279571000,4.425571044921875,-0.06513548642396927,-2.240034580230713,0.3863372206687927
1761915191289625000,4.435625,-0.3591846823692322,-1.5962305068969727,-0.013192340731620789
1761915191299679000,4.445678955078125,-0.6166141033172607,-0.5793967247009277,-0.434193879365921
1761915191309733000,4.455733154296875,-0.9055503010749817,0.34607118368148804,-0.7399564981460571
1761915191319787000,4.465787109375,-1.0830457210540771,0.9978541135787964,-0.8324683904647827
1761915191329842200,4.47584228515625,-0.9688589572906494,1.3330848217010498,-0.7608048319816589
1761915191339896300,4.485896240234375,-0.6337115168571472,1.4291893243789673,-0.7012638449668884
1761915191349950000,4.495949951171875,-0.26010841131210327,1.4401473999023438,-0.7577263116836548
1761915191360004000,4.506004150390625,-0.0011181759182363749,1.3659696578979492,-0.8963778018951416
1761915191370058000,4.51605810546875,0.08037082105875015,1.1944525241851807,-1.028816819190979
1761915191380113200,4.526113037109375,0.05611564964056015,0.9787180423736572,-1.1547305583953857
1761915191390167000,4.5361669921875,0.024148928001523018,0.7810350656509399,-1.2734644412994385
1761915191400221200,4.54622119140625,0.05139869078993797,0.6868350505828857,-1.3862426280975342
1761915191410275000,4.556275146484375,0.1262899786233902,0.7505978345870972,-1.4782878160476685
1761915191420329200,4.5663291015625,0.165824756026268,0.9370415210723877,-1.5632280111312866
1761915191430384000,4.576384033203125,0.10323541611433029,1.007320523262024,-1.6441527605056763
1761915191440440000,4.586440185546875,-0.03867954760789871,0.788938045501709,-1.7347508668899536
1761915191450494000,4.596493896484375,-0.1295527219772339,0.22638146579265594,-1.8055957555770874
1761915191460548000,4.606548095703125,-0.029699524864554405,-0.3149188458919525,-1.7302424907684326
1761915191470603000,4.61660302734375,0.1856069266796112,-0.5817915797233582,-1.4586682319641113
1761915191480657200,4.6266572265625,0.48184844851493835,-0.5631866455078125,-1.0441865921020508
1761915191490711300,4.636711181640625,0.7884147763252258,-0.2977786660194397,-0.5457843542098999
1761915191500765200,4.64676513671875,1.0270460844039917,0.1452813446521759,-0.0036363862454891205
1761915191510819000,4.656819091796875,1.130787968635559,0.6040345430374146,0.5275236368179321
1761915191520874000,4.6668740234375,1.0574684143066406,0.9336302876472473,0.9374024868011475
1761915191530928000,4.67692822265625,0.8284913897514343,1.04755437374115,1.1201698780059814
1761915191540982000,4.68698193359375,0.4938870072364807,0.9049013257026672,1.0655442476272583
1761915191551036200,4.6970361328125,0.14311300218105316,0.5838183760643005,0.8401236534118652
1761915191561090000,4.707090087890625,-0.12612293660640717,0.16889247298240662,0.5785428285598755
1761915191571144200,4.717144287109375,-0.2879067659378052,-0.20290212333202362,0.4030846953392029
1761915191581199000,4.72719921875,-0.35024961829185486,-0.44089463353157043,0.33047395944595337
1761915191591253000,4.7372529296875,-0.34589216113090515,-0.5226451754570007,0.3167283236980438
1761915191601307100,4.74730712890625,-0.3398059904575348,-0.4520687460899353,0.30377474427223206
1761915191611361000,4.757361083984375,-0.36330440640449524,-0.33100542426109314,0.26637595891952515
1761915191621413400,4.767413330078125,-0.4370010793209076,-0.23558661341667175,0.2401427924633026
1761915191631468500,4.777468505859375,-0.5246478319168091,-0.20809826254844666,0.2474164366722107
1761915191641522700,4.787522705078125,-0.5867657661437988,-0.26966625452041626,0.2999587655067444
1761915191651576600,4.79757666015625,-0.6070470809936523,-0.37877702713012695,0.3844717741012573
1761915191661630700,4.807630615234375,-0.5951936841011047,-0.44957515597343445,0.4180433452129364
1761915191671684600,4.8176845703125,-0.5365687608718872,-0.4921969175338745,0.40516775846481323
1761915191681739500,4.827739501953125,-0.3828922510147095,-0.5710784792900085,0.35577428340911865
1761915191691793400,4.83779345703125,-0.10650327056646347,-0.6589964032173157,0.32730135321617126
1761915191701847600,4.84784765625,0.28187623620033264,-0.6310595273971558,0.37530195713043213
1761915191711901700,4.857901611328125,0.6583002209663391,-0.6583041548728943,0.42929807305336
1761915191721955600,4.86795556640625,0.8204069137573242,-0.9735459685325623,0.40133947134017944
1761915191732009700,4.878009765625,0.6789131164550781,-1.5350100994110107,0.29022786021232605
1761915191742064400,4.888064453125,0.3316233158111572,-2.1359739303588867,0.11961472034454346
1761915191752118500,4.898118408203125,-0.0795929804444313,-2.5773956775665283,-0.004610030446201563
1761915191762172400,4.90817236328125,-0.42052820324897766,-2.7275760173797607,-0.006125122308731079
1761915191772226600,4.9182265625,-0.6049361228942871,-2.4389076232910156,0.13351400196552277
1761915191782280400,4.928280517578125,-0.6608123183250427,-1.7698310613632202,0.3724769353866577
1761915191792335600,4.938335693359375,-0.6642877459526062,-0.8796860575675964,0.6187740564346313
1761915191802389500,4.948389404296875,-0.5982345342636108,-0.045500434935092926,0.7060847282409668
1761915191812443400,4.958443359375,-0.41117063164711,0.4606463611125946,0.5225428342819214
1761915191822497500,4.96849755859375,-0.19225609302520752,0.4150698482990265,0.1282738596200943
1761915191832551400,4.978551513671875,-0.04271719977259636,-0.07999739050865173,-0.32124990224838257
1761915191842605600,4.98860546875,0.005296788644045591,-0.61423259973526,-0.6399587988853455
1761915191852660700,4.99866064453125,-0.0214751698076725,-0.9089483618736267,-0.7683503031730652
1761915191862714600,5.008714599609375,-0.05253518000245094,-0.9932224154472351,-0.7876855731010437
1761915191872768800,5.018768798828125,-0.06507441401481628,-0.8948537707328796,-0.7629091143608093
1761915191882822400,5.028822509765625,-0.09566563367843628,-0.6157127022743225,-0.6695882081985474
1761915191892876500,5.03887646484375,-0.19111759960651398,-0.15647219121456146,-0.46216678619384766
1761915191902931500,5.048931396484375,-0.3513842523097992,0.3027696907520294,-0.19642913341522217
1761915191912985600,5.058985595703125,-0.5235584378242493,0.6054738759994507,0.05784602463245392
1761915191923039700,5.069039794921875,-0.6278985738754272,0.6693925261497498,0.19934292137622833
1761915191933093600,5.07909375,-0.6252327561378479,0.4935604929924011,0.19430075585842133
1761915191943147800,5.089147705078125,-0.4917493760585785,0.19810467958450317,0.07097972929477692
1761915191953202400,5.099202392578125,-0.28200119733810425,-0.08863280713558197,-0.10087326169013977
1761915191963256600,5.109256591796875,-0.12010811269283295,-0.25472259521484375,-0.24836742877960205
1761915191973310500,5.119310546875,-0.066914401948452,-0.2684421241283417,-0.2960755527019501
1761915191983364600,5.129364501953125,-0.10403873026371002,-0.18549342453479767,-0.2441326230764389
1761915191993418500,5.13941845703125,-0.1663348525762558,-0.0765557587146759,-0.1380022019147873
1761915192003473400,5.149473388671875,-0.2163882553577423,0.06201131269335747,0.007024815306067467
1761915192013527600,5.159527587890625,-0.20854444801807404,0.21858680248260498,0.1395711451768875
1761915192023581400,5.16958154296875,-0.13806937634944916,0.2719775438308716,0.2263251096010208
1761915192033635600,5.179635498046875,-0.047330424189567566,0.19044457376003265,0.28822919726371765
1761915192043689500,5.189689453125,0.06837417930364609,0.009525882080197334,0.34082841873168945
1761915192053743600,5.19974365234375,0.20780637860298157,-0.21150609850883484,0.3953606188297272
1761915192063798800,5.209798828125,0.3380078971385956,-0.36672985553741455,0.4509362280368805
1761915192073852400,5.219852294921875,0.40296614170074463,-0.4065385162830353,0.4900053143501282
1761915192083906600,5.229906494140625,0.357453316450119,-0.3102158010005951,0.4874248504638672
1761915192093960400,5.23996044921875,0.20421156287193298,-0.11489423364400864,0.4487514793872833
1761915192104014600,5.2500146484375,-0.02658785879611969,0.06391619890928268,0.37549832463264465
1761915192114069500,5.260069580078125,-0.27023062109947205,0.14398041367530823,0.29870370030403137
1761915192124123600,5.27012353515625,-0.4904805123806,0.13800597190856934,0.21770401298999786
1761915192134177500,5.280177490234375,-0.6638988852500916,0.11545832455158234,0.1456782966852188
1761915192144231700,5.290231689453125,-0.7478188276290894,-0.000398843374568969,0.0756036713719368
1761915192154285600,5.30028564453125,-0.7257137894630432,-0.24944008886814117,0.02180355414748192
1761915192164340500,5.310340576171875,-0.5853368639945984,-0.6405388712882996,0.02783465012907982
1761915192174394600,5.32039453125,-0.33805572986602783,-0.96650230884552,0.0983588844537735
1761915192184448500,5.330448486328125,-0.061457619071006775,-1.115971565246582,0.20377419888973236
1761915192194502700,5.340502685546875,0.13186043500900269,-1.143466591835022,0.25960230827331543
1761915192204556500,5.350556640625,0.1180352196097374,-1.185247540473938,0.13594317436218262
1761915192214611500,5.360611572265625,-0.045571547001600266,-1.2756154537200928,-0.21016310155391693
1761915192224665600,5.37066552734375,-0.26458778977394104,-1.5096749067306519,-0.6835311651229858
1761915192234719500,5.380719482421875,-0.45350977778434753,-1.815317153930664,-1.0450595617294312
1761915192244773600,5.390773681640625,-0.49567386507987976,-1.7646422386169434,-1.1131047010421753
1761915192254827500,5.40082763671875,-0.4142671525478363,-1.1698784828186035,-0.8389411568641663
1761915192264882700,5.410882568359375,-0.38716110587120056,-0.24921996891498566,-0.35320594906806946
1761915192274936600,5.4209365234375,-0.5235211253166199,0.6780557036399841,0.1469106525182724
1761915192284990500,5.430990478515625,-0.6574244499206543,1.2249915599822998,0.4394506812095642
1761915192295044600,5.441044677734375,-0.6177688837051392,1.2984124422073364,0.4553244709968567
1761915192305098500,5.451098388671875,-0.3597852289676666,0.927353024482727,0.31419825553894043
1761915192315152600,5.461152587890625,-0.005482005886733532,0.42198359966278076,0.18144232034683228
1761915192325207600,5.47120751953125,0.315640389919281,0.0015261804219335318,0.16720128059387207
1761915192335261700,5.48126171875,0.5401531457901001,-0.3380063474178314,0.23862166702747345
1761915192345315600,5.491315673828125,0.6123265027999878,-0.6375688910484314,0.33014076948165894
1761915192355369500,5.501369384765625,0.5151562690734863,-0.9012865424156189,0.41028913855552673
1761915192365423400,5.51142333984375,0.3091777563095093,-1.1019456386566162,0.45971325039863586
1761915192375478500,5.521478515625,0.07473462074995041,-1.2041947841644287,0.497846782207489
1761915192385532700,5.53153271484375,-0.1158263087272644,-1.099170207977295,0.5737149715423584
1761915192395586600,5.541586669921875,-0.24547964334487915,-0.7395236492156982,0.6687842011451721
1761915192405640700,5.551640625,-0.30086782574653625,-0.1879683881998062,0.7100788950920105
1761915192415694600,5.561694580078125,-0.2871490716934204,0.453705370426178,0.6537759900093079
1761915192425749500,5.57174951171875,-0.21949008107185364,0.9944888353347778,0.5010276436805725
1761915192435803600,5.5818037109375,-0.1473674178123474,1.197916030883789,0.2405523955821991
1761915192445857500,5.591857421875,-0.10403038561344147,1.0887672901153564,-0.08109055459499359
1761915192455911700,5.60191162109375,-0.16696274280548096,0.8174058198928833,-0.3567255735397339
1761915192465965600,5.611965576171875,-0.34385138750076294,0.5887216925621033,-0.49373307824134827
1761915192476020500,5.6220205078125,-0.5576816201210022,0.42421454191207886,-0.46224308013916016
1761915192486074400,5.632074462890625,-0.7651634216308594,0.34475210309028625,-0.26554930210113525
1761915192496128500,5.64212841796875,-0.9369295835494995,0.33146294951438904,0.051828935742378235
1761915192506182700,5.6521826171875,-1.0735944509506226,0.2885674834251404,0.39698362350463867
1761915192516236500,5.662236572265625,-1.1452553272247314,0.24124792218208313,0.659961462020874
1761915192526291700,5.672291748046875,-1.1238069534301758,0.23890070617198944,0.8252531886100769
1761915192536345600,5.682345703125,-0.9926151037216187,0.31779682636260986,0.9115334749221802
1761915192546399500,5.6923994140625,-0.7660980820655823,0.4652911126613617,0.9219518303871155
1761915192556453400,5.702453369140625,-0.5300091505050659,0.5584015846252441,0.8471529483795166
1761915192566507500,5.712507568359375,-0.3651869595050812,0.4829244017601013,0.6835757493972778
1761915192576562700,5.722562744140625,-0.32446667551994324,0.2905730605125427,0.496969610452652
1761915192586616600,5.732616455078125,-0.3917940557003021,0.07673264294862747,0.3760392367839813
1761915192596670700,5.742670654296875,-0.5108235478401184,-0.12958243489265442,0.3427550494670868
1761915192606724600,5.752724609375,-0.6885064244270325,-0.3350444734096527,0.3909379839897156
1761915192616782800,5.762782958984375,-0.8862168192863464,-0.46750691533088684,0.4930899441242218
1761915192626838000,5.772838134765625,-1.040661096572876,-0.6025843620300293,0.5967219471931458
1761915192636892000,5.782891845703125,-1.1353093385696411,-0.754800021648407,0.6627318859100342
1761915192646946000,5.792946044921875,-1.1834619045257568,-0.8856407403945923,0.6816843748092651
1761915192657000000,5.803,-1.1503974199295044,-0.9800535440444946,0.6780760884284973
1761915192667053800,5.8130537109375,-1.031723976135254,-1.047461986541748,0.6578243374824524
1761915192677108700,5.823108642578125,-0.8636084794998169,-1.0481150150299072,0.6328806281089783
1761915192687163000,5.833162841796875,-0.6413876414299011,-1.0482419729232788,0.5878009796142578
1761915192697216800,5.843216796875,-0.40332046151161194,-1.088348388671875,0.48525384068489075
1761915192707271000,5.85327099609375,-0.2616732716560364,-1.1862801313400269,0.31722089648246765
1761915192717324800,5.86332470703125,-0.3196713328361511,-1.480878233909607,0.10020067542791367
1761915192727379700,5.873379638671875,-0.5907865166664124,-1.9184900522232056,-0.07958398759365082
1761915192737433900,5.883433837890625,-0.9310623407363892,-2.210928201675415,-0.1953156441450119
1761915192747487700,5.89348779296875,-1.2072051763534546,-2.285475492477417,-0.2696407437324524
1761915192757542000,5.9035419921875,-1.3793028593063354,-2.010093927383423,-0.28232964873313904
1761915192767595800,5.913595703125,-1.3953222036361694,-1.4991158246994019,-0.29491761326789856
1761915192777651000,5.92365087890625,-1.1894617080688477,-1.0364480018615723,-0.41035765409469604
1761915192787704800,5.933704833984375,-0.8150140643119812,-0.7353202104568481,-0.6757736206054688
1761915192797758700,5.9437587890625,-0.4505537748336792,-0.6661614179611206,-1.039726734161377
1761915192807812900,5.953812744140625,-0.2563086748123169,-0.7825191617012024,-1.3369109630584717
1761915192817866800,5.96386669921875,-0.26177799701690674,-1.0306036472320557,-1.4437679052352905
1761915192827922000,5.973921875,-0.40931349992752075,-1.4444456100463867,-1.3566670417785645
1761915192837975800,5.983975830078125,-0.6013804078102112,-2.0558016300201416,-1.1697096824645996
1761915192848030000,5.994030029296875,-0.769702136516571,-2.6236891746520996,-0.8943437933921814
1761915192858083800,6.004083740234375,-0.9413473606109619,-2.759385585784912,-0.48978567123413086
1761915192868137700,6.0141376953125,-1.1340607404708862,-2.2607405185699463,-0.007522537373006344
1761915192878193000,6.02419287109375,-1.2727693319320679,-1.2643215656280518,0.4128877818584442
1761915192888246800,6.034246826171875,-1.260332465171814,-0.08884426951408386,0.6718299388885498
1761915192898301000,6.044301025390625,-1.1410044431686401,0.9421303272247314,0.7487598657608032
1761915192908354800,6.054354736328125,-0.9879234433174133,1.339951515197754,0.6198915243148804
1761915192918409000,6.064408935546875,-0.9214855432510376,0.9231343269348145,0.30106109380722046
1761915192928464000,6.0744638671875,-0.9899653196334839,-0.03671371191740036,-0.0520801916718483
1761915192938517800,6.084517822265625,-1.2321521043777466,-1.2518610954284668,-0.2609596252441406
1761915192948572000,6.094572021484375,-1.564050316810608,-2.41632342338562,-0.20864750444889069
1761915192958625800,6.104625732421875,-1.9052451848983765,-3.206195831298828,0.055647268891334534
1761915192968680000,6.114679931640625,-2.160461902618408,-3.558961868286133,0.41419094800949097
1761915192978734800,6.12473486328125,-2.281201124191284,-3.5246105194091797,0.7633095383644104
1761915192988788700,6.134788818359375,-2.258805513381958,-3.220700263977051,1.0335960388183594
1761915192998843000,6.1448427734375,-2.1369824409484863,-2.796422004699707,1.171323299407959
1761915193008896800,6.154896728515625,-1.9571566581726074,-2.41267728805542,1.1384451389312744
1761915193018952000,6.164951904296875,-1.7937227487564087,-2.066697835922241,0.9655463695526123
1761915193029005800,6.175005859375,-1.696746826171875,-1.7377434968948364,0.6922105550765991
1761915193039060000,6.18506005859375,-1.648206114768982,-1.3906599283218384,0.37957435846328735
1761915193049113900,6.19511376953125,-1.6161457300186157,-1.0333037376403809,0.10203469544649124
1761915193059167700,6.205167724609375,-1.582126498222351,-0.7420971989631653,-0.09435798972845078
1761915193069223000,6.215222900390625,-1.5413155555725098,-0.5408675670623779,-0.20264899730682373
1761915193079276800,6.22527685546875,-1.507324457168579,-0.37445777654647827,-0.22200670838356018
1761915193089331000,6.2353310546875,-1.4817731380462646,-0.169529989361763,-0.18238095939159393
1761915193099384800,6.245384765625,-1.4453240633010864,0.03412966430187225,-0.1357378214597702
1761915193109439000,6.25543896484375,-1.384608268737793,0.17456680536270142,-0.08897348493337631
1761915193119494000,6.265493896484375,-1.307503581047058,0.22441399097442627,-0.007286612410098314
1761915193129547800,6.2755478515625,-1.2526438236236572,0.19958637654781342,0.13756676018238068
1761915193139602000,6.285601806640625,-1.1345981359481812,0.07909005135297775,0.2827921211719513
1761915193149655800,6.29565576171875,-0.8276602029800415,-0.052092988044023514,0.36030492186546326
1761915193159710000,6.3057099609375,-0.40233924984931946,-0.03991089016199112,0.4176696538925171
1761915193169764900,6.315764892578125,-0.026113756000995636,0.1057998538017273,0.43646764755249023
1761915193179818800,6.32581884765625,0.17079132795333862,0.21554020047187805,0.33724305033683777
1761915193189872600,6.33587255859375,0.046936437487602234,0.029570503160357475,0.12628155946731567
1761915193199926800,6.3459267578125,-0.49351534247398376,-0.5313985347747803,-0.14623039960861206
1761915193209981000,6.35598095703125,-1.230099081993103,-1.3336448669433594,-0.38519370555877686
1761915193220035800,6.366035888671875,-1.7673768997192383,-1.9815549850463867,-0.42424336075782776
1761915193230090000,6.376090087890625,-1.9060174226760864,-1.8260836601257324,-0.12741276621818542
1761915193240144000,6.386143798828125,-1.660846471786499,-0.8634097576141357,0.33795228600502014
1761915193250197800,6.39619775390625,-1.1965938806533813,0.03822730481624603,0.5935226082801819
1761915193260251600,6.406251708984375,-0.6865106821060181,0.46078866720199585,0.4450489282608032
1761915193270306800,6.416306884765625,-0.3339832127094269,0.18278717994689941,-0.05950429290533066
1761915193280361000,6.42636083984375,-0.21781933307647705,-0.5458648800849915,-0.6950147151947021
1761915193290414800,6.436414794921875,-0.29574140906333923,-1.3432081937789917,-1.2067350149154663
1761915193300469000,6.446468994140625,-0.5291133522987366,-2.0647969245910645,-1.4813826084136963
1761915193310523000,6.45652294921875,-0.7818716168403625,-2.695298194885254,-1.5337185859680176
1761915193320577800,6.466577880859375,-0.9496217370033264,-3.0996859073638916,-1.4115045070648193
1761915193330631700,6.476631591796875,-1.05074143409729,-2.986844301223755,-1.1102895736694336
1761915193340685800,6.486685791015625,-1.1507809162139893,-2.334562301635742,-0.6719933748245239
1761915193350740000,6.496739990234375,-1.328771710395813,-1.454414963722229,-0.30575576424598694
1761915193360793900,6.5067939453125,-1.589760184288025,-0.7795979380607605,-0.23315854370594025
1761915193370848800,6.516848876953125,-1.8726550340652466,-0.4653624892234802,-0.4581564962863922
1761915193380902700,6.526902587890625,-2.1066229343414307,-0.4925056993961334,-0.8006640672683716
1761915193390956800,6.536956787109375,-2.2100062370300293,-0.7024120092391968,-1.0815036296844482
1761915193401010700,6.5470107421875,-2.187398910522461,-0.8661458492279053,-1.1272729635238647
1761915193411065900,6.55706591796875,-2.0863187313079834,-0.8566415905952454,-0.8879611492156982
1761915193421120000,6.5671201171875,-1.9478578567504883,-0.6850560307502747,-0.42236441373825073
1761915193431174000,6.577173828125,-1.7971502542495728,-0.46920040249824524,0.14875996112823486
1761915193441228000,6.58722802734375,-1.7006317377090454,-0.2693626582622528,0.6803380846977234
1761915193451281700,6.59728173828125,-1.6590348482131958,-0.15432576835155487,1.053837537765503
1761915193461336800,6.6073369140625,-1.6580383777618408,-0.12217610329389572,1.2396832704544067
1761915193471391000,6.617390869140625,-1.695595383644104,-0.17206504940986633,1.2535104751586914
1761915193481444900,6.62744482421875,-1.717406988143921,-0.23750104010105133,1.1569551229476929
1761915193491499000,6.6374990234375,-1.655259132385254,-0.28159719705581665,1.0173920392990112
1761915193501553000,6.647552978515625,-1.5023434162139893,-0.2908695340156555,0.887711763381958
1761915193511607800,6.65760791015625,-1.2710602283477783,-0.2834837734699249,0.7756397128105164
1761915193521661700,6.66766162109375,-1.0158337354660034,-0.28041502833366394,0.6977235674858093
1761915193531715800,6.6777158203125,-0.8285332918167114,-0.3071199655532837,0.6213440895080566
1761915193541769700,6.687769775390625,-0.7468477487564087,-0.3946351706981659,0.5270687341690063
1761915193551825000,6.697824951171875,-0.7565518021583557,-0.5480552911758423,0.45250949263572693
1761915193561879000,6.707879150390625,-0.7862277030944824,-0.6663169860839844,0.46938541531562805
1761915193571932700,6.7179326171875,-0.7933124303817749,-0.7405003309249878,0.6409616470336914
1761915193581986800,6.72798681640625,-0.7363482117652893,-0.6868584156036377,1.002833366394043
1761915193592040700,6.738040771484375,-0.6534573435783386,-0.5467028617858887,1.5174822807312012
1761915193602095900,6.748095947265625,-0.5866889953613281,-0.5257200598716736,2.0024547576904297
1761915193612150000,6.75814990234375,-0.49439573287963867,-0.8234726190567017,2.252824068069458
1761915193622203100,6.768203125,-0.4076400399208069,-1.423209547996521,2.2037606239318848
1761915193632257300,6.77825732421875,-0.3693135678768158,-2.064030647277832,1.9649312496185303
1761915193642311200,6.788311279296875,-0.4402434229850769,-2.6136534214019775,1.7398459911346436
1761915193652366000,6.798365966796875,-0.6760151386260986,-3.020440101623535,1.6462061405181885
1761915193662420200,6.808420166015625,-1.0239596366882324,-3.1556334495544434,1.6985365152359009
1761915193672474000,6.81847412109375,-1.2891919612884521,-2.735384225845337,1.859306812286377
1761915193682528300,6.8285283203125,-1.305182695388794,-1.8199228048324585,2.057119846343994
1761915193692582100,6.83858203125,-1.1445536613464355,-0.958942711353302,2.1149351596832275
1761915193702637300,6.84863720703125,-0.9372857213020325,-0.3841422200202942,1.9204119443893433
1761915193712691000,6.85869091796875,-0.7467854619026184,-0.10893257707357407,1.5536597967147827
1761915193722745000,6.8687451171875,-0.6197026371955872,-0.24700842797756195,1.0230883359909058
1761915193732799200,6.87879931640625,-0.5668098330497742,-0.8604464530944824,0.3831107020378113
1761915193742854100,6.888854248046875,-0.5461961627006531,-1.6764955520629883,-0.22092780470848083
1761915193752908300,6.898908203125,-0.5568763613700867,-2.427502393722534,-0.728010892868042
1761915193762962200,6.908962158203125,-0.6424857974052429,-2.864652633666992,-1.1234173774719238
1761915193773016300,6.919016357421875,-0.8577728867530823,-2.9871044158935547,-1.4273030757904053
1761915193783070200,6.9290703125,-1.225718379020691,-2.802886486053467,-1.6670410633087158
1761915193793125000,6.939125,-1.6450661420822144,-2.2912895679473877,-1.7933225631713867
1761915193803179300,6.94917919921875,-1.9548126459121704,-1.6140533685684204,-1.7416659593582153
1761915193813233200,6.959233154296875,-2.12569260597229,-1.0707706212997437,-1.4961094856262207
1761915193823287300,6.969287353515625,-2.147437572479248,-0.8472243547439575,-1.1062328815460205
1761915193833341200,6.979341064453125,-2.0022103786468506,-1.0135955810546875,-0.6615694165229797
1761915193843396000,6.98939599609375,-1.7375929355621338,-1.4836821556091309,-0.27941614389419556
1761915193853450200,6.9994501953125,-1.4657880067825317,-1.9851499795913696,0.00881215650588274
1761915193863504100,7.009504150390625,-1.2794862985610962,-2.2964320182800293,0.20784936845302582
1761915193873558300,7.019558349609375,-1.2055505514144897,-2.3098526000976562,0.35640159249305725
1761915193883613200,7.02961328125,-1.221010446548462,-2.081407308578491,0.442605197429657
1761915193893667300,7.039667236328125,-1.2899216413497925,-1.6857330799102783,0.45572465658187866
1761915193903721200,7.04972119140625,-1.3923635482788086,-1.2278534173965454,0.4176830053329468
1761915193913775000,7.059775146484375,-1.4821165800094604,-0.8158552050590515,0.37786951661109924
1761915193923829000,7.0698291015625,-1.5106315612792969,-0.5033982396125793,0.373958945274353
1761915193933884200,7.07988427734375,-1.4560184478759766,-0.28411179780960083,0.38848960399627686
1761915193943938300,7.089938232421875,-1.3188024759292603,-0.20908842980861664,0.3736709952354431
1761915193953992200,7.0999921875,-1.1437026262283325,-0.2562772333621979,0.3166537582874298
1761915193964046300,7.11004638671875,-1.0172346830368042,-0.4325326979160309,0.2605409622192383
1761915193974100200,7.120100341796875,-0.994373083114624,-0.67696613073349,0.28125351667404175
1761915193984155100,7.130155029296875,-1.072533130645752,-0.9456870555877686,0.3761819005012512
1761915193994209300,7.140209228515625,-1.2139016389846802,-1.2058666944503784,0.48891258239746094
1761915194004263200,7.15026318359375,-1.3816912174224854,-1.3913867473602295,0.5726479887962341
1761915194014317300,7.1603173828125,-1.5209691524505615,-1.501217007637024,0.5953910946846008
1761915194024372200,7.170372314453125,-1.5896214246749878,-1.4697933197021484,0.5766853094100952
1761915194034426000,7.180426025390625,-1.5474461317062378,-1.224020004272461,0.5920987129211426
1761915194044480000,7.19047998046875,-1.4296997785568237,-0.7541449069976807,0.6365266442298889
1761915194054534100,7.2005341796875,-1.2671864032745361,-0.23791667819023132,0.6402437090873718
1761915194064588000,7.210588134765625,-1.0930633544921875,-0.021579861640930176,0.5020523071289062
1761915194074643200,7.220643310546875,-0.9788727760314941,-0.2127474844455719,0.2333550751209259
1761915194084697300,7.230697265625,-0.9887579083442688,-0.9498884081840515,-0.015458477661013603
1761915194094751200,7.240751220703125,-1.1911488771438599,-2.0253326892852783,-0.09289093315601349
1761915194104805000,7.25080517578125,-1.5287433862686157,-2.9349637031555176,0.006019930355250835
1761915194114859000,7.26085888671875,-1.768456220626831,-3.183367967605591,0.19837650656700134
1761915194124914200,7.2709140625,-1.813513159751892,-2.545898914337158,0.4834285080432892
1761915194134968300,7.28096826171875,-1.705843210220337,-1.4012653827667236,0.8647723197937012
1761915194145022200,7.291022216796875,-1.5609827041625977,-0.305203914642334,1.2887516021728516
1761915194155076400,7.301076416015625,-1.4706547260284424,0.16496235132217407,1.522857904434204
1761915194165131000,7.311131103515625,-1.3995187282562256,0.11014863848686218,1.4582669734954834
1761915194175185200,7.32118505859375,-1.3472236394882202,-0.16329292953014374,1.1503229141235352
1761915194185239000,7.331239013671875,-1.367187738418579,-0.6435149312019348,0.6580008268356323
1761915194195293200,7.341293212890625,-1.4630963802337646,-1.2955100536346436,0.08812883496284485
1761915194205347300,7.351347412109375,-1.590159296989441,-1.9291479587554932,-0.3773767948150635
1761915194215402200,7.36140234375,-1.6319129467010498,-2.277475357055664,-0.6742600202560425
1761915194225456000,7.3714560546875,-1.5355414152145386,-2.401906967163086,-0.8495445251464844
1761915194235510000,7.381510009765625,-1.3315949440002441,-2.3635971546173096,-0.9202967286109924
1761915194245564200,7.391564208984375,-1.132041573524475,-2.1190085411071777,-0.8222450017929077
1761915194255618000,7.4016181640625,-1.0451292991638184,-1.6675074100494385,-0.5327011346817017
1761915194265673200,7.411673095703125,-1.0758720636367798,-1.1470940113067627,-0.14884959161281586
1761915194275727400,7.421727294921875,-1.1951433420181274,-0.7623987793922424,0.17277221381664276
1761915194285781200,7.43178125,-1.376593828201294,-0.6757366061210632,0.30438485741615295
1761915194295835100,7.441835205078125,-1.5784955024719238,-0.8553682565689087,0.20703023672103882
1761915194305890000,7.45189013671875,-1.7594990730285645,-1.2550815343856812,-0.05531376227736473
1761915194315944200,7.461944091796875,-1.870449423789978,-1.728684425354004,-0.35162004828453064
1761915194325998000,7.471998046875,-1.8798549175262451,-2.040907621383667,-0.5293642282485962
1761915194336052200,7.48205224609375,-1.8034050464630127,-2.0987865924835205,-0.5538036823272705
1761915194346106400,7.4921064453125,-1.6652940511703491,-1.9621522426605225,-0.481518030166626
1761915194356161000,7.5021611328125,-1.5103784799575806,-1.6334447860717773,-0.35214781761169434
1761915194366215200,7.512215087890625,-1.3680285215377808,-1.1269888877868652,-0.20612004399299622
1761915194376269000,7.52226904296875,-1.2228074073791504,-0.5422240495681763,-0.06953240185976028
1761915194386323200,7.5323232421875,-1.082910418510437,-0.06419599801301956,0.035040080547332764
1761915194396378400,7.54237841796875,-0.996292769908905,0.22728751599788666,0.10787087678909302
1761915194406432300,7.552432373046875,-0.9762591123580933,0.2751293480396271,0.1454153209924698
1761915194416486100,7.562486083984375,-0.9842960834503174,0.04346560686826706,0.17546062171459198
1761915194426540000,7.5725400390625,-1.0008786916732788,-0.4042557179927826,0.23520144820213318
1761915194436594200,7.58259423828125,-1.0190000534057617,-0.9274320602416992,0.36322253942489624
1761915194446649000,7.592649169921875,-1.0354589223861694,-1.3814855813980103,0.533294677734375
1761915194456703200,7.602703125,-1.0651811361312866,-1.641022801399231,0.6889220476150513
1761915194466757400,7.61275732421875,-1.1080929040908813,-1.7504571676254272,0.7737746238708496
1761915194476811300,7.622811279296875,-1.173722267150879,-1.8350582122802734,0.7743387222290039
1761915194486865400,7.632865478515625,-1.2124414443969727,-1.904212236404419,0.7448423504829407
1761915194496920000,7.642920166015625,-1.214166522026062,-1.9899287223815918,0.6821624040603638
1761915194506974200,7.65297412109375,-1.1601355075836182,-1.9955841302871704,0.5917933583259583
1761915194517028000,7.663028076171875,-1.0499098300933838,-1.8354758024215698,0.48328256607055664
1761915194527082200,7.673082275390625,-0.9363170266151428,-1.5635652542114258,0.37423276901245117
1761915194537137200,7.68313720703125,-0.8862259984016418,-1.4610646963119507,0.261197954416275
1761915194547191000,7.69319091796875,-0.9077310562133789,-1.696682333946228,0.16408924758434296
1761915194557245200,7.7032451171875,-0.9241754412651062,-2.088860273361206,0.1494838148355484
1761915194567299000,7.713299072265625,-0.9701844453811646,-2.441413164138794,0.253086119890213
1761915194577353200,7.723353271484375,-1.115310549736023,-2.5545713901519775,0.4454393684864044
1761915194587408100,7.733408203125,-1.2261697053909302,-2.218296766281128,0.6777820587158203
1761915194597462300,7.743462158203125,-1.1391154527664185,-1.497790813446045,0.9099702835083008
1761915194607516400,7.753516357421875,-0.8993318676948547,-0.7547488212585449,1.1058018207550049
1761915194617567200,7.763567138671875,-0.6330158710479736,-0.29805514216423035,1.1791176795959473
1761915194627622400,7.773622314453125,-0.39542627334594727,-0.05799541994929314,1.0588301420211792
1761915194637676300,7.78367626953125,-0.2018185257911682,-0.022805428132414818,0.7326349020004272
1761915194647730400,7.79373046875,-0.13213825225830078,-0.21825560927391052,0.22193537652492523
1761915194657784600,7.80378466796875,-0.20856571197509766,-0.6279507875442505,-0.3705534338951111
1761915194667838200,7.813838134765625,-0.4019213020801544,-1.1862010955810547,-0.8983674645423889
1761915194677893400,7.823893310546875,-0.6020058989524841,-1.6504266262054443,-1.2519844770431519
1761915194687947300,7.833947265625,-0.6873351335525513,-1.952301025390625,-1.4577144384384155
1761915194698001400,7.84400146484375,-0.641497790813446,-2.0251376628875732,-1.5452390909194946
1761915194708055300,7.85405517578125,-0.5375871062278748,-1.8531759977340698,-1.5185142755508423
1761915194718109400,7.864109375,-0.4730016589164734,-1.512468934059143,-1.4054062366485596
1761915194728164400,7.874164306640625,-0.4732615649700165,-1.1660716533660889,-1.2435376644134521
1761915194738218200,7.88421826171875,-0.51922208070755,-0.9131649136543274,-1.1095777750015259
1761915194748272400,7.8942724609375,-0.6070834994316101,-0.7109100818634033,-1.0351080894470215
1761915194758326300,7.904326171875,-0.7263270616531372,-0.5709973573684692,-1.0280967950820923
1761915194768381400,7.91438134765625,-0.8501174449920654,-0.5208431482315063,-1.0270540714263916
1761915194778435600,7.924435546875,-0.9475967288017273,-0.49488702416419983,-0.9681690335273743
1761915194788489200,7.9344892578125,-1.0004613399505615,-0.42027029395103455,-0.8312444686889648
1761915194798543400,7.94454345703125,-0.9919666051864624,-0.28296586871147156,-0.6525948643684387
1761915194808597200,7.95459716796875,-0.9387281537055969,-0.08554282039403915,-0.4564048647880554
1761915194818652400,7.96465234375,-0.8598049879074097,0.17860403656959534,-0.2643013000488281
1761915194828706300,7.974706298828125,-0.7776142358779907,0.4774154722690582,-0.10054274648427963
1761915194838760400,7.984760498046875,-0.7104575634002686,0.7367132306098938,0.03543689101934433
1761915194848814300,7.994814453125,-0.6671305894851685,0.8691698312759399,0.15039090812206268
1761915194858866400,8.004866455078124,-0.6275894045829773,0.8521755933761597,0.24128954112529755
1761915194868920300,8.01492041015625,-0.5797516107559204,0.7242562174797058,0.315762460231781
1761915194878975500,8.0249755859375,-0.531171977519989,0.5597045421600342,0.36778607964515686
1761915194889029400,8.035029296875,-0.48143503069877625,0.35428592562675476,0.3876766860485077
1761915194899083300,8.045083251953125,-0.4279049038887024,0.11784182488918304,0.3917563855648041
1761915194909137200,8.05513720703125,-0.3806265890598297,-0.10059010982513428,0.4068770110607147
1761915194919192300,8.0651923828125,-0.33998042345046997,-0.2667917013168335,0.4241257905960083
1761915194929246500,8.07524658203125,-0.30689969658851624,-0.28930768370628357,0.4481962323188782
1761915194939300400,8.08530029296875,-0.2754276990890503,-0.16921889781951904,0.44673940539360046
1761915194949354500,8.0953544921875,-0.2860065698623657,0.03584743291139603,0.416066974401474
1761915194959408400,8.105408447265624,-0.3603455126285553,0.2536228597164154,0.3458884060382843
1761915194969463300,8.11546337890625,-0.4507012665271759,0.35163599252700806,0.26531341671943665
1761915194979517400,8.125517333984375,-0.5166416168212891,0.19348762929439545,0.19554658234119415
1761915194989571300,8.1355712890625,-0.5385626554489136,-0.3125143051147461,0.08466027677059174
1761915194999625500,8.14562548828125,-0.4871114492416382,-1.141295075416565,-0.10710623860359192
1761915195009679400,8.155679443359375,-0.3950747549533844,-2.069995880126953,-0.30402594804763794
1761915195019734300,8.165734375,-0.3102042078971863,-2.8071863651275635,-0.3921751081943512
1761915195029788200,8.1757880859375,-0.33449169993400574,-2.977200508117676,-0.31689098477363586
1761915195039842300,8.18584228515625,-0.4363671541213989,-2.29323673248291,-0.08114057779312134
1761915195049896200,8.195896240234376,-0.5140891075134277,-0.7563436031341553,0.28388532996177673
1761915195059951400,8.205951416015624,-0.545462429523468,0.7582505345344543,0.6552332639694214
1761915195070005500,8.216005615234375,-0.5157127976417542,1.8108659982681274,0.8497052788734436
1761915195080059400,8.226059326171875,-0.45833539962768555,2.2845494747161865,0.7630118131637573
1761915195090113300,8.23611328125,-0.42064476013183594,2.0076284408569336,0.4258479177951813
1761915195100167200,8.246167236328125,-0.44661134481430054,1.1262403726577759,-0.10302369296550751
1761915195110222300,8.256222412109375,-0.45293715596199036,0.04506109282374382,-0.7049364447593689
1761915195120276500,8.2662763671875,-0.395825058221817,-0.837040901184082,-1.207826852798462
1761915195130330400,8.276330322265625,-0.3061516284942627,-1.3140833377838135,-1.4640841484069824
1761915195140384500,8.286384521484376,-0.1855577975511551,-1.4322261810302734,-1.4851995706558228
1761915195150439200,8.296439208984374,-0.056405678391456604,-1.265061378479004,-1.349877953529358
1761915195160493300,8.306493408203124,0.02158890664577484,-0.9497211575508118,-1.154120922088623
1761915195170547200,8.316547119140624,0.012394875288009644,-0.6360276937484741,-0.971737265586853
1761915195180601300,8.326601318359375,-0.08466241508722305,-0.37138909101486206,-0.8579265475273132
1761915195190655500,8.336655517578125,-0.20490945875644684,-0.24559709429740906,-0.8137553930282593
1761915195200710400,8.34671044921875,-0.2969819903373718,-0.2825183570384979,-0.8414193987846375
1761915195210764300,8.356764404296875,-0.3173498511314392,-0.44934993982315063,-0.907138466835022
1761915195220818200,8.366818115234375,-0.24712783098220825,-0.7290270328521729,-0.9510793089866638
1761915195230872300,8.376872314453125,-0.10718005895614624,-0.891981303691864,-0.8878753185272217
1761915195240927500,8.386927490234376,0.07974958419799805,-0.8066837787628174,-0.6981248259544373
1761915195250981400,8.3969814453125,0.30042415857315063,-0.5094689130783081,-0.4246748983860016
1761915195261035500,8.407035400390624,0.5147317051887512,-0.0612112432718277,-0.1301063448190689
1761915195271089400,8.41708935546875,0.6914371848106384,0.37790247797966003,0.1345793753862381
1761915195281143600,8.4271435546875,0.772120475769043,0.6834318041801453,0.3297199606895447
1761915195291198200,8.4371982421875,0.7674887180328369,0.8441439867019653,0.4519611597061157
1761915195301252400,8.44725244140625,0.7383789420127869,0.9212072491645813,0.5078529715538025
1761915195311306200,8.45730615234375,0.7256991267204285,0.9617658853530884,0.486179918050766
1761915195321360400,8.4673603515625,0.7327106595039368,0.8893855214118958,0.3948196768760681
1761915195331414500,8.47741455078125,0.7276359796524048,0.6986459493637085,0.2821708917617798
1761915195341469200,8.48746923828125,0.688879132270813,0.4318118393421173,0.20872771739959717
1761915195351523300,8.4975234375,0.6209320425987244,0.10850462317466736,0.19154366850852966
1761915195361577200,8.5075771484375,0.5295319557189941,-0.21360407769680023,0.2349117547273636
1761915195371631400,8.51763134765625,0.4363413155078888,-0.4467659592628479,0.33505967259407043
1761915195381686500,8.5276865234375,0.36593687534332275,-0.6167718768119812,0.44337737560272217
1761915195391740400,8.537740478515625,0.3172667920589447,-0.774803876876831,0.5325679779052734
1761915195401794600,8.547794677734375,0.2845305800437927,-0.8167374730110168,0.6215550303459167
1761915195411848200,8.55784814453125,0.24910227954387665,-0.6710095405578613,0.708139181137085
1761915195421902300,8.56790234375,0.21263447403907776,-0.3722544312477112,0.8056856989860535
1761915195431957200,8.577957275390625,0.24825026094913483,0.0009188935509882867,0.8851134181022644
1761915195442011400,8.588011474609376,0.28623130917549133,0.23638835549354553,0.8592851758003235
1761915195452065500,8.5980654296875,0.2091093510389328,0.08531975001096725,0.6766431927680969
1761915195462119400,8.608119384765626,-0.022741559892892838,-0.32897061109542847,0.46386873722076416
1761915195472174300,8.61817431640625,-0.24311546981334686,-0.4151228070259094,0.4863135814666748
1761915195482228200,8.628228271484375,-0.30072253942489624,0.15667179226875305,0.8460986614227295
1761915195492282400,8.638282470703125,-0.22439980506896973,0.9972589015960693,1.3749909400939941
1761915195502336300,8.648336181640625,-0.10608925670385361,1.5669476985931396,1.7524664402008057
1761915195512390400,8.658390380859375,-0.011864759027957916,1.8343582153320312,1.7377961874008179
1761915195522445600,8.668445556640625,0.02829161286354065,1.6711101531982422,1.2843444347381592
1761915195532499200,8.678499267578125,-0.07084961980581284,0.9311254620552063,0.44523054361343384
1761915195542553300,8.68855322265625,-0.28901728987693787,-0.08216153085231781,-0.5213057994842529
1761915195552607200,8.698607177734376,-0.4860225021839142,-0.9803695678710938,-1.345827341079712
1761915195562661400,8.708661376953126,-0.5496095418930054,-1.5447183847427368,-1.9066338539123535
1761915195572716300,8.71871630859375,-0.4824014902114868,-1.621744155883789,-2.1799299716949463
1761915195582770400,8.7287705078125,-0.3444003164768219,-1.1985422372817993,-2.199042320251465
1761915195592824600,8.738824462890625,-0.21129924058914185,-0.4897794723510742,-2.03378963470459
1761915195602878200,8.748878173828125,-0.14198565483093262,0.26927366852760315,-1.757767915725708
1761915195612933400,8.758933349609375,-0.15610361099243164,0.9603833556175232,-1.417198657989502
1761915195622987500,8.768987548828125,-0.26376527547836304,1.506231427192688,-1.0452035665512085
1761915195633041400,8.77904150390625,-0.4291995167732239,1.888859748840332,-0.6944268941879272
1761915195643095600,8.789095458984375,-0.6404150724411011,2.1354823112487793,-0.40761879086494446
1761915195653149400,8.7991494140625,-0.8662782907485962,2.2402751445770264,-0.23382782936096191
1761915195663204400,8.809204345703124,-1.0832728147506714,2.1612682342529297,-0.18997375667095184
1761915195673258500,8.819258544921874,-1.268771767616272,1.835465431213379,-0.2635592818260193
1761915195683312400,8.8293125,-1.3922643661499023,1.2706935405731201,-0.39222484827041626
1761915195693366500,8.839366455078125,-1.399846076965332,0.6545565724372864,-0.4945536255836487
1761915195703420400,8.84942041015625,-1.285649061203003,0.21023224294185638,-0.5047358870506287
1761915195713475600,8.8594755859375,-1.0255882740020752,0.006395500153303146,-0.4168505072593689
1761915195723529200,8.869529296875,-0.622487485408783,0.05404851585626602,-0.26285627484321594
1761915195733583400,8.879583251953125,-0.15247660875320435,0.33325111865997314,-0.07464990019798279
1761915195743637200,8.88963720703125,0.272858202457428,0.7317484617233276,0.10624665766954422
1761915195753692400,8.8996923828125,0.5703239440917969,1.0987805128097534,0.2552654445171356
1761915195763746600,8.90974658203125,0.7388284802436829,1.275310754776001,0.3738454282283783
1761915195773800400,8.919800537109374,0.7721696496009827,1.1658962965011597,0.5064146518707275
1761915195783854600,8.9298544921875,0.7039381265640259,0.9423404335975647,0.6735170483589172
1761915195793908500,8.939908447265625,0.5475714206695557,0.725273609161377,0.8966710567474365
1761915195803963400,8.94996337890625,0.3565378785133362,0.539186418056488,1.153687596321106
1761915195814017500,8.960017578125,0.19560837745666504,0.32122719287872314,1.4268001317977905
1761915195824071400,8.970071533203125,0.0925382450222969,-0.002343814354389906,1.6798888444900513
1761915195834125600,8.98012548828125,0.06722463667392731,-0.3124220371246338,1.9130305051803589
1761915195844180200,8.99018017578125,0.13016754388809204,-0.518330454826355,2.1045403480529785
1761915195854234400,9.000234375,0.2507461607456207,-0.632943868637085,2.1704742908477783
1761915195864288300,9.010288330078126,0.41772565245628357,-0.735515832901001,2.131006956100464
1761915195874342400,9.02034228515625,0.5734758377075195,-0.7963738441467285,2.0137617588043213
1761915195884396500,9.030396484375,0.5451123714447021,-1.000565528869629,1.766395926475525
1761915195894451500,9.040451416015625,0.24951085448265076,-1.6855323314666748,1.4516973495483398
1761915195904505600,9.050505615234375,-0.27667686343193054,-2.5709986686706543,1.179926872253418
1761915195914559500,9.0605595703125,-0.8108382225036621,-3.1916849613189697,0.9943608641624451
1761915195924613400,9.07061328125,-1.1205378770828247,-3.2281994819641113,0.9108253121376038
1761915195934668500,9.08066845703125,-1.110864520072937,-2.700019598007202,0.9155747890472412
1761915195944722400,9.090722412109375,-0.8671175837516785,-1.8732717037200928,0.9889875054359436
1761915195954776600,9.100776611328126,-0.5526036024093628,-1.1137099266052246,1.0533347129821777
1761915195964830500,9.11083056640625,-0.25950726866722107,-0.46796131134033203,1.031360149383545
1761915195974884600,9.120884521484374,0.01668384298682213,0.078738272190094,0.8817728161811829
1761915195984939300,9.130939208984374,0.23545271158218384,0.31927689909935,0.621898889541626
1761915195994993400,9.140993408203125,0.3392592668533325,0.21883524954319,0.2913348078727722
1761915196005047300,9.15104736328125,0.2997848093509674,-0.12259163707494736,-0.050998032093048096
1761915196015101400,9.161101318359375,0.11834577471017838,-0.7412706017494202,-0.41757842898368835
1761915196025155600,9.171155517578125,-0.11540134996175766,-1.498979091644287,-0.7867100238800049
1761915196035210500,9.18121044921875,-0.31425318121910095,-2.088717460632324,-1.091267466545105
1761915196045264400,9.191264404296875,-0.44376087188720703,-2.3057613372802734,-1.290086030960083
1761915196055318300,9.201318359375,-0.5049208998680115,-2.0900325775146484,-1.3563436269760132
1761915196065372400,9.211372314453126,-0.515643835067749,-1.5536165237426758,-1.3092929124832153
1761915196075426300,9.22142626953125,-0.47721976041793823,-0.9122928977012634,-1.1592869758605957
1761915196085481500,9.2314814453125,-0.3794873058795929,-0.41901659965515137,-0.9178754687309265
1761915196095535600,9.24153564453125,-0.22459279000759125,-0.18251536786556244,-0.5935487747192383
1761915196105589500,9.251589599609375,-0.07360862195491791,-0.21282856166362762,-0.2211722880601883
1761915196115643400,9.261643310546875,-0.021179232746362686,-0.4426686763763428,0.14735941588878632
1761915196125698300,9.2716982421875,-0.12002621591091156,-0.6612609624862671,0.46143001317977905
1761915196135752400,9.28175244140625,-0.31260979175567627,-0.7373602390289307,0.6908820867538452
1761915196145806600,9.291806640625,-0.5213648676872253,-0.5612071752548218,0.8479026556015015
1761915196155860500,9.301860595703126,-0.6575517654418945,-0.24874086678028107,0.9761500954627991
1761915196165914600,9.31191455078125,-0.6930546760559082,0.14013445377349854,1.1372586488723755
1761915196175969300,9.32196923828125,-0.6382348537445068,0.49866223335266113,1.3144235610961914
1761915196186023400,9.3320234375,-0.5287600755691528,0.7927814722061157,1.4771292209625244
1761915196196077300,9.342077392578124,-0.3775641918182373,1.0023655891418457,1.5895044803619385
1761915196206131500,9.35213134765625,-0.21355131268501282,0.9854211211204529,1.6345579624176025
1761915196216186600,9.3621865234375,-0.07021278887987137,0.7959239482879639,1.633603572845459
1761915196226240500,9.372240478515625,0.0401826947927475,0.5119553208351135,1.5963773727416992
1761915196236294400,9.38229443359375,0.14748118817806244,0.20186537504196167,1.5005320310592651
1761915196246348300,9.392348388671875,0.226499542593956,-0.09722286462783813,1.3307464122772217
1761915196256402400,9.40240234375,0.23312868177890778,-0.336668461561203,1.124498724937439
1761915196266457300,9.412457275390626,0.16846606135368347,-0.5261801481246948,0.9433545470237732
1761915196276511500,9.422511474609376,0.07431266456842422,-0.6104965806007385,0.8413232564926147
1761915196286565600,9.432565673828124,0.0054895514622330666,-0.4511851370334625,0.7953758239746094
1761915196296619500,9.44261962890625,-0.018964925780892372,0.0431918203830719,0.7950530648231506
1761915196306673400,9.45267333984375,0.011324899271130562,0.5681407451629639,0.7496449947357178
1761915196316728300,9.462728271484375,0.09418303519487381,0.7287868857383728,0.5678187608718872
1761915196326782500,9.472782470703125,0.2527332007884979,0.38447305560112,0.23683156073093414
1761915196336836400,9.48283642578125,0.46386486291885376,-0.44314366579055786,-0.19653691351413727
1761915196346890500,9.492890380859375,0.5956584811210632,-1.4148155450820923,-0.6308237910270691
1761915196356945400,9.5029453125,0.5315471291542053,-2.224775552749634,-0.9767798781394958
1761915196366999300,9.512999267578126,0.33416616916656494,-2.5388638973236084,-1.1626509428024292
1761915196377053400,9.523053466796876,0.1767539083957672,-2.1632978916168213,-1.1405384540557861
1761915196387107300,9.533107421875,0.10593680292367935,-1.1869245767593384,-0.9292986989021301
1761915196397161500,9.543161376953124,0.08900921791791916,0.0763372853398323,-0.6168534755706787
1761915196407216600,9.553216552734375,0.12001646310091019,1.239107608795166,-0.3624305725097656
1761915196417270500,9.5632705078125,0.1902826428413391,1.9358283281326294,-0.32848167419433594
1761915196427324400,9.573324462890625,0.19477346539497375,1.8944498300552368,-0.5919071435928345
1761915196437378300,9.58337841796875,0.06595077365636826,1.2562379837036133,-1.0454168319702148
1761915196447432400,9.593432373046875,-0.18466593325138092,0.39048469066619873,-1.5050315856933594
1761915196457487400,9.6034873046875,-0.4074009954929352,-0.4278368055820465,-1.8478840589523315
1761915196467541500,9.61354150390625,-0.47322070598602295,-1.0465590953826904,-2.013197898864746
1761915196477595400,9.623595458984376,-0.38026121258735657,-1.3491586446762085,-1.9755784273147583
1761915196487649500,9.6336494140625,-0.22062496840953827,-1.0728379487991333,-1.726048469543457
1761915196497704400,9.643704345703124,-0.12955552339553833,-0.21426989138126373,-1.283131718635559
1761915196507758300,9.65375830078125,-0.17271992564201355,0.887935221195221,-0.7603825926780701
1761915196517812500,9.6638125,-0.28739485144615173,1.8311594724655151,-0.30772432684898376
1761915196527866400,9.673866455078125,-0.3604634702205658,2.283798933029175,-0.06518357992172241
1761915196537920500,9.68392041015625,-0.377896785736084,2.0117738246917725,-0.12165724486112595
1761915196547975400,9.693975341796875,-0.4290637671947479,1.1579726934432983,-0.4032040238380432
1761915196558029300,9.704029296875,-0.5252920389175415,0.12921269237995148,-0.7377710938453674
1761915196568083500,9.71408349609375,-0.6126059889793396,-0.6382308602333069,-0.9579273462295532
1761915196578137300,9.724137451171876,-0.6852732300758362,-0.9241507649421692,-1.0023642778396606
1761915196588191500,9.73419140625,-0.738456666469574,-0.8072682619094849,-0.9240089654922485
1761915196598246400,9.744246337890624,-0.7519589066505432,-0.4871773421764374,-0.7834105491638184
1761915196608300500,9.754300537109375,-0.7051030993461609,-0.1317465752363205,-0.6483399271965027
1761915196618354400,9.7643544921875,-0.565146803855896,0.30975252389907837,-0.5170103907585144
1761915196628409000,9.7744091796875,-0.3359748423099518,0.856239378452301,-0.3835799992084503
1761915196638464000,9.784464111328125,-0.08052390813827515,1.3163721561431885,-0.23508797585964203
1761915196648518100,9.79451806640625,0.1264997124671936,1.6339231729507446,-0.08706294745206833
1761915196658572000,9.804572021484375,0.24563169479370117,1.7576345205307007,0.023391924798488617
1761915196668626200,9.814626220703126,0.29476043581962585,1.71800696849823,0.10338013619184494
1761915196678680000,9.82468017578125,0.23326033353805542,1.7746691703796387,0.16723261773586273
1761915196688735000,9.83473486328125,0.1377432495355606,1.7856569290161133,0.21733908355236053
1761915196698789000,9.8447890625,0.16272424161434174,1.4419045448303223,0.22219190001487732
1761915196708843000,9.854843017578125,0.18101194500923157,1.3262795209884644,0.2425253689289093
1761915196718897200,9.864897216796875,0.1393691599369049,1.4086474180221558,0.27608251571655273
1761915196728951000,9.874950927734375,0.07148458063602448,1.5570298433303833,0.29831331968307495
1761915196739006000,9.885005859375,0.06789278239011765,1.7049756050109863,0.3182521462440491
1761915196749060000,9.89506005859375,0.18474800884723663,1.8500022888183594,0.37545472383499146
1761915196759114000,9.905114013671875,0.3804703652858734,1.884555459022522,0.4659862220287323
1761915196769168100,9.915168212890626,0.5262937545776367,1.5214221477508545,0.4939791262149811
1761915196779222000,9.925221923828126,0.5589856505393982,0.8651799559593201,0.42826566100120544
1761915196789277200,9.935277099609374,0.5024691224098206,0.2807956337928772,0.28531989455223083
1761915196799331000,9.9453310546875,0.4195238947868347,-0.1852588802576065,0.11447411775588989
1761915196809385000,9.955385009765624,0.33107149600982666,-0.7184890508651733,-0.08630447089672089
1761915196819439000,9.965439208984375,0.2755773365497589,-1.2285622358322144,-0.2576330900192261
1761915196829493000,9.975492919921875,0.2880218029022217,-1.2533206939697266,-0.27473676204681396
1761915196839548200,9.985548095703125,0.3560754060745239,-0.48746588826179504,-0.05999169498682022
1761915196849602000,9.99560205078125,0.39149680733680725,0.7099741101264954,0.29711267352104187
1761915196859656200,10.00565625,0.3178284466266632,1.652046799659729,0.659889817237854
1761915196869710000,10.0157099609375,0.1924971342086792,2.147486686706543,0.9367179274559021
1761915196879765000,10.025764892578126,0.019310705363750458,2.1341025829315186,1.040365219116211
1761915196889819100,10.035819091796874,-0.1885300576686859,1.3925914764404297,0.9252750873565674
1761915196899873000,10.045873046875,-0.39286482334136963,0.10780531167984009,0.585259735584259
1761915196909927200,10.05592724609375,-0.4842246472835541,-1.1667031049728394,0.13286301493644714
1761915196919981000,10.06598095703125,-0.4496418833732605,-2.0652787685394287,-0.4101642966270447
1761915196930036000,10.076035888671875,-0.30236828327178955,-2.525028705596924,-1.0103230476379395
1761915196940089900,10.08608984375,-0.12471119314432144,-2.602217435836792,-1.563109278678894
1761915196950144000,10.09614404296875,-0.018756810575723648,-2.2348971366882324,-1.946481704711914
1761915196960198100,10.1061982421875,-0.0274384506046772,-1.5040611028671265,-2.092806816101074
1761915196970252000,10.116251953125,-0.10016980022192001,-0.697283148765564,-2.0213725566864014
1761915196980307200,10.12630712890625,-0.17097021639347076,-0.05342027544975281,-1.801657795906067
1761915196990361000,10.136361083984376,-0.20334306359291077,0.33750244975090027,-1.489031434059143
1761915197000415000,10.1464150390625,-0.17420968413352966,0.4842410385608673,-1.0989981889724731
1761915197010468900,10.15646875,-0.11450862884521484,0.48539960384368896,-0.6556401252746582
1761915197020523000,10.16652294921875,-0.06121530756354332,0.2908223867416382,-0.17625035345554352
1761915197030578200,10.176578125,-0.023303747177124023,-0.043966785073280334,0.2995988428592682
1761915197040632000,10.186632080078125,0.027615094557404518,-0.36622631549835205,0.7615576982498169
1761915197050686200,10.196686279296875,0.14872750639915466,-0.4797433614730835,1.1707427501678467
1761915197060740000,10.206739990234375,0.29970690608024597,-0.4177097976207733,1.4755399227142334
1761915197070795000,10.216794921875,0.4179837107658386,-0.23565083742141724,1.680374264717102
1761915197080849200,10.22684912109375,0.4391752779483795,0.0119656166061759,1.8060352802276611
1761915197090903000,10.236903076171876,0.35915607213974,0.1942695826292038,1.8726140260696411
1761915197100957200,10.246957275390624,0.19114148616790771,0.18274103105068207,1.8595656156539917
1761915197111011000,10.257010986328124,-0.008295624516904354,-0.020812444388866425,1.7825216054916382
1761915197121066000,10.26706591796875,-0.16434861719608307,-0.1859300285577774,1.6109964847564697
1761915197131119900,10.277119873046875,-0.18545547127723694,-0.15263621509075165,1.3086453676223755
1761915197141174000,10.287174072265625,-0.04815620929002762,0.18350264430046082,0.8966674208641052
1761915197151228000,10.297227783203125,0.18046404421329498,0.6725825667381287,0.4874984323978424
1761915197161282000,10.307281982421875,0.3507497310638428,1.1857372522354126,0.29830536246299744
1761915197171337200,10.317337158203125,0.16778510808944702,1.1174923181533813,0.8556563854217529
1761915197181391000,10.32739111328125,0.13088035583496094,0.58530592918396,1.2777724266052246
1761915197191445000,10.337445068359376,0.3773393929004669,0.19153998792171478,1.4558500051498413
1761915197201499000,10.347498779296876,0.5538641214370728,-0.3130477964878082,1.4242053031921387
1761915197211553000,10.357552978515624,0.563818097114563,-0.9040514230728149,1.2786967754364014
1761915197221608200,10.367608154296875,0.5994889736175537,-1.3945225477218628,1.3158265352249146
1761915197231662000,10.377662109375,0.5258491635322571,-1.6676976680755615,1.5162540674209595
1761915197241716200,10.38771630859375,0.5474071502685547,-1.8256614208221436,1.5965503454208374
