time,seconds_elapsed,z,y,x
1761915186934909400,0.080909423828125,-0.3093269467353821,-0.8974757194519043,0.08647177368402481
1761915186944963300,0.09096337890625,-0.4060305953025818,-1.4950720071792603,-0.23688578605651855
1761915186955017200,0.101017333984375,-0.5460904836654663,-2.0236191749572754,-0.5261237025260925
1761915186965071400,0.1110712890625,-0.7579633593559265,-2.205453872680664,-0.6890713572502136
1761915186975126500,0.12112646484375,-0.989104688167572,-1.9309172630310059,-0.6790213584899902
1761915186985180400,0.131180419921875,-1.1524219512939453,-1.208329200744629,-0.48487719893455505
1761915186995234600,0.141234619140625,-1.2012174129486084,-0.1941891759634018,-0.10438259690999985
1761915187005288400,0.151288330078125,-1.1271227598190308,0.779293417930603,0.35424143075942993
1761915187015342600,0.161342529296875,-1.0173213481903076,1.4012237787246704,0.7405773997306824
1761915187025397500,0.1713974609375,-0.9178630113601685,1.573831558227539,0.9875073432922363
1761915187035451400,0.181451416015625,-0.8274297714233398,1.347896933555603,1.0620102882385254
1761915187045505500,0.191505615234375,-0.7581460475921631,0.8406875133514404,1.0177783966064453
1761915187055559400,0.201559326171875,-0.7447769641876221,0.1827905923128128,0.9517109394073486
1761915187065613600,0.211613525390625,-0.8034615516662598,-0.3976981043815613,0.9543712139129639
1761915187075667500,0.22166748046875,-0.9256290197372437,-0.6700729131698608,1.0708565711975098
1761915187085722400,0.231722412109375,-1.0567923784255981,-1.1940118074417114,1.215929627418518
1761915187095776300,0.2417763671875,-1.1346863508224487,-1.7562633752822876,1.3180716037750244
1761915187105830400,0.251830322265625,-1.2142786979675293,-2.0828027725219727,1.3322244882583618
1761915187115884500,0.261884521484375,-1.3241420984268188,-2.2496747970581055,1.2120832204818726
1761915187125938400,0.2719384765625,-1.407822608947754,-2.4414708614349365,0.9333495497703552
1761915187135993600,0.28199365234375,-1.4082475900650024,-2.6179466247558594,0.5684171319007874
1761915187146047200,0.292047119140625,-1.321152687072754,-2.772785186767578,0.2301005721092224
1761915187156101400,0.302101318359375,-1.1609355211257935,-2.7800426483154297,0.03399312123656273
1761915187166155300,0.3121552734375,-1.013687252998352,-2.5632357597351074,0.018094316124916077
1761915187176209400,0.32220947265625,-0.9161463379859924,-2.1956522464752197,0.15385214984416962
1761915187186264600,0.3322646484375,-0.8648929595947266,-1.7705265283584595,0.40172427892684937
1761915187196318500,0.342318359375,-0.8501116633415222,-1.3850266933441162,0.6858707666397095
1761915187206372600,0.35237255859375,-0.8754340410232544,-1.1352230310440063,0.9259973764419556
1761915187216426500,0.362426513671875,-0.9249100089073181,-0.9707903861999512,1.0718104839324951
1761915187226480400,0.37248046875,-0.9746559858322144,-0.8927925229072571,1.1090947389602661
1761915187236534300,0.3825341796875,-0.9920461177825928,-0.887865424156189,1.063445806503296
1761915187246589400,0.39258935546875,-0.965563952922821,-0.9222167134284973,0.9559704065322876
1761915187256643600,0.4026435546875,-0.9136956930160522,-0.9584900736808777,0.8152524828910828
1761915187266697500,0.412697509765625,-0.8510509133338928,-0.938368022441864,0.665736198425293
1761915187276751600,0.422751708984375,-0.783481240272522,-0.8520573377609253,0.529151976108551
1761915187286805500,0.432805419921875,-0.7341972589492798,-0.7014822363853455,0.40251922607421875
1761915187296860400,0.4428603515625,-0.7432541847229004,-0.5721039772033691,0.2737063765525818
1761915187306914300,0.452914306640625,-0.810682475566864,-0.5777032971382141,0.15068697929382324
1761915187316968400,0.462968505859375,-0.9303739666938782,-0.7511214017868042,0.05468907952308655
1761915187327022600,0.473022705078125,-1.0958055257797241,-1.0032391548156738,0.015900403261184692
1761915187337076500,0.483076416015625,-1.2601361274719238,-1.109331488609314,0.05955946817994118
1761915187347130600,0.493130615234375,-1.376285433769226,-1.0557217597961426,0.18856991827487946
1761915187357185300,0.503185302734375,-1.4071834087371826,-0.8500426411628723,0.3510504364967346
1761915187367239400,0.513239501953125,-1.3892619609832764,-0.557320237159729,0.4529144763946533
1761915187377293300,0.523293212890625,-1.4175361394882202,-0.407731294631958,0.4018438458442688
1761915187387347500,0.533347412109375,-1.519068717956543,-0.6694425344467163,0.155824214220047
1761915187397401300,0.5434013671875,-1.607262134552002,-1.2587484121322632,-0.23800776898860931
1761915187407456500,0.55345654296875,-1.5892184972763062,-1.6973577737808228,-0.6012408137321472
1761915187417510400,0.563510498046875,-1.4314717054367065,-1.6718744039535522,-0.8169789910316467
1761915187427564300,0.573564208984375,-1.2549973726272583,-1.233888864517212,-0.8755858540534973
1761915187437618400,0.583618408203125,-1.283658504486084,-0.6347002387046814,-0.8226832151412964
1761915187447672300,0.59367236328125,-1.5719846487045288,-0.031495075672864914,-0.6831735372543335
1761915187457727500,0.6037275390625,-1.9200427532196045,0.5207944512367249,-0.37484070658683777
1761915187467781600,0.61378173828125,-2.011624336242676,1.1274389028549194,0.1469966322183609
1761915187477835500,0.62383544921875,-1.6646943092346191,1.5870698690414429,0.7017304301261902
1761915187487889400,0.633889404296875,-1.083917260169983,1.3220911026000977,1.0048096179962158
1761915187497943300,0.643943359375,-0.5659260153770447,0.2806846499443054,1.0698858499526978
1761915187507997400,0.65399755859375,-0.2515781819820404,-0.9884485006332397,1.096695065498352
1761915187518052400,0.66405224609375,-0.12208223342895508,-2.1131227016448975,1.1209388971328735
1761915187528106500,0.6741064453125,-0.12700748443603516,-2.98248291015625,1.1291265487670898
1761915187538160400,0.684160400390625,-0.10818053036928177,-3.4575560092926025,1.206463098526001
1761915187548214500,0.694214599609375,0.05988011136651039,-3.5580618381500244,1.3881756067276
1761915187558268700,0.7042685546875,0.3638783395290375,-3.369746446609497,1.6747709512710571
1761915187568323300,0.7143232421875,0.6963958740234375,-3.0701382160186768,1.996596336364746
1761915187578377500,0.72437744140625,0.917314350605011,-2.784813642501831,2.2697091102600098
1761915187588431400,0.734431396484375,0.9085232615470886,-2.587371349334717,2.3782637119293213
1761915187598485500,0.744485595703125,0.6541205644607544,-2.628300905227661,2.193551778793335
1761915187608539400,0.754539306640625,0.26738429069519043,-2.7937865257263184,1.716402292251587
1761915187618593300,0.76459326171875,-0.13612321019172668,-2.875124931335449,1.0906767845153809
1761915187628648200,0.774648193359375,-0.49172285199165344,-2.7911264896392822,0.4835379123687744
1761915187638702000,0.7847021484375,-0.757932186126709,-2.492206573486328,0.01955958642065525
1761915187648756200,0.794756103515625,-0.9180957674980164,-2.0638833045959473,-0.2921711504459381
1761915187658810000,0.80481005859375,-0.9681336283683777,-1.6053407192230225,-0.4632384777069092
1761915187668864300,0.8148642578125,-0.9237864017486572,-1.1778762340545654,-0.5135024785995483
1761915187678919400,0.82491943359375,-0.8419341444969177,-0.6603632569313049,-0.43344011902809143
1761915187688973300,0.834973388671875,-0.7639011144638062,-0.15507054328918457,-0.26561036705970764
1761915187699027200,0.845027099609375,-0.7115790843963623,0.07925727218389511,-0.09727275371551514
1761915187709081000,0.8550810546875,-0.6949082016944885,0.066984623670578,0.06309854239225388
1761915187719135200,0.86513525390625,-0.7043488621711731,-0.08487760275602341,0.21437780559062958
1761915187729189000,0.875189208984375,-0.7291415333747864,-0.31354594230651855,0.34528443217277527
1761915187739244300,0.885244384765625,-0.7362503409385681,-0.5151355266571045,0.4380364716053009
1761915187749298400,0.89529833984375,-0.6979378461837769,-0.6426239609718323,0.4952978789806366
1761915187759352300,0.905352294921875,-0.626875102519989,-0.7669943571090698,0.5251423120498657
1761915187769406200,0.91540625,-0.5737977623939514,-1.019836187362671,0.547985851764679
1761915187779460000,0.925460205078125,-0.5578281283378601,-1.3213409185409546,0.5442494750022888
1761915187789515300,0.935515380859375,-0.6195223927497864,-1.6468029022216797,0.47571781277656555
1761915187799569200,0.945569091796875,-0.7749596238136292,-1.8990943431854248,0.37804317474365234
1761915187809623300,0.955623291015625,-0.9661109447479248,-1.9370124340057373,0.30693569779396057
1761915187819677200,0.96567724609375,-1.1157689094543457,-1.8264096975326538,0.23211365938186646
1761915187829731300,0.9757314453125,-1.1739370822906494,-1.6948503255844116,0.14528769254684448
1761915187839786200,0.9857861328125,-1.168969750404358,-1.6629257202148438,0.05267652869224548
1761915187849840000,0.995840087890625,-1.153030514717102,-1.6780966520309448,-0.0028695559594780207
1761915187859894300,1.005894287109375,-1.1511274576187134,-1.417172908782959,-0.01206784788519144
1761915187869948200,1.0159482421875,-1.1659125089645386,-0.8021989464759827,0.014187990687787533
1761915187880002300,1.026002197265625,-1.1821247339248657,-0.14862222969532013,0.011275291442871094
1761915187890056200,1.03605615234375,-1.203417181968689,0.15474990010261536,-0.0984480082988739
1761915187900111000,1.046111083984375,-1.1494282484054565,0.06061088293790817,-0.2209606170654297
1761915187910165200,1.056165283203125,-0.961469829082489,-0.2731114327907562,-0.16952165961265564
1761915187920219100,1.06621923828125,-0.741946816444397,-0.718779444694519,0.06777798384428024
1761915187930273300,1.076273193359375,-0.5493137240409851,-1.051730990409851,0.3276015818119049
1761915187940327200,1.0863271484375,-0.249687060713768,-0.9174427390098572,0.48795607686042786
1761915187950382300,1.09638232421875,0.25820890069007874,-0.3723275065422058,0.4826529324054718
1761915187960436200,1.106436279296875,0.8228922486305237,0.2982138395309448,0.30309727787971497
1761915187970490000,1.116489990234375,1.266226053237915,0.6560527086257935,-0.03277925029397011
1761915187980544300,1.126544189453125,1.4984725713729858,0.5290853977203369,-0.4617849290370941
1761915187990598100,1.13659814453125,1.4946850538253784,-0.008100803010165691,-0.8891634345054626
1761915188000652300,1.14665234375,1.3074486255645752,-0.6762274503707886,-1.2114917039871216
1761915188010707200,1.156707275390625,1.0559744834899902,-1.1917693614959717,-1.339747428894043
1761915188020761300,1.16676123046875,0.8438457250595093,-1.54290771484375,-1.2894786596298218
1761915188030815200,1.176815185546875,0.6971068978309631,-1.6805163621902466,-1.1439582109451294
1761915188040869000,1.186869140625,0.6737267374992371,-1.5280406475067139,-0.9890013337135315
1761915188050923000,1.196923095703125,0.7300882935523987,-1.2253440618515015,-0.9382559061050415
1761915188060977200,1.20697705078125,0.7557811141014099,-0.9000136852264404,-1.0374809503555298
1761915188071032300,1.2170322265625,0.693148672580719,-0.6528601050376892,-1.2707842588424683
1761915188081086200,1.227086181640625,0.5125663876533508,-0.5659249424934387,-1.6087570190429688
1761915188091140400,1.237140380859375,0.25310948491096497,-0.6176541447639465,-1.970677375793457
1761915188101194200,1.2471943359375,0.005342567339539528,-0.6921435594558716,-2.228318452835083
1761915188111248100,1.257248046875,-0.16902337968349457,-0.6719967722892761,-2.2647409439086914
1761915188121303300,1.26730322265625,-0.23936358094215393,-0.4711957573890686,-2.0721471309661865
1761915188131357200,1.277357177734375,-0.1852785050868988,-0.15267476439476013,-1.6671372652053833
1761915188141411300,1.287411376953125,-0.03695535287261009,0.15809668600559235,-1.136519193649292
1761915188151465200,1.29746533203125,0.1384870409965515,0.3704976439476013,-0.557384192943573
1761915188161519400,1.307519287109375,0.2907106578350067,0.45388492941856384,-0.019397133961319923
1761915188171574000,1.317573974609375,0.3975084722042084,0.43122515082359314,0.41353246569633484
1761915188181628200,1.327628173828125,0.45473554730415344,0.31124603748321533,0.7009538412094116
1761915188191682300,1.337682373046875,0.4668111205101013,0.10531070828437805,0.8390632271766663
1761915188201736200,1.347736083984375,0.439751535654068,-0.18906979262828827,0.8631646037101746
1761915188211790300,1.357790283203125,0.36532044410705566,-0.47034698724746704,0.8314327597618103
1761915188221844200,1.36784423828125,0.21207284927368164,-0.6953045129776001,0.7959825992584229
1761915188231899100,1.377899169921875,-0.007228618022054434,-0.77130526304245,0.7872170805931091
1761915188241953000,1.387953125,-0.27696874737739563,-0.666476845741272,0.8006396889686584
1761915188252007200,1.398007080078125,-0.5611642599105835,-0.4551214575767517,0.7962436079978943
1761915188262061000,1.40806103515625,-0.8091679215431213,-0.24968333542346954,0.7622185349464417
1761915188272115200,1.418115234375,-0.9585409164428711,-0.12461516261100769,0.6916170716285706
1761915188282170400,1.42817041015625,-0.9984060525894165,-0.08658576011657715,0.6054630279541016
1761915188292224300,1.438224365234375,-0.948989748954773,-0.015158180147409439,0.5543902516365051
1761915188302278400,1.4482783203125,-0.8164801597595215,0.20506127178668976,0.5837571620941162
1761915188312332000,1.45833203125,-0.554695188999176,0.6655244827270508,0.6630328297615051
1761915188322386200,1.46838623046875,-0.20199596881866455,1.1098313331604004,0.6869245767593384
1761915188332440000,1.478440185546875,0.07609503716230392,1.1233266592025757,0.5828695297241211
1761915188342495200,1.4884951171875,0.1221325695514679,0.4421534538269043,0.33495110273361206
1761915188352549400,1.49854931640625,0.035226430743932724,-0.41503819823265076,0.05790111795067787
1761915188362603300,1.508603271484375,-0.042206842452287674,-1.0895785093307495,-0.15196342766284943
1761915188372657400,1.518657470703125,-0.12088194489479065,-1.378827452659607,-0.2382088452577591
1761915188382711300,1.528711181640625,-0.3457246422767639,-1.1397016048431396,-0.17476168274879456
1761915188392766200,1.53876611328125,-0.6924842000007629,-0.4136509597301483,0.04640211910009384
1761915188402820000,1.548820068359375,-1.0664037466049194,0.47857964038848877,0.3587416410446167
1761915188412874200,1.558874267578125,-1.3125836849212646,1.2051427364349365,0.6628991365432739
1761915188422928400,1.568928466796875,-1.2541054487228394,1.6853463649749756,0.9099307656288147
1761915188432982300,1.578982177734375,-0.9093241095542908,1.99434494972229,1.1070480346679688
1761915188443036400,1.589036376953125,-0.36873969435691833,2.140984535217285,1.2630771398544312
1761915188453091000,1.599091064453125,0.21864286065101624,1.9515894651412964,1.3364410400390625
1761915188463145200,1.609145263671875,0.6840691566467285,1.258610725402832,1.2910640239715576
1761915188473199000,1.61919921875,1.0268504619598389,0.27533942461013794,1.1631715297698975
1761915188483253200,1.629253173828125,1.3195033073425293,-0.747391939163208,1.0756163597106934
1761915188493307100,1.63930712890625,1.5981570482254028,-1.3508505821228027,1.1230894327163696
1761915188503362300,1.6493623046875,1.7986611127853394,-1.420831561088562,1.2539794445037842
1761915188513416200,1.659416259765625,1.9186930656433105,-1.0927495956420898,1.3588182926177979
1761915188523470000,1.669469970703125,2.0110154151916504,-0.4736596941947937,1.3790096044540405
1761915188533524200,1.679524169921875,2.1324126720428467,0.3618317246437073,1.3039577007293701
1761915188543578000,1.689578125,2.3699653148651123,1.2685980796813965,1.0891873836517334
1761915188553632300,1.69963232421875,2.6654052734375,1.8827153444290161,0.6770147085189819
1761915188563687400,1.7096875,2.8566033840179443,1.9799039363861084,0.09575395286083221
1761915188573741300,1.7197412109375,2.8993780612945557,1.8612369298934937,-0.48988795280456543
1761915188583795200,1.729795166015625,2.7966160774230957,1.728128433227539,-0.9841954112052917
1761915188593849000,1.73984912109375,2.5183398723602295,1.8005754947662354,-1.3187174797058105
1761915188603903200,1.7499033203125,2.1046392917633057,2.110318422317505,-1.483137607574463
1761915188613960400,1.75996044921875,1.6496237516403198,2.506103515625,-1.5298446416854858
1761915188624014300,1.770014404296875,1.2840462923049927,2.8727755546569824,-1.5454957485198975
1761915188634068500,1.780068359375,1.0216045379638672,3.2054483890533447,-1.5666098594665527
1761915188644122400,1.790122314453125,0.8620777726173401,3.5080220699310303,-1.5844221115112305
1761915188654176500,1.800176513671875,0.8024125695228577,3.6946704387664795,-1.5627503395080566
1761915188664230400,1.81023046875,0.7982316613197327,3.68506121635437,-1.4688323736190796
1761915188674285300,1.820285400390625,0.8210826516151428,3.4170401096343994,-1.2885899543762207
1761915188684339500,1.83033935546875,0.8444423079490662,2.9479784965515137,-0.9966853857040405
1761915188694393300,1.840393310546875,0.8277498483657837,2.4004621505737305,-0.5976895093917847
1761915188704447500,1.850447509765625,0.7384764552116394,1.8908824920654297,-0.14404265582561493
1761915188714501400,1.86050146484375,0.5735942721366882,1.464972734451294,0.28630179166793823
1761915188724556500,1.870556640625,0.33361712098121643,1.1122974157333374,0.6344184875488281
1761915188734610400,1.8806103515625,0.07031464576721191,0.8127328157424927,0.8764311075210571
1761915188744664300,1.890664306640625,-0.17730340361595154,0.547828197479248,0.9810174703598022
1761915188754718500,1.900718505859375,-0.4289654791355133,0.35053113102912903,0.9682020545005798
1761915188764772400,1.9107724609375,-0.6756407618522644,0.17225885391235352,0.8598896861076355
1761915188774826500,1.920826416015625,-0.8937699198722839,0.07328273355960846,0.7057328820228577
1761915188784881400,1.93088134765625,-1.0111135244369507,-0.007652326952666044,0.5399348735809326
1761915188794935600,1.940935546875,-0.9291233420372009,0.17941983044147491,0.4409683346748352
1761915188804989400,1.950989501953125,-0.6120647192001343,0.671043336391449,0.44268742203712463
1761915188815043300,1.961043212890625,-0.2196412831544876,1.0504543781280518,0.4570242762565613
1761915188825097200,1.97109716796875,-0.012577843852341175,1.0045499801635742,0.3911712169647217
1761915188835152400,1.98115234375,-0.0418209508061409,0.6086140871047974,0.2765093445777893
1761915188845206500,1.99120654296875,-0.1843581199645996,-0.13956429064273834,0.2924949824810028
1761915188855260400,2.001260498046875,-0.31009581685066223,-0.9625170230865479,0.5985891222953796
1761915188865314600,2.011314453125,-0.3765523433685303,-1.3555479049682617,1.1513614654541016
1761915188875368400,2.021368408203125,-0.38266775012016296,-1.184206247329712,1.7662826776504517
1761915188885422600,2.031422607421875,-0.3929139971733093,-0.624121904373169,2.2233715057373047
1761915188895477500,2.0414775390625,-0.4823935329914093,0.07400844991207123,2.3001952171325684
1761915188905531400,2.051531494140625,-0.56695955991745,0.7420567870140076,1.9354280233383179
1761915188915585500,2.06158544921875,-0.564411997795105,1.2819617986679077,1.243350863456726
1761915188925639400,2.071639404296875,-0.4866088032722473,1.769090175628662,0.4056529700756073
1761915188935693600,2.081693603515625,-0.3691386282444,2.267289400100708,-0.3706539571285248
1761915188945747500,2.09174755859375,-0.23544926941394806,2.6771399974823,-0.9410015940666199
1761915188955802400,2.10180224609375,-0.12469080090522766,2.8246002197265625,-1.3106528520584106
1761915188965856500,2.1118564453125,-0.018516160547733307,2.6205573081970215,-1.542258381843567
1761915188975910400,2.121910400390625,0.11596015840768814,2.1204428672790527,-1.6787341833114624
1761915188985964500,2.131964599609375,0.23801815509796143,1.5016769170761108,-1.7162083387374878
1761915188996018400,2.142018310546875,0.28320029377937317,0.8700670003890991,-1.677046537399292
1761915189006073600,2.152073486328125,0.21329256892204285,0.17754575610160828,-1.6075447797775269
1761915189016127200,2.162127197265625,-0.011806592345237732,-0.7357422113418579,-1.590042233467102
1761915189026181400,2.172181396484375,-0.41072627902030945,-1.6542421579360962,-1.631298303604126
1761915189036235300,2.1822353515625,-0.8882872462272644,-2.2250022888183594,-1.696391224861145
1761915189046289400,2.192289306640625,-1.2870410680770874,-2.3498902320861816,-1.7713541984558105
1761915189056343300,2.20234326171875,-1.5277217626571655,-2.0293161869049072,-1.8131093978881836
1761915189066398500,2.2123984375,-1.6135096549987793,-1.3286744356155396,-1.7788784503936768
1761915189076452600,2.22245263671875,-1.5650506019592285,-0.44188445806503296,-1.6589621305465698
1761915189086506200,2.23250634765625,-1.416404366493225,0.4060401916503906,-1.463636875152588
1761915189096560400,2.242560302734375,-1.1733453273773193,1.099768877029419,-1.188962697982788
1761915189106614300,2.2526142578125,-0.910803496837616,1.5763511657714844,-0.8579402565956116
1761915189116669400,2.26266943359375,-0.6967897415161133,1.8256975412368774,-0.5163320899009705
1761915189126723600,2.2727236328125,-0.5259833931922913,1.8940443992614746,-0.2072535902261734
1761915189136777500,2.282777587890625,-0.34566447138786316,1.7776477336883545,0.06500376760959625
1761915189146831600,2.29283154296875,-0.15793024003505707,1.4484211206436157,0.325732558965683
1761915189156885500,2.302885498046875,0.006019542925059795,0.9314458966255188,0.633758008480072
1761915189166939400,2.312939453125,0.09794813394546509,0.27733734250068665,1.0040884017944336
1761915189176994300,2.322994384765625,0.11825820058584213,-0.4601803719997406,1.440989375114441
1761915189187048400,2.33304833984375,0.05354152247309685,-1.2064380645751953,1.8764662742614746
1761915189197102600,2.3431025390625,-0.12045850604772568,-1.8141597509384155,2.2677533626556396
1761915189207156500,2.353156494140625,-0.3876499831676483,-2.2321977615356445,2.568990707397461
1761915189217210600,2.363210693359375,-0.6890305876731873,-2.488844156265259,2.7626636028289795
1761915189227265300,2.373265380859375,-0.9111347794532776,-2.585477113723755,2.826080322265625
1761915189237319400,2.3833193359375,-1.0294963121414185,-2.5067265033721924,2.7687344551086426
1761915189247373300,2.393373291015625,-1.074788212776184,-2.3420655727386475,2.56193208694458
1761915189257427500,2.403427490234375,-1.0560214519500732,-2.140354633331299,2.210047960281372
1761915189267481300,2.4134814453125,-0.9898162484169006,-1.9372012615203857,1.7484257221221924
1761915189277535500,2.423535400390625,-0.8528134226799011,-1.6496913433074951,1.250250220298767
1761915189287590400,2.43359033203125,-0.6500994563102722,-1.1272740364074707,0.8394976258277893
1761915189297644300,2.443644287109375,-0.4037352204322815,-0.41470396518707275,0.5974972248077393
1761915189307698400,2.453698486328125,-0.1451404094696045,0.247895285487175,0.4736991226673126
1761915189317752300,2.46375244140625,0.0727117508649826,0.4162731170654297,0.30217450857162476
1761915189327806500,2.473806396484375,0.16504648327827454,-0.2671683132648468,-0.008460596203804016
1761915189337861600,2.483861572265625,0.10486622899770737,-1.3596622943878174,-0.2921367883682251
1761915189347915500,2.49391552734375,-0.0033457293175160885,-1.9902201890945435,-0.3339571952819824
1761915189357969400,2.503969482421875,-0.2614925801753998,-2.051001787185669,-0.12174161523580551
1761915189368023300,2.514023193359375,-0.7767407298088074,-1.4117158651351929,0.25455746054649353
1761915189378077400,2.524077392578125,-1.2238702774047852,-0.3091261684894562,0.656017005443573
1761915189388131300,2.53413134765625,-1.3146289587020874,0.5179254412651062,0.8517937064170837
1761915189398186500,2.5441865234375,-1.0195810794830322,0.6757904291152954,0.654147744178772
1761915189408240400,2.554240478515625,-0.4166629910469055,0.3700803220272064,0.028620725497603416
1761915189418294500,2.56429443359375,0.3066803216934204,0.21670354902744293,-0.7560221552848816
1761915189428348400,2.574348388671875,0.897964358329773,0.41729018092155457,-1.319077491760254
1761915189438402300,2.58440234375,1.2187072038650513,0.7806066274642944,-1.5352503061294556
1761915189448456400,2.59445654296875,1.3745522499084473,1.158406138420105,-1.5015370845794678
1761915189458511400,2.604511474609375,1.4597231149673462,1.465816855430603,-1.3293466567993164
1761915189468565500,2.6145654296875,1.4964100122451782,1.6447834968566895,-1.1234358549118042
1761915189478619400,2.624619384765625,1.4758682250976562,1.6790008544921875,-0.9728530049324036
1761915189488673500,2.634673583984375,1.3969075679779053,1.593713402748108,-0.9479321837425232
1761915189498727400,2.6447275390625,1.2966084480285645,1.4283190965652466,-1.0648462772369385
1761915189508782300,2.6547822265625,1.2409294843673706,1.2029391527175903,-1.3006747961044312
1761915189518836500,2.66483642578125,1.2494912147521973,0.9927481412887573,-1.5939466953277588
1761915189528890400,2.674890380859375,1.2978920936584473,0.865385115146637,-1.8785147666931152
1761915189538944500,2.684944580078125,1.34760582447052,0.7778521180152893,-2.0907082557678223
1761915189548998400,2.694998291015625,1.3647472858428955,0.6610562205314636,-2.168809652328491
1761915189559052500,2.705052490234375,1.3143868446350098,0.554401159286499,-2.0999324321746826
1761915189569107500,2.715107421875,1.1848726272583008,0.5253820419311523,-1.9104503393173218
1761915189579161300,2.725161376953125,0.9763401746749878,0.6390955448150635,-1.660307765007019
1761915189589215500,2.735215576171875,0.7150717973709106,0.8163600564002991,-1.3894400596618652
1761915189599269400,2.745269287109375,0.4463364779949188,0.9230902194976807,-1.1183958053588867
1761915189609323500,2.755323486328125,0.19456149637699127,0.9416207671165466,-0.8658716678619385
1761915189619375900,2.7653759765625,-0.013638313859701157,0.8553705811500549,-0.6534494161605835
1761915189629430000,2.775429931640625,-0.13031832873821259,0.7181850075721741,-0.4938134551048279
1761915189639484200,2.785484130859375,-0.13616928458213806,0.5791938304901123,-0.37003636360168457
1761915189649538000,2.7955380859375,-0.0444050133228302,0.48222923278808594,-0.26734063029289246
1761915189659592200,2.80559228515625,0.07378260791301727,0.43474745750427246,-0.18248991668224335
1761915189669646000,2.81564599609375,0.18755444884300232,0.42618778347969055,-0.11125674843788147
1761915189679701000,2.825700927734375,0.28105324506759644,0.39435717463493347,-0.059480901807546616
1761915189689755000,2.8357548828125,0.37226730585098267,0.33559077978134155,0.007742342073470354
1761915189699809000,2.84580908203125,0.4438179135322571,0.3011515736579895,0.121527761220932
1761915189709863000,2.85586279296875,0.4676678478717804,0.25943130254745483,0.2783235013484955
1761915189719917000,2.8659169921875,0.4059816002845764,0.1909521073102951,0.4210609495639801
1761915189729972200,2.87597216796875,0.2694341242313385,0.0010809770319610834,0.5100760459899902
1761915189740026000,2.886026123046875,0.11796604841947556,-0.31753483414649963,0.5541684031486511
1761915189750080000,2.896080078125,-0.014540326781570911,-0.716760516166687,0.5858352184295654
1761915189760134000,2.9061337890625,-0.04800907149910927,-0.9318179488182068,0.6826776266098022
1761915189770188000,2.91618798828125,0.01233389787375927,-0.6816437840461731,0.8040498495101929
1761915189780242000,2.926241943359375,0.09494035691022873,-0.017978467047214508,0.8206251263618469
1761915189790297000,2.936297119140625,0.1025969460606575,0.6357287764549255,0.599605917930603
1761915189800351200,2.946351318359375,-0.12195413559675217,0.7152385115623474,0.12272538989782333
1761915189810405000,2.956405029296875,-0.5074520111083984,0.2296515703201294,-0.4273236393928528
1761915189820459000,2.966458984375,-0.7890293598175049,-0.6241546869277954,-0.7851361036300659
1761915189830513000,2.976512939453125,-0.8976823687553406,-1.3477749824523926,-0.6879520416259766
1761915189840568000,2.986568115234375,-0.8020002841949463,-1.0458403825759888,0.032289762049913406
1761915189850622200,2.996622314453125,-0.4323226511478424,0.1731502115726471,1.1098647117614746
1761915189860676000,3.006676025390625,0.144953191280365,1.2605921030044556,1.9702686071395874
1761915189870730200,3.016730224609375,0.7050990462303162,1.7139198780059814,2.3273050785064697
1761915189880784100,3.0267841796875,1.0661778450012207,1.4992121458053589,2.196619987487793
1761915189890838300,3.03683837890625,1.1536099910736084,0.7286323308944702,1.684035301208496
1761915189900893000,3.046892822265625,1.020769715309143,-0.31368762254714966,0.9772397875785828
1761915189910947000,3.056947021484375,0.82166987657547,-1.229980707168579,0.2883470952510834
1761915189921001000,3.0670009765625,0.6853058934211731,-1.879276156425476,-0.25443974137306213
1761915189931055000,3.07705517578125,0.5685457587242126,-2.139371633529663,-0.5793960094451904
1761915189941109000,3.08710888671875,0.37267982959747314,-1.946691870689392,-0.6746636629104614
1761915189951163100,3.0971630859375,0.10476822406053543,-1.4066728353500366,-0.6060547828674316
1761915189961218000,3.107218017578125,-0.11811678856611252,-0.9399584531784058,-0.4681549668312073
1761915189971272000,3.11727197265625,-0.22886647284030914,-0.7475461363792419,-0.3339358866214752
1761915189981326000,3.127326171875,-0.25236859917640686,-0.7627357244491577,-0.19886116683483124
1761915189991380000,3.1373798828125,-0.2544842064380646,-0.8954753875732422,-0.053704772144556046
1761915190001434000,3.14743408203125,-0.2890792191028595,-1.0762169361114502,0.09896865487098694
1761915190011489300,3.1574892578125,-0.34245961904525757,-1.3229819536209106,0.23284496366977692
1761915190021543000,3.16754296875,-0.4372066259384155,-1.5085358619689941,0.3237740695476532
1761915190031597000,3.17759716796875,-0.5690994262695312,-1.5072388648986816,0.38246774673461914
1761915190041651000,3.18765087890625,-0.691137969493866,-1.2291713953018188,0.40263694524765015
1761915190051705000,3.197705078125,-0.7905327081680298,-0.7247361540794373,0.3680046498775482
1761915190061759000,3.207759033203125,-0.8810301423072815,-0.10645826905965805,0.2768782079219818
1761915190071814100,3.217814208984375,-0.9795277118682861,0.4850047826766968,0.11894263327121735
1761915190081868300,3.227868408203125,-1.0667030811309814,0.9281923174858093,-0.07039453834295273
1761915190091922000,3.237921875,-1.1204177141189575,1.1470972299575806,-0.24886707961559296
1761915190101976000,3.24797607421875,-1.1094446182250977,1.1711291074752808,-0.3682403266429901
1761915190112030000,3.258030029296875,-1.0480995178222656,1.0774952173233032,-0.3827420473098755
1761915190122085000,3.268085205078125,-0.9674203991889954,0.9515783190727234,-0.3004639446735382
1761915190132139000,3.278138916015625,-0.8859844207763672,0.7934233546257019,-0.14867949485778809
1761915190142193200,3.288193115234375,-0.7991054654121399,0.6010911464691162,0.041125331073999405
1761915190152247000,3.2982470703125,-0.7207600474357605,0.38045811653137207,0.20925389230251312
1761915190162301200,3.30830126953125,-0.6812038421630859,0.15929964184761047,0.3318794071674347
1761915190172355000,3.31835498046875,-0.699588418006897,-0.04902453348040581,0.4141175448894501
1761915190182410000,3.328409912109375,-0.8636969327926636,-0.2598254382610321,0.4662010073661804
1761915190192464100,3.338464111328125,-1.1956895589828491,-0.4910903573036194,0.4984196424484253
1761915190202518000,3.34851806640625,-1.6334258317947388,-0.8793161511421204,0.5070448517799377
1761915190212572200,3.358572265625,-2.082045793533325,-1.496651530265808,0.515331506729126
1761915190222626000,3.3686259765625,-2.3896679878234863,-2.254185199737549,0.547149121761322
1761915190232681000,3.378680908203125,-2.4507858753204346,-2.908034086227417,0.540439784526825
1761915190242735000,3.388735107421875,-2.2112910747528076,-3.2087576389312744,0.48359251022338867
1761915190252789000,3.3987890625,-1.6868324279785156,-2.8389780521392822,0.4240806996822357
1761915190262843100,3.408843017578125,-1.047015905380249,-1.6668685674667358,0.4164446294307709
1761915190272897000,3.41889697265625,-0.5693055391311646,-0.16825798153877258,0.4636867046356201
1761915190282951200,3.428951171875,-0.4078727066516876,0.7892000675201416,0.5390461683273315
1761915190293005800,3.439005859375,-0.48982828855514526,1.0183219909667969,0.657820999622345
1761915190303060000,3.44906005859375,-0.6107525825500488,0.8915051817893982,0.9080258011817932
1761915190313114000,3.459114013671875,-0.5978178977966309,0.7131564617156982,1.248226523399353
1761915190323168000,3.46916796875,-0.47243544459342957,0.2668125331401825,1.314112901687622
1761915190333222100,3.47922216796875,-0.18730677664279938,-0.7302544713020325,0.8262524008750916
1761915190343276000,3.489276123046875,0.35781753063201904,-1.7419582605361938,0.01677871309220791
1761915190353331200,3.499331298828125,0.9383946061134338,-2.164376735687256,-0.6342850923538208
1761915190363385000,3.509385009765625,1.2027133703231812,-1.90813148021698,-0.8788173198699951
1761915190373439000,3.51943896484375,1.0735827684402466,-1.2548577785491943,-0.7534615397453308
1761915190383492900,3.529492919921875,0.6940304040908813,-0.6997841596603394,-0.4522950351238251
1761915190393547000,3.539547119140625,0.27910274267196655,-0.5472183227539062,-0.20855773985385895
1761915190403602200,3.549602294921875,0.03339684009552002,-0.653999388217926,-0.12966851890087128
1761915190413656000,3.559656005859375,-0.029050027951598167,-0.7792379856109619,-0.18926472961902618
1761915190423710200,3.569710205078125,0.03995859995484352,-0.7416282892227173,-0.3480013906955719
1761915190433764000,3.57976416015625,0.18465399742126465,-0.5202173590660095,-0.5473653674125671
1761915190443818000,3.58981787109375,0.35703641176223755,-0.25326287746429443,-0.7819336652755737
1761915190453871900,3.599871826171875,0.5235210061073303,-0.10079292207956314,-1.081828236579895
1761915190463927000,3.609927001953125,0.5942449569702148,0.03404718264937401,-1.4715442657470703
1761915190473981200,3.619981201171875,0.44055449962615967,0.23201459646224976,-1.9326038360595703
1761915190484035000,3.63003515625,0.09083882719278336,0.5698192715644836,-2.356516122817993
1761915190494089200,3.640089111328125,-0.33077260851860046,0.9616389870643616,-2.606693983078003
1761915190504143000,3.65014306640625,-0.7229866981506348,1.3589245080947876,-2.583136796951294
1761915190514198000,3.660197998046875,-0.9912815690040588,1.687264323234558,-2.3138344287872314
1761915190524252200,3.670252197265625,-1.1032075881958008,1.8886102437973022,-1.8734965324401855
1761915190534306000,3.68030615234375,-1.0286222696304321,1.8758206367492676,-1.2959239482879639
1761915190544360200,3.690360107421875,-0.7433748245239258,1.8320345878601074,-0.6298671364784241
1761915190554414000,3.7004140625,-0.37849459052085876,1.8288520574569702,0.01902003027498722
1761915190564468200,3.71046826171875,-0.03976179286837578,1.7145681381225586,0.5542685389518738
1761915190574523000,3.72052294921875,0.2165948897600174,1.480164647102356,0.9228628277778625
1761915190584577000,3.730576904296875,0.33543074131011963,1.112999677658081,1.1171241998672485
1761915190594631000,3.740630859375,0.3078249394893646,0.6505838632583618,1.157972812652588
1761915190604685000,3.75068505859375,0.164675772190094,0.16958875954151154,1.1281245946884155
1761915190614740200,3.760740234375,-0.06181223317980766,-0.2306116372346878,1.1196041107177734
1761915190624795100,3.770795166015625,-0.31437230110168457,-0.42821207642555237,1.1563596725463867
1761915190634849000,3.78084912109375,-0.550373375415802,-0.4132120907306671,1.1955630779266357
1761915190644903200,3.790903076171875,-0.7670026421546936,-0.28286418318748474,1.1682374477386475
1761915190654957000,3.80095703125,-0.961319625377655,-0.0640394389629364,1.057192087173462
1761915190665011200,3.81101123046875,-1.1179369688034058,0.2243305742740631,0.9023668766021729
1761915190675065000,3.821065185546875,-1.1806679964065552,0.5245042443275452,0.7842007875442505
1761915190685120000,3.8311201171875,-1.1326171159744263,0.655350387096405,0.7324864864349365
1761915190695174100,3.841174072265625,-0.9989421367645264,0.46319401264190674,0.7258070111274719
1761915190705228000,3.85122802734375,-0.7816079258918762,0.06284953653812408,0.7460483312606812
1761915190715282200,3.8612822265625,-0.4695824086666107,-0.3684869408607483,0.8273836970329285
1761915190725336000,3.871336181640625,-0.04681863635778427,-0.7431225776672363,0.9601848721504211
1761915190735390200,3.88139013671875,0.4271121919155121,-1.0148403644561768,1.1323739290237427
1761915190745445000,3.891445068359375,0.8488362431526184,-1.215348482131958,1.3213638067245483
1761915190755499000,3.9014990234375,1.120087742805481,-1.3247010707855225,1.4400806427001953
1761915190765553000,3.911552978515625,1.1552526950836182,-1.3616052865982056,1.3998554944992065
1761915190775607000,3.92160693359375,0.8593581318855286,-1.5908137559890747,1.0976916551589966
1761915190785661000,3.931660888671875,0.22755512595176697,-1.8569071292877197,0.6006653308868408
1761915190795716000,3.941716064453125,-0.5398706793785095,-1.84110426902771,0.09786611050367355
1761915190805770200,3.951770263671875,-1.1344799995422363,-1.2352252006530762,-0.23365509510040283
1761915190815824100,3.96182421875,-1.2386529445648193,-0.17307697236537933,-0.2972668409347534
1761915190825878000,3.9718779296875,-0.8076558113098145,0.6028469800949097,-0.2447756677865982
1761915190835932000,3.981931884765625,-0.10638396441936493,0.6719959378242493,-0.3082936406135559
1761915190845986000,3.991986083984375,0.5947328805923462,0.09187666326761246,-0.4785766899585724
1761915190856038100,4.0020380859375,1.0065456628799438,-0.5999558568000793,-0.5734806060791016
1761915190866093000,4.012093017578125,1.1219580173492432,-0.9906690120697021,-0.4588349461555481
1761915190876147000,4.02214697265625,1.0782930850982666,-1.076219081878662,-0.252060204744339
1761915190886201000,4.032201171875,1.0132923126220703,-1.0214866399765015,-0.1117640808224678
1761915190896255000,4.0422548828125,1.0080230236053467,-0.8075399398803711,-0.07588810473680496
1761915190906309000,4.05230908203125,1.0514495372772217,-0.3800128400325775,-0.10485850274562836
1761915190916363000,4.062363037109375,1.0625008344650269,0.15557627379894257,-0.2239161878824234
1761915190926418200,4.072418212890625,0.9609420299530029,0.4125713109970093,-0.6123222708702087
1761915190936472000,4.08247216796875,0.8375415205955505,0.42823442816734314,-1.2564109563827515
1761915190946526000,4.09252587890625,0.7621991038322449,0.3804629147052765,-1.9193265438079834
1761915190956580000,4.102580078125,0.7120738625526428,0.39481550455093384,-2.341904401779175
1761915190966634000,4.112634033203125,0.6768926978111267,0.5229635834693909,-2.431396245956421
1761915190976689200,4.122689208984375,0.6292223930358887,0.7570708990097046,-2.263324022293091
1761915190986743300,4.132743408203125,0.5546251535415649,1.0568439960479736,-1.9708033800125122
1761915190996797200,4.142797119140625,0.5095804333686829,1.4268351793289185,-1.617637038230896
1761915191006851000,4.15285107421875,0.4850758910179138,1.731723427772522,-1.24821138381958
1761915191016905000,4.162905029296875,0.48197516798973083,1.8830628395080566,-0.8305824398994446
1761915191026959000,4.172958984375,0.49917811155319214,2.0267412662506104,-0.3203657567501068
1761915191037014000,4.183013916015625,0.514878511428833,2.0949313640594482,0.21159294247627258
1761915191047068200,4.193068115234375,0.549322247505188,1.9998438358306885,0.5841068625450134
1761915191057122000,4.2031220703125,0.6060537099838257,1.780000925064087,0.7469879388809204
1761915191067176200,4.21317626953125,0.7150976061820984,1.4769928455352783,0.7356521487236023
1761915191077230300,4.223230224609375,0.8359636068344116,1.0433841943740845,0.5920841097831726
1761915191087285000,4.233284912109375,0.8706496953964233,0.5002561807632446,0.4058596193790436
1761915191097339100,4.243339111328125,0.790287971496582,-0.07421324402093887,0.2849430441856384
1761915191107393000,4.25339306640625,0.626122772693634,-0.595050036907196,0.28134751319885254
1761915191117447200,4.263447265625,0.36109668016433716,-0.8825699687004089,0.3888007402420044
1761915191127501000,4.2735009765625,0.06792951375246048,-0.8954900503158569,0.5685619711875916
1761915191137555200,4.28355517578125,-0.16879060864448547,-0.647209644317627,0.7899209856987
1761915191147610000,4.293610107421875,-0.2857707738876343,-0.33296969532966614,1.0058519840240479
1761915191157664000,4.3036640625,-0.26600077748298645,-0.12577736377716064,1.1297738552093506
1761915191167718100,4.31371826171875,-0.10779943317174911,-0.1326209008693695,1.141230821609497
1761915191177772000,4.32377197265625,0.10651392489671707,-0.37503698468208313,1.0900100469589233
1761915191187826200,4.333826171875,0.33272841572761536,-0.7366188764572144,1.045215129852295
1761915191197881000,4.343881103515625,0.5413724184036255,-1.1140897274017334,1.076694130897522
1761915191207935000,4.35393505859375,0.7390751242637634,-1.337296485900879,1.19594144821167
1761915191217989000,4.363989013671875,0.9514275789260864,-1.292897343635559,1.3231135606765747
1761915191228043000,4.37404296875,1.1308386325836182,-1.159558653831482,1.364256501197815
1761915191238097200,4.38409716796875,1.2126826047897339,-1.1811678409576416,1.2800179719924927
1761915191248151000,4.394151123046875,1.1157329082489014,-1.4471158981323242,1.1141304969787598
1761915191258206200,4.404206298828125,0.8221508264541626,-1.8519337177276611,0.930158793926239
1761915191268260000,4.414260009765625,0.4010795056819916,-2.2515451908111572,0.7205494046211243
1761915191278314200,4.424314208984375,-0.02075854130089283,-2.2755446434020996,0.439711332321167
1761915191288367900,4.434367919921875,-0.32816481590270996,-1.7079722881317139,0.05017315596342087
1761915191298422000,4.444422119140625,-0.5818642377853394,-0.7099968791007996,-0.3737810552120209
1761915191308477200,4.454477294921875,-0.8692728281021118,0.24520497024059296,-0.7012481093406677
1761915191318531000,4.464531005859375,-1.0778473615646362,0.9327684640884399,-0.8198783993721008
1761915191328585200,4.474585205078125,-0.9993442893028259,1.3080326318740845,-0.7615754008293152
1761915191338639000,4.48463916015625,-0.6825910806655884,1.4240784645080566,-0.6898298263549805
1761915191348693200,4.494693359375,-0.30383846163749695,1.4413096904754639,-0.7338955402374268
1761915191358747000,4.504746826171875,-0.027529895305633545,1.378156065940857,-0.8662658333778381
1761915191368802000,4.514802001953125,0.08119206130504608,1.2210763692855835,-1.0014604330062866
1761915191378856200,4.524856201171875,0.05993204191327095,1.0045992136001587,-1.1266508102416992
1761915191388910000,4.53491015625,0.026378078386187553,0.8027499914169312,-1.2475087642669678
1761915191398964200,4.544964111328125,0.04319407418370247,0.6901190280914307,-1.361968755722046
1761915191409018000,4.55501806640625,0.11630184203386307,0.7305261492729187,-1.4565248489379883
1761915191419073000,4.565072998046875,0.1645258367061615,0.9178382158279419,-1.538796067237854
1761915191429127200,4.575127197265625,0.11455480754375458,1.0066519975662231,-1.624497652053833
1761915191439181000,4.58518115234375,-0.021318072453141212,0.8402736783027649,-1.7106655836105347
1761915191449235200,4.595235107421875,-0.13319186866283417,0.3036821186542511,-1.7898905277252197
1761915191459289000,4.6052890625,-0.053286924958229065,-0.26082199811935425,-1.7397363185882568
1761915191469343200,4.61534326171875,0.1530502736568451,-0.5623840093612671,-1.4898152351379395
1761915191479398000,4.62539794921875,0.4446195363998413,-0.5822530388832092,-1.0879356861114502
1761915191489452000,4.6354521484375,0.7516031861305237,-0.34237945079803467,-0.6009702682495117
1761915191499506000,4.645505859375,1.0016982555389404,0.08476602286100388,-0.0582561157643795
1761915191509560000,4.65556005859375,1.1278940439224243,0.5500277280807495,0.47604110836982727
1761915191519614200,4.6656142578125,1.0744807720184326,0.9046417474746704,0.9095190167427063
1761915191529669000,4.675669189453125,0.863584578037262,1.0518391132354736,1.1241817474365234
1761915191539723300,4.68572314453125,0.5387244820594788,0.9343833923339844,1.0979483127593994
1761915191549777200,4.695777099609375,0.18141692876815796,0.6312384009361267,0.8833385705947876
1761915191559831000,4.7058310546875,-0.10057800263166428,0.22131480276584625,0.6208624839782715
1761915191569885000,4.715885009765625,-0.2758667469024658,-0.16097582876682281,0.42965391278266907
1761915191579940000,4.725940185546875,-0.34603142738342285,-0.4196334779262543,0.3489508032798767
1761915191589994200,4.735994140625,-0.346690833568573,-0.5226767659187317,0.33112332224845886
1761915191600048000,4.746048095703125,-0.3425682783126831,-0.465380996465683,0.3170945942401886
1761915191610102300,4.756102294921875,-0.36063888669013977,-0.34586766362190247,0.2848123013973236
1761915191620154600,4.766154541015625,-0.4224015772342682,-0.24427738785743713,0.2546567916870117
1761915191630208500,4.77620849609375,-0.5146902203559875,-0.20694519579410553,0.2560991644859314
1761915191640263700,4.786263671875,-0.5813310146331787,-0.2579399347305298,0.3015827536582947
1761915191650317600,4.796317626953125,-0.6096034049987793,-0.3643491864204407,0.38567179441452026
1761915191660371500,4.806371337890625,-0.598111093044281,-0.4463644325733185,0.4271273612976074
1761915191670425600,4.816425537109375,-0.5494580864906311,-0.4860268831253052,0.4223448634147644
1761915191680479500,4.8264794921875,-0.4093118906021118,-0.5600185394287109,0.3758404552936554
1761915191690534700,4.83653466796875,-0.14904753863811493,-0.651380181312561,0.33809176087379456
1761915191700588500,4.846588623046875,0.23003506660461426,-0.6381050944328308,0.37830257415771484
1761915191710642700,4.856642578125,0.6201080083847046,-0.6418092846870422,0.43691927194595337
1761915191720696600,4.866696533203125,0.8158212900161743,-0.9190704822540283,0.422752320766449
1761915191730750500,4.87675048828125,0.7140341997146606,-1.458393931388855,0.32296767830848694
1761915191740805600,4.8868056640625,0.3826933205127716,-2.061328172683716,0.15393364429473877
1761915191750859500,4.896859619140625,-0.03267033025622368,-2.5356292724609375,0.016031431034207344
1761915191760913700,4.90691357421875,-0.38454902172088623,-2.733001947402954,-0.0004918858758173883
1761915191770967600,4.916967529296875,-0.5921032428741455,-2.4976744651794434,0.12179114669561386
1761915191781021700,4.927021728515625,-0.6595691442489624,-1.8667683601379395,0.3522704243659973
1761915191791075600,4.93707568359375,-0.6683897972106934,-0.994196355342865,0.604155421257019
1761915191801130500,4.947130615234375,-0.6152626276016235,-0.13425926864147186,0.7212780117988586
1761915191811184600,4.9571845703125,-0.44168633222579956,0.4235539436340332,0.5727314352989197
1761915191821238500,4.967238525390625,-0.2174881100654602,0.45192858576774597,0.19570638239383698
1761915191831292700,4.977292724609375,-0.053574010729789734,-0.00567066902294755,-0.25570952892303467
1761915191841346600,4.9873466796875,0.004655738361179829,-0.5604881048202515,-0.5977867245674133
1761915191851401500,4.9974013671875,-0.017287110909819603,-0.8808221220970154,-0.7473692893981934
1761915191861455400,5.007455322265625,-0.04983200505375862,-0.9924203157424927,-0.7770358324050903
1761915191871509500,5.017509521484375,-0.06542880833148956,-0.9159529805183411,-0.7580205798149109
1761915191881563600,5.027563720703125,-0.09072830528020859,-0.6635942459106445,-0.6753230690956116
1761915191891617500,5.037617431640625,-0.17857027053833008,-0.214607372879982,-0.4819394648075104
1761915191901672700,5.047672607421875,-0.3284742832183838,0.2506316900253296,-0.2176327258348465
1761915191911726600,5.0577265625,-0.5065260529518127,0.5840104222297668,0.04079536721110344
1761915191921780500,5.067780517578125,-0.620306134223938,0.6757957339286804,0.20247188210487366
1761915191931834400,5.07783447265625,-0.6354401111602783,0.5256392955780029,0.21726387739181519
1761915191941888500,5.087888427734375,-0.5153152942657471,0.23761335015296936,0.10061182826757431
1761915191951942400,5.0979423828125,-0.3097621202468872,-0.057312823832035065,-0.06862300634384155
1761915191961997600,5.10799755859375,-0.13556288182735443,-0.24431227147579193,-0.2203741818666458
1761915191972051700,5.1180517578125,-0.0659547820687294,-0.27428242564201355,-0.2843150794506073
1761915191982105600,5.128105712890625,-0.0970756858587265,-0.19722677767276764,-0.24534077942371368
1761915191992159500,5.138159423828125,-0.1587425023317337,-0.09103137254714966,-0.1412186473608017
1761915192002213400,5.14821337890625,-0.21266619861125946,0.04181242734193802,-0.0029766152147203684
1761915192012268500,5.1582685546875,-0.21263477206230164,0.20088836550712585,0.13629259169101715
1761915192022322700,5.16832275390625,-0.15108326077461243,0.271672785282135,0.22966915369033813
1761915192032376600,5.17837646484375,-0.05946865305304527,0.2081681191921234,0.29341137409210205
1761915192042430700,5.1884306640625,0.053936202079057693,0.03682326152920723,0.34767967462539673
1761915192052484600,5.198484619140625,0.18847696483135223,-0.18545694649219513,0.4006350338459015
1761915192062539500,5.20853955078125,0.3230944275856018,-0.35310932993888855,0.4549432694911957
1761915192072593400,5.218593505859375,0.4003191888332367,-0.40700531005859375,0.49758127331733704
1761915192082647600,5.2286474609375,0.3689577877521515,-0.32956165075302124,0.5019262433052063
1761915192092701700,5.23870166015625,0.22846326231956482,-0.14017201960086823,0.4662230908870697
1761915192102755600,5.248755615234375,0.0022916500456631184,0.048106543719768524,0.39801421761512756
1761915192112810500,5.258810546875,-0.24021872878074646,0.1387331187725067,0.3186855614185333
1761915192122864400,5.268864501953125,-0.46605184674263,0.13949771225452423,0.23715928196907043
1761915192132918500,5.27891845703125,-0.6464242935180664,0.12279116362333298,0.16564036905765533
1761915192142972400,5.288972412109375,-0.7432703971862793,0.020792096853256226,0.09456778317689896
1761915192153026600,5.299026611328125,-0.7360833287239075,-0.21123048663139343,0.036863476037979126
1761915192163081700,5.309081787109375,-0.6101722717285156,-0.589590847492218,0.03332413360476494
1761915192173135600,5.319135498046875,-0.37375786900520325,-0.93426913022995,0.09629058092832565
1761915192183189500,5.329189453125,-0.09249158203601837,-1.1044142246246338,0.2036292850971222
1761915192193243400,5.339243408203125,0.11852637678384781,-1.1408013105392456,0.27156758308410645
1761915192203297500,5.349297607421875,0.13168106973171234,-1.1776881217956543,0.17394143342971802
1761915192213351400,5.359351318359375,-0.021745508536696434,-1.259049892425537,-0.14469513297080994
1761915192223406600,5.369406494140625,-0.23849965631961823,-1.4696906805038452,-0.6128189563751221
1761915192233460700,5.379460693359375,-0.4366316497325897,-1.7885773181915283,-1.0017613172531128
1761915192243514600,5.3895146484375,-0.4987773001194,-1.8005610704421997,-1.1118519306182861
1761915192253568800,5.39956884765625,-0.4267374873161316,-1.2710494995117188,-0.8773669600486755
1761915192263622400,5.409622314453125,-0.37955665588378906,-0.3695144057273865,-0.40665537118911743
1761915192273677600,5.419677490234375,-0.5000180602073669,0.5741083025932312,0.10343717783689499
1761915192283731500,5.4297314453125,-0.6496336460113525,1.1855477094650269,0.4303942620754242
1761915192293785600,5.43978564453125,-0.6347580552101135,1.3205686807632446,0.4765303432941437
1761915192303839500,5.449839599609375,-0.40307527780532837,0.9898961782455444,0.3474908471107483
1761915192313893600,5.4598935546875,-0.05125280097126961,0.48332324624061584,0.201569065451622
1761915192323948500,5.469948486328125,0.2804439067840576,0.04670119285583496,0.17326925694942474
1761915192334002400,5.48000244140625,0.5198162794113159,-0.3003545105457306,0.24214471876621246
1761915192344056600,5.490056640625,0.6114037036895752,-0.6004661321640015,0.3316785991191864
1761915192354110500,5.5001103515625,0.5335848331451416,-0.8723999261856079,0.4133060872554779
1761915192364164600,5.51016455078125,0.3365516662597656,-1.0770587921142578,0.4650534391403198
1761915192374219800,5.5202197265625,0.10018865019083023,-1.1991066932678223,0.5035393238067627
1761915192384273400,5.5302734375,-0.09567779302597046,-1.12758207321167,0.5740406513214111
1761915192394327600,5.54032763671875,-0.23387721180915833,-0.7971080541610718,0.6732410192489624
1761915192404381400,5.55038134765625,-0.2985163927078247,-0.26734861731529236,0.7214381098747253
1761915192414435600,5.560435546875,-0.29220762848854065,0.37511396408081055,0.6796181797981262
1761915192424490500,5.570490478515625,-0.23074692487716675,0.9425390362739563,0.541247546672821
1761915192434544600,5.580544677734375,-0.15669719874858856,1.1903141736984253,0.2890951931476593
1761915192444598800,5.590598876953125,-0.10497115552425385,1.1137781143188477,-0.029450301080942154
1761915192454652700,5.600652587890625,-0.15078258514404297,0.8531122207641602,-0.3172229528427124
1761915192464706600,5.61070654296875,-0.31706076860427856,0.612308144569397,-0.47140800952911377
1761915192474761500,5.620761474609375,-0.5329422354698181,0.44227755069732666,-0.46362197399139404
1761915192484815600,5.630815673828125,-0.7412237524986267,0.35062140226364136,-0.2855425179004669
1761915192494869500,5.640869384765625,-0.9168727993965149,0.3313957750797272,0.01950046420097351
1761915192504923600,5.650923583984375,-1.0597964525222778,0.29699039459228516,0.36836549639701843
1761915192514977500,5.6609775390625,-1.1400099992752075,0.24659407138824463,0.6436607241630554
1761915192525032400,5.671032470703125,-1.1350301504135132,0.23745515942573547,0.82271409034729
1761915192535086600,5.681086669921875,-1.015465497970581,0.3028368353843689,0.9171252846717834
1761915192545140500,5.691140380859375,-0.7990005016326904,0.4475002884864807,0.9379900693893433
1761915192555194600,5.701194580078125,-0.557468831539154,0.5566312670707703,0.8743551969528198
1761915192565248500,5.71124853515625,-0.37981656193733215,0.498999685049057,0.7195613384246826
1761915192575303700,5.7213037109375,-0.3241865932941437,0.3187790513038635,0.5291019082069397
1761915192585357600,5.731357666015625,-0.38020139932632446,0.10145018994808197,0.3959087133407593
1761915192595411500,5.741411376953125,-0.4925764203071594,-0.1025114580988884,0.3528558015823364
1761915192605465600,5.751465576171875,-0.6669399738311768,-0.3134916126728058,0.3954290747642517
1761915192615519500,5.76151953125,-0.861275851726532,-0.45727354288101196,0.4924493730068207
1761915192625579000,5.7715791015625,-1.0258510112762451,-0.5865577459335327,0.5956900119781494
1761915192635632600,5.781632568359375,-1.1263527870178223,-0.7344250082969666,0.6685647368431091
1761915192645686800,5.791686767578125,-1.1798235177993774,-0.8716781735420227,0.6944400072097778
1761915192655740700,5.80174072265625,-1.162521481513977,-0.9686625003814697,0.6909669637680054
1761915192665794800,5.811794921875,-1.0518338680267334,-1.04476797580719,0.6707253456115723
1761915192675850000,5.82185009765625,-0.8866108059883118,-1.0487339496612549,0.6480379104614258
1761915192685904000,5.83190380859375,-0.6721509695053101,-1.044087529182434,0.6063253283500671
1761915192695958000,5.8419580078125,-0.4302768111228943,-1.0791882276535034,0.5145543813705444
1761915192706011600,5.85201171875,-0.2715210020542145,-1.1667271852493286,0.356216162443161
1761915192716065800,5.862065673828125,-0.3023627996444702,-1.430980920791626,0.1400681585073471
1761915192726121000,5.872120849609375,-0.5497012138366699,-1.8631216287612915,-0.048170458525419235
1761915192736174800,5.8821748046875,-0.8913443088531494,-2.1848506927490234,-0.1706620156764984
1761915192746229000,5.89222900390625,-1.177931547164917,-2.2926876544952393,-0.25103703141212463
1761915192756283000,5.902282958984375,-1.3655287027359009,-2.065948009490967,-0.2701883316040039
1761915192766337000,5.9123369140625,-1.406083583831787,-1.5631088018417358,-0.27570241689682007
1761915192776391700,5.9223916015625,-1.230051040649414,-1.0849446058273315,-0.3759706914424896
1761915192786445800,5.93244580078125,-0.8631827235221863,-0.7570482492446899,-0.6243000626564026
1761915192796500000,5.9425,-0.49024295806884766,-0.6627572178840637,-0.9820451736450195
1761915192806553900,5.952553955078125,-0.2728022336959839,-0.7588203549385071,-1.2991368770599365
1761915192816608000,5.96260791015625,-0.25404638051986694,-0.9907302856445312,-1.4315292835235596
1761915192826662700,5.97266259765625,-0.3864142894744873,-1.3809571266174316,-1.3627471923828125
1761915192836716800,5.982716796875,-0.5792692303657532,-1.974170446395874,-1.1840976476669312
1761915192846770700,5.992770751953125,-0.7503413558006287,-2.567847490310669,-0.9255784153938293
1761915192856824800,6.002824951171875,-0.9214851260185242,-2.775890588760376,-0.5379404425621033
1761915192866878700,6.012878662109375,-1.1130950450897217,-2.3539645671844482,-0.055902149528265
1761915192876934000,6.022933837890625,-1.2625327110290527,-1.4066859483718872,0.3796144425868988
1761915192886988000,6.032988037109375,-1.2685437202453613,-0.23684503138065338,0.6586524844169617
1761915192897042000,6.0430419921875,-1.1612790822982788,0.8368746638298035,0.7618339657783508
1761915192907095800,6.053095703125,-1.0061246156692505,1.3388288021087646,0.6636839509010315
1761915192917149700,6.063149658203125,-0.9237791895866394,1.0091888904571533,0.3567139208316803
1761915192927204900,6.073204833984375,-0.9730812311172485,0.1042473092675209,0.0013696637470275164
1761915192937259000,6.083259033203125,-1.195864200592041,-1.097739338874817,-0.23757128417491913
1761915192947313000,6.09331298828125,-1.522142767906189,-2.2869253158569336,-0.2155197709798813
1761915192957367000,6.103366943359375,-1.8646268844604492,-3.130706787109375,0.02786571905016899
1761915192967421000,6.1134208984375,-2.135676383972168,-3.5380513668060303,0.38002216815948486
1761915192977475800,6.123475830078125,-2.276477575302124,-3.54345703125,0.733652651309967
1761915192987529700,6.13352978515625,-2.2686948776245117,-3.2693285942077637,1.0182029008865356
1761915192997584000,6.143583984375,-2.1564841270446777,-2.8494038581848145,1.17873215675354
1761915193007637800,6.1536376953125,-1.9817487001419067,-2.4541878700256348,1.162005066871643
1761915193017692000,6.16369189453125,-1.8123165369033813,-2.1089859008789062,1.0040771961212158
1761915193027746800,6.173746826171875,-1.7050920724868774,-1.7786866426467896,0.7421574592590332
1761915193037800700,6.18380078125,-1.6529886722564697,-1.4366291761398315,0.42791005969047546
1761915193047854800,6.193854736328125,-1.6211774349212646,-1.0756281614303589,0.14610794186592102
1761915193057908700,6.20390869140625,-1.5880341529846191,-0.7723044753074646,-0.06337923556566238
1761915193067963000,6.213962890625,-1.5495682954788208,-0.5652080178260803,-0.18183664977550507
1761915193078018000,6.22401806640625,-1.5137463808059692,-0.39393478631973267,-0.21008506417274475
1761915193088072000,6.234072021484375,-1.4872561693191528,-0.19451622664928436,-0.18010824918746948
1761915193098125800,6.244125732421875,-1.451443076133728,0.014118216000497341,-0.1281859278678894
1761915193108179700,6.2541796875,-1.3958697319030762,0.1615031361579895,-0.08254893869161606
1761915193118233900,6.26423388671875,-1.3178682327270508,0.22503630816936493,-0.008701878599822521
1761915193128288800,6.274288818359375,-1.26137375831604,0.20565062761306763,0.12947463989257812
1761915193138343000,6.284343017578125,-1.159334421157837,0.0992506891489029,0.28047746419906616
1761915193148397000,6.29439697265625,-0.8763291239738464,-0.0406973622739315,0.3625481128692627
1761915193158451000,6.304450927734375,-0.4572218656539917,-0.053642988204956055,0.42175284028053284
1761915193168504800,6.3145048828125,-0.06493399292230606,0.0833715870976448,0.4514864981174469
1761915193178559700,6.324559814453125,0.1589193493127823,0.2144249528646469,0.36805686354637146
1761915193188614000,6.33461376953125,0.08332684636116028,0.07307420670986176,0.1672489047050476
1761915193198667800,6.344667724609375,-0.4054050147533417,-0.4445990324020386,-0.09848529100418091
1761915193208722000,6.354721923828125,-1.143782138824463,-1.2327908277511597,-0.3521721661090851
1761915193218776800,6.36477685546875,-1.7215548753738403,-1.9285427331924438,-0.42459550499916077
1761915193228830700,6.374830810546875,-1.913439154624939,-1.9027657508850098,-0.17100876569747925
1761915193238884900,6.384884765625,-1.7070542573928833,-1.0008820295333862,0.29455652832984924
1761915193248938800,6.394938720703125,-1.2574131488800049,-0.05041257292032242,0.5949552655220032
1761915193258993000,6.404992919921875,-0.7460973858833313,0.4432658553123474,0.4976457357406616
1761915193269047800,6.4150478515625,-0.36423441767692566,0.25237739086151123,0.03165087103843689
1761915193279102000,6.42510205078125,-0.21967510879039764,-0.44592633843421936,-0.6057533025741577
1761915193289155800,6.43515576171875,-0.27776265144348145,-1.2451074123382568,-1.1444127559661865
1761915193299209700,6.445209716796875,-0.4962478280067444,-1.9784690141677856,-1.448975920677185
1761915193309264000,6.455263916015625,-0.7547292113304138,-2.6219065189361572,-1.5254011154174805
1761915193319318800,6.46531884765625,-0.933971107006073,-3.075300931930542,-1.426145076751709
1761915193329373000,6.475373046875,-1.0384458303451538,-3.0339534282684326,-1.145100712776184
1761915193339426800,6.4854267578125,-1.137864351272583,-2.437220335006714,-0.7149508595466614
1761915193349481000,6.49548095703125,-1.3027129173278809,-1.5603306293487549,-0.32509100437164307
1761915193359534800,6.505534912109375,-1.5558892488479614,-0.842356264591217,-0.21218043565750122
1761915193369589800,6.51558984375,-1.840269923210144,-0.4849991798400879,-0.4046960771083832
1761915193379644000,6.525643798828125,-2.0853211879730225,-0.4738895297050476,-0.7460265159606934
1761915193389697800,6.53569775390625,-2.208061695098877,-0.6724979877471924,-1.0433207750320435
1761915193399752000,6.545751953125,-2.1954054832458496,-0.8520573377609253,-1.1257107257843018
1761915193409805800,6.555805908203125,-2.105501890182495,-0.8694464564323425,-0.9225216507911682
1761915193419860700,6.56586083984375,-1.9674584865570068,-0.7090258598327637,-0.47848376631736755
1761915193429915000,6.575914794921875,-1.8150877952575684,-0.4928632378578186,0.08862227946519852
1761915193439968800,6.58596875,-1.7079869508743286,-0.2887532413005829,0.6336683034896851
1761915193450023000,6.59602294921875,-1.6618212461471558,-0.1643649786710739,1.0310676097869873
1761915193460076800,6.606076904296875,-1.6568611860275269,-0.12045104801654816,1.2370028495788574
1761915193470132000,6.616132080078125,-1.6900888681411743,-0.16409572958946228,1.271531105041504
1761915193480185900,6.626185791015625,-1.7195738554000854,-0.2289402335882187,1.1832451820373535
1761915193490239700,6.63623974609375,-1.6683635711669922,-0.277614027261734,1.0473229885101318
1761915193500294000,6.6462939453125,-1.5267229080200195,-0.2909788489341736,0.9146972894668579
1761915193510348800,6.656348876953125,-1.3039542436599731,-0.2858450710773468,0.7986351251602173
1761915193520403000,6.66640283203125,-1.0464569330215454,-0.2815472483634949,0.7159541249275208
1761915193530456800,6.676456787109375,-0.8467118740081787,-0.30166077613830566,0.6447997689247131
1761915193540511000,6.686510986328125,-0.7496523857116699,-0.38230210542678833,0.5490341186523438
1761915193550564900,6.69656494140625,-0.7549291849136353,-0.5268057584762573,0.46960264444351196
1761915193560619800,6.706619873046875,-0.7845648527145386,-0.6563666462898254,0.4730357229709625
1761915193570674000,6.716673828125,-0.7975184917449951,-0.7364764213562012,0.6203202605247498
1761915193580727800,6.726727783203125,-0.747759997844696,-0.7008625268936157,0.9564053416252136
1761915193590782000,6.736781982421875,-0.6634325981140137,-0.5611283183097839,1.461976408958435
1761915193600836900,6.7468369140625,-0.5955933332443237,-0.5140313506126404,1.9622703790664673
1761915193610890800,6.756890869140625,-0.5072706937789917,-0.7702023983001709,2.250030755996704
1761915193620944400,6.7669443359375,-0.4193221628665924,-1.338698148727417,2.2363839149475098
1761915193630998000,6.776998046875,-0.3726089894771576,-1.9869434833526611,2.010133743286133
1761915193641052200,6.78705224609375,-0.42290571331977844,-2.5537631511688232,1.77363920211792
1761915193651107000,6.797107177734375,-0.6397160291671753,-2.9788668155670166,1.6616971492767334
1761915193661161200,6.8071611328125,-0.9772477746009827,-3.1583611965179443,1.6994147300720215
1761915193671215400,6.81721533203125,-1.27407968044281,-2.8242383003234863,1.8459749221801758
1761915193681269200,6.827269287109375,-1.3183577060699463,-1.9438940286636353,2.04874324798584
1761915193691323400,6.837323486328125,-1.170067310333252,-1.0496302843093872,2.1341469287872314
1761915193701378000,6.8473779296875,-0.9645357131958008,-0.4397278428077698,1.9677543640136719
1761915193711432200,6.85743212890625,-0.7682726979255676,-0.12524659931659698,1.6198005676269531
1761915193721486000,6.867486083984375,-0.6328067779541016,-0.19894053041934967,1.1112172603607178
1761915193731540200,6.877540283203125,-0.5719503164291382,-0.768085241317749,0.4762895703315735
1761915193741594000,6.887593994140625,-0.5479602813720703,-1.5702385902404785,-0.14003460109233856
1761915193751649000,6.89764892578125,-0.554785966873169,-2.3466227054595947,-0.6588082313537598
1761915193761703200,6.907703125,-0.6261613368988037,-2.8301947116851807,-1.0693089962005615
1761915193771757000,6.917757080078125,-0.8210600018501282,-2.988072156906128,-1.3833361864089966
1761915193781811200,6.927811279296875,-1.1735121011734009,-2.8436055183410645,-1.6306607723236084
1761915193791866400,6.937866455078125,-1.597813606262207,-2.37198805809021,-1.7724926471710205
1761915193801920300,6.947920166015625,-1.927029013633728,-1.695927619934082,-1.7477340698242188
1761915193811974400,6.957974365234375,-2.111828088760376,-1.1187947988510132,-1.5266927480697632
1761915193822028300,6.9680283203125,-2.1558847427368164,-0.8541857600212097,-1.146990418434143
1761915193832082200,6.978082275390625,-2.029062271118164,-0.9703363180160522,-0.7028364539146423
1761915193842137000,6.98813720703125,-1.7737760543823242,-1.4202667474746704,-0.30821776390075684
1761915193852191200,6.998191162109375,-1.497268795967102,-1.9256870746612549,-0.011358648538589478
1761915193862245000,7.0082451171875,-1.296574592590332,-2.2727761268615723,0.19671545922756195
1761915193872299300,7.01829931640625,-1.211031198501587,-2.322965145111084,0.35183554887771606
1761915193882353200,7.028353271484375,-1.2158323526382446,-2.118976593017578,0.4476582109928131
1761915193892408000,7.038407958984375,-1.2823435068130493,-1.7411742210388184,0.46812379360198975
1761915193902462200,7.048462158203125,-1.3809446096420288,-1.281174898147583,0.4357195198535919
1761915193912516000,7.05851611328125,-1.4732633829116821,-0.8633930683135986,0.3936580717563629
1761915193922570200,7.0685703125,-1.513228416442871,-0.5347307920455933,0.3851490318775177
1761915193932625400,7.07862548828125,-1.4675236940383911,-0.3048349916934967,0.40017804503440857
1761915193942679000,7.088678955078125,-1.3393495082855225,-0.21247950196266174,0.3913067877292633
1761915193952733200,7.098733154296875,-1.1639630794525146,-0.24468430876731873,0.3383854925632477
1761915193962787000,7.108787109375,-1.0306001901626587,-0.4032720923423767,0.2771146893501282
1761915193972841200,7.11884130859375,-0.9907358884811401,-0.6458873748779297,0.2861095070838928
1761915193982896000,7.128896240234375,-1.0602153539657593,-0.9103113412857056,0.3731224536895752
1761915193992950300,7.1389501953125,-1.1922175884246826,-1.1736154556274414,0.4877731204032898
1761915194003004200,7.149004150390625,-1.36270010471344,-1.3689290285110474,0.5754976272583008
1761915194013058300,7.159058349609375,-1.5054346323013306,-1.492999792098999,0.6061437129974365
1761915194023112200,7.1691123046875,-1.5872876644134521,-1.4832148551940918,0.5894384980201721
1761915194033167000,7.1791669921875,-1.5586410760879517,-1.2636595964431763,0.5991995334625244
1761915194043221200,7.18922119140625,-1.4467939138412476,-0.8209409713745117,0.6436817646026611
1761915194053275100,7.199275146484375,-1.2903907299041748,-0.29047897458076477,0.6581792235374451
1761915194063329300,7.209329345703125,-1.114123821258545,-0.026337863877415657,0.5396429896354675
1761915194073384200,7.21938427734375,-0.989102840423584,-0.15987569093704224,0.28229719400405884
1761915194083438000,7.22943798828125,-0.9791801571846008,-0.8287631869316101,0.021100224927067757
1761915194093492200,7.2394921875,-1.1566598415374756,-1.8870741128921509,-0.08106821775436401
1761915194103546000,7.249546142578125,-1.4857841730117798,-2.8487167358398438,-0.0029148298781365156
1761915194113600300,7.259600341796875,-1.7494333982467651,-3.200246810913086,0.18189150094985962
1761915194123655200,7.2696552734375,-1.8198999166488647,-2.6628286838531494,0.4520342946052551
1761915194133709300,7.279709228515625,-1.7250252962112427,-1.5520844459533691,0.8235005140304565
1761915194143763200,7.28976318359375,-1.575424313545227,-0.41253218054771423,1.252422571182251
1761915194153817000,7.299817138671875,-1.479465365409851,0.1418820321559906,1.5211443901062012
1761915194163871200,7.309871337890625,-1.4109257459640503,0.13203765451908112,1.492620587348938
1761915194173926100,7.319926025390625,-1.3519313335418701,-0.11667042225599289,1.212233066558838
1761915194183980300,7.329980224609375,-1.3614931106567383,-0.5715023875236511,0.7378852367401123
1761915194194034200,7.3400341796875,-1.4503306150436401,-1.206540822982788,0.16881698369979858
1761915194204088300,7.35008837890625,-1.5765827894210815,-1.8631669282913208,-0.3174794316291809
1761915194214143200,7.360143310546875,-1.632956624031067,-2.248000383377075,-0.6350371241569519
1761915194224197000,7.370197021484375,-1.5550287961959839,-2.3927102088928223,-0.8212123513221741
1761915194234251300,7.380251220703125,-1.3593778610229492,-2.3769659996032715,-0.9065189957618713
1761915194244305200,7.39030517578125,-1.1505929231643677,-2.162876605987549,-0.8336178660392761
1761915194254359300,7.400359375,-1.050829291343689,-1.7300746440887451,-0.565908670425415
1761915194264414000,7.4104140625,-1.0677374601364136,-1.2074202299118042,-0.18343880772590637
1761915194274468000,7.420468017578125,-1.1788914203643799,-0.7966604232788086,0.15471553802490234
1761915194284522200,7.430522216796875,-1.353287696838379,-0.6729893088340759,0.3123035728931427
1761915194294576000,7.440576171875,-1.556957483291626,-0.8204799890518188,0.2425103783607483
1761915194304630300,7.45063037109375,-1.7415680885314941,-1.1979542970657349,-0.006159092765301466
1761915194314685200,7.460685302734375,-1.8633499145507812,-1.6734734773635864,-0.30439266562461853
1761915194324739300,7.4707392578125,-1.884745478630066,-2.0159125328063965,-0.5022996068000793
1761915194334793200,7.480793212890625,-1.8177133798599243,-2.103994131088257,-0.5471621751785278
1761915194344847000,7.49084716796875,-1.6836906671524048,-1.9906785488128662,-0.4833189845085144
1761915194354902300,7.50090234375,-1.5293993949890137,-1.6832046508789062,-0.3592814803123474
1761915194364956200,7.5109560546875,-1.3885575532913208,-1.2002816200256348,-0.21283690631389618
1761915194375010300,7.52101025390625,-1.241503357887268,-0.613204836845398,-0.07214636355638504
1761915194385064200,7.531064208984375,-1.0983060598373413,-0.11339712888002396,0.036623526364564896
1761915194395118300,7.541118408203125,-1.0065382719039917,0.20630976557731628,0.11123251169919968
1761915194405173200,7.55117333984375,-0.9787883758544922,0.285383015871048,0.15355201065540314
1761915194415227100,7.56122705078125,-0.9825117588043213,0.08732877671718597,0.18134289979934692
1761915194425281300,7.57128125,-1.0014820098876953,-0.3411767780780792,0.23490118980407715
1761915194435335200,7.581335205078125,-1.0189456939697266,-0.862317681312561,0.35565105080604553
1761915194445390300,7.591390380859375,-1.0331085920333862,-1.3320341110229492,0.520851731300354
1761915194455444200,7.6014443359375,-1.0596717596054077,-1.6218035221099854,0.6847625970840454
1761915194465498000,7.611498046875,-1.1021984815597534,-1.7401965856552124,0.7772067785263062
1761915194475552000,7.621552001953125,-1.1667340993881226,-1.8241089582443237,0.7896488308906555
1761915194485606100,7.631606201171875,-1.2095552682876587,-1.8956338167190552,0.7619168162345886
1761915194495661300,7.641661376953125,-1.2192378044128418,-1.9797399044036865,0.7044194340705872
1761915194505715200,7.651715087890625,-1.1705429553985596,-2.00422739982605,0.6146708726882935
1761915194515769300,7.661769287109375,-1.066575288772583,-1.8609263896942139,0.5081899762153625
1761915194525823200,7.6718232421875,-0.9534990191459656,-1.5938720703125,0.3984698951244354
1761915194535877000,7.681877197265625,-0.8885836601257324,-1.4560364484786987,0.28577956557273865
1761915194545932300,7.691932373046875,-0.9032017588615417,-1.6545082330703735,0.18272534012794495
1761915194555986200,7.701986083984375,-0.9242963790893555,-2.0376479625701904,0.1563483327627182
1761915194566040300,7.712040283203125,-0.9612533450126648,-2.405179262161255,0.24599619209766388
1761915194576094200,7.72209423828125,-1.0957496166229248,-2.5615429878234863,0.42935243248939514
1761915194586149000,7.732149169921875,-1.2206239700317383,-2.288383960723877,0.6612074971199036
1761915194596203000,7.742203125,-1.16154944896698,-1.5971781015396118,0.8952213525772095
1761915194606257200,7.752257080078125,-0.9324507117271423,-0.8332317471504211,1.0993163585662842
1761915194616311000,7.76231103515625,-0.6664118766784668,-0.3401501178741455,1.191742181777954
1761915194626362400,7.7723623046875,-0.42634838819503784,-0.07603644579648972,1.0994631052017212
1761915194636417300,7.782417236328125,-0.2226192206144333,-0.013916348107159138,0.7983845472335815
1761915194646471200,7.79247119140625,-0.13277216255664825,-0.18211254477500916,0.3050968050956726
1761915194656525300,7.802525390625,-0.1932149976491928,-0.5646636486053467,-0.28541868925094604
1761915194666579200,7.8125791015625,-0.3767174482345581,-1.1194381713867188,-0.8271671533584595
1761915194676633300,7.82263330078125,-0.5814058780670166,-1.602253794670105,-1.2059664726257324
1761915194686688500,7.8326884765625,-0.6826139688491821,-1.9253655672073364,-1.4277297258377075
1761915194696742400,7.842742431640625,-0.6536316275596619,-2.028217315673828,-1.5294685363769531
1761915194706796300,7.85279638671875,-0.552307665348053,-1.8885053396224976,-1.5172760486602783
1761915194716850200,7.86285009765625,-0.47833994030952454,-1.558963656425476,-1.4103336334228516
1761915194726905300,7.8729052734375,-0.47280216217041016,-1.2015535831451416,-1.2520079612731934
1761915194736959500,7.88295947265625,-0.5118105411529541,-0.9421973824501038,-1.112230658531189
1761915194747013400,7.893013427734375,-0.5940036773681641,-0.7350529432296753,-1.0295923948287964
1761915194757067500,7.903067626953125,-0.7104799747467041,-0.5799797773361206,-1.0147157907485962
1761915194767121400,7.913121337890625,-0.8358155488967896,-0.524217426776886,-1.0175789594650269
1761915194777176300,7.92317626953125,-0.9394915699958801,-0.49787288904190063,-0.9679751396179199
1761915194787230200,7.933230224609375,-0.9970917701721191,-0.431674987077713,-0.8371553421020508
1761915194797284400,7.943284423828125,-0.9969484806060791,-0.30335187911987305,-0.6666411757469177
1761915194807338200,7.953338134765625,-0.9473849534988403,-0.11431992053985596,-0.47062423825263977
1761915194817393400,7.963393310546875,-0.8700371384620667,0.14244769513607025,-0.27488455176353455
1761915194827447300,7.973447265625,-0.7869430780410767,0.4380255341529846,-0.10661033540964127
1761915194837501200,7.983501220703125,-0.7178835868835449,0.7120419144630432,0.03314410522580147
1761915194847555300,7.993555419921875,-0.6710212230682373,0.8624418377876282,0.14907602965831757
1761915194857609200,8.003609130859376,-0.6349830627441406,0.8608487248420715,0.24353116750717163
1761915194867664400,8.013664306640624,-0.5853481292724609,0.7457021474838257,0.31797558069229126
1761915194877718500,8.023718505859375,-0.5359132289886475,0.5816410183906555,0.371646523475647
1761915194887772400,8.0337724609375,-0.48905545473098755,0.3816855847835541,0.39789092540740967
1761915194897826600,8.04382666015625,-0.43755069375038147,0.14848826825618744,0.40416690707206726
1761915194907881200,8.053881103515625,-0.38799354434013367,-0.07189309597015381,0.414124995470047
1761915194917935400,8.063935302734375,-0.3449864089488983,-0.25449487566947937,0.4324648678302765
1761915194927989200,8.0739892578125,-0.3103059232234955,-0.3002072274684906,0.45633718371391296
1761915194938043400,8.08404345703125,-0.27883777022361755,-0.1883576661348343,0.45796144008636475
1761915194948097500,8.09409765625,-0.28269320726394653,0.007387076038867235,0.43205341696739197
1761915194958152200,8.104152099609376,-0.35108157992362976,0.23090006411075592,0.36570262908935547
1761915194968206300,8.114206298828124,-0.44093024730682373,0.34974148869514465,0.28559285402297974
1761915194978260200,8.12426025390625,-0.5119162797927856,0.23265694081783295,0.21709050238132477
1761915194988314400,8.134314453125,-0.5397236943244934,-0.23023347556591034,0.11406558752059937
1761915194998368300,8.1443681640625,-0.49939435720443726,-1.0262134075164795,-0.06703761965036392
1761915195008423400,8.15442333984375,-0.4100804626941681,-1.9567387104034424,-0.26928845047950745
1761915195018477300,8.164477294921875,-0.3166373372077942,-2.7419328689575195,-0.37775129079818726
1761915195028531200,8.17453125,-0.32632511854171753,-2.9955904483795166,-0.3244531750679016
1761915195038585300,8.18458544921875,-0.4260237514972687,-2.4424338340759277,-0.10900530964136124
1761915195048640300,8.19464013671875,-0.5097172856330872,-0.9578503370285034,0.25095072388648987
1761915195058694400,8.2046943359375,-0.543118953704834,0.5959704518318176,0.6238572001457214
1761915195068748300,8.214748291015624,-0.5222094058990479,1.7074010372161865,0.8536560535430908
1761915195078802400,8.224802490234374,-0.46754083037376404,2.2661378383636475,0.7987967729568481
1761915195088856600,8.234856689453125,-0.4196811616420746,2.0816168785095215,0.49164271354675293
1761915195098911200,8.2449111328125,-0.44215744733810425,1.2559072971343994,-0.015596270561218262
1761915195108965400,8.25496533203125,-0.45564261078834534,0.17389856278896332,-0.6183399558067322
1761915195119019300,8.265019287109375,-0.40815767645835876,-0.7489139437675476,-1.1449555158615112
1761915195129073400,8.275073486328125,-0.32037535309791565,-1.2738094329833984,-1.4332664012908936
1761915195139128300,8.28512841796875,-0.2018905133008957,-1.4361159801483154,-1.48008394241333
1761915195149182200,8.29518212890625,-0.07320737093687057,-1.2944650650024414,-1.3611624240875244
1761915195159236400,8.305236328125,0.016045812517404556,-0.9919002056121826,-1.1701303720474243
1761915195169290200,8.315290283203124,0.018140122294425964,-0.6711770296096802,-0.9795258045196533
1761915195179344400,8.325344482421874,-0.071625716984272,-0.3991630971431732,-0.8599720001220703
1761915195189399300,8.3353994140625,-0.1897779256105423,-0.25228896737098694,-0.8015398383140564
1761915195199453400,8.345453369140625,-0.29051917791366577,-0.26905250549316406,-0.8233974575996399
1761915195209507600,8.355507568359375,-0.3206760287284851,-0.418901652097702,-0.8865844011306763
1761915195219561200,8.365561279296875,-0.26044410467147827,-0.6959066390991211,-0.9378460049629211
1761915195229616400,8.375616455078125,-0.12803120911121368,-0.8855684399604797,-0.8933033347129822
1761915195239670300,8.385670166015625,0.05319264903664589,-0.8286034464836121,-0.7134941220283508
1761915195249724400,8.395724365234376,0.2688535749912262,-0.5576304793357849,-0.44669201970100403
1761915195259778300,8.4057783203125,0.4894397258758545,-0.12045077979564667,-0.15437652170658112
1761915195269832400,8.41583251953125,0.6707528233528137,0.32938510179519653,0.11525601893663406
1761915195279887400,8.425887451171874,0.764743983745575,0.6542148590087891,0.3219839036464691
1761915195289941200,8.435941162109375,0.7715816497802734,0.8272510766983032,0.45271289348602295
1761915195299995400,8.445995361328125,0.7419888973236084,0.9122564792633057,0.5183797478675842
1761915195310049300,8.45604931640625,0.7246370911598206,0.9606083035469055,0.503974974155426
1761915195320103400,8.466103515625,0.728566586971283,0.9094868302345276,0.4187948703765869
1761915195330158300,8.476158447265625,0.7298629879951477,0.7274123430252075,0.3074531555175781
1761915195340212200,8.486212158203125,0.6973135471343994,0.4682774543762207,0.22613966464996338
1761915195350266400,8.496266357421876,0.6316434741020203,0.14938735961914062,0.20354779064655304
1761915195360320300,8.5063203125,0.5392874479293823,-0.17083698511123657,0.23787301778793335
1761915195370375400,8.51637548828125,0.44793516397476196,-0.42402371764183044,0.3318522274494171
1761915195380429300,8.52642919921875,0.3724968731403351,-0.598038911819458,0.44273000955581665
1761915195390483500,8.5364833984375,0.32219481468200684,-0.7549926042556763,0.5322631001472473
1761915195400537300,8.546537353515625,0.2860565185546875,-0.823374330997467,0.6198323369026184
1761915195410591500,8.556591552734375,0.2528596818447113,-0.7011362910270691,0.7085102796554565
1761915195420646400,8.566646484375,0.21494905650615692,-0.4156435430049896,0.8055148720741272
1761915195430700300,8.5767001953125,0.2429860234260559,-0.03895272687077522,0.8916665315628052
1761915195440755500,8.58675537109375,0.2849920690059662,0.22293294966220856,0.8821715712547302
1761915195450809300,8.596809326171876,0.2271450012922287,0.1275092214345932,0.7179336547851562
1761915195460863200,8.60686328125,0.010545052587985992,-0.2817688286304474,0.49374979734420776
1761915195470918400,8.61691845703125,-0.2224692851305008,-0.4431454837322235,0.47336676716804504
1761915195480972300,8.62697216796875,-0.30381688475608826,0.05956399440765381,0.7982921004295349
1761915195491026400,8.6370263671875,-0.2404317855834961,0.8949342370033264,1.322877287864685
1761915195501080300,8.647080322265625,-0.12148355692625046,1.517351508140564,1.7341593503952026
1761915195511134500,8.657134521484375,-0.022107167169451714,1.8190783262252808,1.7760493755340576
1761915195521189400,8.667189453125,0.02828969433903694,1.7208683490753174,1.376970887184143
1761915195531243300,8.6772431640625,-0.05266640707850456,1.0492236614227295,0.5766132473945618
1761915195541297400,8.68729736328125,-0.25982171297073364,0.04103025794029236,-0.3930812478065491
1761915195551351300,8.697351318359376,-0.46422386169433594,-0.8758127689361572,-1.2450320720672607
1761915195561405400,8.707405517578126,-0.5514748692512512,-1.4972366094589233,-1.8395450115203857
1761915195571460400,8.71746044921875,-0.494928240776062,-1.6439847946166992,-2.1494393348693848
1761915195581514200,8.72751416015625,-0.36419951915740967,-1.2729891538619995,-2.1944332122802734
1761915195591568400,8.737568359375,-0.22688028216362,-0.584223210811615,-2.0484986305236816
1761915195601622300,8.747622314453125,-0.14581339061260223,0.1722966730594635,-1.7852548360824585
1761915195611677400,8.757677490234375,-0.1481282114982605,0.883909285068512,-1.449226975440979
1761915195621731600,8.767731689453125,-0.24657702445983887,1.444507122039795,-1.0816689729690552
1761915195631785500,8.777785400390625,-0.40693262219429016,1.8502492904663086,-0.7241182923316956
1761915195641839600,8.787839599609375,-0.614478588104248,2.111431360244751,-0.4279737174510956
1761915195651893500,8.7978935546875,-0.838921844959259,2.2369236946105957,-0.2364327758550644
1761915195661948400,8.807948486328126,-1.0576539039611816,2.1819756031036377,-0.17328469455242157
1761915195672002300,8.818002197265624,-1.2502113580703735,1.892760992050171,-0.23672279715538025
1761915195682056400,8.828056396484374,-1.383009672164917,1.3491294384002686,-0.36328205466270447
1761915195692110600,8.838110595703125,-1.403876543045044,0.7248357534408569,-0.4753819704055786
1761915195702164500,8.84816455078125,-1.3071132898330688,0.2521185278892517,-0.5004681348800659
1761915195712219400,8.858219482421875,-1.068224310874939,0.019338011741638184,-0.4203687906265259
1761915195722273300,8.868273193359375,-0.6794243454933167,0.03472628816962242,-0.27402275800704956
1761915195732327400,8.878327392578125,-0.21217191219329834,0.28951597213745117,-0.0880156084895134
1761915195742381300,8.88838134765625,0.222228541970253,0.6832571625709534,0.09654278308153152
1761915195752436500,8.8984365234375,0.5395971536636353,1.0604640245437622,0.2505784332752228
1761915195762490600,8.90849072265625,0.726703405380249,1.2687280178070068,0.3720851540565491
1761915195772544500,8.91854443359375,0.7720221877098083,1.1927618980407715,0.4984598755836487
1761915195782598400,8.928598388671874,0.7154079079627991,0.9679535627365112,0.6613374352455139
1761915195792652300,8.93865234375,0.5697222948074341,0.7515081167221069,0.8783078789710999
1761915195802707500,8.94870751953125,0.37833479046821594,0.5624271035194397,1.1309525966644287
1761915195812761600,8.95876171875,0.2112928032875061,0.3507159352302551,1.4035828113555908
1761915195822815500,8.9688154296875,0.10182595998048782,0.04025687649846077,1.6604396104812622
1761915195832869600,8.97886962890625,0.0676347017288208,-0.27844786643981934,1.8980013132095337
1761915195842924300,8.98892431640625,0.11486746370792389,-0.4959506392478943,2.094423532485962
1761915195852978400,8.998978515625,0.23526550829410553,-0.6231650710105896,2.180788993835449
1761915195863032300,9.0090322265625,0.3937675356864929,-0.7218956351280212,2.151735305786133
1761915195873086500,9.01908642578125,0.561120331287384,-0.79215407371521,2.0474298000335693
1761915195883140400,9.029140380859374,0.5628145933151245,-0.9501074552536011,1.814752221107483
1761915195893195300,9.0391953125,0.29987460374832153,-1.5791562795639038,1.5020276308059692
1761915195903249400,9.04924951171875,-0.2067507803440094,-2.463684558868408,1.2198899984359741
1761915195913303300,9.05930322265625,-0.7519413828849792,-3.1416192054748535,1.0226423740386963
1761915195923357400,9.069357421875,-1.0992202758789062,-3.255124807357788,0.9241163730621338
1761915195933412600,9.07941259765625,-1.1290980577468872,-2.7933833599090576,0.9225797057151794
1761915195943466500,9.089466552734375,-0.9055847525596619,-1.9746785163879395,0.9908325672149658
1761915195953520600,9.099520751953126,-0.5914012789726257,-1.203857183456421,1.061005711555481
1761915195963574500,9.109574462890626,-0.2960231304168701,-0.5467346906661987,1.0536091327667236
1761915195973628400,9.11962841796875,-0.016884973272681236,0.025070998817682266,0.9193072319030762
1761915195983683300,9.129683349609374,0.21185819804668427,0.3109453618526459,0.6718375086784363
1761915195993737500,9.139737548828125,0.3351401686668396,0.24209092557430267,0.3434774577617645
1761915196003791400,9.149791259765625,0.3134348690509796,-0.06368950009346008,0.004746285732835531
1761915196013845500,9.159845458984375,0.14299070835113525,-0.6527570486068726,-0.357181578874588
1761915196023899400,9.1698994140625,-0.08773970603942871,-1.404238224029541,-0.7308728694915771
1761915196033954300,9.179954345703125,-0.2943117916584015,-2.0323336124420166,-1.0495355129241943
1761915196044008400,9.190008544921875,-0.43212583661079407,-2.3018202781677246,-1.259655475616455
1761915196054062300,9.200062255859375,-0.5003613829612732,-2.1382133960723877,-1.3436880111694336
1761915196064116500,9.210116455078126,-0.5169501900672913,-1.6291298866271973,-1.309796690940857
1761915196074170400,9.22017041015625,-0.4855334162712097,-0.9887078404426575,-1.1748652458190918
1761915196084225500,9.2302255859375,-0.3978253901004791,-0.4675765037536621,-0.9396457672119141
1761915196094279400,9.240279541015624,-0.24666357040405273,-0.1981455683708191,-0.6259746551513672
1761915196104333300,9.250333251953125,-0.0901235044002533,-0.1919737011194229,-0.25655481219291687
1761915196114387500,9.260387451171875,-0.019145198166370392,-0.4107917845249176,0.11596042662858963
1761915196124442400,9.2704423828125,-0.10036495327949524,-0.6325380206108093,0.43882742524147034
1761915196134496500,9.28049658203125,-0.2862163186073303,-0.7414341568946838,0.6753446459770203
1761915196144550400,9.29055029296875,-0.4966670274734497,-0.5913552045822144,0.8433650732040405
1761915196154604500,9.3006044921875,-0.6474360227584839,-0.290499746799469,0.9699975848197937
1761915196164658400,9.310658447265626,-0.695997953414917,0.08983481675386429,1.1279916763305664
1761915196174713300,9.32071337890625,-0.6510449051856995,0.45931458473205566,1.3028907775878906
1761915196184767500,9.330767578125,-0.5458865165710449,0.7610161304473877,1.469175934791565
1761915196194821400,9.3408212890625,-0.398761510848999,0.9859160780906677,1.591774582862854
1761915196204875500,9.35087548828125,-0.2344905287027359,1.004651665687561,1.6417402029037476
1761915196214930400,9.360930419921875,-0.09004733711481094,0.825404167175293,1.648474097251892
1761915196224984300,9.370984375,0.029151493683457375,0.5503441095352173,1.615323781967163
1761915196235038500,9.38103857421875,0.13283367455005646,0.24083071947097778,1.527144193649292
1761915196245092400,9.39109228515625,0.21835577487945557,-0.05931685119867325,1.3689342737197876
1761915196255146500,9.401146484375,0.2339448481798172,-0.31128865480422974,1.1640530824661255
1761915196265201400,9.411201416015626,0.17802272737026215,-0.502773642539978,0.9729366302490234
1761915196275255600,9.421255615234376,0.08794743567705154,-0.6095815896987915,0.8594958186149597
1761915196285309400,9.431309326171874,0.011291536502540112,-0.4894416034221649,0.8085572719573975
1761915196295363300,9.44136328125,-0.02003389596939087,-0.029317941516637802,0.8078347444534302
1761915196305417500,9.45141748046875,0.004381699021905661,0.5202192068099976,0.7768850922584534
1761915196315472400,9.461472412109375,0.0819699689745903,0.7306597828865051,0.6099344491958618
1761915196325526500,9.471526611328125,0.22917300462722778,0.45785942673683167,0.2966580390930176
1761915196335580400,9.481580322265625,0.43990573287010193,-0.32623058557510376,-0.1286487877368927
1761915196345634600,9.491634521484375,0.5902180075645447,-1.2937513589859009,-0.5651746988296509
1761915196355689500,9.501689453125,0.5484327673912048,-2.1451001167297363,-0.9302725195884705
1761915196365743400,9.511743408203126,0.3636418581008911,-2.5323190689086914,-1.13646399974823
1761915196375797500,9.521797607421876,0.19110363721847534,-2.2509655952453613,-1.1433368921279907
1761915196385851400,9.531851318359376,0.11417024582624435,-1.3286118507385254,-0.950555682182312
1761915196395905500,9.541905517578124,0.08695700019598007,-0.08673542737960815,-0.6434682011604309
1761915196405960400,9.55196044921875,0.11220536381006241,1.1162769794464111,-0.371830552816391
1761915196416014300,9.562014404296875,0.17986802756786346,1.8865177631378174,-0.30249008536338806
1761915196426068500,9.572068359375,0.20315417647361755,1.9372502565383911,-0.5345696806907654
1761915196436122400,9.582122314453125,0.08802679181098938,1.3585277795791626,-0.9720431566238403
1761915196446176500,9.592176513671875,-0.1515868604183197,0.5023131966590881,-1.440707802772522
1761915196456231400,9.6022314453125,-0.3862699270248413,-0.3342687785625458,-1.801880121231079
1761915196466285600,9.61228564453125,-0.47449514269828796,-0.9834563732147217,-1.9892371892929077
1761915196476339500,9.62233935546875,-0.3989817500114441,-1.3373920917510986,-1.9794615507125854
1761915196486393300,9.632393310546876,-0.2417822629213333,-1.1398004293441772,-1.7564330101013184
1761915196496448500,9.642448486328124,-0.13506487011909485,-0.3461235761642456,-1.3341339826583862
1761915196506502400,9.65250244140625,-0.16002614796161652,0.7557811141014099,-0.812027096748352
1761915196516556500,9.662556640625,-0.2732701599597931,1.7282572984695435,-0.34426096081733704
1761915196526610400,9.6726103515625,-0.3547855317592621,2.2657814025878906,-0.06674680858850479
1761915196536664600,9.68266455078125,-0.3753480613231659,2.083523750305176,-0.08647789806127548
1761915196546719500,9.692719482421875,-0.42136693000793457,1.2866830825805664,-0.34972578287124634
1761915196556773400,9.7027734375,-0.5095396637916565,0.25155845284461975,-0.6857501268386841
1761915196566827500,9.71282763671875,-0.6010717153549194,-0.5650261044502258,-0.9300075173377991
1761915196576881400,9.72288134765625,-0.6775350570678711,-0.9130703806877136,-0.992921769618988
1761915196586935600,9.732935546875,-0.7352950572967529,-0.834821879863739,-0.9262441992759705
1761915196596990500,9.742990478515624,-0.7535691261291504,-0.5324535369873047,-0.7904946208000183
1761915196607044400,9.75304443359375,-0.7173610329627991,-0.18061292171478271,-0.6526970863342285
1761915196617098200,9.76309814453125,-0.5892531275749207,0.2472819685935974,-0.5231868028640747
1761915196627153200,9.773153076171875,-0.3711074888706207,0.7883644104003906,-0.3895253837108612
1761915196637208000,9.7832080078125,-0.11227327585220337,1.2679959535598755,-0.2413758635520935
1761915196647262200,9.79326220703125,0.10345235466957092,1.6039425134658813,-0.09240289777517319
1761915196657316000,9.803316162109375,0.234183207154274,1.7492419481277466,0.02449841797351837
1761915196667370000,9.813369873046875,0.29068297147750854,1.7287553548812866,0.10780742019414902
1761915196677423900,9.823423828125,0.2508372962474823,1.744715690612793,0.16950833797454834
1761915196687479000,9.83347900390625,0.14012114703655243,1.815657138824463,0.22446399927139282
1761915196697533200,9.843533203125,0.15591822564601898,1.4789191484451294,0.232465460896492
1761915196707587000,9.853587158203124,0.1837509274482727,1.3267543315887451,0.2512513995170593
1761915196717641200,9.86364111328125,0.1460733264684677,1.3932853937149048,0.28429538011550903
1761915196727695000,9.873695068359375,0.07648491859436035,1.5387475490570068,0.3077769875526428
1761915196737750000,9.88375,0.06101221963763237,1.6908012628555298,0.32354795932769775
1761915196747804200,9.89380419921875,0.16216041147708893,1.8347358703613281,0.37729668617248535
1761915196757858000,9.903858154296875,0.35552188754081726,1.8967419862747192,0.4667211174964905
1761915196767912200,9.913912109375,0.5133983492851257,1.5901033878326416,0.5065265893936157
1761915196777966000,9.923966064453126,0.5593245625495911,0.9491047859191895,0.4528798460960388
1761915196788021000,9.93402099609375,0.5091766715049744,0.34427589178085327,0.318108469247818
1761915196798075000,9.944074951171874,0.43096524477005005,-0.13055774569511414,0.15023957192897797
1761915196808129000,9.95412890625,0.3423512279987335,-0.6460874080657959,-0.04717523604631424
1761915196818183000,9.964182861328124,0.2763064205646515,-1.1779499053955078,-0.23129020631313324
1761915196828237000,9.974237060546875,0.28144311904907227,-1.2905443906784058,-0.2721897065639496
1761915196838292200,9.984292236328125,0.34475579857826233,-0.6197642087936401,-0.08665873110294342
1761915196848346000,9.99434619140625,0.39237016439437866,0.5647035837173462,0.26048991084098816
1761915196858400000,10.00439990234375,0.3340592086315155,1.557541012763977,0.631820559501648
1761915196868454000,10.014453857421875,0.20749379694461823,2.1118221282958984,0.9203514456748962
1761915196878509000,10.024509033203126,0.04121241718530655,2.1727688312530518,1.0501434803009033
1761915196888563200,10.034563232421876,-0.1619148701429367,1.5239012241363525,0.9654523730278015
1761915196898617000,10.0446171875,-0.3718070983886719,0.2814423143863678,0.6483825445175171
1761915196908671200,10.054671142578124,-0.484016478061676,-1.0261497497558594,0.20541147887706757
1761915196918725000,10.06472509765625,-0.4621143639087677,-1.9763001203536987,-0.32376235723495483
1761915196928780000,10.074780029296875,-0.3265584111213684,-2.488801956176758,-0.9228864908218384
1761915196938834000,10.084833984375,-0.14481577277183533,-2.6143126487731934,-1.490012764930725
1761915196948888000,10.09488818359375,-0.027220435440540314,-2.3078904151916504,-1.9003582000732422
1761915196958942200,10.104942138671875,-0.022709306329488754,-1.603645920753479,-2.0765273571014404
1761915196968996000,10.11499609375,-0.08913387358188629,-0.7910592555999756,-2.026137351989746
1761915196979051000,10.125051025390626,-0.16380943357944489,-0.1220015361905098,-1.822732925415039
1761915196989105000,10.13510498046875,-0.20197680592536926,0.30528002977371216,-1.517221212387085
1761915196999159000,10.145158935546876,-0.18484601378440857,0.47494521737098694,-1.1373485326766968
1761915197009213000,10.155212890625,-0.12385829538106918,0.49368828535079956,-0.7016335129737854
1761915197019267000,10.16526708984375,-0.0689292699098587,0.32406914234161377,-0.22878657281398773
1761915197029322200,10.175322265625,-0.029405292123556137,0.00034674355993047357,0.25158989429473877
1761915197039376100,10.185376220703125,0.017181649804115295,-0.3356797397136688,0.7170148491859436
1761915197049430000,10.195429931640625,0.13052178919315338,-0.4761854410171509,1.1373554468154907
1761915197059484000,10.20548388671875,0.28112247586250305,-0.43459567427635193,1.4555532932281494
1761915197069539000,10.2155390625,0.40838828682899475,-0.2626321613788605,1.671716570854187
1761915197079593000,10.225593017578126,0.44366559386253357,-0.016637032851576805,1.8076272010803223
1761915197089647000,10.235647216796876,0.37192535400390625,0.17964325845241547,1.8798236846923828
1761915197099701200,10.245701171875,0.21542389690876007,0.19710694253444672,1.8774254322052002
1761915197109755100,10.255755126953124,0.0142918536439538,0.009749033488333225,1.8088775873184204
1761915197119810000,10.26581005859375,-0.15123799443244934,-0.17355474829673767,1.651191234588623
1761915197129864000,10.275864013671875,-0.19224613904953003,-0.17347511649131775,1.365687608718872
1761915197139918000,10.28591796875,-0.0722544863820076,0.12832388281822205,0.9627732038497925
1761915197149972000,10.295971923828125,0.1507309228181839,0.6128064393997192,0.5443437099456787
1761915197160026000,10.306026123046875,0.33986836671829224,1.1188956499099731,0.28686586022377014
1761915197170081000,10.3160810546875,0.18745724856853485,1.1909544467926025,0.8063228726387024
1761915197180135000,10.326135009765625,0.11548558622598648,0.6379831433296204,1.2474576234817505
1761915197190189000,10.33618896484375,0.34789592027664185,0.2457229495048523,1.4593886137008667
1761915197200243000,10.346242919921876,0.5404192805290222,-0.24653440713882446,1.4491993188858032
1761915197210297000,10.356297119140624,0.5697169899940491,-0.8242771029472351,1.3045324087142944
1761915197220352300,10.366352294921874,0.5922113656997681,-1.3499233722686768,1.3080533742904663
1761915197230406100,10.37640625,0.5377369523048401,-1.6433818340301514,1.50212562084198
1761915197240460000,10.3864599609375,0.5307203531265259,-1.8089218139648438,1.6075016260147095
