time,seconds_elapsed,z,y,x
1761915158019788500,0.13078857421875,-2.4831466025441884,-1.7459487643152474,0.4886877723067999
1761915158029842400,0.140842529296875,-2.0603461376428602,-2.103071765169501,0.2615618551969528
1761915158039896600,0.150896484375,-5.591590757277608,-2.625967512026429,1.1865608774937688
1761915158049950500,0.160950439453125,-5.8127574737221,-4.3543911410450935,1.573646178152412
1761915158060005400,0.17100537109375,-6.420345766219496,-5.118003523468971,0.16677037873789666
1761915158070059500,0.1810595703125,-7.332026895651221,-5.293573440864682,-0.9885558409281074
1761915158080113400,0.191113525390625,-8.738574778285622,-5.283959224823117,-1.056758877930045
1761915158090167600,0.20116748046875,-9.413848952043056,-4.941081606942415,-0.45208369640037416
1761915158100221400,0.211221435546875,-9.409669620531798,-4.625854212531447,0.29790552660152314
1761915158110276400,0.2212763671875,-9.359228888583182,-5.139594593030214,0.7520067003041505
1761915158120330500,0.23133056640625,-9.252003608617185,-5.799426282984018,0.7477006736733018
1761915158130384400,0.24138427734375,-8.998938948130608,-5.9446215203821655,0.6943561831071973
1761915158140438500,0.2514384765625,-8.05546216598749,-5.1989954610258335,1.060690372160077
1761915158150492400,0.261492431640625,-5.937741113218665,-4.3526352372884745,1.3180183891795574
1761915158160547600,0.271547607421875,-4.773716623312235,-4.9886868232041595,1.7931778407409786
1761915158170601500,0.2816015625,-4.2632343678265805,-5.929982169654965,3.066100220000744
1761915158180655400,0.2916552734375,-3.497700661951303,-6.02760609306097,3.7084962065070863
1761915158190709200,0.301709228515625,-1.9541665673375128,-4.6917876971662045,3.055202686150372
1761915158200763400,0.311763427734375,0.7621300349116324,-2.7873300403714176,1.9600623473778367
1761915158210818600,0.321818603515625,2.813925201830268,-0.6318693317949772,1.0343788499481976
1761915158220872400,0.33187255859375,3.3926071333169934,1.65254450443089,0.04917473060078919
1761915158230926600,0.341926513671875,3.298106310367584,3.0798049202263353,-0.40399062355645
1761915158240980500,0.35198046875,3.4867642573952673,3.930850671431422,-0.8229430347274989
1761915158251034600,0.36203466796875,3.742236563545465,4.520345088833571,-1.0227500061485917
1761915158261088300,0.372088134765625,4.13063323906362,4.892807697638869,-1.2593968349933624
1761915158271143400,0.382143310546875,5.087350026530027,5.214174325457215,-1.7902224980667232
1761915158281197600,0.392197509765625,5.873181839546561,5.492561643248796,-2.056957956509292
1761915158291251500,0.40225146484375,6.599699878329038,5.694893310841918,-1.7420925272785126
1761915158301305600,0.4123056640625,7.127361816674471,5.466181585845351,-0.9858126796998083
1761915158311360300,0.4223603515625,7.304675362867116,4.7288329409688705,-0.3674704996064305
1761915158321414400,0.432414306640625,7.252481649771332,4.328132664194703,-0.06808532890640198
1761915158331468300,0.44246826171875,7.314859487751126,4.270175565266609,-0.049918534705415366
1761915158341522400,0.4525224609375,7.46587948578,4.242557490500808,-0.31306532100625334
1761915158351576600,0.46257666015625,7.530974766024947,4.148706655892729,-0.554200912637636
1761915158361630500,0.47263037109375,7.372643568199872,4.078515513813495,-0.6224014654215425
1761915158371685600,0.482685546875,7.130380872234702,4.044786262691021,-0.5201940136175602
1761915158381739300,0.4927392578125,7.239032385611534,4.0442485025525094,-0.5112778628427534
1761915158391793400,0.50279345703125,7.300644499915838,4.114398143577575,-0.642834085662663
1761915158401847300,0.512847412109375,7.201429507926106,4.182509556773304,-0.7030655592635273
1761915158411901400,0.5229013671875,7.1819871408313505,4.103346003687381,-0.655220542896539
1761915158421956600,0.53295654296875,7.0838161049365995,4.070232254114747,-0.6384798359759152
1761915158432010500,0.543010498046875,6.831671481904387,4.148842849493026,-0.5478646222881972
1761915158442064600,0.553064697265625,6.502204549738765,4.223669834679365,-0.37457740900218484
1761915158452118300,0.5631181640625,6.360067530867457,4.254835957315564,-0.31353038123473526
1761915158462172400,0.57317236328125,6.423525565299391,4.26560460408926,-0.3761784144580364
1761915158472227600,0.5832275390625,6.0712406521260736,4.333493898966908,-0.48934769752025603
1761915158482281500,0.593281494140625,5.395365005344152,4.347053637763858,-0.43143765260428185
1761915158492335600,0.603335693359375,4.5461359481722114,4.1029304086238145,-0.16794073769152162
1761915158502389500,0.613389404296875,3.730866443747282,3.050648383846879,0.17718202876746653
1761915158512443600,0.623443603515625,2.9832044946491716,1.1949006896853447,0.8314854568190873
1761915158522498300,0.633498291015625,1.2873393194079399,-0.511319290831685,1.3346572431609034
1761915158532552400,0.643552490234375,-1.4080045111835002,-1.342895786935091,0.7743615938447416
1761915158542606300,0.6536064453125,-4.353069537052512,-1.2684756289839745,-0.4634950980570167
1761915158552660500,0.663660400390625,-6.0389504938960075,-1.755121666330099,-1.6602257065832613
1761915158562714600,0.673714599609375,-6.391219624978303,-3.6392502363234756,-2.101785524751246
1761915158572769300,0.683769287109375,-7.17176794463396,-5.804269046840071,-1.7285072156488894
1761915158582818600,0.693818603515625,-8.972498684972525,-7.444498259577155,-0.8781623792547733
1761915158592872700,0.703872802734375,-11.601597480762004,-8.000947316467762,-0.29675394541360434
1761915158602926800,0.7139267578125,-13.295594524043798,-8.154786463570595,-0.04340718005001545
1761915158612980500,0.72398046875,-14.015144477379321,-7.924401252403855,-0.09288535057678818
1761915158623034600,0.73403466796875,-14.402939679872988,-7.946169432097673,0.06986848599612712
1761915158633089500,0.744089599609375,-14.262733921325205,-7.872990214118361,0.28832126730680463
1761915158643143700,0.754143798828125,-13.366355574965477,-7.4479241423726075,0.7641764460474252
1761915158653197600,0.764197509765625,-12.25473054986,-7.5427254095733165,1.7118375281378626
1761915158663251700,0.774251708984375,-10.649933885031938,-8.313029398590325,2.8989477100774645
1761915158673305600,0.7843056640625,-9.121195793011784,-8.592976805305481,3.544302546389401
1761915158683360500,0.794360595703125,-7.830348757743835,-8.008172007024287,3.6274022698804735
1761915158693414700,0.80441455078125,-6.251624107283353,-7.121262330755591,3.4028348050817847
1761915158703468500,0.814468505859375,-4.462929841697216,-6.005905717906355,2.947424156215787
1761915158713522700,0.824522705078125,-2.5520073728024957,-4.530523368498683,2.1060601333305238
1761915158723576600,0.83457666015625,-0.49629532470107074,-2.971712209776044,0.8435555415801703
1761915158733631500,0.844631591796875,1.5101730922818184,-1.1812369059920311,-0.6772750652510673
1761915158743685600,0.854685546875,3.179005299168825,0.3616699966341257,-1.7279641948133706
1761915158753739500,0.864739501953125,4.266641545921564,1.4791408251583575,-2.379477699885517
1761915158763793700,0.874793701171875,5.1015135764390225,2.5693860853657124,-2.7950293627023695
1761915158773847600,0.88484765625,5.648829478803277,3.479673422351479,-2.9155355645239354
1761915158783902700,0.89490283203125,6.115953654077649,4.047477109210193,-2.5484604939758775
1761915158793956600,0.90495654296875,6.542612547972798,4.118325838415324,-1.7635529561974108
1761915158804010800,0.9150107421875,6.6713716143548485,3.8136657229870554,-0.7529182621911168
1761915158814064600,0.925064697265625,6.841019740486145,3.5175869734212752,0.1047987834714353
1761915158824118500,0.935118408203125,7.339643215873837,3.5198005578175184,0.5255675964146852
1761915158834173700,0.945173583984375,7.812778614261746,3.550245964963734,0.749907682198286
1761915158844227600,0.9552275390625,8.212302832993865,3.4801544838666914,0.9686606154993176
1761915158854281700,0.96528173828125,8.67736890669465,3.5228912173092364,1.114907261646539
1761915158864335600,0.975335693359375,8.939456247070432,3.5861405774265527,1.1520637107387184
1761915158874389800,0.9853896484375,9.100262895098329,3.6313857865586874,1.0743281446292996
1761915158884444700,0.995444580078125,9.288547917160392,3.8119039740115404,0.9123001381129026
1761915158894498600,1.00549853515625,9.327638987576961,4.027531176507472,0.7507961554706096
1761915158904552700,1.015552734375,9.083750736236572,4.279983842575549,0.6479910300344228
1761915158914606600,1.025606689453125,8.901613715410232,4.419743610921502,0.695305008264631
1761915158924660700,1.03566064453125,8.865705366683006,4.276232381087541,0.763615597294271
1761915158934715400,1.04571533203125,8.326266481304168,4.418132084071636,0.7697310114346444
1761915158944769500,1.05576953125,7.649571919354796,4.690846032401919,0.6072254505343735
1761915158954823700,1.06582373046875,7.174972293633222,4.826174540302157,0.4292620621308684
1761915158964877600,1.075877685546875,6.585033639594912,4.440787567993998,0.29612083514183757
1761915158974931700,1.085931640625,5.61301523810029,3.3685622408628464,0.6817705500394106
1761915158984986600,1.095986572265625,4.282462215387821,1.9951275232791899,1.418885386160016
1761915158995040800,1.106040771484375,2.4684797792881725,0.9093933107554912,2.0722709687143563
1761915159005094700,1.1160947265625,0.6059001932799816,0.11013853706419467,1.9896192812517284
1761915159015148500,1.1261484375,-0.9973960038572549,-0.5292945079833269,1.0230932666283101
1761915159025202400,1.136202392578125,-2.5505402228593823,-1.298180446895957,-0.14815313735567032
1761915159035256600,1.146256591796875,-4.969410460326075,-2.2982833716243505,-0.919819500767067
1761915159045311700,1.156311767578125,-6.451452852144837,-2.8179578183472156,-1.6533169501081109
1761915159055365600,1.16636572265625,-7.734780597823858,-3.90215181569159,-1.523232188080251
1761915159065419800,1.176419677734375,-9.307172538131475,-6.459118272206187,-0.13779935499317944
1761915159075473700,1.1864736328125,-11.34205105704069,-8.558633806198834,1.6414806741029022
1761915159085527600,1.196527587890625,-13.432677766656875,-9.436440723079443,2.9766081651240586
1761915159095582700,1.206582763671875,-14.75430514011383,-9.687948217251897,3.219459474632144
1761915159105636600,1.21663671875,-15.035845953500269,-9.577042202946544,2.2817701898492873
1761915159115690800,1.226690673828125,-14.931658433794974,-9.465068851670623,1.1117186947382987
1761915159125744600,1.23674462890625,-14.107113151502608,-9.01374371855259,0.2441371115349233
1761915159135798800,1.246798828125,-13.009302716737984,-8.752116396903991,0.11797902143150567
1761915159145853400,1.256853515625,-11.524237177705764,-8.672214008149504,0.5499342681691051
1761915159155907600,1.266907470703125,-10.167786328148841,-8.683833134272694,1.1230294855646787
1761915159165961700,1.276961669921875,-8.690074074488878,-7.994873549512028,1.272977470447868
1761915159176015600,1.287015625,-6.59262716346383,-6.580013765606283,1.0713270631171763
1761915159186069800,1.29706982421875,-4.549848831215501,-4.948202252602577,0.8532549516871571
1761915159196124700,1.307124755859375,-2.452565001797676,-3.4496465328782793,0.6950868354693055
1761915159206178600,1.317178466796875,-0.46558688270449633,-2.0073755949556826,0.44947570585906504
1761915159216232400,1.327232421875,1.2454951508909464,-0.6098860480457544,0.0734226713463664
1761915159226286600,1.33728662109375,2.684146729272604,0.9158850108623504,-0.5442269964382052
1761915159236340500,1.347340576171875,3.9608389824599026,2.496560210868716,-1.4054558496139942
1761915159246395600,1.357395751953125,5.115528657788038,3.716867729011178,-2.2594369236186145
1761915159256449800,1.36744970703125,6.064074413758516,4.88791992559731,-2.9897903027802704
1761915159266503700,1.377503662109375,6.738778678673506,5.790922658532858,-3.4357536166042086
1761915159276557600,1.3875576171875,6.983470063090324,6.2714282934278245,-3.485427455833554
1761915159286611500,1.397611572265625,7.366481538438797,6.281206175598502,-3.1235493694067
1761915159296665600,1.40766552734375,7.629315897789597,5.919585863325,-2.5063971297502516
1761915159306720800,1.417720703125,7.882723088103532,5.684138108071685,-1.9696827008992432
1761915159316774700,1.427774658203125,8.190002738380432,5.578620801067352,-1.5051998339138923
1761915159326828800,1.437828857421875,8.569855457437038,5.167721201840043,-0.8543234577015042
1761915159336882700,1.447882568359375,8.997073154258727,4.626251687416434,-0.18852642960250376
1761915159346936600,1.4579365234375,9.404248764526843,4.26592024590969,0.2664602947629988
1761915159356991500,1.467991455078125,9.813451496708392,4.135009554451703,0.43085693010687826
1761915159367045600,1.478045654296875,9.987812038314342,4.207752719101309,0.3689746205590665
1761915159377099500,1.488099609375,9.932095411789417,4.184854074072837,0.22421426744684575
1761915159387153700,1.498153564453125,9.70387059352696,4.02345179823935,0.08214972928985953
1761915159397207800,1.508207763671875,9.46695627285242,3.9751340497940775,-0.05274710919484496
1761915159407262500,1.518262451171875,9.08513488407135,4.067940343785286,-0.22951222772449253
1761915159417316600,1.528316650390625,8.388356734514236,4.314791536584496,-0.45089887052997946
1761915159427370500,1.53837060546875,7.837936436393856,4.533624841645359,-0.676349986295402
1761915159437424600,1.548424560546875,7.109767707794904,4.676636889785528,-0.8045870746299624
1761915159447478500,1.558478515625,6.19252719067037,4.654616196635366,-0.7977072519883514
1761915159457533700,1.56853369140625,5.451693626287579,4.477997062447667,-0.9363450305670499
1761915159467587600,1.578587646484375,4.797379238450527,4.226411242341995,-1.0402974263422191
1761915159477641500,1.588641357421875,3.76324603382647,2.9791555115193127,-0.5471363080136478
1761915159487695600,1.598695556640625,2.557635734078288,1.182238191989064,0.11663038330152631
1761915159497749500,1.60874951171875,1.0000579165428876,-0.1454074188441038,0.5834498765408992
1761915159507804700,1.6188046875,-0.9983382531434297,-1.0625117423683403,0.6178055889986455
1761915159517858800,1.62885888671875,-2.983586187443137,-1.8415549181580542,0.2326180847853422
1761915159527912700,1.63891259765625,-4.387402014765144,-2.8170401189804077,-0.27646935534104705
1761915159537966800,1.648966796875,-5.723343744778632,-4.259074325537681,-0.5384375993818045
1761915159548020500,1.6590205078125,-7.219290743309259,-6.247494460132717,0.07021094275824726
1761915159558075600,1.66907568359375,-8.206462290272116,-8.521232588565349,1.2418804675251245
1761915159568129500,1.679129638671875,-9.698840782666206,-9.94878234269619,2.143956733265519
1761915159578183700,1.68918359375,-11.336282995033264,-10.598893433624506,2.5976263836830853
1761915159588238600,1.699238525390625,-12.909271147668361,-10.594192708587645,2.456878773343563
1761915159598292200,1.709292236328125,-14.079918855106829,-10.226602089732884,1.9763592560537158
1761915159608346400,1.719346435546875,-14.294783256536721,-9.889572613358498,1.8160872994244097
1761915159618401300,1.7294013671875,-14.253033196043967,-9.33642259801328,1.8413567652374505
1761915159628455400,1.739455322265625,-13.702878855383396,-8.715157662340998,1.543008901695907
1761915159638509300,1.74950927734375,-12.238407191568612,-8.06767808896005,0.76925886387825
1761915159648563500,1.7595634765625,-10.322775814330578,-7.320151748940348,0.06563066576328128
1761915159658617300,1.769617431640625,-8.385802373856306,-6.597188187769055,-0.1622073634049855
1761915159668672300,1.77967236328125,-6.368954017156362,-5.67592148386836,0.04541955648546572
1761915159678726400,1.789726318359375,-4.148583321774006,-4.645004903203248,0.33064726452399046
1761915159688780300,1.7997802734375,-1.6554454865694046,-3.4540947444587946,0.3306930398944765
1761915159698834400,1.80983447265625,0.5696341171562671,-1.6747662731111048,-0.17586555760772898
1761915159708888300,1.819888427734375,1.686755986112356,0.42528205258399243,-1.2051619714587927
1761915159718943200,1.829943115234375,2.3102456120967862,2.2300141375184057,-2.0823850971020756
1761915159728997400,1.839997314453125,2.756331675517559,3.322838016042113,-2.3660117768518627
1761915159739051300,1.85005126953125,3.0186767900466918,3.94001188300848,-2.3028648541957137
1761915159749105400,1.86010546875,3.504124557518959,4.51490874299854,-2.1043916155964135
1761915159759159300,1.8701591796875,4.209287089061736,4.7901922495558855,-1.6430670665115117
1761915159769214500,1.88021435546875,4.878019293829799,4.713396010123193,-1.0746581072360277
1761915159779268400,1.890268310546875,5.634729057258367,4.672922253176569,-0.687247227884829
1761915159789322500,1.900322509765625,6.2093105676889415,4.594174295154214,-0.48699886937178666
1761915159799376400,1.91037646484375,6.582770955359935,4.571610873429477,-0.35243886162601407
1761915159809430300,1.92043017578125,7.021201535591483,4.527279856532812,-0.1682644897531718
1761915159819485400,1.9304853515625,7.3243380947142835,4.365187844869494,0.09504515895918011
1761915159829539300,1.940539306640625,7.420560919150709,4.216456834560632,0.40297099818512794
1761915159839593500,1.950593505859375,7.36712801964879,4.127384466400742,0.5303738276526332
1761915159849647400,1.9606474609375,7.4537360435217614,4.1543449540406465,0.5181082203194499
1761915159859701500,1.970701416015625,7.9386244235455985,4.284172526437044,0.32167642441987987
1761915159869755400,1.98075537109375,8.314576628032325,4.43198116120398,0.0902330825023353
1761915159879810300,1.990810302734375,8.352422666823864,4.487501972895861,0.004325242787972092
1761915159889864400,2.000864501953125,7.94712687895298,4.509562413534522,0.1558199456565082
1761915159899918300,2.01091845703125,6.7881637640893455,4.890480131474137,0.29053982013911006
1761915159909972500,2.020972412109375,6.006894144421816,5.457298606687784,0.18924867946244775
1761915159920026400,2.0310263671875,6.128229198282956,5.603133311033249,-0.026832988802716135
1761915159930081300,2.041081298828125,6.043039809036254,5.3336435854464765,-0.12725874482169747
1761915159940135400,2.051135498046875,5.911766129484772,5.014468914714455,-0.12559322276227175
1761915159950189300,2.061189208984375,5.678024593627453,4.629436162671446,-0.20764084338452665
1761915159960243500,2.071243408203125,5.021484346434474,3.67478916721642,-0.12084244803860783
1761915159970297300,2.08129736328125,4.393456492498517,2.1107231567054985,0.3079484894491732
1761915159980352500,2.0913525390625,3.8505613291859624,0.44871290479302406,0.7950871326178311
1761915159990406400,2.101406494140625,2.903420763838291,-0.6820078659266233,0.7035009550061077
1761915160000460300,2.111460205078125,1.161367253395915,-1.1630763954013585,-0.09208243669606744
1761915160010514200,2.12151416015625,-0.5505775345087051,-1.3328589615672826,-1.0414828367345035
1761915160020568300,2.131568359375,-1.2963526469469069,-2.3497891024559734,-1.7966249124549327
1761915160030623500,2.14162353515625,-2.129540669900179,-4.670783487582207,-1.8753814921751617
1761915160040677400,2.151677490234375,-3.1122002923965453,-7.558432097271084,-0.8928792521975933
1761915160050731500,2.1617314453125,-4.90386626726985,-9.391379930603504,0.2768080127108842
1761915160060785400,2.171785400390625,-7.50582804980874,-10.816994917279482,1.4230511275373399
1761915160070839300,2.18183935546875,-10.220994186723232,-12.280644743317366,2.3405669544719157
1761915160080894500,2.19189453125,-12.456966940385103,-12.575214549624919,2.397946107381582
1761915160090948400,2.2019482421875,-12.956406992852687,-11.85813361675143,1.4978072394445539
1761915160101002500,2.21200244140625,-12.834863849198818,-10.522864671432972,0.5645560101743787
1761915160111056400,2.222056396484375,-12.623030778288841,-9.54709656201601,0.09932495517022907
1761915160121110500,2.232110595703125,-13.181456103688477,-9.130598412129283,-0.13898352327644825
1761915160131164400,2.242164306640625,-13.458576762545109,-8.378436813524365,-0.8692856837075204
1761915160141219300,2.25221923828125,-12.55536886242628,-7.039439203071594,-1.7103500660590827
1761915160151273500,2.2622734375,-11.17541321864128,-5.574920192983746,-2.031682645477354
1761915160161327400,2.272327392578125,-9.379632209664583,-4.213660481840372,-1.8127213301226495
1761915160171381500,2.282381591796875,-6.974889866271615,-2.9771178682118653,-1.1998054128617048
1761915160181435400,2.292435302734375,-4.13443847656548,-1.692569056305289,-0.6232170926533639
1761915160191490300,2.302490234375,-1.2805331465244292,-0.23697627999484538,-0.3851841432124376
1761915160201544200,2.312544189453125,0.9045546385526656,1.0435206261724232,-0.320630860889703
1761915160211598300,2.322598388671875,2.917754994139075,2.11241827018559,-0.5245873897382989
1761915160221652200,2.33265234375,4.395363787424564,3.308375190925598,-0.9535676757857203
1761915160231706400,2.342706298828125,5.354732550704479,4.455259745460748,-1.3392688286095857
1761915160241761500,2.352761474609375,6.535658491051197,5.144356108343601,-1.5089171008713542
1761915160251815400,2.3628154296875,7.407056709933281,5.372979570534825,-1.3556640830934046
1761915160261869300,2.372869384765625,7.831058951839804,5.502929892528057,-1.0426477157954126
1761915160271923200,2.382923095703125,8.130017933017015,5.37481672283411,-0.6839553467325866
1761915160281977300,2.392977294921875,8.676261822235583,5.217195719105005,-0.43277350431792433
1761915160292032500,2.403032470703125,8.820698350220917,5.164470091089606,-0.24920276089403776
1761915160302086400,2.41308642578125,8.280179852911829,5.340922636538743,-0.018741233088076112
1761915160312140500,2.423140625,8.201628878766298,5.282012182408571,0.04178874853532761
1761915160322194400,2.4331943359375,7.986382784542441,5.05215128737688,0.28837266870047895
1761915160332248600,2.44324853515625,8.038125246739387,4.884875735595822,0.5919628168096766
1761915160342303200,2.45330322265625,8.01906164982915,4.77314729899168,1.0826065820224582
1761915160352357400,2.463357421875,7.814488925310969,4.764676407766342,1.6592193060196936
1761915160362411300,2.473411376953125,7.559599972006678,5.091669058772921,1.944318834801018
1761915160372465400,2.48346533203125,7.517535438737273,5.5544911529392005,1.7761837435811756
1761915160382519600,2.49351953125,7.845517685303092,5.666470349434018,1.379994514490664
1761915160392573400,2.503573486328125,8.12799431823492,5.602430715721845,1.0353896344259381
1761915160402628400,2.51362841796875,8.14956960570514,5.601146521130204,0.7599402697823942
1761915160412682200,2.52368212890625,7.876697836464643,5.579290663152933,0.4526774245098233
1761915160422736400,2.533736328125,7.333244454747438,5.38140019287765,0.27589232263807206
1761915160432790300,2.543790283203125,6.3646250480413435,4.94922224330008,0.18628453242722898
1761915160442844400,2.553844482421875,5.491041886335611,3.9216847836792468,0.1624372449044138
1761915160452899600,2.563899658203125,4.843851066768169,2.362971824634075,0.4526904666544869
1761915160462953200,2.573953125,4.107401416558027,0.8713573023498058,0.8028489987909794
1761915160473007400,2.58400732421875,2.969430820840597,-0.4308943395078182,0.9581469663999974
1761915160483061200,2.594061279296875,1.6242039606094358,-1.5628578037649392,0.5304805028975009
1761915160493115400,2.604115478515625,-0.06436112075150012,-2.137636298072338,-0.7503956118457019
1761915160503170600,2.614170654296875,-1.7640297799289226,-2.3313585427522656,-2.5430656491950154
1761915160513224400,2.624224365234375,-3.3233798678338524,-2.942399606052041,-3.7221447926312683
1761915160523278600,2.634278564453125,-5.085944251385331,-5.039980957111716,-3.3320947969481347
1761915160533332200,2.644332275390625,-7.060624029919505,-7.672945196157693,-1.9643292110420763
1761915160543386400,2.654386474609375,-9.108655460390448,-9.375303825071454,-0.8195142293225973
1761915160553441300,2.664441162109375,-10.685089369565247,-10.093063387858868,-0.4366339060731232
1761915160563495400,2.674495361328125,-11.86283667987585,-9.580695464757085,-1.2099864690057933
1761915160573549300,2.68454931640625,-12.367576007795334,-8.82278450884521,-2.089628200098127
1761915160583603200,2.694603271484375,-12.790484609246253,-8.541516082659363,-2.418620354358852
1761915160593657300,2.7046572265625,-12.4082938026309,-8.409514088833332,-2.2805532152749595
1761915160603711500,2.71471142578125,-11.457752488929033,-8.259695283287764,-1.8387492130875587
1761915160613766100,2.72476611328125,-10.829553954601288,-8.261524836802483,-1.0994171393088996
1761915160623820300,2.7348203125,-9.727242116764188,-8.20014886934161,-0.3863918750343844
1761915160633874200,2.744874267578125,-8.236576273506879,-7.730606527009606,0.29454604183947664
1761915160643928300,2.75492822265625,-6.738225720965862,-6.9953393645823,0.7567800521858036
1761915160653982200,2.764982177734375,-5.280290180921554,-6.155528124096989,0.686307316686213
1761915160664037000,2.775037109375,-4.358102270522713,-4.673324404236674,0.04526570393089205
1761915160674091300,2.78509130859375,-4.168704318782687,-2.5471234001532195,-1.0120421496514231
1761915160684145200,2.795145263671875,-3.5568583688408135,-0.44190410156100984,-2.172722224500775
1761915160694199300,2.80519921875,-3.295871683183312,1.1139020301267504,-2.73266263063848
1761915160704253200,2.815253173828125,-3.2518408182770013,2.17806592361629,-2.551645261491835
1761915160714308400,2.825308349609375,-2.5870611505270005,2.8914146842241286,-2.100727832391858
1761915160724362200,2.8353623046875,-1.3718401418685913,3.2342180678248402,-1.5553805997520684
1761915160734416100,2.845416015625,0.11214110905826091,3.6980993156552313,-1.1556469029877334
1761915160744470300,2.85547021484375,1.7294155626654624,4.1774595799073575,-0.7311064625512809
1761915160754524200,2.865524169921875,3.4832167940467595,4.248148442375659,-0.232536909307912
1761915160764579300,2.875579345703125,5.115872941181063,4.227351445801556,0.27772984026353803
1761915160774633200,2.88563330078125,6.381543449616432,4.151702915099263,0.7963083449758589
1761915160784687400,2.895687255859375,7.272365330892801,4.146791469921172,1.0961791803009808
1761915160794741200,2.9057412109375,7.88427499372065,4.162057720375061,1.272669719672948
1761915160804795400,2.91579541015625,8.512232705029845,4.099253181415796,1.2895285000152885
1761915160814850300,2.925850341796875,8.77960821494162,4.017246513858438,1.2692996587179601
1761915160824904200,2.935904296875,8.837180113944411,3.912721140500903,1.2212608733445405
1761915160834958300,2.945958251953125,8.848061573442816,3.8437259302079676,1.2057459088265896
1761915160845012200,2.95601220703125,8.866385165640711,3.853427240011096,1.2050436057761311
1761915160855066400,2.96606640625,8.937155568912624,3.8886780016124245,1.248619712652266
1761915160865121300,2.976121337890625,8.929649138805269,4.079281237488985,1.2610748512081802
1761915160875175200,2.986175048828125,8.788873471415043,4.400823221874237,1.2375799938522278
1761915160885229300,2.996229248046875,8.440273968756198,4.751712296774983,1.268441872844845
1761915160895283200,3.006283203125,8.21619048808217,5.13609506047666,1.2309765039339662
1761915160905337300,3.01633740234375,8.110664413249491,5.459294748941064,1.1467732031151652
1761915160915391200,3.02639111328125,7.719654924884438,5.528712568560242,1.2124509594231843
1761915160925446100,3.036446044921875,7.260527593582868,5.398403350126743,1.4072795579098165
1761915160935500000,3.0465,6.65156275203526,4.92688064763248,1.757997514027357
1761915160945554200,3.05655419921875,5.925708145597577,3.9443665710866447,2.2844274263598026
1761915160955608300,3.0666083984375,5.313754643628001,2.9833687453001736,2.517662620130181
1761915160965662200,3.076662109375,4.49043218112886,2.325018818336725,2.5850880968883634
1761915160975717400,3.08671728515625,3.5875767477095124,1.603202089112997,2.604167475889623
1761915160985771300,3.096771240234375,2.3181629610925913,0.7002455334067345,2.497979430016875
1761915160995825400,3.106825439453125,0.7069394780874252,0.17644845379590987,2.090920577996224
1761915161005879000,3.116879150390625,-0.4398468767702579,-0.16948796713352202,1.381335407705605
1761915161015933200,3.12693310546875,-0.9794348152309655,-1.1773287926375866,0.9341523428283631
1761915161025988400,3.13698828125,-2.6768308533012863,-3.0503192980229854,2.0435111765675247
1761915161036042200,3.147042236328125,-4.896338209852576,-5.302476293766499,4.23940165681839
1761915161046096400,3.157096435546875,-7.0976353714525695,-7.980751500657201,6.57569297979772
1761915161056150300,3.167150390625,-10.053778840696811,-8.76823341896832,7.314705758494139
1761915161066204400,3.177204345703125,-12.002051089298725,-7.552703782752156,6.116793027511239
1761915161076259000,3.187259033203125,-12.665474081742763,-6.741516579204798,4.590801603850722
1761915161086313200,3.197313232421875,-13.132169217950105,-6.026656244990229,3.333856838184595
1761915161096367400,3.207367431640625,-13.89151575962305,-5.240086765348911,2.381846328713
1761915161106421200,3.217421142578125,-14.881193151926993,-4.891771048067509,1.7197075308606027
1761915161116475400,3.227475341796875,-15.102832162058352,-4.420440068753064,0.6006155308753252
1761915161126529300,3.237529296875,-14.493348849594593,-3.5025700215533373,-0.8141417425040155
1761915161136584200,3.247584228515625,-13.172142331898211,-2.1369290265858174,-2.1077356653273105
1761915161146638000,3.25763818359375,-11.279472143530844,-0.9427826623991131,-3.020595483149588
1761915161156692200,3.267692138671875,-9.055898268193006,-0.12622370268553496,-3.4334640443623066
1761915161166746000,3.27774609375,-6.4766393158495426,0.5676086026780307,-3.828758078178763
1761915161176801300,3.28780126953125,-4.063334895816445,1.0909602766089141,-4.28249173374325
1761915161186855400,3.29785546875,-2.7659423844277855,1.3716544100381434,-4.511211057524383
1761915161196909300,3.307909423828125,-1.2391916668325662,1.3481164441928266,-4.788203413826227
1761915161206963200,3.317963134765625,-0.16574819608330726,1.4533818222627042,-4.834030514499545
1761915161217017000,3.32801708984375,0.7715431754231452,1.6797133741244672,-4.706335570217669
1761915161227071200,3.3380712890625,1.6663561721622944,1.9003446685180068,-4.276424104267359
1761915161237126400,3.34812646484375,2.509323246330023,2.0939625760406253,-3.626875323396921
1761915161247180300,3.35818017578125,3.433324928152561,2.108214827146381,-2.9838123974144457
1761915161257234400,3.368234375,4.529031668636202,2.1854415669508276,-2.3305377278886734
1761915161267288300,3.378288330078125,5.557593210607767,2.2172765287593004,-1.7563870100907981
1761915161277342200,3.38834228515625,6.738485833206773,2.3628102043315766,-1.4740101842716336
1761915161287397000,3.398397216796875,8.018843038642405,2.5419258315101265,-1.3784715427070855
1761915161297451300,3.408451171875,9.07135185791254,2.6972242375105617,-1.248159109403193
1761915161307505400,3.41850537109375,10.028169767665862,2.8178014587417244,-1.0304165952537208
1761915161317559300,3.428559326171875,10.694445226931572,2.814546840859949,-0.7523105055563152
1761915161327613400,3.438613525390625,11.04532904113531,2.730883053745329,-0.49736982206478714
1761915161337668000,3.448668212890625,11.075285787981748,2.668320506848395,-0.26738183005470784
1761915161347722200,3.45872216796875,10.937287184089422,2.811929059576988,-0.1020129704114981
1761915161357776100,3.468776123046875,11.036888545048237,2.9280618686199187,0.033955534159019585
1761915161367830300,3.478830322265625,11.048007320433854,2.94984290779531,0.21420988304391503
1761915161377884200,3.48888427734375,10.839348203384876,3.21019714076817,0.37931262083053585
1761915161387939300,3.498939208984375,10.46807275853753,3.4933231775194407,0.4407236961374059
1761915161397993200,3.5089931640625,9.586879706349968,3.879943491014838,0.18982620535576714
1761915161408047000,3.519047119140625,8.313716796332598,3.9846640946835277,0.02742592232772149
1761915161418101200,3.529101318359375,7.150664366328716,3.1862428492069244,0.2823797118959948
1761915161428155100,3.539155029296875,5.781209658291935,2.150773427543044,0.7348095548529178
1761915161438210300,3.549210205078125,5.002812963712215,1.148453995808959,1.077440869822353
1761915161448264400,3.559264404296875,4.11953609098792,0.023170447707176207,1.4997766398213803
1761915161458318300,3.569318359375,2.627216635304689,-1.5218769740790128,1.8335453608341514
1761915161468372200,3.579372314453125,1.0415770908892155,-2.730734292924404,1.3864011666625737
1761915161478426000,3.589426025390625,-0.3909925372302532,-2.6778923450529573,-0.4889559947889298
1761915161488481300,3.599481201171875,-1.9557640656620263,-3.196543293946981,-2.043367822574079
1761915161498535200,3.60953515625,-3.2428684072703122,-5.817122683194279,-2.081412160416692
1761915161508589300,3.61958935546875,-4.483354205566644,-8.23764010334611,-1.4324202827766537
1761915161518643200,3.629643310546875,-6.62705550276637,-9.903287834978103,-0.9993361050743609
1761915161528697300,3.639697265625,-8.639085061007737,-10.692634378117322,-1.3958132842607796
1761915161538752300,3.649752197265625,-10.050203904819488,-9.804413034728169,-2.704996625077724
1761915161548806100,3.65980615234375,-11.221405739009379,-9.059324735510348,-3.8601679464429615
1761915161558860300,3.6698603515625,-11.919040797656773,-8.678914382570982,-4.526727483347058
1761915161568914200,3.6799140625,-12.11468611935377,-7.869305972647666,-4.741884437982738
1761915161578968300,3.68996826171875,-12.50615211931467,-6.997951008385419,-4.574028163704276
1761915161589025500,3.700025634765625,-12.866421016979217,-6.0698489055067295,-4.186225946947932
1761915161599080400,3.71008056640625,-13.024185813093185,-5.241978278183937,-3.4797277828872204
1761915161609134600,3.720134521484375,-12.869184636473655,-4.344490509277582,-2.52086316973716
1761915161619188500,3.7301884765625,-11.841266653102636,-3.5100112774699923,-1.5033884005777538
1761915161629242600,3.74024267578125,-9.904306072109938,-2.631032978722453,-0.6699583124969154
1761915161639296500,3.750296630859375,-7.681397967204451,-1.8252227920383215,-0.06888546630814671
1761915161649351700,3.7603515625,-5.487077658879756,-0.892464972308278,0.3756266257941723
1761915161659405600,3.770405517578125,-3.032095074546337,0.044774961271882054,0.5121573490910232
1761915161669459500,3.78045947265625,-0.6771025582283735,0.894285173472762,0.290565100710839
1761915161679513600,3.790513671875,1.313551619029045,1.4720423913300036,-0.08420461599305272
1761915161689567500,3.8005673828125,2.7715473648279905,1.8074597563326358,-0.36216406376138327
1761915161699622700,3.81062255859375,4.250038201645016,2.35332078371346,-0.7581526557132602
1761915161709676500,3.820676513671875,5.398068419083953,2.7634634270936247,-0.9656097034960984
1761915161719730700,3.830730712890625,5.988754092097282,2.937650950220227,-0.8076531842023134
1761915161729784600,3.84078466796875,6.291885975044965,3.213215027284622,-0.47352775870636105
1761915161739838700,3.850838623046875,6.535352786102891,3.4908033036530015,-0.09034867170602083
1761915161749893600,3.8608935546875,6.780750857484341,3.729591016983986,0.2087359816774726
1761915161759947500,3.870947509765625,6.985227135890722,4.090907377874851,0.44766047313064333
1761915161770001700,3.881001708984375,7.0738885851621625,4.365782303631305,0.7654634171180427
1761915161780055600,3.8910556640625,7.091150685608387,4.31864587392509,1.2717284933000803
1761915161790109700,3.901109619140625,7.061348837062716,4.151736232846975,1.8325152871340513
1761915161800164600,3.91116455078125,7.022110467129945,4.122805906438828,2.2830232586503025
1761915161810218500,3.921218505859375,6.986065924802422,4.307298550480604,2.6236545589089393
1761915161820272600,3.931272705078125,7.0121987294465296,4.632082293266058,2.825622069364786
1761915161830326500,3.941326416015625,7.072919447869062,5.1284413308531045,2.7909979152292013
1761915161840380700,3.951380615234375,7.077093518683314,5.8639919863969086,2.570679340046644
1761915161850435600,3.961435546875,6.983155590313673,6.582685615164041,2.404751695743203
1761915161860489700,3.97148974609375,6.774143422043323,7.0741878603696815,2.288882067681104
1761915161870543400,3.98154345703125,6.413882123163342,7.365524676105379,2.3386108519680797
1761915161880597500,3.991597412109375,5.928721940460801,7.12812637130618,2.615617090664804
1761915161890651400,4.0016513671875,5.292981320190429,6.325147608655691,3.0564439183831213
1761915161900705500,4.01170556640625,4.7165825312048195,5.222681457039713,3.487736025036871
1761915161910759700,4.021759765625,3.929953430330753,4.223946313533187,3.581255143472552
1761915161920813600,4.0318134765625,3.038547611686587,3.5756799736887213,3.2147336151540276
1761915161930867700,4.04186767578125,1.6793179450660942,2.8936317757517096,2.825092200271785
1761915161940922600,4.051922607421875,-0.28151509442329403,1.800622019267082,2.4244058058924973
1761915161950976500,4.0619765625,-2.163677332779765,0.6316928061842918,1.5136613727889954
1761915161961030400,4.072030517578125,-3.1196874332815407,0.33888591789603234,-0.35356735419929025
1761915161971084500,4.08208447265625,-4.085065666109323,0.5447480977028608,-2.219023810818046
1761915161981138400,4.092138427734375,-5.5962774537891145,-0.9630565118819474,-2.637636322510242
1761915161991193600,4.102193603515625,-6.445221848800778,-3.980676486352086,-2.243390920963883
1761915162001247700,4.112247802734375,-6.999548506709933,-6.5663955746203655,-1.733359770246595
1761915162011301600,4.122301513671875,-7.643189524841308,-8.126702524858713,-1.8195970611110328
1761915162021355500,4.13235546875,-8.140057096472383,-8.616154267275332,-2.5570111724391578
1761915162031409400,4.142409423828125,-9.059756112664937,-9.610757425543666,-2.884908955591917
1761915162041464600,4.152464599609375,-10.618263320004939,-10.575340708601475,-3.0062413791045546
1761915162051518700,4.162518798828125,-11.190678592312336,-10.146026916283368,-3.5840707854151725
1761915162061572600,4.172572509765625,-10.851714348483085,-9.446689729893206,-3.7875463623464105
1761915162071626800,4.182626708984375,-10.77279337198138,-9.274400149342418,-3.330514542019367
1761915162081680600,4.1926806640625,-10.665109242331981,-8.96981982115209,-3.0280472604602573
1761915162091735600,4.202735595703125,-10.105653989362716,-8.26091225786209,-2.857448117214441
1761915162101789400,4.21278955078125,-9.111719524136186,-6.993706210422515,-2.560834530119598
1761915162111843600,4.222843505859375,-7.928231624346971,-5.475394235348701,-2.0877426786124706
1761915162121897700,4.232897705078125,-6.682915921676159,-4.58875460819304,-1.7237633821226654
1761915162131951600,4.24295166015625,-5.167814725342392,-3.890027662655711,-1.9267619891919194
1761915162142006500,4.253006591796875,-3.6653602446138858,-3.019467063641548,-2.7919924792245028
1761915162152060400,4.263060302734375,-1.852786506268382,-1.907913934728503,-3.783770935460925
1761915162162114600,4.273114501953125,0.11671557736694813,-1.073463929015398,-4.239465954226255
1761915162172168400,4.28316845703125,1.6650439205199479,-0.4281581925421953,-4.20281000200212
1761915162182222600,4.29322265625,2.8239070821404457,0.765168964216113,-4.041975881445407
1761915162192277800,4.30327783203125,3.733585639578104,1.8678174866616726,-3.9440862928405402
1761915162202331600,4.31333154296875,4.259481737294793,2.6005349646061657,-3.8199861581802366
1761915162212385500,4.323385498046875,4.804155600717664,3.5860394551396366,-3.3354785941675305
1761915162222439400,4.333439453125,5.2310272605806585,4.444399913272261,-2.587147075244784
1761915162232493600,4.34349365234375,5.494053927633166,5.29958232589066,-1.8880489583075046
1761915162242548500,4.353548583984375,5.734881622359156,6.345967693844437,-1.231884120298177
1761915162252602600,4.3636025390625,6.028126317542791,7.237796706336736,-0.5834971132161095
1761915162262656800,4.37365673828125,6.533457766136527,7.948847711396217,0.12086414841376245
1761915162272710700,4.383710693359375,6.833219880390167,8.673309402170776,0.8104882614977658
1761915162282764800,4.393764892578125,6.9973647329300634,9.315252968734502,1.5047300244450568
1761915162292819500,4.4038193359375,7.239851300778985,9.56445978474915,2.1824910465821623
1761915162302873600,4.41387353515625,7.674394810444116,9.76408862312436,2.6882924507752057
1761915162312927500,4.423927490234375,7.9563021190553895,9.909815775442123,3.0576544632166622
1761915162322981600,4.433981689453125,7.995740979996323,9.964601843118666,3.394636593317985
1761915162333035500,4.444035400390625,7.992997818768024,9.884943199992179,3.6176352013647555
1761915162343090400,4.45409033203125,7.961378107145428,9.577766425567864,3.796490131780505
1761915162353144600,4.46414453125,7.765494885039329,8.983402356302738,4.009991428163647
1761915162363198500,4.474198486328125,7.173493453252315,8.067834740826488,4.2472056085675955
1761915162373252600,4.484252685546875,6.577198708185553,6.760742673200369,4.4783857695043086
1761915162383306500,4.494306396484375,5.986897650575638,5.496083972156048,4.522058322492241
1761915162393361700,4.504361572265625,5.2892240134835244,4.256497753047943,4.285862086959183
1761915162403415600,4.51441552734375,4.752987723538279,2.753865577664971,4.023472841027379
1761915162413469400,4.524469482421875,4.069529074281454,0.4950403562039137,3.8607945539087054
1761915162423523600,4.534523681640625,3.0261598392784594,-1.7390876463741063,3.404993444420397
1761915162433577500,4.544577392578125,1.4635036955654621,-2.2409785991251465,2.0684951034374532
1761915162443632600,4.554632568359375,-0.16544190661311148,-1.3687123652368782,0.3715121762126684
1761915162453686500,4.5646865234375,-1.8225649710059164,-2.1496756954342127,0.18664149263873694
1761915162463740700,4.57474072265625,-3.693211543613672,-4.9169279934167855,1.6145070347204804
1761915162473794800,4.584794921875,-5.2053550591856235,-8.163477135026454,3.1287644737064837
1761915162483850500,4.5948505859375,-5.908554181700945,-11.48946280144453,4.230521015748382
1761915162493904600,4.604904541015625,-6.602633593693375,-12.806193050509691,4.241922699728608
1761915162503958800,4.614958740234375,-6.966540555599331,-12.69157181507349,3.7571395336449145
1761915162514012700,4.6250126953125,-7.452640649500489,-13.811630322003364,3.5921231589674947
1761915162524067600,4.635067626953125,-8.255866664910316,-14.365502221882343,3.215971632516384
1761915162534121500,4.64512158203125,-8.02536338032186,-13.714611378753185,2.273511480069905
1761915162544175600,4.655175537109375,-7.435577871018648,-12.375827118790149,1.139031064555794
1761915162554229500,4.6652294921875,-7.209112463644146,-10.95853338573575,0.13436989200115204
1761915162564283600,4.67528369140625,-6.3214230351746075,-9.516431374639271,-0.8420307431656867
1761915162574338600,4.685338623046875,-4.937831665235757,-7.870323625257611,-1.5580626784428953
1761915162584393200,4.695393310546875,-3.3613445645689963,-5.737057212832569,-1.7401321869909763
1761915162594447000,4.705447021484375,-1.8597908320724963,-3.4371880333214997,-1.4047180368587373
1761915162604501200,4.715501220703125,-1.0182043986082077,-1.325260177001357,-0.8922587091464549
1761915162614555100,4.72555517578125,-0.4448801947623491,0.3284644771248102,-0.4028362658895552
1761915162624610300,4.7356103515625,0.020225626426935196,1.5185259100854396,-0.025764117462188003
1761915162634664200,4.745664306640625,0.49768064157962794,2.52769827645421,-0.06031827510148286
1761915162644718000,4.755718017578125,1.2701596365481613,3.554007071062922,-0.39096711052805183
1761915162654772200,4.765772216796875,2.1105846250176428,4.67105704382658,-0.7851394468382
1761915162664826000,4.775826171875,2.8514468309730288,5.866398463016748,-1.0087333173643798
1761915162674881300,4.78588134765625,3.639525546133518,6.91538612242341,-0.932429464558512
1761915162684935200,4.79593505859375,4.283176501137018,7.635543394002318,-0.5819455363925546
1761915162694989300,4.8059892578125,4.747811197683215,8.142507996755837,-0.026054405645653603
1761915162705043200,4.816043212890625,5.1577136025667185,8.39275350816846,0.6364313790135085
1761915162715097000,4.82609716796875,5.588934105288982,8.328643731829523,1.2855502440340816
1761915162725152300,4.83615234375,5.903549505281448,7.9791563404202455,1.7455664869993923
1761915162735206100,4.8462060546875,5.9827083821922535,7.577016386231779,2.0550923087678847
1761915162745260300,4.85626025390625,6.16748159674108,7.307862176209688,2.1709195589929817
1761915162755314200,4.866314208984375,6.335118383049965,6.978861692512035,2.1343606374025343
1761915162765368300,4.876368408203125,6.45092619792223,6.742892543733119,1.869135291261971
1761915162775423200,4.88642333984375,6.539267329198122,6.61446665482819,1.4633799230553208
1761915162785477000,4.89647705078125,6.418237395763397,6.446324841606617,1.1794581328164786
1761915162795531300,4.90653125,6.124934832912683,6.135480776846409,1.0288980804495513
1761915162805585200,4.916585205078125,5.828267177543044,5.71322157921493,1.0461652954623102
1761915162815639300,4.926639404296875,5.482028558796644,5.343743539178371,1.0863559246186167
1761915162825694200,4.936694091796875,4.793934066432715,5.085749021074175,1.07832773565948
1761915162835748000,4.946748046875,4.075843079733849,4.6290562234431505,1.1742877444412558
1761915162845802200,4.95680224609375,3.5978029581695794,3.74489496909976,1.4896582736499606
1761915162855856000,4.966856201171875,3.065937722915411,2.4598767861157653,2.0077911900192498
1761915162865911300,4.976911376953125,2.0971891368716955,1.2139368140667677,2.232103949404508
1761915162875965200,4.986965087890625,0.4955605806857347,-0.18177695534229277,2.4080191731065512
1761915162886019300,4.997019287109375,-0.4405751910448074,-2.9802655185878275,2.615131645235419
1761915162896073200,5.0070732421875,-1.1571966897130013,-5.381199117347598,1.5421888174846767
1761915162906127000,5.017127197265625,-3.2853765926539897,-4.480904474326968,-0.49912689486518497
1761915162916181200,5.02718115234375,-5.602535345140099,-2.8098148439019917,-2.2918242586128414
1761915162926236200,5.037236083984375,-6.811536456370353,-5.003445416396856,-1.7695666635289786
1761915162936290300,5.047290283203125,-7.782154343417287,-7.88710992488563,-0.3157661043975502
1761915162946344200,5.05734423828125,-8.422932373332976,-9.544900513276458,1.1423043871380387
1761915162956398300,5.0673984375,-9.330907633984088,-10.096390486454963,1.5655704237245023
1761915162966453200,5.077453369140625,-9.80799089321494,-8.640193314510583,0.7711082180719823
1761915162976507100,5.087507080078125,-9.860823488736152,-7.577606168818473,0.12768299811575562
1761915162986561300,5.097561279296875,-10.44962875483036,-6.615725130456686,-0.41555133402328936
1761915162996615200,5.107615234375,-10.923534553068876,-5.8467409918665885,-0.6604865006007253
1761915163006669300,5.11766943359375,-11.222024163168667,-5.180983418995142,-0.8196469157915562
1761915163016724200,5.12772412109375,-10.853647946894169,-4.399140967875719,-1.0912063603244722
1761915163026778000,5.137778076171875,-9.955527725303172,-3.7359810102820394,-1.2132647600241004
1761915163036832000,5.14783203125,-8.389297230234742,-3.0977362982362506,-1.037529715194553
1761915163046886100,5.15788623046875,-6.603018793618679,-2.4063205524951217,-0.8400487755682319
1761915163056940300,5.167940185546875,-4.548745838409662,-1.4962275690376758,-0.7068305378202349
1761915163066995200,5.1779951171875,-2.5174890171289444,-0.6313070217370986,-0.5191051224023103
1761915163077049300,5.18804931640625,-0.6136357559680938,-0.06899637933671474,-0.2907757477868348
1761915163087103200,5.198103271484375,1.0734995848506688,0.5210130018502473,-0.12419643464162945
1761915163097157000,5.2081572265625,2.2609102110415695,1.5329039795279502,-0.25828955552801486
1761915163107211000,5.2182109375,3.432309613630175,2.8466175111204386,-0.6616318712435663
1761915163117266200,5.22826611328125,4.558935223990678,3.6896032899886366,-1.0191712708789855
1761915163127320300,5.2383203125,5.573410957464575,4.470808612248301,-1.3826080579899251
1761915163137374200,5.248374267578125,6.533049185335636,5.140070978370309,-1.6969363116040825
1761915163147428400,5.258428466796875,7.1377914407521486,5.696743322622775,-1.9175889410465954
1761915163157482200,5.268482177734375,7.332666947120428,6.067632983022928,-2.022317435760796
1761915163167537200,5.278537109375,7.610577879571914,6.230514683759212,-1.9265528764858841
1761915163177591300,5.28859130859375,7.772534282156824,6.255821558973193,-1.5654948742702604
1761915163187645200,5.298645263671875,7.557988445156812,6.192897777548432,-1.0445970962975173
1761915163197699300,5.30869921875,7.276817634126544,6.277900704312324,-0.4467189544968307
1761915163207753200,5.318753173828125,7.126265838131308,6.10328823377192,0.2802912517167628
1761915163217808100,5.32880810546875,6.7790931534051895,5.648246125957369,1.0081698382627218
1761915163227862000,5.338862060546875,6.5729270222157234,5.2722810619890685,1.4094900735661386
1761915163237916200,5.348916259765625,6.619697541218995,4.906363344782591,1.3458400236934422
1761915163247970000,5.358969970703125,6.716957892009615,4.465968186479807,1.0773096446581185
1761915163258024200,5.369024169921875,6.275412979149818,4.1058822441667315,0.7229526744510978
1761915163268079400,5.379079345703125,5.646812293761968,3.812810567462444,0.22348310362808405
1761915163278133200,5.38913330078125,5.02938065264225,3.764753515779972,-0.3643918958786875
1761915163288187400,5.3991875,4.30144923993051,3.505685230964422,-0.7690376223430037
1761915163298241000,5.409240966796875,3.5513469119429586,2.9272043750077485,-1.186922696543485
1761915163308295200,5.419295166015625,2.409526070538163,1.992880036613345,-1.617228568638861
1761915163318350300,5.429350341796875,1.0709984156847,0.3427636361122131,-1.9210645082026718
1761915163328404200,5.439404296875,-0.07905366297066212,-1.2750900786876678,-2.3628259864225982
1761915163338458400,5.449458251953125,-1.5395412255853413,-2.3007389480829237,-2.8470816215008496
1761915163348512300,5.45951220703125,-3.3237188905298707,-2.3098387848615647,-3.9171342807680367
1761915163358566400,5.46956640625,-5.028882639992236,-2.6372628130227325,-4.532464273433387
1761915163368621000,5.47962109375,-6.2044461765229695,-3.0665649149030445,-5.080550867909193
1761915163378675200,5.48967529296875,-7.4338780813634395,-2.68357565138638,-5.546977708569169
1761915163388729000,5.49972900390625,-8.136063642922043,-1.6555998003482817,-6.011572073104977
1761915163398783200,5.509783203125,-8.76599645369649,-1.079062479674816,-5.653050895890593
1761915163408837400,5.51983740234375,-9.52359761300683,-2.418580899131298,-3.951638023394346
1761915163418892000,5.52989208984375,-10.471602101707457,-4.540126478624344,-1.9117507364124058
1761915163428946200,5.5399462890625,-10.711092410349845,-5.893448382505774,-0.703448421101272
1761915163439000000,5.55,-9.728270875290036,-6.8518018312633036,0.07799924028059467
1761915163449054200,5.56005419921875,-8.97867883491218,-8.076821180358529,1.0223304655622691
1761915163459108000,5.570108154296875,-8.223712115758657,-8.95504895299971,1.7006423265151678
1761915163469163300,5.580163330078125,-7.217309798625111,-9.451391623973846,1.8711575908698141
1761915163479217400,5.590217529296875,-5.9323711106181145,-9.621127428388595,1.6298957425102591
1761915163489271000,5.60027099609375,-5.032928700512647,-8.839474946883321,0.8592722392152994
1761915163499325200,5.6103251953125,-4.226741497209668,-7.507630715316534,-0.057440838235337285
1761915163509380000,5.620380126953125,-3.359802595824003,-5.823916581118106,-0.9960403514645993
1761915163519434200,5.630434326171875,-2.425548400056362,-3.795620363208651,-1.8098237089850007
1761915163529488400,5.64048828125,-1.5451637416422366,-1.747643001012504,-2.4433218110255894
1761915163539542300,5.650542236328125,-0.8068675867825746,-0.15601473757624626,-2.701399477368593
1761915163549596400,5.660596435546875,-0.08774374990463256,0.8229051138699054,-2.846228804063797
1761915163559651000,5.670651123046875,0.6440192037940025,1.6290502315968274,-2.9060353302508592
1761915163569705200,5.680705322265625,1.5499194117367268,2.290298510350287,-2.958309999628365
1761915163579759000,5.690759033203125,2.6752953142970797,2.75123815177083,-2.911780011382699
1761915163589809400,5.700809326171875,3.7186475981652736,3.0811262319579718,-2.5987416514486075
1761915163599863600,5.710863525390625,4.6363872969835995,3.2874680119752884,-2.1268834333896636
1761915163609918500,5.72091845703125,5.402564561459422,3.5526065566152334,-1.5659266898162663
1761915163619972400,5.730972412109375,6.201174607506394,3.8271585340276357,-0.9863936944581567
1761915163630026200,5.741026123046875,6.711169371736049,3.879279181887209,-0.33432131339423354
1761915163640080400,5.751080322265625,7.114077972209453,3.711113987790048,0.293324847747758
1761915163650134500,5.761134521484375,7.635304909071325,3.653094929541647,0.6324502734880894
1761915163660189400,5.771189453125,8.051869109931587,3.5818194993570445,0.7870375355444849
1761915163670243600,5.78124365234375,8.230522964817284,3.4834532331511374,0.756930931898579
1761915163680297500,5.79129736328125,8.27691646720171,3.4005727053686976,0.6968594711650162
1761915163690351400,5.801351318359375,8.246232575124502,3.2759877098008987,0.6521209694460034
1761915163700405200,5.8114052734375,8.309675996509194,3.0800957198664545,0.6011947190027683
1761915163710460400,5.82146044921875,8.20587893742621,2.890975708284974,0.6385707291297614
1761915163720514600,5.8315146484375,7.871055446663498,2.795491134995222,0.7314014999751001
1761915163730568400,5.841568359375,7.470638078483939,2.8547394427776336,0.7072722171731293
1761915163740622600,5.85162255859375,7.039144019517302,2.9662878466397524,0.5886343665067106
1761915163750676500,5.861676513671875,6.62110740801692,3.111691173830628,0.325989538378641
1761915163760731400,5.8717314453125,5.963854628640413,2.9911516542613503,0.2808035120878368
1761915163770785500,5.88178564453125,5.050004338476062,2.634104641252756,0.44910877224281426
1761915163780839400,5.89183935546875,3.860331612572074,1.9356939220577478,0.9029344169396907
1761915163790893600,5.9018935546875,2.498225513732433,0.7308475924193859,1.7934115033663809
1761915163800947500,5.911947509765625,1.1785136185079812,-0.35690497418940065,2.1352730760723353
1761915163811002400,5.92200244140625,-0.732533353549242,-0.6939584159612655,1.7515134127050638
1761915163821056300,5.93205615234375,-2.6239164247155187,-0.43228725517094135,1.015678021935746
1761915163831110400,5.9421103515625,-4.3961224968373775,-0.33711481657028197,0.018355832233373073
1761915163841164300,5.952164306640625,-5.8742100135505195,-1.1472253307968376,-0.33499636311158537
1761915163851218400,5.962218505859375,-7.1643462702006095,-2.1380004552096126,0.34205307669006285
1761915163861273600,5.972273681640625,-8.28129687424302,-3.745972827464342,1.4779073378406464
1761915163871327500,5.982327392578125,-9.004903994014859,-5.723989641466736,2.8074551290333267
1761915163881381600,5.992381591796875,-9.755673261478544,-7.2517071582674975,3.8096559028238057
1761915163891435300,6.002435302734375,-9.717699212393164,-7.592524921008944,3.582075812205672
1761915163901490400,6.012490478515625,-8.768633816462755,-7.548266677087545,2.798049879567325
1761915163911544600,6.022544677734375,-9.743590609496831,-8.478761812582611,1.9056945051133631
1761915163921598500,6.032598388671875,-8.66976076977849,-7.95837249558866,1.617073231946677
1761915163931652600,6.042652587890625,-7.283931265524029,-7.615579048860073,1.2698483786419033
1761915163941706500,6.05270654296875,-7.139107199525832,-7.30798784841597,0.90074662457183
1761915163951761400,6.062761474609375,-6.2754445433318615,-6.78151541211605,0.634676498170197
1761915163961815300,6.072815185546875,-5.40392942007184,-6.242983120188117,0.4803913243329152
1761915163971869400,6.082869384765625,-4.151543340623379,-5.4748728418231005,0.5261546755876392
1761915163981923300,6.09292333984375,-2.2182816141486166,-4.481847308135032,0.6586149345751852
1761915163991977500,6.1029775390625,-0.6495476118266582,-3.349628992334008,0.9715268185853958
1761915164002032600,6.11303271484375,0.49681554918289184,-1.9207500354260205,1.1154966058418154
1761915164012086300,6.123086181640625,1.6279367173969745,-0.3130529729813337,0.8970627484273165
1761915164022140400,6.133140380859375,2.7870845411777494,1.1998457448720932,0.42943858774155375
1761915164032194300,6.1431943359375,3.9291707555204627,2.356737314158678,-0.029877160537894812
1761915164042248400,6.15324853515625,4.891693014395237,3.5204479158103466,-0.42098431885745374
1761915164052303600,6.1633037109375,5.661427679091692,4.690784073081613,-0.6566153582558035
1761915164062357500,6.173357421875,6.316313729336858,4.9096840136379,-0.8633885154277086
1761915164072411600,6.18341162109375,6.983187154495716,4.839911389231681,-0.8682927271474152
1761915164082465500,6.193465576171875,7.269099022573232,5.000004920554161,-0.8308655713550746
1761915164092519400,6.20351953125,7.355155842304229,5.1943946892321105,-0.787441001778841
1761915164102574300,6.21357421875,7.381738144281506,5.369757101356983,-0.6619286622330546
1761915164112628500,6.22362841796875,7.529870604175329,5.3474996768414975,-0.4610911056552082
1761915164122682600,6.2336826171875,7.466243058395385,5.0532519420951605,-0.2072732156485319
1761915164132736500,6.243736572265625,7.456494402319192,4.802925766661763,-0.10347169958613812
1761915164142790700,6.253790771484375,7.454796950751542,4.713202241116762,-0.05486760848015546
1761915164152845300,6.26384521484375,7.451065363007784,4.533831177872419,-0.04695391274616122
1761915164162899500,6.2738994140625,7.550726929721236,4.260779960411787,-0.025967092688381672
1761915164172953300,6.283953369140625,7.628921345514058,4.050878734347224,-0.02084215089008212
1761915164183007500,6.294007568359375,7.527788537204265,4.085559587106109,-0.17937632394134997
1761915164193062700,6.304062744140625,7.322697926291823,4.266881784418225,-0.413536231341213
1761915164203116500,6.314116455078125,6.810387870857119,4.362577370110154,-0.6909618644937873
1761915164213170400,6.32417041015625,5.829536174565553,4.456831524822116,-0.8938814149774611
1761915164223224300,6.334224365234375,4.777756838613748,4.1048482249438765,-0.7485330328442156
1761915164233278500,6.344278564453125,3.5504216137915847,3.0209283683657646,-0.3367835387893021
1761915164243333400,6.35433349609375,2.3691128116071223,1.7142922278136015,0.08996580986827611
1761915164253387500,6.364387451171875,0.8711544732540846,0.9422487016528844,-0.043312925895303486
1761915164263441700,6.374441650390625,-0.6132113930761813,0.453994644588232,-0.6326050987236201
1761915164273495600,6.38449560546875,-2.121857714182138,0.025125088906288146,-1.3084142561405896
1761915164283549400,6.394549560546875,-4.612397934108972,-0.1618997039616108,-1.8232193432614205
1761915164293604400,6.404604248046875,-6.180934952554106,-0.5811193877667188,-2.126060426568985
1761915164303658500,6.414658447265625,-7.414522808030247,-1.4779840563386677,-2.021167096681893
1761915164313712400,6.42471240234375,-9.079096772950887,-2.45304197165966,-1.5801067524686454
1761915164323766500,6.4347666015625,-10.69911204969883,-2.7516870645821094,-1.5690170570470392
1761915164333820400,6.4448203125,-12.23352526474595,-2.850984474158287,-1.8167770352542398
1761915164343875300,6.454875244140625,-14.018679665768145,-3.7113814065545796,-1.6163827654644847
1761915164353929500,6.464929443359375,-15.553666881310939,-4.840105450499057,-1.0311165602166206
1761915164363983400,6.4749833984375,-16.105528025889395,-6.0481204733014104,-0.29693083635047074
1761915164374037500,6.48503759765625,-15.915383055174349,-6.9729200275033705,0.3522529105998575
1761915164384091400,6.49509130859375,-14.3146266056478,-7.60726539402306,0.4986394036091864
1761915164394146600,6.505146484375,-12.049344755393266,-7.946477475133538,0.2385608457725495
1761915164404200400,6.515200439453125,-10.38769281539917,-8.412341421213746,-0.010423340467363595
1761915164414254300,6.52525439453125,-8.712834187829493,-8.726626566338538,-0.06630308513212949
1761915164424308500,6.53530859375,-7.05190471689105,-8.500797118780016,-0.07372691498994827
1761915164434362400,6.5453623046875,-5.456393766802549,-7.872716657873988,0.282353079617396
1761915164444417500,6.55541748046875,-3.705669458648562,-7.024310607522725,0.8145420669332146
1761915164454471400,6.565471435546875,-1.9792384647518395,-5.849196568325161,1.1687865897417067
1761915164464525600,6.575525634765625,-0.30463351968228813,-4.232720571619272,1.2777439541973172
1761915164474579500,6.585579345703125,1.077624555826187,-2.5470003582954406,0.9363868969473987
1761915164484634400,6.59563427734375,2.126470176413655,-1.2838713510364292,0.28851160224713385
1761915164494688500,6.6056884765625,3.1256857969135043,-0.14006430425047875,-0.6030955841880291
1761915164504742400,6.615742431640625,4.199841799846292,1.2471616227984428,-1.699413807633519
1761915164514796500,6.625796630859375,5.273474071165919,2.4271716173440216,-2.6050673473387955
1761915164524850400,6.635850341796875,5.994179039755463,3.37748905916214,-3.034370033740997
1761915164534905300,6.6459052734375,6.374770594480633,4.335760090333223,-3.039930005955696
1761915164544959500,6.65595947265625,6.542262419360876,5.190474300917983,-2.663331320258975
1761915164555013400,6.666013427734375,6.485472610646486,5.842865027216076,-2.1223463744819164
1761915164565067500,6.676067626953125,6.45275341334939,6.355504168474674,-1.6649823995910584
1761915164575121400,6.686121337890625,6.4931736865431064,6.7731982501477,-1.3271436526603997
1761915164585176600,6.696176513671875,6.616689591574668,7.052505605393648,-1.0827081427007912
1761915164595230200,6.706230224609375,6.895223624360561,7.033313998189568,-0.8027572288542986
1761915164605284000,6.7162841796875,7.13937257246375,6.701758569312095,-0.43479587699100375
1761915164615338000,6.726337890625,7.4219830609083175,6.1862272137433285,-0.12886442645266652
1761915164625392000,6.73639208984375,7.589813323962688,5.843793247976898,-0.0397100790977478
1761915164635447000,6.746447021484375,7.628094831562041,5.837165354269743,-0.13039368184655903
1761915164645501200,6.756501220703125,7.5128253613501785,6.028806116500497,-0.40688802549839015
1761915164655555000,6.76655517578125,7.444630361524224,6.111114397352933,-0.5990561726041138
1761915164665609200,6.776609130859375,7.330510061347484,5.931601879811287,-0.5804955567799508
1761915164675663000,6.7866630859375,7.201130817240476,5.694827259868383,-0.5592154528640211
1761915164685718000,6.796718017578125,6.930666693663596,5.572755123904347,-0.6185954242020845
1761915164695772200,6.806772216796875,6.680083328598737,5.371115530228614,-0.6230016963370144
1761915164705826000,6.816825927734375,6.323495749795437,4.855184946209192,-0.3858377848155796
1761915164715880200,6.826880126953125,5.467742259290814,3.896601780349016,0.22329203803539274
1761915164725935000,6.83693505859375,4.609073173600435,2.6473621822327376,0.9437214045539498
1761915164735989000,6.846989013671875,3.66180868961215,1.285274203571677,1.5039748221635818
1761915164746043000,6.85704296875,2.1995874350726603,-0.16831307813525198,1.866109075308591
1761915164756097000,6.867096923828125,0.003192074039578438,-1.4496446815609931,2.2005118564412
1761915164766151200,6.877151123046875,-2.2175497927427292,-2.4771821411818262,2.471985741582513
1761915164776206000,6.8872060546875,-4.249451341667771,-3.521573704969883,2.717083953234553
1761915164786260200,6.89726025390625,-5.480005528536439,-4.725075634261965,3.0133991419047117
1761915164796314000,6.907314208984375,-6.700975309979915,-6.021790684780478,3.7371190744012592
1761915164806368000,6.917367919921875,-7.516806539940833,-8.027091811549663,5.031044201940298
1761915164816422000,6.927421875,-8.20367704346776,-10.311669898426532,6.2291211835741995
1761915164826477000,6.93747705078125,-9.511467614752053,-11.106945831614732,6.463119324541092
1761915164836531200,6.94753125,-10.638229418712854,-10.281036275231838,5.532208009460568
1761915164846585000,6.957585205078125,-11.49272560263276,-8.89387639915645,4.309056792324781
1761915164856639200,6.96763916015625,-11.603697083389758,-7.737673981177807,3.5864226092383262
1761915164866693000,6.977693115234375,-11.233168657517432,-7.265508889126777,3.6390789714097975
1761915164876748000,6.987748046875,-10.575157168728113,-7.068371283045411,3.986793507927656
1761915164886802200,6.99780224609375,-9.855644624793529,-6.696100981941819,4.10942006290406
1761915164896856000,7.00785595703125,-8.792789183554053,-5.950249297136068,3.7663510141044854
1761915164906910200,7.01791015625,-7.159641453510522,-4.88726701464653,3.1312627202630043
1761915164916964000,7.027964111328125,-5.446029024654626,-3.6241070277273653,2.386297462902963
1761915164927019000,7.03801904296875,-3.756804602602124,-2.337195578342676,1.7121493705660105
1761915164937073000,7.048072998046875,-2.2672154486656186,-1.3204232583642006,1.2176533503718674
1761915164947127000,7.058126953125,-0.7333505151510238,-0.3703729430496692,0.749144515806064
1761915164957181000,7.068180908203125,0.7201093407839536,0.5679074394941329,0.1743856029819697
1761915164967236000,7.078236083984375,1.9878326900959014,1.4930103605568408,-0.3774558139827102
1761915164977290200,7.088290283203125,2.787412457957864,2.337577271136641,-0.822263454965502
1761915164987344100,7.09834423828125,3.312998759073019,3.1627018146216868,-1.193352656525746
1761915164997398000,7.10839794921875,3.6413135985940692,3.6879742274820804,-1.3069360002815722
1761915165007452000,7.118451904296875,3.9158775587052106,3.9995430993855,-1.39873574757874
1761915165017507000,7.128507080078125,4.1749680553525685,4.325715666180849,-1.2547960631996393
1761915165027561200,7.138561279296875,4.26485816963613,5.24298073322475,-1.2804985136024654
1761915165037615000,7.148614990234375,4.91986696947813,6.399549061906337,-1.444625976616144
1761915165047669200,7.158669189453125,5.527990684026479,6.83731737883687,-1.2922053180091082
1761915165057723100,7.16872314453125,5.985010813915729,6.899857713901996,-0.8882705162931233
1761915165067778000,7.178778076171875,6.511981262865662,7.190961889925599,-0.4971738611012697
1761915165077832000,7.18883203125,7.043730762785673,7.623387092262506,-0.1968161921072751
1761915165087886000,7.198885986328125,7.590995811745524,7.668276619824766,0.1848677974971011
1761915165097940000,7.20893994140625,7.830644525820016,7.6797548761725425,0.517526036517322
1761915165107994000,7.218994140625,8.061344209763407,7.7843094756245605,0.7772266278870403
1761915165118049000,7.229049072265625,8.208658923533559,7.700016158434749,1.0034949052542448
1761915165128103000,7.23910302734375,8.137126888239383,7.532950450012088,1.176540199543163
1761915165138157000,7.249156982421875,7.927961575233936,7.267634795239568,1.2144972244285046
1761915165148211000,7.2592109375,7.61356946260333,6.875050604903698,1.1396006811372934
1761915165158265000,7.26926513671875,6.99520960072279,6.40525048841834,0.9055600892681628
1761915165168320300,7.2793203125,6.284368439021706,5.90973842304945,0.4622758219277486
1761915165178374100,7.2893740234375,5.061938521897792,5.312181695222854,0.10656129963193088
1761915165188428300,7.29942822265625,3.8089071302831172,4.203796090430021,0.011682692878693342
1761915165198482000,7.30948193359375,3.3072271899342534,2.8299691586583853,-0.3012260493263602
1761915165208537000,7.319537109375,3.1082050852805376,1.3031021212071179,-0.6866584682114422
1761915165218591000,7.329591064453125,1.8821406110465526,-0.7245400167077779,-1.004556543136388
1761915165228645000,7.33964501953125,-0.026346155133843422,-2.0505261698961257,-1.3640344365537165
1761915165238699300,7.34969921875,-2.4805478182226417,-2.251758351814747,-2.004115424115956
1761915165248753200,7.359753173828125,-4.305331634321808,-2.525253805911541,-2.282964514200389
1761915165258808000,7.36980810546875,-5.358660537803173,-4.312726420748233,-1.4105118178293108
1761915165268862000,7.379862060546875,-6.386528252291679,-6.286054200151562,-0.30837270621061325
1761915165278916000,7.389916015625,-6.806587894052266,-7.804879385444521,0.617858415164426
1761915165288970000,7.399969970703125,-7.372874454346299,-9.536917113307117,1.4294780918449164
1761915165299024100,7.410024169921875,-8.318878709140419,-10.238608169347048,1.5950833723261952
1761915165309079300,7.420079345703125,-9.413594100499152,-10.904269880628584,1.7528776867955922
1761915165319133000,7.4301328125,-10.958460905021429,-11.567003137242793,1.8893297918982803
1761915165329187000,7.44018701171875,-11.375318535870313,-11.562035870224237,1.6169161416888236
1761915165339241000,7.450240966796875,-10.554175170975922,-11.636410435467958,1.1704729353934527
1761915165349295000,7.460295166015625,-9.833252760243415,-11.71151097689867,0.7171284252770245
1761915165359350000,7.47035009765625,-8.990852672308684,-11.071765797162055,0.15841449219435452
1761915165369404200,7.480404052734375,-8.106868528097868,-9.197095960387587,-0.7023087495468556
1761915165379458300,7.490458251953125,-6.942135013139247,-6.674767102012038,-1.6003458228990435
1761915165389512000,7.500511962890625,-5.516399614953994,-4.20724827671051,-2.1003949471756815
1761915165399567000,7.510567138671875,-4.031225939372182,-2.1108125885546207,-2.2457763547956944
1761915165409621000,7.52062109375,-2.5481436831116673,-0.4344295278966427,-2.227523782007396
1761915165419675100,7.530675048828125,-1.3399503811329603,0.9476771564424037,-2.1372566511049866
1761915165429729000,7.54072900390625,-0.027891046488285064,2.0323019464194774,-2.027797182346135
1761915165439783200,7.550783203125,1.3696774108767509,2.911929064464569,-1.8949395946040748
1761915165449838000,7.560838134765625,2.71451614857316,3.674935882210731,-1.816387159153819
1761915165459892000,7.57089208984375,4.09628030308485,4.3590176318019624,-1.7713902256943284
1761915165469946000,7.580946044921875,5.651043647721409,5.09853426836729,-1.704031822822988
1761915165480000000,7.591,6.816258224195241,5.921344689691066,-1.6214645987734198
1761915165490054100,7.60105419921875,7.436905320230126,6.513023465394974,-1.3576450277775525
1761915165500109300,7.611109375,7.6247022665143005,6.706110334780812,-0.937456133614108
1761915165510163000,7.621162841796875,7.382374104097485,6.761573863327503,-0.47993718735724683
1761915165520217000,7.631217041015625,7.095594221013784,6.556165857028961,0.031878654819726945
1761915165530271000,7.64127099609375,6.896500220167637,6.147708974778652,0.4483054930359125
1761915165540326100,7.651326171875,6.8160735152781005,5.941123741394281,0.49922947845682497
1761915165550380000,7.661380126953125,6.790970053681731,5.914036412504315,0.26101576562151313
1761915165560434200,7.67143408203125,6.752762780362367,5.818997829416394,-0.06361249434128403
1761915165570488000,7.681488037109375,6.896652195858955,5.704338015535473,-0.463436280541867
1761915165580542200,7.691542236328125,6.968994963014126,5.65264582222104,-0.6551878096707164
1761915165590596600,7.7015966796875,6.769359694898128,5.379307019990683,-0.7236318158216773
1761915165600650500,7.711650390625,6.879173822313547,5.125106633472442,-0.8625076409399509
1761915165610704600,7.72170458984375,7.2330679242491716,5.03469629470706,-1.0541823054403066
1761915165620758500,7.731758544921875,7.446271698990464,4.825262101632356,-1.2661135760277509
1761915165630812700,7.741812744140625,7.280897596916556,4.694883909615874,-1.4148342110730707
1761915165640867600,7.75186767578125,6.77957596848607,4.504610344085097,-1.5617488196097313
1761915165650921500,7.76192138671875,6.187043790823221,4.021037138313055,-1.5000976884692907
1761915165660975600,7.7719755859375,5.45103954629302,3.250374837377667,-1.230418870051205
1761915165671029500,7.782029541015625,4.4788276680529115,2.3941478841423987,-0.9652765260189771
1761915165681083600,7.792083740234375,3.023793694669008,1.2063222474098205,-0.4243547086060047
1761915165691138600,7.802138671875,1.0654314292073248,-0.19587328523397446,0.2822033689484
1761915165701192700,7.812192626953125,-1.2650900781989096,-1.2402835537225008,0.6740665515333414
1761915165711246800,7.822246826171875,-2.9693069021999836,-2.003752728283405,0.665898442646861
1761915165721300500,7.832300537109375,-4.029378265678883,-2.8267098646014928,0.47219051875323054
1761915165731355600,7.842355712890625,-4.841597734883427,-4.212742782473564,1.0704548103272915
1761915165741409500,7.852409423828125,-5.465967066311836,-6.4952428940325975,2.917483191460371
1761915165751463700,7.862463623046875,-7.096345916163921,-9.082105307117104,5.547793701127171
1761915165761517600,7.872517578125,-8.971426671826839,-11.14225212279558,7.75540311461389
1761915165771571700,7.88257177734375,-10.799469781982898,-11.505064859724044,8.353288928264378
1761915165781626600,7.892626708984375,-12.045317399573326,-10.223878217726945,7.348451376229524
1761915165791680500,7.902680419921875,-12.76846216253042,-8.610644563943147,6.224468973854184
1761915165801734700,7.912734619140625,-12.819407921391726,-7.396846281564235,5.1159617885082955
1761915165811788500,7.92278857421875,-11.91099076219201,-6.727174750119447,4.002010074020922
1761915165821842700,7.9328427734375,-10.92559440820813,-6.3127610052913425,3.1431887203782796
1761915165831897900,7.94289794921875,-10.074919828402995,-5.971533492705226,2.7368916465103625
1761915165841951500,7.952951416015625,-9.031577481406927,-5.348294626611471,2.5058935641422866
1761915165852005600,7.963005615234375,-7.564369086104631,-4.264879212424159,2.304179151664674
1761915165862059500,7.9730595703125,-5.362111555039882,-3.2067461235314605,2.173440309642255
1761915165872114700,7.98311474609375,-3.0214450857162474,-2.082667275044322,2.2522895360819994
1761915165882168600,7.99316845703125,-0.7902227414518594,-1.0013824431449174,2.4729893656671047
1761915165892222700,8.00322265625,1.3713093959927558,-0.16539456034004688,2.6011393602401016
1761915165902275600,8.013275634765625,3.3285347663789984,0.9162778095722198,2.3846385897800326
1761915165912329700,8.023329833984375,4.765844867023826,2.2138421703964473,2.008195971427858
1761915165922383600,8.033383544921875,5.995168635314703,3.1829151660889385,1.6298006115727126
1761915165932437800,8.043437744140626,7.1606088372379535,3.506903374582529,1.4643753638334571
1761915165942491600,8.05349169921875,7.502208105745911,3.5494802412882445,1.6057983892165124
1761915165952546600,8.063546630859374,7.475002118912339,3.7104488018795845,1.72383425540179
1761915165962600700,8.0736005859375,7.49267922990024,4.0872915254652495,1.4963941577762365
1761915165972654600,8.083654541015624,7.653124058878421,4.559621744950116,1.1592927852094173
1761915165982708700,8.093708740234375,7.94876646285355,4.750552605345845,1.082553098269552
1761915165992763400,8.103763427734375,8.20999923222661,4.709328906814754,1.2023328855127096
1761915166002817500,8.113817626953125,8.526088796424865,4.5741894917458295,1.373264475583285
1761915166012871700,8.12387158203125,8.845074082064627,4.48734269068092,1.5647531159922479
1761915166022925600,8.133925537109375,8.845838052174448,4.513971462148428,1.6998215116515754
1761915166032979700,8.143979736328125,8.864698819988966,4.715635605743527,1.6801599488481878
1761915166043034600,8.15403466796875,8.691513167381286,4.876611180597544,1.6476371509060264
1761915166053088800,8.1640888671875,8.473446170517802,4.824548400405049,1.4767232426226138
1761915166063142700,8.174142578125,8.167426749435066,4.684224860696494,1.1422856093723326
1761915166073196500,8.184196533203124,7.7537103392213576,4.567409037825465,0.4525660000246018
1761915166083250400,8.19425048828125,7.011226085022091,4.418271784803271,-0.3153228176094591
1761915166093305600,8.2043056640625,5.465170947498083,3.795620947730541,-0.5289156282009556
1761915166103359700,8.21435986328125,2.917549826955795,3.197202634638548,-0.6285616685517131
1761915166113413600,8.22441357421875,0.6615449236124754,2.551016608199477,-0.998996132530272
1761915166123467800,8.2344677734375,-0.6794108351707459,1.5025807374566793,-1.622887325052917
1761915166133522400,8.2445224609375,-2.2285767981916664,0.10996259597539901,-2.2163560529135165
1761915166143576600,8.25457666015625,-3.44737040463984,-1.3286281921297312,-3.0763612095132467
1761915166153630700,8.264630615234376,-4.30834952083826,-2.222311308056116,-4.2627655812710525
1761915166163684600,8.2746845703125,-5.462482731327414,-2.42385445562005,-5.4099014802187675
1761915166173738800,8.28473876953125,-7.201599603796005,-2.252306048825383,-6.334549643251299
1761915166183793700,8.294793701171875,-9.299660847327113,-1.8089181384474038,-6.840061124587058
1761915166193847600,8.30484765625,-10.912978087741136,-1.3076000171482562,-6.844341578385233
1761915166203901400,8.3149013671875,-12.044017422890663,-1.5324848773330448,-6.0433133652806275
1761915166213955600,8.32495556640625,-13.153221358329057,-2.1271318551927805,-5.030265618783235
1761915166224009500,8.335009521484375,-13.688999967634677,-2.7785522751539946,-4.394835087375343
1761915166234064600,8.345064697265625,-13.128013267314433,-3.9935470738410945,-3.89140947240293
1761915166244118800,8.355118896484376,-12.017400634121895,-5.393253712278605,-3.615690497037768
1761915166254172700,8.365172607421876,-10.329710582029819,-6.5810220658659935,-3.5888971826583145
1761915166264226600,8.3752265625,-8.334445696106553,-7.416992997536063,-3.781584823593497
1761915166274281700,8.38528173828125,-6.356916373360157,-7.285036011895537,-4.239185968241095
1761915166284335600,8.395335693359375,-4.435980459973216,-6.491786031576991,-4.546436684684455
1761915166294389800,8.4053896484375,-3.208252436441183,-5.628437263637781,-4.406278564670682
1761915166304443600,8.415443603515625,-2.5445126331329346,-4.16862482380569,-3.825770586800575
1761915166314497800,8.425497802734375,-1.7249673510849475,-2.372999882173538,-2.9510297794923184
1761915166324552400,8.435552490234375,-1.181699262806773,-0.5220049354970455,-1.8782421423032878
1761915166334606600,8.445606689453125,-0.9515957911908626,0.9676239659279584,-0.7666375754639506
1761915166344660500,8.455660400390625,-0.02205751802921295,1.8948323348373173,0.11458112262152134
1761915166354714600,8.465714599609376,1.4294254848748444,2.475297642609477,0.7088781910650431
1761915166364768800,8.475768798828126,2.75291631411612,2.8621228310272095,1.0394332107283175
1761915166374823700,8.48582373046875,3.8111423419892785,3.0838369522213935,1.1308189703971148
1761915166384877600,8.495877685546875,4.746842644912004,3.3532506899625063,0.8695069252427667
1761915166394931500,8.505931396484375,5.461048899132013,3.939608855165541,0.3494199156636372
1761915166404985600,8.515985595703125,5.619681125730276,4.402351454354823,0.08916042090267874
1761915166415040800,8.526040771484375,5.967829962012171,4.586640977039933,0.031373189515620466
1761915166425094700,8.5360947265625,6.253647722065448,4.460519857946038,0.2689478737950325
1761915166435148800,8.546148681640625,6.153896723502874,4.191262479810416,0.6678807025052607
1761915166445202700,8.55620263671875,6.064173197957873,3.973184377031028,0.9644833298146724
1761915166455256600,8.566256591796876,6.257589737689495,3.8348166475653644,1.1401081922680139
1761915166465311500,8.5763115234375,6.590833265784382,3.7477076884329317,1.246100861699134
1761915166475365600,8.58636572265625,6.825889391371607,3.8075843572467565,1.3125837969101966
1761915166485421600,8.596421630859375,6.830040081310272,3.8543887785196302,1.2384417252480984
1761915166495475500,8.606475341796875,7.007939318436383,3.885518076276779,0.9398063500020652
1761915166505529600,8.616529541015625,7.3333449925124645,3.837087515106797,0.6951683762729167
1761915166515583500,8.62658349609375,7.311478028619289,3.6792917393326756,0.5183406408358365
1761915166525637600,8.6366376953125,6.9896998973906035,3.576341067945957,0.3880769055118784
1761915166535692800,8.64669287109375,6.802424344632029,3.375673534172773,0.31756076926197857
1761915166545746700,8.65674658203125,6.363244407337904,2.8345208306133745,0.563729861548543
1761915166555800600,8.666800537109374,5.4128112301856275,2.3427432755976914,0.801797370846197
1761915166565854500,8.6768544921875,4.256618749079108,2.030769914546609,0.9667052436478435
1761915166575909600,8.68690966796875,3.3419179795652627,1.4917109683960674,1.1102143545899539
1761915166585963800,8.6969638671875,1.9255016138672827,0.9865449394971132,1.2749281661242247
1761915166596017700,8.707017578125,0.06623217532038689,0.430780942261219,1.4225002156563102
1761915166606071800,8.71707177734375,-1.7166197939783334,0.2655833657979965,1.277554569105059
1761915166616125700,8.727125732421875,-3.32545492054224,0.2290542548239231,1.1907833905596286
1761915166626180600,8.7371806640625,-4.37690750875771,-0.7927794401973486,1.6106158725008368
1761915166636234800,8.74723486328125,-5.282920529425144,-2.3715905998975035,2.464657590651512
1761915166646288600,8.75728857421875,-6.833430892792344,-3.374173066481948,3.032384120620787
1761915166656342800,8.7673427734375,-8.402201135471463,-3.8274312134891746,3.3005513654321432
1761915166666397700,8.777397705078124,-10.056270072990655,-4.49046725244224,3.3607162035375833
1761915166676451600,8.78745166015625,-11.787538570046424,-5.135892231380939,3.1820199708148835
1761915166686505700,8.797505615234375,-12.748278621679544,-5.348603254169225,2.187120167687535
1761915166696559600,8.8075595703125,-12.280399244123696,-5.890272090557217,1.2148453802790493
1761915166706613800,8.81761376953125,-11.480153705829382,-6.860127761059999,1.020156044132635
1761915166716668700,8.827668701171875,-10.574645127552747,-6.996264078211784,0.8444632310096174
1761915166726722800,8.837722900390625,-9.160962570732831,-6.460210159096121,0.5265261027159169
1761915166736776700,8.847776611328126,-7.78086196551919,-6.118482880294323,0.5195930520497262
1761915166746830600,8.85783056640625,-6.147684424859285,-5.846380341860652,0.48161746859438714
1761915166756884700,8.867884765625,-4.259902593055367,-5.310065141460299,0.42022440386824306
1761915166766939600,8.877939697265624,-2.5401065071284767,-4.682558681049943,0.5234965622942894
1761915166776993800,8.887993896484375,-1.223411913898587,-4.096911586725712,0.5383301204193384
1761915166787047700,8.898047607421875,-0.1392722770899534,-3.2608857099980115,0.19584807772748172
1761915166797101800,8.908101806640625,0.8792857572615146,-2.225584922899306,-0.7496350027367472
1761915166807156700,8.91815673828125,1.7545283766120672,-1.1752052246123552,-1.830637802824378
1761915166817210600,8.928210693359375,2.3658108474522828,-0.13200433191359043,-2.607938226599991
1761915166827264800,8.9382646484375,2.5203940909206866,0.7830877750054002,-2.960786326614022
1761915166837318700,8.948318603515625,2.8671190318793056,1.5014689768224954,-2.9439725544571873
1761915166847372800,8.958372802734376,3.356156348276138,2.1896426719024777,-2.726157194267213
1761915166857427700,8.968427734375,3.824892050400376,2.8911294375419616,-2.345116872861236
1761915166867481600,8.978481689453124,4.239055619859696,3.338182007907331,-1.7056974179476498
1761915166877535700,8.98853564453125,4.745360297399759,3.4578374381184576,-0.9520461653068661
1761915166887589600,8.998589599609375,5.427077071425319,3.5277135228991505,-0.27990970505326984
1761915166897644800,9.008644775390625,6.07098696962595,3.5026018779963253,0.374109243501164
1761915166907698700,9.01869873046875,6.473103542938828,3.496154601553082,0.8839348251763731
1761915166917752800,9.0287529296875,7.0270952698051925,3.4078201922789213,1.2568893822170792
1761915166927806700,9.038806640625,7.723484127783775,3.337918680796027,1.4187035998523234
1761915166937860600,9.048860595703125,8.453965809500216,3.2423978671491143,1.3671397090926765
1761915166947915800,9.058915771484376,8.894448646086454,3.2853689938694237,1.2049785777159034
1761915166957969700,9.0689697265625,8.976680354571341,3.390336265775561,1.0832715487372129
1761915166968023800,9.07902392578125,8.961572217288612,3.4860417883396146,0.8858888818535954
1761915166978077700,9.08907763671875,8.800258204260468,3.605823767539859,0.5531978730749338
1761915166988131800,9.0991318359375,8.252515016394852,3.614901977008581,0.29680490841586143
1761915166998186800,9.109186767578125,7.382408590888977,3.5339579702466724,0.2196686233738437
1761915167008240600,9.11924072265625,6.303540757003426,3.2822008852273226,0.35465354200080035
1761915167018294800,9.129294677734375,5.056313083231449,2.8883675716131925,0.5815218676203862
1761915167028348700,9.1393486328125,3.9033857414007183,2.122662016302347,0.9702478846907615
1761915167038403800,9.14940380859375,2.9652783773362636,1.0090805964320897,1.2508981789782643
1761915167048457700,9.159457763671876,1.5267711758613585,0.2624076583713293,1.1270573528412728
1761915167058511600,9.16951171875,-0.18229133460521696,-0.6693243254423141,0.8785118502795696
1761915167068565500,9.1795654296875,-2.0614333483576774,-1.7507547032922506,0.5160312313823029
1761915167078619600,9.18961962890625,-3.6347236988097427,-2.255452530157566,-0.43514911087546493
1761915167088674800,9.1996748046875,-4.767785479697585,-2.265821948480606,-1.785207884775102
1761915167098728700,9.209728759765625,-5.768851696500182,-2.9309698650211096,-2.606356510366499
1761915167108782800,9.219782958984375,-6.699422819840907,-3.7774773882746695,-2.706856865991652
1761915167118836700,9.229836669921875,-7.442894916033745,-4.438654647618532,-1.98307453578338
1761915167128891600,9.2398916015625,-9.107278326818346,-6.055305416369438,-0.3113886199656874
1761915167138945800,9.24994580078125,-11.59343872422576,-7.037894311717152,0.5519299354983493
1761915167148999700,9.259999755859376,-12.690707891720532,-6.667569883984327,-0.12436874073492363
1761915167159053800,9.2700537109375,-12.967728012812136,-6.404213546586036,-1.175725010702759
1761915167169107700,9.280107666015626,-12.658852617776393,-6.221579097631573,-1.8048894674532114
1761915167179162600,9.29016259765625,-11.244776093202828,-5.494565968808532,-2.314162054888159
1761915167189216500,9.300216552734375,-9.01079422109723,-4.637115611258149,-2.6307877717897292
1761915167199270700,9.310270751953125,-7.0469058856904505,-4.204859043486416,-2.3891180732816455
1761915167209324500,9.320324462890625,-5.253544212815165,-3.8082290848910807,-1.8591621787801385
1761915167219378700,9.330378662109375,-3.4070500846892595,-3.085669720606506,-1.2266845058284699
1761915167229433900,9.340433837890625,-2.2306214557617903,-2.287838842238486,-0.5092249489009381
1761915167239487700,9.35048779296875,-0.8646440684467553,-1.5034890844732522,0.05192163642244413
1761915167249541600,9.360541748046876,0.2971218288779259,-1.0547592285454273,0.43765360450968144
1761915167259595500,9.370595458984376,0.3947995282977819,-0.810910140171647,0.4547929918916896
1761915167269650700,9.380650634765624,0.33463176758289337,-0.04871142393797636,-0.40594066164568066
1761915167279704800,9.390704833984374,0.4384533765852451,0.7899743196487427,-1.371388160317391
1761915167289758700,9.4007587890625,0.8692483473718166,1.1317629732489585,-1.8964196040287613
1761915167299812900,9.410812744140625,1.4137123674362897,1.5888982539504766,-2.20073514380306
1761915167309866800,9.42086669921875,2.2186200523227453,1.9420912218794226,-2.1565448505513367
1761915167319921700,9.430921630859375,3.254180074879527,2.1382176050916315,-1.765494591784477
1761915167329975600,9.4409755859375,4.369090697526931,2.182185633894801,-1.204116846320033
1761915167340029700,9.45102978515625,5.513645347809791,2.119854849927127,-0.5448155003832653
1761915167350083600,9.46108349609375,6.592905395883322,2.2076661121100187,-0.059787456160411236
1761915167360138800,9.471138671875,7.47951345885694,2.712948168604076,0.06115421446897089
1761915167370192600,9.481192626953124,8.262882681152224,3.1895082807436586,0.06230469967834651
1761915167380246500,9.49124658203125,8.700959625640511,3.442383263877034,0.13989223561920225
1761915167390300700,9.50130078125,8.825964892446994,3.5671187738314267,0.1690969950545579
1761915167400354600,9.5113544921875,8.730788362193108,3.651823594431579,0.24445794098712503
1761915167410409700,9.52140966796875,8.450311378645896,3.59272872364521,0.315485314694792
1761915167420463900,9.5314638671875,8.110189781475066,3.611606442594528,0.3459068295087665
1761915167430517800,9.541517822265625,7.79430772254765,3.763524266245961,0.23125256858579812
1761915167440572000,9.551572021484375,7.615735700726509,3.9026445676445958,0.015483400335907935
1761915167450626600,9.56162646484375,7.151573297867179,4.080306488883495,-0.09473945401087402
1761915167460680700,9.5716806640625,6.206940915948152,4.2862972635060546,-0.19227628365531563
1761915167470734600,9.581734619140626,5.3868192953169345,4.33382766096592,-0.20700009779557585
1761915167480788700,9.591788818359374,4.678974392822385,3.981481957516074,-0.19561404977589844
1761915167490843000,9.6018427734375,4.162308480265736,3.0467461157113314,-0.09967230730317532
1761915167500897500,9.6118974609375,3.3089614663809535,1.5207050076901911,0.17635251914076505
1761915167510951700,9.62195166015625,1.4025398160368203,0.0067144029468297955,0.65434894769378
1761915167521005600,9.632005615234375,-0.8398854747653007,-1.3899614894926546,1.0090643028844148
1761915167531059700,9.642059814453125,-3.487253502216935,-2.412251111587882,0.8816970561869442
1761915167541113600,9.652113525390625,-5.359911414647102,-2.8082816429853437,0.03351801952458918
1761915167551168800,9.662168701171876,-6.0515790893226855,-3.3932138670384884,-0.6486612574461847
1761915167561223000,9.672222900390626,-6.493031647723913,-5.342709519955515,-0.1060024601727724
1761915167571276500,9.682276611328126,-7.5402359308451405,-7.66304807152152,1.1902772676683961
1761915167581330700,9.69233056640625,-8.90872500872016,-9.124909845098852,2.348499647167325
1761915167591386000,9.70238623046875,-10.55915997365117,-8.775053620377182,2.6764135046720505
1761915167601440300,9.712440185546875,-11.97190145022869,-7.517602658754587,2.6850685202926394
1761915167611494100,9.722494140625,-13.637096761918068,-5.946038401442766,2.457194122903049
1761915167621548300,9.73254833984375,-14.20714705865979,-4.544284182825685,1.7873671086356042
1761915167631602200,9.742602294921875,-13.263704178786277,-3.6185400412499904,1.201077040232718
1761915167641657000,9.752656982421875,-12.214356453895569,-3.251816268357634,0.8471642335966229
1761915167651711000,9.7627109375,-10.779444062042236,-2.8606939672678706,0.22579543569106608
1761915167661765000,9.77276513671875,-8.292773377025126,-1.7294766452029346,-0.7898996469773352
1761915167671819000,9.782819091796876,-5.399298837661743,-0.4630243387401104,-1.5571673370383678
1761915167681874000,9.7928740234375,-2.514089437818527,0.27439970946013925,-1.7564742499828339
1761915167691928000,9.802927978515624,0.3260667683333158,1.0919897657871245,-1.5749202897414565
1761915167701982000,9.81298193359375,2.784088281971216,2.114968539190292,-1.1911128417097032
1761915167712036000,9.8230361328125,4.8172214185178275,2.5592887619823217,-0.6174000769376754
1761915167722090000,9.833090087890625,6.168731889063119,2.9571991157770157,-0.2664339547453448
1761915167732145200,9.843145263671875,7.552468220430612,3.3442888003498314,-0.2339183171963319
1761915167742199300,9.85319921875,8.755042513483762,3.3246056102365253,-0.2838105118840933
1761915167752253000,9.8632529296875,9.16710121961832,3.4875299810707565,-0.2624737824101001
1761915167762307000,9.87330712890625,9.328818552750349,3.72587111967802,-0.3580248450648039
1761915167772362000,9.883362060546874,9.193393598738313,3.8673219098508356,-0.40541598018445074
1761915167782416100,9.893416015625,8.761512586280704,3.51003465834558,-0.3021339579515159
1761915167792470000,9.903469970703124,8.304117777860164,3.33640243101418,-0.1435750888504088
1761915167802524200,9.913524169921875,8.202734209659695,4.209961042800545,-0.2510579237740487
1761915167812578300,9.923578369140625,7.65325732986927,4.597759752425551,-0.17383754064515233
1761915167822633000,9.933633056640625,6.74923285267055,5.067083483570814,-0.13243454002439975
1761915167832687000,9.94368701171875,6.298177768665552,5.318255462178588,0.01577500369362533
1761915167842741000,9.953740966796875,6.222693780875206,5.017257084128261,0.10821279316600411
1761915167852795100,9.963795166015625,6.049615095773339,4.493271203947067,-0.04910407651737332
1761915167862850300,9.973850341796876,5.440346887364983,4.060582382237911,-0.3264118189113214
1761915167872904000,9.983904052734376,4.211515286505222,3.7466789299070835,-0.4283628117362037
1761915167882958000,9.9939580078125,3.224154938971996,3.373346552529931,-0.167503149991855
1761915167893012000,10.004011962890624,2.4335312155038116,2.5983810014426707,0.5142721492879092
1761915167903066000,10.014066162109375,2.1160066500663754,1.3337433431863783,1.3130555060751736
1761915167913121000,10.02412109375,4.249354895555973,0.7178244447171688,1.2578542817264795
1761915167923175200,10.034175048828125,-0.04077449345886707,-2.6155063237667084,0.5157194620193913
1761915167933229000,10.04422900390625,-5.573133309566974,-5.290784686928987,0.2722339462609962
1761915167943283200,10.054283203125,-5.101830387303233,-5.059260242599248,-0.5392147577667609
1761915167953338000,10.064338134765626,-4.8289954429417845,-3.294288797906041,-2.237719889590144
1761915167963392000,10.07439208984375,-6.825085673773288,-2.548426007184386,-2.685000715753436
1761915167973446100,10.084446044921876,-8.854101438128948,-3.417345268732309,-2.006815330724418
1761915167983500000,10.0945,-9.916743528878689,-4.025498209375143,-1.5124384068652987
1761915167993554200,10.10455419921875,-8.793387149447202,-4.094482898274064,-0.4501224793300032
1761915168003609000,10.114609130859375,-8.109705797350406,-3.253846312880516,0.5891087790854275
1761915168013663000,10.1246630859375,-8.103683468320964,-2.5407290229409933,0.9560860883474349
1761915168023717000,10.134717041015625,-7.271160046756267,-2.991142886433005,0.9682153559498489
1761915168033771000,10.14477099609375,-6.824690536975861,-3.5680630689442157,0.8810038862910121
1761915168043825200,10.1548251953125,-6.576419540506601,-3.67301689684689,1.0935207747466862
1761915168053880000,10.164880126953125,-5.857374614083767,-3.6206396438777446,0.9960257384173572
1761915168063934200,10.174934326171876,-4.505878756585717,-3.5490777979671955,0.4395538121078163
1761915168073988000,10.184988037109376,-3.163941001027822,-3.234414467179775,-0.30524847324285653
1761915168084042000,10.1950419921875,-1.7463269499778746,-2.3222686428457497,-0.9342102835606783
1761915168094097200,10.20509716796875,-0.34220015701055523,-0.45895139021277426,-1.115386277335137
1761915168104151000,10.215151123046875,0.9783329914689064,1.570014397521317,-0.9278638371434063
1761915168114205200,10.225205078125,1.4404197570979593,2.4213740369811654,-0.48570459177754816
1761915168124259000,10.235259033203125,0.9986357747852802,2.3458915104955436,0.2277189145669341
1761915168134313200,10.245313232421875,1.1758557974755763,2.451574237194657,0.6391008174184709
1761915168144368000,10.2553681640625,1.435562380194664,2.973480096231401,0.721282622347027
1761915168154422000,10.265422119140625,1.6174176614701747,3.2364313599601386,0.47145139082372184
1761915168164476200,10.27547607421875,2.164195803695917,3.1512060226172207,0.2851310929633677
1761915168174530000,10.285530029296876,3.0632302175223827,3.013735826513171,0.07135945520624518
1761915168184585200,10.295585205078124,4.108609038782119,3.0092490364879367,-0.3132167852409184
1761915168194638800,10.305638916015624,4.54395685056746,3.1377655262857673,-0.3860442671731114
1761915168204693000,10.31569287109375,4.016340504929423,2.6602292625904083,-0.20862010021284222
1761915168214747100,10.3257470703125,4.3589118333399295,1.9225445176273583,-0.25708587882667777
1761915168224801000,10.335801025390625,4.006895215713977,1.5917758552134036,-0.13514233767837286
1761915168234856200,10.345856201171875,3.8351673606991765,1.2400193498283625,-0.0750968881689012
1761915168244910000,10.35591015625,3.600840133908391,0.8489987555474042,-0.0531666497811675
1761915168254964200,10.365964111328125,3.5885651742249727,0.08907470624744891,-0.16019143873900174
1761915168265018000,10.37601806640625,3.568162437665462,-0.3974795611619949,-0.3541083292081952
1761915168275073000,10.386072998046876,2.951534514144063,-0.060469958531856535,-0.4038252769269049
