time,seconds_elapsed,z,y,x
1761915157967005400,0.07800537109375,-0.53826904296875,-0.475067138671875,0.0303497314453125
1761915157977059300,0.088059326171875,-0.593902587890625,-0.4907073974609375,0.011932373046875
1761915157987113500,0.098113525390625,-0.7337188720703125,-0.51849365234375,0.0365447998046875
1761915157997168600,0.108168701171875,-0.9012908935546875,-0.595672607421875,0.100982666015625
1761915158007222500,0.118222412109375,-1.026885986328125,-0.715606689453125,0.18829345703125
1761915158017276400,0.1282763671875,-0.9845428466796875,-0.8138427734375,0.2315673828125
1761915158027330300,0.138330322265625,-1.110198974609375,-0.8246307373046875,0.20916748046875
1761915158037384400,0.148384521484375,-1.380767822265625,-0.9484405517578125,0.33203125
1761915158047438300,0.158438232421875,-1.3756256103515625,-1.1031646728515625,0.273162841796875
1761915158057493500,0.168493408203125,-1.4540557861328125,-1.15179443359375,0.1181488037109375
1761915158067547600,0.178547607421875,-1.569183349609375,-1.160125732421875,0.0348358154296875
1761915158077601500,0.1886015625,-1.697906494140625,-1.15472412109375,0.0720062255859375
1761915158087655400,0.198655517578125,-1.7254791259765625,-1.10650634765625,0.150970458984375
1761915158097709300,0.208709228515625,-1.717041015625,-1.109130859375,0.233245849609375
1761915158107764500,0.218764404296875,-1.70623779296875,-1.182586669921875,0.26715087890625
1761915158117818400,0.228818359375,-1.6805419921875,-1.242645263671875,0.259796142578125
1761915158127872500,0.23887255859375,-1.6423187255859375,-1.233001708984375,0.26458740234375
1761915158137926400,0.248926513671875,-1.4890594482421875,-1.132232666015625,0.3081207275390625
1761915158147980500,0.25898046875,-1.2736663818359375,-1.099456787109375,0.3202667236328125
1761915158158035500,0.269035400390625,-1.2257232666015625,-1.191680908203125,0.40252685546875
1761915158168089300,0.27908935546875,-1.155731201171875,-1.2589874267578125,0.512481689453125
1761915158178143500,0.2891435546875,-1.08111572265625,-1.21270751953125,0.5100860595703125
1761915158188197400,0.299197265625,-0.8690338134765625,-1.024871826171875,0.400299072265625
1761915158198251500,0.30925146484375,-0.6100616455078125,-0.824493408203125,0.2837371826171875
1761915158208306400,0.319306396484375,-0.463836669921875,-0.5712127685546875,0.183013916015625
1761915158218360300,0.3293603515625,-0.45684814453125,-0.3592071533203125,0.0908355712890625
1761915158228414500,0.33941455078125,-0.4697113037109375,-0.2246856689453125,0.0531158447265625
1761915158238468400,0.34946826171875,-0.4500732421875,-0.142913818359375,0.0000457763671875
1761915158248522500,0.3595224609375,-0.4362335205078125,-0.077911376953125,-0.01690673828125
1761915158258576400,0.369576416015625,-0.3777618408203125,-0.0376434326171875,-0.06744384765625
1761915158268631600,0.379631591796875,-0.2866668701171875,0.004180908203125,-0.1231536865234375
1761915158278685700,0.389685791015625,-0.21612548828125,0.0361480712890625,-0.1341094970703125
1761915158288739300,0.3997392578125,-0.149078369140625,0.0525970458984375,-0.0800628662109375
1761915158298793500,0.40979345703125,-0.109954833984375,0.005401611328125,0.001708984375
1761915158308848400,0.419848388671875,-0.1048126220703125,-0.0635833740234375,0.0562744140625
1761915158318902500,0.429902587890625,-0.1068267822265625,-0.08697509765625,0.082550048828125
1761915158328956400,0.439956298828125,-0.0948486328125,-0.09014892578125,0.0794525146484375
1761915158339010600,0.450010498046875,-0.0776824951171875,-0.097625732421875,0.0547637939453125
1761915158349064400,0.460064453125,-0.0768585205078125,-0.110504150390625,0.0443115234375
1761915158359118300,0.470118408203125,-0.09625244140625,-0.120574951171875,0.050933837890625
1761915158369173500,0.480173583984375,-0.107269287109375,-0.127410888671875,0.068389892578125
1761915158379227400,0.490227294921875,-0.082855224609375,-0.132568359375,0.0668182373046875
1761915158389281500,0.500281494140625,-0.084136962890625,-0.1291046142578125,0.0604705810546875
1761915158399335400,0.51033544921875,-0.084625244140625,-0.1342926025390625,0.06451416015625
1761915158409389600,0.5203896484375,-0.082183837890625,-0.1500091552734375,0.074249267578125
1761915158419444500,0.530444580078125,-0.0933837890625,-0.1548919677734375,0.0813446044921875
1761915158429498400,0.540498291015625,-0.1163330078125,-0.154022216796875,0.0988006591796875
1761915158439552500,0.550552490234375,-0.1421051025390625,-0.15472412109375,0.1175994873046875
1761915158449606400,0.5606064453125,-0.1357574462890625,-0.1629638671875,0.1189117431640625
1761915158459660500,0.57066064453125,-0.1335296630859375,-0.1672210693359375,0.1116485595703125
1761915158469715500,0.580715576171875,-0.1802215576171875,-0.168609619140625,0.102294921875
1761915158479769300,0.590769287109375,-0.2489471435546875,-0.1820068359375,0.11810302734375
1761915158489823200,0.6008232421875,-0.3348541259765625,-0.23565673828125,0.143768310546875
1761915158499877400,0.61087744140625,-0.4039306640625,-0.3890228271484375,0.187835693359375
1761915158509931500,0.620931640625,-0.500030517578125,-0.589019775390625,0.2528228759765625
1761915158519986400,0.630986328125,-0.7207489013671875,-0.738189697265625,0.261474609375
1761915158530040600,0.64104052734375,-1.017059326171875,-0.781646728515625,0.15087890625
1761915158540094500,0.651094482421875,-1.294952392578125,-0.76885986328125,0.005035400390625
1761915158550148600,0.661148681640625,-1.399017333984375,-0.877349853515625,-0.105499267578125
1761915158560202200,0.6712021484375,-1.4329681396484375,-1.0974273681640625,-0.117919921875
1761915158570257400,0.68125732421875,-1.5457611083984375,-1.3079376220703125,-0.0503082275390625
1761915158580306400,0.691306396484375,-1.7696990966796875,-1.43878173828125,0.042449951171875
1761915158590360600,0.701360595703125,-2.020904541015625,-1.468841552734375,0.0970306396484375
1761915158600414500,0.71141455078125,-2.148590087890625,-1.467132568359375,0.115509033203125
1761915158610468600,0.721468505859375,-2.2054443359375,-1.441253662109375,0.121490478515625
1761915158620522800,0.731522705078125,-2.237213134765625,-1.4459228515625,0.1465911865234375
1761915158630577700,0.74157763671875,-2.19146728515625,-1.415985107421875,0.178558349609375
1761915158640631600,0.751631591796875,-2.092681884765625,-1.375762939453125,0.2459259033203125
1761915158650685400,0.761685546875,-1.9642181396484375,-1.4189910888671875,0.3612823486328125
1761915158660739600,0.771739501953125,-1.7960662841796875,-1.4874267578125,0.46630859375
1761915158670793500,0.78179345703125,-1.6599884033203125,-1.4753570556640625,0.5023040771484375
1761915158680848600,0.7918486328125,-1.5282135009765625,-1.3900146484375,0.487213134765625
1761915158690902800,0.80190283203125,-1.3656463623046875,-1.2837677001953125,0.4454803466796875
1761915158700956700,0.811956787109375,-1.1893463134765625,-1.1429595947265625,0.37261962890625
1761915158711010800,0.8220107421875,-1.001495361328125,-0.9714202880859375,0.259552001953125
1761915158721064400,0.832064453125,-0.80157470703125,-0.789398193359375,0.1076812744140625
1761915158731119600,0.84211962890625,-0.618438720703125,-0.58685302734375,-0.0378265380859375
1761915158741173800,0.852173828125,-0.4828948974609375,-0.4317779541015625,-0.11920166015625
1761915158751227600,0.8622275390625,-0.3945770263671875,-0.30120849609375,-0.167144775390625
1761915158761281800,0.87228173828125,-0.3285369873046875,-0.175567626953125,-0.184478759765625
1761915158771335700,0.882335693359375,-0.2861480712890625,-0.0777435302734375,-0.166046142578125
1761915158781390600,0.892390625,-0.2425689697265625,-0.0235443115234375,-0.093231201171875
1761915158791444500,0.902444580078125,-0.21136474609375,-0.0244598388671875,0.0099334716796875
1761915158801498600,0.91249853515625,-0.2048187255859375,-0.0547332763671875,0.1236572265625
1761915158811552500,0.922552490234375,-0.1736297607421875,-0.073883056640625,0.1998748779296875
1761915158821606700,0.932606689453125,-0.115142822265625,-0.0731201171875,0.2344818115234375
1761915158831661800,0.942661865234375,-0.0680694580078125,-0.084808349609375,0.256011962890625
1761915158841715500,0.952715576171875,-0.01812744140625,-0.1014556884765625,0.274810791015625
1761915158851769600,0.96276953125,0.030914306640625,-0.10821533203125,0.2802276611328125
1761915158861823500,0.972823486328125,0.0579071044921875,-0.11871337890625,0.2743377685546875
1761915158871877600,0.982877685546875,0.0820465087890625,-0.123748779296875,0.2547607421875
1761915158881932800,0.992932861328125,0.105255126953125,-0.1152801513671875,0.230621337890625
1761915158891986700,1.002986572265625,0.1038970947265625,-0.105255126953125,0.2062225341796875
1761915158902040800,1.013040771484375,0.0797271728515625,-0.0875701904296875,0.19366455078125
1761915158912094700,1.0230947265625,0.076873779296875,-0.097503662109375,0.1927642822265625
1761915158922148600,1.033148681640625,0.06298828125,-0.11334228515625,0.1910247802734375
1761915158932203500,1.04320361328125,-0.002960205078125,-0.096282958984375,0.1800994873046875
1761915158942257700,1.053257568359375,-0.0592193603515625,-0.076080322265625,0.156341552734375
1761915158952311600,1.0633115234375,-0.1041717529296875,-0.083465576171875,0.13653564453125
1761915158962365700,1.07336572265625,-0.1723785400390625,-0.155242919921875,0.13641357421875
1761915158972419800,1.083419921875,-0.285186767578125,-0.2880096435546875,0.1939544677734375
1761915158982474500,1.093474609375,-0.43377685546875,-0.4246063232421875,0.2691497802734375
1761915158992528600,1.103528564453125,-0.6292724609375,-0.524169921875,0.3094635009765625
1761915159002582500,1.11358251953125,-0.809234619140625,-0.600677490234375,0.264007568359375
1761915159012636700,1.12363671875,-0.95672607421875,-0.6721649169921875,0.1399688720703125
1761915159022690600,1.133690673828125,-1.1397857666015625,-0.770263671875,0.03662109375
1761915159032744700,1.14374462890625,-1.3742828369140625,-0.8675994873046875,-0.0395965576171875
1761915159042799600,1.153799560546875,-1.482757568359375,-0.92401123046875,-0.0952301025390625
1761915159052853500,1.163853515625,-1.63055419921875,-1.1026458740234375,-0.016082763671875
1761915159062907600,1.17390771484375,-1.78985595703125,-1.3814239501953125,0.168121337890625
1761915159072961500,1.18396142578125,-2.0068511962890625,-1.548309326171875,0.3492431640625
1761915159083015700,1.194015625,-2.19000244140625,-1.6192779541015625,0.4638214111328125
1761915159093070600,1.204070556640625,-2.2790985107421875,-1.62677001953125,0.433380126953125
1761915159103124700,1.214124755859375,-2.2859344482421875,-1.6197357177734375,0.317626953125
1761915159113178600,1.2241787109375,-2.2591552734375,-1.5891571044921875,0.199005126953125
1761915159123232500,1.234232421875,-2.157928466796875,-1.5430908203125,0.1341552734375
1761915159133286700,1.24428662109375,-2.0410308837890625,-1.51800537109375,0.1478729248046875
1761915159143341600,1.254341552734375,-1.885986328125,-1.5137939453125,0.2071380615234375
1761915159153395700,1.264395751953125,-1.762908935546875,-1.49169921875,0.256072998046875
1761915159163449600,1.27444970703125,-1.586669921875,-1.3802490234375,0.2569732666015625
1761915159173503700,1.284503662109375,-1.3777313232421875,-1.2128448486328125,0.2350006103515625
1761915159183557600,1.2945576171875,-1.1804046630859375,-1.037445068359375,0.2202606201171875
1761915159193612500,1.304612548828125,-0.9735260009765625,-0.8741912841796875,0.2040863037109375
1761915159203666700,1.314666748046875,-0.794342041015625,-0.7116241455078125,0.1797637939453125
1761915159213720600,1.324720458984375,-0.6395416259765625,-0.552825927734375,0.1361083984375
1761915159223774700,1.334774658203125,-0.509735107421875,-0.3737945556640625,0.0673370361328125
1761915159233828600,1.34482861328125,-0.3897552490234375,-0.214202880859375,-0.018402099609375
1761915159243883500,1.354883544921875,-0.2846221923828125,-0.0852508544921875,-0.09393310546875
1761915159253937700,1.364937744140625,-0.1971893310546875,0.0352020263671875,-0.1535491943359375
1761915159263991600,1.374991455078125,-0.1487884521484375,0.1147003173828125,-0.1775054931640625
1761915159274045700,1.385045654296875,-0.1219329833984375,0.14727783203125,-0.162078857421875
1761915159284099600,1.395099609375,-0.081207275390625,0.1270751953125,-0.1083221435546875
1761915159294153700,1.40515380859375,-0.0540618896484375,0.0839385986328125,-0.04559326171875
1761915159304208600,1.415208740234375,-0.0207366943359375,0.0595703125,0.00079345703125
1761915159314262500,1.425262451171875,0.019683837890625,0.0277252197265625,0.0485992431640625
1761915159324316700,1.435316650390625,0.0700836181640625,-0.0390472412109375,0.11248779296875
1761915159334370600,1.44537060546875,0.120269775390625,-0.105072021484375,0.1664886474609375
1761915159344424700,1.4554248046875,0.174468994140625,-0.1488037109375,0.195159912109375
1761915159354479600,1.465479736328125,0.2164306640625,-0.165679931640625,0.1970367431640625
1761915159364533800,1.47553369140625,0.2337646484375,-0.1690826416015625,0.1832122802734375
1761915159374587600,1.485587646484375,0.2252960205078125,-0.18731689453125,0.16729736328125
1761915159384641500,1.4956416015625,0.2047271728515625,-0.2065277099609375,0.155059814453125
1761915159394695400,1.5056953125,0.1810760498046875,-0.207305908203125,0.142425537109375
1761915159404750600,1.51575048828125,0.1276397705078125,-0.1914520263671875,0.1255645751953125
1761915159414804700,1.5258046875,0.057342529296875,-0.16107177734375,0.1058502197265625
1761915159424858600,1.535858642578125,-0.001495361328125,-0.139495849609375,0.0885162353515625
1761915159434912800,1.545912841796875,-0.08953857421875,-0.1234283447265625,0.0860443115234375
1761915159444966700,1.555966552734375,-0.1831207275390625,-0.1322479248046875,0.086669921875
1761915159455021600,1.566021484375,-0.249359130859375,-0.14447021484375,0.0695343017578125
1761915159465075700,1.57607568359375,-0.33013916015625,-0.1995086669921875,0.079315185546875
1761915159475129600,1.586129638671875,-0.4407958984375,-0.365570068359375,0.146331787109375
1761915159485183700,1.596183837890625,-0.572479248046875,-0.5407867431640625,0.2059478759765625
1761915159495237600,1.606237548828125,-0.745941162109375,-0.6602325439453125,0.234100341796875
1761915159505292500,1.61629248046875,-0.953704833984375,-0.75494384765625,0.210479736328125
1761915159515346400,1.626346435546875,-1.13677978515625,-0.838836669921875,0.15118408203125
1761915159525400600,1.636400634765625,-1.259368896484375,-0.9657440185546875,0.0909423828125
1761915159535454500,1.646454345703125,-1.410308837890625,-1.1329345703125,0.082550048828125
1761915159545508600,1.656508544921875,-1.5377044677734375,-1.36541748046875,0.17364501953125
1761915159555563800,1.666563720703125,-1.6457672119140625,-1.572174072265625,0.286468505859375
1761915159565617700,1.67661767578125,-1.8172149658203125,-1.6843414306640625,0.36309814453125
1761915159575671600,1.686671630859375,-1.981292724609375,-1.71868896484375,0.3856964111328125
1761915159585726200,1.696726318359375,-2.1460113525390625,-1.690460205078125,0.343597412109375
1761915159595780400,1.7067802734375,-2.238555908203125,-1.6410980224609375,0.2912445068359375
1761915159605834500,1.71683447265625,-2.25152587890625,-1.5893707275390625,0.272918701171875
1761915159615889400,1.726889404296875,-2.25250244140625,-1.5128021240234375,0.25347900390625
1761915159625943300,1.736943359375,-2.165863037109375,-1.44012451171875,0.186431884765625
1761915159635997200,1.7469970703125,-2.0020751953125,-1.3604736328125,0.0888519287109375
1761915159646051300,1.75705126953125,-1.8057098388671875,-1.27691650390625,0.01922607421875
1761915159656105200,1.767105224609375,-1.6162261962890625,-1.19110107421875,0.0030059814453125
1761915159666160400,1.777160400390625,-1.4095458984375,-1.078338623046875,0.018890380859375
1761915159676214500,1.787214599609375,-1.1797943115234375,-0.95953369140625,0.0301971435546875
1761915159686268400,1.797268310546875,-0.9347686767578125,-0.802459716796875,0.0052337646484375
1761915159696322600,1.807322509765625,-0.7553558349609375,-0.583587646484375,-0.0732269287109375
1761915159706376200,1.817376220703125,-0.68511962890625,-0.352783203125,-0.1802215576171875
1761915159716431400,1.827431396484375,-0.6354827880859375,-0.1732330322265625,-0.2406158447265625
1761915159726485500,1.837485595703125,-0.610504150390625,-0.06793212890625,-0.2405548095703125
1761915159736539400,1.847539306640625,-0.587432861328125,0.00848388671875,-0.2139434814453125
1761915159746593500,1.857593505859375,-0.5297393798828125,0.071746826171875,-0.167877197265625
1761915159756647400,1.8676474609375,-0.46148681640625,0.0897369384765625,-0.0943145751953125
1761915159766702300,1.877702392578125,-0.3893585205078125,0.080413818359375,-0.02264404296875
1761915159776756200,1.887756103515625,-0.3110198974609375,0.07330322265625,0.025360107421875
1761915159786810400,1.897810302734375,-0.2591400146484375,0.05548095703125,0.0546875
1761915159796864300,1.9078642578125,-0.212127685546875,0.044464111328125,0.0785675048828125
1761915159806918400,1.91791845703125,-0.1631011962890625,0.0197296142578125,0.1027679443359375
1761915159816973600,1.9279736328125,-0.131988525390625,-0.01263427734375,0.132781982421875
1761915159827027200,1.938027099609375,-0.1213531494140625,-0.0434722900390625,0.1538543701171875
1761915159837081300,1.948081298828125,-0.1187896728515625,-0.065093994140625,0.1546783447265625
1761915159847135200,1.95813525390625,-0.082916259765625,-0.07666015625,0.1390533447265625
1761915159857189400,1.968189453125,-0.02008056640625,-0.0792236328125,0.11053466796875
1761915159867243300,1.9782431640625,0.0158233642578125,-0.084991455078125,0.085540771484375
1761915159877298400,1.98829833984375,0.01812744140625,-0.100860595703125,0.084197998046875
1761915159887352600,1.9983525390625,-0.04351806640625,-0.1036376953125,0.09759521484375
1761915159897406500,2.008406494140625,-0.1585540771484375,-0.0640716552734375,0.09979248046875
1761915159907460400,2.01846044921875,-0.184234619140625,-0.0317840576171875,0.075653076171875
1761915159917514200,2.02851416015625,-0.15985107421875,-0.0511474609375,0.052886962890625
1761915159927569400,2.0385693359375,-0.1650390625,-0.0990447998046875,0.045562744140625
1761915159937623300,2.048623291015625,-0.16436767578125,-0.1443634033203125,0.0418701171875
1761915159947677400,2.058677490234375,-0.1942291259765625,-0.2131195068359375,0.035552978515625
1761915159957731600,2.068731689453125,-0.2557830810546875,-0.3477783203125,0.0596160888671875
1761915159967785500,2.078785400390625,-0.302520751953125,-0.53125,0.1154022216796875
1761915159977840400,2.08884033203125,-0.359710693359375,-0.69158935546875,0.15301513671875
1761915159987894300,2.098894287109375,-0.479248046875,-0.7887115478515625,0.11279296875
1761915159997948400,2.108948486328125,-0.676361083984375,-0.815521240234375,0.014801025390625
1761915160008002300,2.119002197265625,-0.8124542236328125,-0.8512725830078125,-0.0830535888671875
1761915160018056400,2.129056396484375,-0.88067626953125,-1.00396728515625,-0.1439056396484375
1761915160028111400,2.139111328125,-0.9743499755859375,-1.2796478271484375,-0.10638427734375
1761915160038165200,2.149165283203125,-1.089447021484375,-1.5493316650390625,0.0236663818359375
1761915160048219400,2.159219482421875,-1.3156280517578125,-1.69683837890625,0.1476898193359375
1761915160058273300,2.169273193359375,-1.591705322265625,-1.8524017333984375,0.2685546875
1761915160068327400,2.179327392578125,-1.8777313232421875,-1.952667236328125,0.33184814453125
1761915160078382600,2.189382568359375,-2.0550689697265625,-1.92694091796875,0.2849578857421875
1761915160088436500,2.1994365234375,-2.0804443359375,-1.8055419921875,0.1688385009765625
1761915160098490400,2.209490478515625,-2.075042724609375,-1.6561737060546875,0.07733154296875
1761915160108544300,2.219544189453125,-2.0860443115234375,-1.5680084228515625,0.0352783203125
1761915160118598400,2.229598388671875,-2.1717987060546875,-1.5095672607421875,-0.0144500732421875
1761915160128652300,2.23965234375,-2.1562957763671875,-1.393646240234375,-0.112823486328125
1761915160138707500,2.24970751953125,-2.0514984130859375,-1.2362060546875,-0.18731689453125
1761915160148761300,2.25976123046875,-1.899627685546875,-1.0812225341796875,-0.2010345458984375
1761915160158815500,2.2698154296875,-1.701019287109375,-0.9416046142578125,-0.1608123779296875
1761915160168869400,2.279869384765625,-1.4390716552734375,-0.8106689453125,-0.092620849609375
1761915160178923300,2.28992333984375,-1.1431884765625,-0.6660919189453125,-0.0463409423828125
1761915160188978400,2.299978515625,-0.883026123046875,-0.5109405517578125,-0.02874755859375
1761915160199032300,2.3100322265625,-0.67608642578125,-0.3842315673828125,-0.0275115966796875
1761915160209086500,2.32008642578125,-0.488525390625,-0.2629852294921875,-0.057037353515625
1761915160219140400,2.330140380859375,-0.37261962890625,-0.130157470703125,-0.0954742431640625
1761915160229194500,2.340194580078125,-0.2726898193359375,-0.017578125,-0.122406005859375
1761915160239249400,2.35024951171875,-0.1592864990234375,0.0363006591796875,-0.11676025390625
1761915160249303300,2.36030322265625,-0.092041015625,0.0590362548828125,-0.0840911865234375
1761915160259357400,2.370357421875,-0.0592041015625,0.0652618408203125,-0.0406036376953125
1761915160269411300,2.380411376953125,-0.020721435546875,0.04791259765625,-0.0020599365234375
1761915160279465500,2.390465576171875,0.0355682373046875,0.03082275390625,0.02215576171875
1761915160289520400,2.400520263671875,0.015716552734375,0.032135009765625,0.0426177978515625
1761915160299574300,2.41057421875,-0.0222930908203125,0.038543701171875,0.0565948486328125
1761915160309628400,2.42062841796875,-0.0235748291015625,0.0111541748046875,0.0630035400390625
1761915160319682300,2.430682373046875,-0.0321502685546875,-0.0264434814453125,0.086700439453125
1761915160329736400,2.440736328125,-0.009429931640625,-0.058441162109375,0.116424560546875
1761915160339791400,2.450791259765625,-0.009124755859375,-0.088592529296875,0.16400146484375
1761915160349845500,2.460845458984375,-0.016876220703125,-0.0997314453125,0.2060546875
1761915160359899400,2.4708994140625,-0.0266876220703125,-0.0743408203125,0.2032470703125
1761915160369953300,2.480953369140625,0.00286865234375,-0.0571136474609375,0.162139892578125
1761915160380007200,2.491007080078125,0.0532989501953125,-0.0751953125,0.11041259765625
1761915160390061300,2.501061279296875,0.0872955322265625,-0.0944671630859375,0.0708160400390625
1761915160400116500,2.511116455078125,0.0879669189453125,-0.105560302734375,0.036590576171875
1761915160410170400,2.52117041015625,0.0584564208984375,-0.1202392578125,0.0036773681640625
1761915160420224500,2.531224609375,-0.0115814208984375,-0.15118408203125,-0.0107879638671875
1761915160430278400,2.5412783203125,-0.111480712890625,-0.214141845703125,-0.0199127197265625
1761915160440332300,2.551332275390625,-0.1920928955078125,-0.3444976806640625,-0.0117034912109375
1761915160450387500,2.561387451171875,-0.2552947998046875,-0.5070953369140625,0.02679443359375
1761915160460441300,2.57144140625,-0.34796142578125,-0.6473541259765625,0.0577850341796875
1761915160470495500,2.58149560546875,-0.4759063720703125,-0.774261474609375,0.0529937744140625
1761915160480549400,2.59154931640625,-0.62841796875,-0.866668701171875,-0.0247802734375
1761915160490603500,2.601603515625,-0.8128509521484375,-0.900421142578125,-0.18865966796875
1761915160500658200,2.611658203125,-0.9801025390625,-0.9182281494140625,-0.3630523681640625
1761915160510712300,2.62171240234375,-1.1478271484375,-1.0292205810546875,-0.4238433837890625
1761915160520766200,2.63176611328125,-1.3367156982421875,-1.2840118408203125,-0.3259429931640625
1761915160530820400,2.6418203125,-1.5497283935546875,-1.5232696533203125,-0.178131103515625
1761915160540874500,2.65187451171875,-1.74884033203125,-1.652008056640625,-0.0790557861328125
1761915160550929400,2.661929443359375,-1.90106201171875,-1.6724853515625,-0.085113525390625
1761915160560983300,2.6719833984375,-2.005279541015625,-1.5802764892578125,-0.1823883056640625
1761915160571037200,2.682037109375,-2.0554351806640625,-1.5128631591796875,-0.2547149658203125
1761915160581091000,2.692091064453125,-2.0929107666015625,-1.48223876953125,-0.265716552734375
1761915160591145200,2.702145263671875,-2.021087646484375,-1.4565582275390625,-0.24078369140625
1761915160601199000,2.71219921875,-1.95001220703125,-1.43304443359375,-0.1782989501953125
1761915160611254300,2.722254150390625,-1.8837890625,-1.4230499267578125,-0.100677490234375
1761915160621308400,2.732308349609375,-1.7634124755859375,-1.388885498046875,-0.0258941650390625
1761915160631362300,2.7423623046875,-1.616607666015625,-1.3092498779296875,0.036590576171875
1761915160641416200,2.752416259765625,-1.4806976318359375,-1.2131805419921875,0.067413330078125
1761915160651470000,2.762469970703125,-1.35235595703125,-1.0845947265625,0.0301971435546875
1761915160661525200,2.772525146484375,-1.3181915283203125,-0.876556396484375,-0.052459716796875
1761915160671579400,2.782579345703125,-1.2971343994140625,-0.6241455078125,-0.17254638671875
1761915160681633300,2.79263330078125,-1.25054931640625,-0.402618408203125,-0.271881103515625
1761915160691687400,2.8026875,-1.2509918212890625,-0.2478790283203125,-0.29132080078125
1761915160701741300,2.8127412109375,-1.234222412109375,-0.1380157470703125,-0.25347900390625
1761915160711796200,2.822796142578125,-1.14434814453125,-0.0781097412109375,-0.19549560546875
1761915160721850000,2.83285009765625,-1.0064849853515625,-0.0430755615234375,-0.140869140625
1761915160731904300,2.842904296875,-0.848358154296875,0.0068511962890625,-0.1000518798828125
1761915160741958100,2.852958251953125,-0.6737823486328125,0.0314788818359375,-0.050933837890625
1761915160752012300,2.86301220703125,-0.489532470703125,0.020172119140625,-0.0013580322265625
1761915160762067200,2.873067138671875,-0.3307647705078125,0.002777099609375,0.0519561767578125
1761915160772121000,2.88312109375,-0.2072906494140625,-0.01885986328125,0.0952301025390625
1761915160782175200,2.89317529296875,-0.1251983642578125,-0.0317535400390625,0.1171722412109375
1761915160792229000,2.90322900390625,-0.051971435546875,-0.0489654541015625,0.126708984375
1761915160802283300,2.913283203125,0.01019287109375,-0.0722808837890625,0.12359619140625
1761915160812338400,2.92333837890625,0.033538818359375,-0.096893310546875,0.118560791015625
1761915160822392300,2.933392333984375,0.046630859375,-0.1214141845703125,0.113433837890625
1761915160832446500,2.943446533203125,0.0542755126953125,-0.138946533203125,0.1117095947265625
1761915160842500000,2.9535,0.0673675537109375,-0.1498870849609375,0.1133575439453125
1761915160852554200,2.96355419921875,0.0798492431640625,-0.15264892578125,0.1185760498046875
1761915160862609200,2.973609130859375,0.0821380615234375,-0.1369781494140625,0.1198272705078125
1761915160872663300,2.983663330078125,0.0648651123046875,-0.1107940673828125,0.122894287109375
1761915160882717200,2.99371728515625,0.03466796875,-0.08209228515625,0.1287841796875
1761915160892771300,3.003771240234375,0.026519775390625,-0.04962158203125,0.1270904541015625
1761915160902825500,3.013825439453125,0.0101776123046875,-0.0313873291015625,0.12750244140625
1761915160912879000,3.023879150390625,-0.0303955078125,-0.037994384765625,0.14630126953125
1761915160922934300,3.033934326171875,-0.078399658203125,-0.06341552734375,0.1736602783203125
1761915160932988200,3.04398828125,-0.145233154296875,-0.136810302734375,0.2232208251953125
1761915160943042300,3.054042236328125,-0.21185302734375,-0.2479095458984375,0.272857666015625
1761915160953096200,3.06409619140625,-0.275665283203125,-0.3363037109375,0.28826904296875
1761915160963150300,3.074150390625,-0.363433837890625,-0.4039764404296875,0.294281005859375
1761915160973205200,3.084205322265625,-0.460845947265625,-0.4896697998046875,0.29046630859375
1761915160983259100,3.094259033203125,-0.6114959716796875,-0.57208251953125,0.262359619140625
1761915160993313300,3.104313232421875,-0.77191162109375,-0.606475830078125,0.2036590576171875
1761915161003367200,3.1143671875,-0.856048583984375,-0.6555328369140625,0.1220855712890625
1761915161013421300,3.12442138671875,-0.9404449462890625,-0.79058837890625,0.1302947998046875
1761915161023476500,3.1344765625,-1.1581573486328125,-0.997650146484375,0.30352783203125
1761915161033530000,3.144530029296875,-1.3805999755859375,-1.239288330078125,0.550811767578125
1761915161043584300,3.154584228515625,-1.639068603515625,-1.46875,0.7477264404296875
1761915161053638100,3.16463818359375,-1.9513092041015625,-1.4174346923828125,0.7261962890625
1761915161063692300,3.1746923828125,-2.09716796875,-1.267852783203125,0.5554962158203125
1761915161073747200,3.184747314453125,-2.1766357421875,-1.1645965576171875,0.394927978515625
1761915161083801300,3.19480126953125,-2.2470245361328125,-1.04107666015625,0.2572784423828125
1761915161093855200,3.204855224609375,-2.3659515380859375,-0.9347076416015625,0.16827392578125
1761915161103909400,3.214909423828125,-2.46124267578125,-0.861358642578125,0.0796966552734375
1761915161113963300,3.22496337890625,-2.464874267578125,-0.7628173828125,-0.0509033203125
1761915161124017200,3.23501708984375,-2.38433837890625,-0.6179351806640625,-0.192474365234375
1761915161134072300,3.245072265625,-2.2328643798828125,-0.453277587890625,-0.305755615234375
1761915161144126200,3.255126220703125,-2.0313720703125,-0.3285980224609375,-0.375091552734375
1761915161154180400,3.265180419921875,-1.7973480224609375,-0.2339324951171875,-0.4076995849609375
1761915161164234200,3.275234130859375,-1.529388427734375,-0.15093994140625,-0.4583740234375
1761915161174289200,3.2852890625,-1.3322601318359375,-0.0867156982421875,-0.4995269775390625
1761915161184343300,3.29534326171875,-1.2078399658203125,-0.0547943115234375,-0.5258331298828125
1761915161194397200,3.305397216796875,-1.057220458984375,-0.0455474853515625,-0.5442047119140625
1761915161204451300,3.315451416015625,-0.9669036865234375,-0.0213623046875,-0.531158447265625
1761915161214505200,3.325505126953125,-0.86859130859375,-0.0010223388671875,-0.4945220947265625
1761915161224559400,3.335559326171875,-0.77862548828125,0.0157318115234375,-0.42181396484375
1761915161234614000,3.345614013671875,-0.6920013427734375,0.011505126953125,-0.340423583984375
1761915161244668200,3.355668212890625,-0.582550048828125,-0.0065155029296875,-0.263824462890625
1761915161254722300,3.365722412109375,-0.465423583984375,-0.02587890625,-0.191650390625
1761915161264776200,3.375776123046875,-0.351806640625,-0.0507965087890625,-0.1431884765625
1761915161274830300,3.385830322265625,-0.2109832763671875,-0.064697265625,-0.12847900390625
1761915161284885200,3.39588525390625,-0.0784759521484375,-0.0825653076171875,-0.1254425048828125
1761915161294939400,3.405939453125,0.0400543212890625,-0.1004180908203125,-0.1169586181640625
1761915161304993300,3.4159931640625,0.140899658203125,-0.1256103515625,-0.0975341796875
1761915161315047200,3.426047119140625,0.211181640625,-0.1574859619140625,-0.0759429931640625
1761915161325101000,3.43610107421875,0.247802734375,-0.194488525390625,-0.054931640625
1761915161335156200,3.44615625,0.2529754638671875,-0.2162017822265625,-0.035797119140625
1761915161345210400,3.45621044921875,0.2578582763671875,-0.219696044921875,-0.0229949951171875
1761915161355264300,3.46626416015625,0.28179931640625,-0.2312469482421875,-0.005615234375
1761915161365318400,3.476318359375,0.28204345703125,-0.2387847900390625,0.01629638671875
1761915161375372300,3.486372314453125,0.2645111083984375,-0.217926025390625,0.0373382568359375
1761915161385427200,3.49642724609375,0.2187957763671875,-0.1998443603515625,0.038543701171875
1761915161395481300,3.5064814453125,0.10986328125,-0.1657257080078125,0.017364501953125
1761915161405535200,3.51653515625,-0.0067901611328125,-0.1973724365234375,0.021026611328125
1761915161415589400,3.52658935546875,-0.133758544921875,-0.3051605224609375,0.0670013427734375
1761915161425643300,3.536643310546875,-0.2460479736328125,-0.4181060791015625,0.108428955078125
1761915161435698200,3.5466982421875,-0.311248779296875,-0.531097412109375,0.1447601318359375
1761915161445752000,3.556751953125,-0.4154510498046875,-0.6720733642578125,0.17919921875
1761915161455806200,3.56680615234375,-0.5723419189453125,-0.8417205810546875,0.185028076171875
1761915161465860400,3.5768603515625,-0.717315673828125,-0.930572509765625,0.068328857421875
1761915161475914200,3.586914306640625,-0.8574371337890625,-0.917266845703125,-0.157257080078125
1761915161485969400,3.596969482421875,-1.00390625,-1.071258544921875,-0.266876220703125
1761915161496023300,3.607023193359375,-1.1128692626953125,-1.3679046630859375,-0.2444915771484375
1761915161506077200,3.6170771484375,-1.2647247314453125,-1.5836334228515625,-0.185699462890625
1761915161516131000,3.627131103515625,-1.496124267578125,-1.732391357421875,-0.1788177490234375
1761915161526185200,3.637185302734375,-1.6776275634765625,-1.741790771484375,-0.2716827392578125
1761915161536240400,3.647240478515625,-1.8157196044921875,-1.6186065673828125,-0.42657470703125
1761915161546294300,3.657294189453125,-1.93475341796875,-1.5609588623046875,-0.534515380859375
1761915161556348400,3.667348388671875,-1.988525390625,-1.488677978515625,-0.5969085693359375
1761915161566402300,3.67740234375,-2.0259246826171875,-1.3855743408203125,-0.606353759765625
1761915161576456200,3.687456298828125,-2.0821685791015625,-1.2768402099609375,-0.582672119140625
1761915161586513400,3.697513427734375,-2.1205291748046875,-1.17144775390625,-0.531158447265625
1761915161596568600,3.707568603515625,-2.1397552490234375,-1.0735015869140625,-0.444580078125
1761915161606622700,3.717622802734375,-2.100067138671875,-0.9758148193359375,-0.3407745361328125
1761915161616676600,3.727676513671875,-1.961029052734375,-0.8866424560546875,-0.241607666015625
1761915161626730800,3.737730712890625,-1.7397613525390625,-0.80059814453125,-0.1686859130859375
1761915161636784600,3.74778466796875,-1.515594482421875,-0.71881103515625,-0.1184234619140625
1761915161646839600,3.757839599609375,-1.277496337890625,-0.6241455078125,-0.0898895263671875
1761915161656893400,3.7678935546875,-1.0238494873046875,-0.5340728759765625,-0.098052978515625
1761915161666947600,3.777947509765625,-0.79144287109375,-0.453765869140625,-0.1373443603515625
1761915161677001500,3.78800146484375,-0.613189697265625,-0.4085235595703125,-0.17706298828125
1761915161687055600,3.7980556640625,-0.467864990234375,-0.3648529052734375,-0.212188720703125
1761915161697110500,3.808110595703125,-0.32586669921875,-0.305419921875,-0.250518798828125
1761915161707164400,3.818164306640625,-0.2315216064453125,-0.2740020751953125,-0.253082275390625
1761915161717218600,3.828218505859375,-0.1900177001953125,-0.25360107421875,-0.2213134765625
1761915161727272400,3.8382724609375,-0.16259765625,-0.222442626953125,-0.1776123046875
1761915161737326600,3.84832666015625,-0.1385955810546875,-0.2004547119140625,-0.133392333984375
1761915161747381800,3.8583818359375,-0.111846923828125,-0.17510986328125,-0.0998992919921875
1761915161757435600,3.868435546875,-0.092742919921875,-0.1428985595703125,-0.069854736328125
1761915161767489800,3.87848974609375,-0.0823822021484375,-0.133544921875,-0.026824951171875
1761915161777543400,3.88854345703125,-0.0757904052734375,-0.156829833984375,0.030670166015625
1761915161787597600,3.89859765625,-0.071624755859375,-0.180633544921875,0.0848388671875
1761915161797652500,3.908652587890625,-0.066314697265625,-0.1873626708984375,0.1225128173828125
1761915161807706600,3.91870654296875,-0.057891845703125,-0.1750946044921875,0.1503753662109375
1761915161817760500,3.928760498046875,-0.0416107177734375,-0.14923095703125,0.157867431640625
1761915161827814700,3.938814697265625,-0.02508544921875,-0.1008758544921875,0.14117431640625
1761915161837868800,3.948868896484375,-0.0178375244140625,-0.0344696044921875,0.115875244140625
1761915161847923500,3.95892333984375,-0.020050048828125,0.0199432373046875,0.09930419921875
1761915161857977600,3.9689775390625,-0.0384368896484375,0.0523529052734375,0.0911407470703125
1761915161868031500,3.979031494140625,-0.070404052734375,0.058013916015625,0.1067047119140625
1761915161878085600,3.989085693359375,-0.118438720703125,-0.0000457763671875,0.1435089111328125
1761915161888139500,3.999139404296875,-0.174163818359375,-0.1041107177734375,0.193359375
1761915161898191600,4.009191650390625,-0.2290496826171875,-0.226287841796875,0.226226806640625
1761915161908245500,4.01924560546875,-0.3108673095703125,-0.3187408447265625,0.213592529296875
1761915161918300700,4.02930078125,-0.403839111328125,-0.3827667236328125,0.16009521484375
1761915161928354600,4.0393544921875,-0.57183837890625,-0.4659881591796875,0.115203857421875
1761915161938408700,4.04940869140625,-0.7719573974609375,-0.58929443359375,0.046295166015625
1761915161948462600,4.059462646484375,-0.93646240234375,-0.6840057373046875,-0.0912933349609375
1761915161958516500,4.0695166015625,-1.0045166015625,-0.6771240234375,-0.312530517578125
1761915161968571600,4.079571533203125,-1.1384429931640625,-0.6960601806640625,-0.4577484130859375
1761915161978625500,4.08962548828125,-1.27288818359375,-0.93292236328125,-0.4545135498046875
1761915161988679700,4.0996796875,-1.3449554443359375,-1.2348785400390625,-0.4004058837890625
1761915161998733600,4.109733642578125,-1.410675048828125,-1.4606170654296875,-0.35333251953125
1761915162008787700,4.11978759765625,-1.4845733642578125,-1.5616302490234375,-0.388092041015625
1761915162018842600,4.129842529296875,-1.5483551025390625,-1.6031494140625,-0.4497528076171875
1761915162028896500,4.139896484375,-1.6959991455078125,-1.713836669921875,-0.4568328857421875
1761915162038950700,4.14995068359375,-1.8484039306640625,-1.745086669921875,-0.4842071533203125
1761915162049004500,4.160004638671875,-1.8739776611328125,-1.6532135009765625,-0.5396575927734375
1761915162059058700,4.17005859375,-1.85528564453125,-1.5876617431640625,-0.5284271240234375
1761915162069113600,4.180113525390625,-1.8668670654296875,-1.5599517822265625,-0.4813995361328125
1761915162079167500,4.19016748046875,-1.8485260009765625,-1.5009918212890625,-0.4630126953125
1761915162089221400,4.200221435546875,-1.779815673828125,-1.4034423828125,-0.4442291259765625
1761915162099275500,4.210275634765625,-1.670745849609375,-1.2472076416015625,-0.408447265625
1761915162109329700,4.22032958984375,-1.5509490966796875,-1.10821533203125,-0.360626220703125
1761915162119384600,4.230384521484375,-1.4157257080078125,-1.0338897705078125,-0.3454742431640625
1761915162129438700,4.240438720703125,-1.257781982421875,-0.95379638671875,-0.3987274169921875
1761915162139492600,4.25049267578125,-1.098358154296875,-0.856109619140625,-0.5059051513671875
1761915162149546500,4.26054638671875,-0.8984222412109375,-0.7447357177734375,-0.5942230224609375
1761915162159600400,4.270600341796875,-0.708953857421875,-0.6796112060546875,-0.6142120361328125
1761915162169655600,4.280655517578125,-0.5679168701171875,-0.5986785888671875,-0.5959930419921875
1761915162179709700,4.290709716796875,-0.4581756591796875,-0.470855712890625,-0.57049560546875
1761915162189763600,4.300763671875,-0.380767822265625,-0.3836822509765625,-0.5486602783203125
1761915162199817700,4.310817626953125,-0.3288421630859375,-0.3072052001953125,-0.509368896484375
1761915162209871600,4.32087158203125,-0.27117919921875,-0.2130126953125,-0.4277191162109375
1761915162219926500,4.330926513671875,-0.2309112548828125,-0.1416473388671875,-0.3318328857421875
1761915162229980400,4.34098046875,-0.1972808837890625,-0.056365966796875,-0.2430267333984375
1761915162240034600,4.35103466796875,-0.1637725830078125,0.0328216552734375,-0.1549224853515625
1761915162250088700,4.361088623046875,-0.110992431640625,0.099884033203125,-0.065826416015625
1761915162260142600,4.371142578125,-0.0474395751953125,0.1516265869140625,0.0296478271484375
1761915162270197500,4.381197509765625,-0.00836181640625,0.2112579345703125,0.1210479736328125
1761915162280251400,4.39125146484375,0.026519775390625,0.243377685546875,0.214324951171875
1761915162290305500,4.401305419921875,0.078216552734375,0.2467041015625,0.299560546875
1761915162300359400,4.411359375,0.1393890380859375,0.25372314453125,0.3642120361328125
1761915162310413600,4.42141357421875,0.1739044189453125,0.2512359619140625,0.4189453125
1761915162320468700,4.43146875,0.1896514892578125,0.2426605224609375,0.46807861328125
1761915162330522600,4.441522705078125,0.203948974609375,0.2181396484375,0.5018768310546875
1761915162340576800,4.45157666015625,0.208770751953125,0.16845703125,0.5378570556640625
1761915162350630400,4.46163037109375,0.1865234375,0.0928192138671875,0.5734405517578125
1761915162360684500,4.4716845703125,0.1276092529296875,-0.0237274169921875,0.6107940673828125
1761915162370739700,4.48173974609375,0.081512451171875,-0.1628265380859375,0.6415252685546875
1761915162380793600,4.491793701171875,0.0219268798828125,-0.29290771484375,0.6404266357421875
1761915162390847700,4.50184765625,-0.037109375,-0.426849365234375,0.6171875
1761915162400901600,4.511901611328125,-0.0874481201171875,-0.6094818115234375,0.5969390869140625
1761915162410955800,4.521955810546875,-0.165924072265625,-0.8596038818359375,0.5764923095703125
1761915162421010400,4.532010498046875,-0.2911376953125,-1.0403900146484375,0.500762939453125
1761915162431064600,4.542064697265625,-0.459564208984375,-1.0107421875,0.3338775634765625
1761915162441118500,4.552118408203125,-0.6271820068359375,-0.95111083984375,0.2029571533203125
1761915162451172600,4.562172607421875,-0.8049468994140625,-1.1203155517578125,0.2669677734375
1761915162461226800,4.572226806640625,-0.9980926513671875,-1.4300384521484375,0.4356842041015625
1761915162471281400,4.582281494140625,-1.1174774169921875,-1.7684326171875,0.5803070068359375
1761915162481335600,4.59233544921875,-1.182159423828125,-2.0657958984375,0.65606689453125
1761915162491389400,4.602389404296875,-1.2473297119140625,-2.100677490234375,0.6134490966796875
1761915162501443600,4.612443603515625,-1.2775726318359375,-2.13751220703125,0.563812255859375
1761915162511497500,4.62249755859375,-1.3567352294921875,-2.253509521484375,0.5322418212890625
1761915162521552600,4.632552734375,-1.4201812744140625,-2.2575225830078125,0.455047607421875
1761915162531606800,4.642606689453125,-1.3744659423828125,-2.1500396728515625,0.3292236328125
1761915162541660700,4.65266064453125,-1.3505401611328125,-1.9980621337890625,0.2016448974609375
1761915162551714600,4.662714599609375,-1.32415771484375,-1.84515380859375,0.08856201171875
1761915162561768400,4.6727685546875,-1.2220001220703125,-1.6847076416015625,-0.0175018310546875
1761915162571823600,4.68282373046875,-1.0806121826171875,-1.491851806640625,-0.0754241943359375
1761915162581877500,4.69287744140625,-0.926605224609375,-1.253509521484375,-0.072052001953125
1761915162591932400,4.702932373046875,-0.801513671875,-1.0176849365234375,-0.020416259765625
1761915162601986000,4.712986083984375,-0.7411956787109375,-0.80804443359375,0.036529541015625
1761915162612040200,4.723040283203125,-0.693084716796875,-0.6541900634765625,0.0888519287109375
1761915162622095000,4.73309521484375,-0.656524658203125,-0.5340576171875,0.1128082275390625
1761915162632149200,4.743149169921875,-0.6060943603515625,-0.4277191162109375,0.0909271240234375
1761915162642203100,4.753203125,-0.52398681640625,-0.3145599365234375,0.0463409423828125
1761915162652257300,4.76325732421875,-0.4485015869140625,-0.1942138671875,0.002532958984375
1761915162662311400,4.7733115234375,-0.3726043701171875,-0.0731964111328125,-0.01593017578125
1761915162672366000,4.783365966796875,-0.29473876953125,0.0201873779296875,-0.0042877197265625
1761915162682420200,4.793420166015625,-0.2342071533203125,0.0801849365234375,0.0346832275390625
1761915162692474000,4.80347412109375,-0.185638427734375,0.1192474365234375,0.09075927734375
1761915162702528300,4.8135283203125,-0.136749267578125,0.1250152587890625,0.1542510986328125
1761915162712582100,4.82358203125,-0.08441162109375,0.099700927734375,0.2085723876953125
1761915162722637000,4.833636962890625,-0.05499267578125,0.046844482421875,0.242340087890625
1761915162732691200,4.843691162109375,-0.0353546142578125,0.0044708251953125,0.258270263671875
1761915162742745000,4.8537451171875,-0.003936767578125,-0.0340118408203125,0.2547760009765625
1761915162752799200,4.86379931640625,0.016876220703125,-0.0731353759765625,0.2337188720703125
1761915162762853000,4.87385302734375,0.0374908447265625,-0.098541259765625,0.1890869140625
1761915162772908300,4.883908203125,0.0451812744140625,-0.114654541015625,0.1425323486328125
1761915162782962400,4.89396240234375,0.027496337890625,-0.13958740234375,0.11309814453125
1761915162793016300,4.904016357421875,-0.0029296875,-0.178009033203125,0.0999755859375
1761915162803070200,4.9140703125,-0.032379150390625,-0.22076416015625,0.103729248046875
1761915162813124000,4.9241240234375,-0.080718994140625,-0.2518463134765625,0.1049652099609375
1761915162823179300,4.93417919921875,-0.1613006591796875,-0.2793121337890625,0.105865478515625
1761915162833233200,4.944233154296875,-0.227081298828125,-0.3380584716796875,0.122711181640625
1761915162843287300,4.954287353515625,-0.276123046875,-0.445068359375,0.1653289794921875
1761915162853341200,4.964341064453125,-0.34344482421875,-0.577728271484375,0.2091064453125
1761915162863395300,4.974395263671875,-0.474609375,-0.6986541748046875,0.2189788818359375
1761915162873450200,4.9844501953125,-0.629608154296875,-0.8800506591796875,0.2401885986328125
1761915162883504000,4.994504150390625,-0.6947021484375,-1.20233154296875,0.2233123779296875
1761915162893558300,5.004558349609375,-0.8148345947265625,-1.3239898681640625,0.0584869384765625
1761915162903612200,5.014612060546875,-1.068817138671875,-1.14556884765625,-0.16510009765625
1761915162913666300,5.024666259765625,-1.272003173828125,-1.0830230712890625,-0.2762603759765625
1761915162923721200,5.03472119140625,-1.3799896240234375,-1.4058685302734375,-0.161865234375
1761915162933775000,5.044775146484375,-1.4817962646484375,-1.61834716796875,-0.014068603515625
1761915162943829200,5.054829345703125,-1.5543365478515625,-1.76873779296875,0.112274169921875
1761915162953883100,5.064883056640625,-1.658477783203125,-1.7192535400390625,0.0933074951171875
1761915162963937300,5.074937255859375,-1.6820068359375,-1.5593414306640625,0.0078277587890625
1761915162973992200,5.0849921875,-1.719696044921875,-1.4560546875,-0.0497894287109375
1761915162984046300,5.09504638671875,-1.7950897216796875,-1.343780517578125,-0.09881591796875
1761915162994100000,5.105099853515625,-1.851226806640625,-1.26397705078125,-0.114166259765625
1761915163004154000,5.115154052734375,-1.8743743896484375,-1.1743316650390625,-0.1389617919921875
1761915163014208300,5.125208251953125,-1.825439453125,-1.0860443115234375,-0.1653289794921875
1761915163024263200,5.13526318359375,-1.7148284912109375,-1.0132293701171875,-0.1694488525390625
1761915163034317300,5.1453173828125,-1.5493011474609375,-0.9370269775390625,-0.148101806640625
1761915163044371200,5.15537109375,-1.3636016845703125,-0.8558197021484375,-0.136505126953125
1761915163054425300,5.16542529296875,-1.1544647216796875,-0.7481536865234375,-0.1237030029296875
1761915163064479200,5.175479248046875,-0.9606781005859375,-0.6689910888671875,-0.10711669921875
1761915163074534100,5.1855341796875,-0.772796630859375,-0.60577392578125,-0.088592529296875
1761915163084588300,5.19558837890625,-0.6274871826171875,-0.5315704345703125,-0.0859375
1761915163094642200,5.20564208984375,-0.5140228271484375,-0.3997650146484375,-0.1209716796875
1761915163104696300,5.2156962890625,-0.39630126953125,-0.27899169921875,-0.1690521240234375
1761915163114750200,5.225750244140625,-0.2879791259765625,-0.196929931640625,-0.2123260498046875
1761915163124805000,5.23580517578125,-0.187164306640625,-0.1163330078125,-0.2548980712890625
1761915163134859300,5.245859375,-0.0993499755859375,-0.051300048828125,-0.287261962890625
1761915163144913200,5.2559130859375,-0.058929443359375,0.0032501220703125,-0.3090362548828125
1761915163154967300,5.26596728515625,-0.042724609375,0.0349273681640625,-0.3126678466796875
1761915163165021200,5.276021240234375,-0.014404296875,0.0488433837890625,-0.2905426025390625
1761915163175076400,5.286076416015625,-0.0175933837890625,0.0501556396484375,-0.24078369140625
1761915163185130200,5.296130126953125,-0.04840087890625,0.05126953125,-0.17840576171875
1761915163195184000,5.30618408203125,-0.0744171142578125,0.0598297119140625,-0.1073455810546875
1761915163205238000,5.316238037109375,-0.0960235595703125,0.0281829833984375,-0.0240936279296875
1761915163215292200,5.326292236328125,-0.133331298828125,-0.01727294921875,0.0445556640625
1761915163225347300,5.336347412109375,-0.143035888671875,-0.053436279296875,0.06866455078125
1761915163235401200,5.346401123046875,-0.1299285888671875,-0.096282958984375,0.051605224609375
1761915163245455400,5.356455322265625,-0.1341705322265625,-0.14056396484375,0.0222930908203125
1761915163255509200,5.36650927734375,-0.1947784423828125,-0.1785430908203125,-0.0178375244140625
1761915163265563100,5.376563232421875,-0.2534027099609375,-0.199432373046875,-0.07525634765625
1761915163275618300,5.386618408203125,-0.32025146484375,-0.2089691162109375,-0.1293487548828125
1761915163285672200,5.396672119140625,-0.3932342529296875,-0.2517547607421875,-0.1655731201171875
1761915163295726300,5.406726318359375,-0.4775390625,-0.3216094970703125,-0.21441650390625
1761915163305780200,5.4167802734375,-0.610198974609375,-0.44482421875,-0.24847412109375
1761915163315835100,5.426835205078125,-0.7357025146484375,-0.6263427734375,-0.287017822265625
1761915163325889000,5.436888916015625,-0.8628082275390625,-0.769866943359375,-0.323883056640625
1761915163335943200,5.446943115234375,-1.02459716796875,-0.8367767333984375,-0.396392822265625
1761915163345997000,5.4569970703125,-1.219482421875,-0.820037841796875,-0.4956512451171875
1761915163356051200,5.46705126953125,-1.37139892578125,-0.8759918212890625,-0.543609619140625
1761915163366106400,5.4771064453125,-1.5009613037109375,-0.8747406005859375,-0.59759521484375
1761915163376160300,5.48716015625,-1.616241455078125,-0.8042755126953125,-0.6360626220703125
1761915163386214100,5.497214111328125,-1.684173583984375,-0.68115234375,-0.6575469970703125
1761915163396268000,5.50726806640625,-1.756134033203125,-0.6892852783203125,-0.549468994140625
1761915163406322200,5.517322265625,-1.8439178466796875,-0.874725341796875,-0.329193115234375
1761915163416377300,5.52737744140625,-1.93157958984375,-1.075225830078125,-0.13067626953125
1761915163426431200,5.53743115234375,-1.898101806640625,-1.180267333984375,-0.0223388671875
1761915163436485400,5.5474853515625,-1.796417236328125,-1.2896728515625,0.070465087890625
1761915163446539300,5.557539306640625,-1.729766845703125,-1.40478515625,0.1684112548828125
1761915163456593200,5.56759326171875,-1.649871826171875,-1.468109130859375,0.2137908935546875
1761915163466648000,5.57764794921875,-1.536285400390625,-1.5038909912109375,0.211090087890625
1761915163476702200,5.5877021484375,-1.4236297607421875,-1.4764251708984375,0.1556396484375
1761915163486756400,5.59775634765625,-1.3501129150390625,-1.3521728515625,0.0568695068359375
1761915163496810200,5.607810302734375,-1.2738494873046875,-1.1890411376953125,-0.0459747314453125
1761915163506864400,5.617864501953125,-1.1949615478515625,-0.9805450439453125,-0.142059326171875
1761915163516919000,5.6279189453125,-1.10662841796875,-0.7532958984375,-0.2208251953125
1761915163526973200,5.63797314453125,-1.031768798828125,-0.5369873046875,-0.2661285400390625
1761915163537027000,5.648027099609375,-0.964599609375,-0.3890380859375,-0.2792510986328125
1761915163547081200,5.658081298828125,-0.8974609375,-0.287109375,-0.28326416015625
1761915163557135000,5.668135009765625,-0.82098388671875,-0.19976806640625,-0.2807159423828125
1761915163567190300,5.678190185546875,-0.7216644287109375,-0.134765625,-0.2773590087890625
1761915163577244200,5.688244140625,-0.6088714599609375,-0.0882110595703125,-0.2542266845703125
1761915163587298000,5.698298095703125,-0.50604248046875,-0.059661865234375,-0.205535888671875
1761915163597348400,5.708348388671875,-0.4199676513671875,-0.0391845703125,-0.1433563232421875
1761915163607402500,5.718402587890625,-0.3372344970703125,-0.01409912109375,-0.0754547119140625
1761915163617457400,5.72845751953125,-0.2602386474609375,0.001373291015625,-0.0050506591796875
1761915163627511600,5.738511474609375,-0.21221923828125,-0.0148773193359375,0.0710601806640625
1761915163637565400,5.7485654296875,-0.16046142578125,-0.042510986328125,0.13092041015625
1761915163647619600,5.75861962890625,-0.1009521484375,-0.058197021484375,0.160614013671875
1761915163657673500,5.768673583984375,-0.062103271484375,-0.0834808349609375,0.1706085205078125
1761915163667728400,5.778728271484375,-0.0412750244140625,-0.1044921875,0.163818359375
1761915163677782500,5.788782470703125,-0.03631591796875,-0.1283416748046875,0.1561126708984375
1761915163687836400,5.79883642578125,-0.0283355712890625,-0.155853271484375,0.147705078125
1761915163697890600,5.808890625,-0.0184326171875,-0.188385009765625,0.1402587890625
1761915163707945500,5.818945556640625,-0.0335540771484375,-0.2172698974609375,0.1455078125
1761915163717999400,5.828999267578125,-0.0635528564453125,-0.2329254150390625,0.1475372314453125
1761915163728053500,5.839053466796875,-0.09881591796875,-0.236968994140625,0.1411895751953125
1761915163738107400,5.849107421875,-0.1325836181640625,-0.2365264892578125,0.121185302734375
1761915163748161500,5.85916162109375,-0.1725311279296875,-0.2418060302734375,0.0990142822265625
1761915163758216400,5.869216552734375,-0.2425689697265625,-0.276947021484375,0.106658935546875
1761915163768270600,5.8792705078125,-0.336212158203125,-0.3341064453125,0.129058837890625
1761915163778324500,5.889324462890625,-0.4630126953125,-0.4349365234375,0.195648193359375
1761915163788378400,5.89937841796875,-0.5906829833984375,-0.5736846923828125,0.271453857421875
1761915163798432300,5.909432373046875,-0.7378692626953125,-0.6651763916015625,0.2643585205078125
1761915163808487400,5.9194873046875,-0.9419403076171875,-0.6777496337890625,0.1986236572265625
1761915163818541600,5.92954150390625,-1.1202392578125,-0.64837646484375,0.1000518798828125
1761915163828595500,5.939595458984375,-1.29254150390625,-0.6833343505859375,0.002105712890625
1761915163838649600,5.949649658203125,-1.4190216064453125,-0.7850494384765625,0.0087127685546875
1761915163848703500,5.959703369140625,-1.544586181640625,-0.9157562255859375,0.1016845703125
1761915163858758400,5.96975830078125,-1.6287384033203125,-1.1102294921875,0.2294769287109375
1761915163868812500,5.9798125,-1.696380615234375,-1.3173980712890625,0.36163330078125
1761915163878866400,5.989866455078125,-1.7464599609375,-1.43878173828125,0.4193878173828125
1761915163888920600,5.999920654296875,-1.69085693359375,-1.4503021240234375,0.35687255859375
1761915163898974500,6.009974365234375,-1.6333160400390625,-1.483123779296875,0.26031494140625
1761915163909029400,6.020029296875,-1.7285308837890625,-1.5506744384765625,0.1813507080078125
1761915163919083300,6.030083251953125,-1.534088134765625,-1.468048095703125,0.147979736328125
1761915163929137400,6.040137451171875,-1.4799652099609375,-1.4460296630859375,0.1011199951171875
1761915163939191300,6.05019140625,-1.445556640625,-1.3896636962890625,0.06201171875
1761915163949245400,6.060245361328125,-1.359588623046875,-1.330718994140625,0.0355987548828125
1761915163959300600,6.070300537109375,-1.2713165283203125,-1.2597198486328125,0.02618408203125
1761915163969354500,6.0803544921875,-1.1192626953125,-1.1660614013671875,0.036407470703125
1761915163979408400,6.090408447265625,-0.928314208984375,-1.0515289306640625,0.058685302734375
1761915163989462300,6.100462158203125,-0.796722412109375,-0.9223785400390625,0.09130859375
1761915163999516400,6.110516357421875,-0.687652587890625,-0.7587738037109375,0.0924835205078125
1761915164009571600,6.120571533203125,-0.5757904052734375,-0.58990478515625,0.0575408935546875
1761915164019625500,6.13062548828125,-0.46148681640625,-0.44110107421875,0.0078277587890625
1761915164029679600,6.1406796875,-0.356353759765625,-0.323760986328125,-0.0360870361328125
1761915164039733500,6.1507333984375,-0.2702178955078125,-0.18963623046875,-0.0658111572265625
1761915164049787600,6.16078759765625,-0.2045745849609375,-0.0922698974609375,-0.0821685791015625
1761915164059842300,6.17084228515625,-0.1400604248046875,-0.0882568359375,-0.087799072265625
1761915164069896400,6.180896484375,-0.0909881591796875,-0.0769500732421875,-0.0706329345703125
1761915164079950600,6.19095068359375,-0.0775909423828125,-0.0484466552734375,-0.0543975830078125
1761915164090004500,6.20100439453125,-0.0796051025390625,-0.0194091796875,-0.032318115234375
1761915164100059400,6.211059326171875,-0.0770111083984375,0.0040740966796875,-0.00311279296875
1761915164110113300,6.22111328125,-0.0719757080078125,-0.002227783203125,0.0357208251953125
1761915164120167400,6.23116748046875,-0.0839080810546875,-0.0277099609375,0.068450927734375
1761915164130221300,6.24122119140625,-0.0833892822265625,-0.0408477783203125,0.0885467529296875
1761915164140275500,6.251275390625,-0.086639404296875,-0.047149658203125,0.103515625
1761915164150330600,6.26133056640625,-0.0817413330078125,-0.0693817138671875,0.114898681640625
1761915164160384500,6.271384521484375,-0.068511962890625,-0.0985565185546875,0.1308746337890625
1761915164170438700,6.281438720703125,-0.0622711181640625,-0.1128692626953125,0.137603759765625
1761915164180492300,6.2914921875,-0.074005126953125,-0.104827880859375,0.1302642822265625
1761915164190546400,6.30154638671875,-0.097808837890625,-0.090789794921875,0.114715576171875
1761915164200601300,6.311601318359375,-0.1664886474609375,-0.0858001708984375,0.093841552734375
1761915164210655500,6.321655517578125,-0.2692413330078125,-0.0868377685546875,0.0896148681640625
1761915164220709600,6.331709716796875,-0.3798370361328125,-0.1563873291015625,0.1150665283203125
1761915164230763500,6.341763427734375,-0.50592041015625,-0.287933349609375,0.1586151123046875
1761915164240817700,6.351817626953125,-0.628173828125,-0.410675048828125,0.17657470703125
1761915164250872300,6.361872314453125,-0.7957305908203125,-0.47418212890625,0.126739501953125
1761915164260926500,6.371926513671875,-0.9292755126953125,-0.5276031494140625,0.046905517578125
1761915164270980400,6.38198046875,-1.13104248046875,-0.5606689453125,-0.0340728759765625
1761915164281034500,6.392034423828125,-1.3719329833984375,-0.581756591796875,-0.091400146484375
1761915164291088400,6.40208837890625,-1.4987030029296875,-0.6425933837890625,-0.1216278076171875
1761915164301143300,6.412143310546875,-1.6439056396484375,-0.7463226318359375,-0.097686767578125
1761915164311197400,6.422197509765625,-1.8160858154296875,-0.8274383544921875,-0.0621337890625
1761915164321251300,6.432251220703125,-1.97601318359375,-0.8339996337890625,-0.080718994140625
1761915164331305500,6.442305419921875,-2.13519287109375,-0.8751068115234375,-0.089813232421875
1761915164341360600,6.452360595703125,-2.3215484619140625,-0.9800262451171875,-0.0518646240234375
1761915164351414500,6.46241455078125,-2.4356231689453125,-1.1085205078125,0.01373291015625
1761915164361468700,6.47246875,-2.4584503173828125,-1.2311248779296875,0.08502197265625
1761915164371522300,6.482522216796875,-2.386993408203125,-1.3279571533203125,0.127593994140625
1761915164381576400,6.492576416015625,-2.163909912109375,-1.3909454345703125,0.1167755126953125
1761915164391631400,6.50263134765625,-1.9483184814453125,-1.4384918212890625,0.0775909423828125
1761915164401685500,6.512685546875,-1.7787628173828125,-1.49603271484375,0.0577545166015625
1761915164411739400,6.522739501953125,-1.59686279296875,-1.517791748046875,0.05047607421875
1761915164421793500,6.53279345703125,-1.4295654296875,-1.4813690185546875,0.0624847412109375
1761915164431847700,6.54284765625,-1.2555999755859375,-1.4132232666015625,0.116058349609375
1761915164441902300,6.55290234375,-1.0732421875,-1.32000732421875,0.1723480224609375
1761915164451956500,6.56295654296875,-0.8963165283203125,-1.18475341796875,0.2065887451171875
1761915164462010400,6.57301025390625,-0.7301025390625,-1.0119781494140625,0.207366943359375
1761915164472064500,6.583064453125,-0.604736328125,-0.85308837890625,0.1600189208984375
1761915164482118400,6.593118408203125,-0.5033721923828125,-0.737396240234375,0.0834197998046875
1761915164492173300,6.60317333984375,-0.4000701904296875,-0.6071319580078125,-0.019256591796875
1761915164502227500,6.6132275390625,-0.2919464111328125,-0.465057373046875,-0.13031005859375
1761915164512281300,6.62328125,-0.194366455078125,-0.3530120849609375,-0.2021942138671875
1761915164522335500,6.63333544921875,-0.1396942138671875,-0.2530975341796875,-0.220489501953125
1761915164532389400,6.643389404296875,-0.11065673828125,-0.1514434814453125,-0.19403076171875
1761915164542444500,6.653444580078125,-0.1034088134765625,-0.0705413818359375,-0.130859375
1761915164552498400,6.66349853515625,-0.1107177734375,-0.0082855224609375,-0.0622711181640625
1761915164562552600,6.673552490234375,-0.1053009033203125,0.0391693115234375,-0.004852294921875
1761915164572606500,6.6836064453125,-0.095611572265625,0.0745849609375,0.0391845703125
1761915164582661400,6.693661376953125,-0.067291259765625,0.0889434814453125,0.0762176513671875
1761915164592715000,6.703715087890625,-0.0326385498046875,0.0659332275390625,0.1181488037109375
1761915164602769200,6.71376904296875,0.0041961669921875,0.016448974609375,0.1642913818359375
1761915164612823000,6.723822998046875,0.0390167236328125,-0.0454864501953125,0.19384765625
1761915164622877200,6.733877197265625,0.0614166259765625,-0.0745391845703125,0.1994781494140625
1761915164632932000,6.74393212890625,0.068267822265625,-0.0759735107421875,0.186126708984375
1761915164642986000,6.753986083984375,0.06591796875,-0.06414794921875,0.157623291015625
1761915164653040000,6.7640400390625,0.0659942626953125,-0.0746917724609375,0.1485443115234375
1761915164663094000,6.774093994140625,0.0595855712890625,-0.104217529296875,0.1537322998046875
1761915164673148200,6.784148193359375,0.047332763671875,-0.1277008056640625,0.1536102294921875
1761915164683203000,6.794203125,0.017608642578125,-0.140625,0.1493988037109375
1761915164693257200,6.80425732421875,-0.0041046142578125,-0.1713104248046875,0.15960693359375
1761915164703310800,6.814310791015625,-0.0590667724609375,-0.238311767578125,0.2033233642578125
1761915164713365000,6.824364990234375,-0.15264892578125,-0.3495330810546875,0.27911376953125
1761915164723419100,6.834419189453125,-0.23779296875,-0.48046875,0.3550262451171875
1761915164733474000,6.84447412109375,-0.3482208251953125,-0.623199462890625,0.4055328369140625
1761915164743528200,6.854528076171875,-0.53021240234375,-0.7666168212890625,0.4412078857421875
1761915164753582000,6.86458203125,-0.769195556640625,-0.881988525390625,0.469970703125
1761915164763636200,6.87463623046875,-0.9995880126953125,-0.9766082763671875,0.48956298828125
1761915164773690000,6.884690185546875,-1.1839141845703125,-1.0878753662109375,0.5094146728515625
1761915164783745000,6.8947451171875,-1.3058929443359375,-1.2052764892578125,0.544281005859375
1761915164793799200,6.904799072265625,-1.4285125732421875,-1.3556976318359375,0.64068603515625
1761915164803853000,6.91485302734375,-1.496185302734375,-1.5834503173828125,0.7776336669921875
1761915164813907200,6.9249072265625,-1.5974884033203125,-1.773681640625,0.87109375
1761915164823961900,6.9349619140625,-1.7386474609375,-1.7736358642578125,0.8425140380859375
1761915164834016000,6.94501611328125,-1.85491943359375,-1.6472015380859375,0.719879150390625
1761915164844070100,6.955070068359375,-1.9300689697265625,-1.4932403564453125,0.6020355224609375
1761915164854124000,6.9651240234375,-1.92822265625,-1.3883819580078125,0.556182861328125
1761915164864178200,6.97517822265625,-1.8887481689453125,-1.346771240234375,0.5767669677734375
1761915164874233000,6.985233154296875,-1.82440185546875,-1.3150482177734375,0.604278564453125
1761915164884287200,6.995287353515625,-1.7497711181640625,-1.2615203857421875,0.59283447265625
1761915164894340900,7.0053408203125,-1.6172943115234375,-1.17120361328125,0.53387451171875
1761915164904395000,7.01539501953125,-1.4412994384765625,-1.0622711181640625,0.44903564453125
1761915164914449000,7.025448974609375,-1.26373291015625,-0.935394287109375,0.35491943359375
1761915164924504000,7.035504150390625,-1.094024658203125,-0.823883056640625,0.2694854736328125
1761915164934558200,7.04555810546875,-0.943511962890625,-0.7323760986328125,0.19305419921875
1761915164944612000,7.055612060546875,-0.78485107421875,-0.6397857666015625,0.1131591796875
1761915164954666200,7.065666259765625,-0.64141845703125,-0.54669189453125,0.022369384765625
1761915164964720000,7.07572021484375,-0.529296875,-0.4558563232421875,-0.0530548095703125
1761915164974775000,7.085775146484375,-0.4605712890625,-0.3707427978515625,-0.1202392578125
1761915164984829200,7.0958291015625,-0.4116058349609375,-0.2946014404296875,-0.1644744873046875
1761915164994883000,7.105883056640625,-0.38446044921875,-0.256500244140625,-0.1887969970703125
1761915165004937200,7.115937255859375,-0.3442535400390625,-0.22900390625,-0.202392578125
1761915165014991000,7.1259912109375,-0.3273468017578125,-0.19049072265625,-0.193511962890625
1761915165025046000,7.1360458984375,-0.2893524169921875,-0.0781707763671875,-0.2156524658203125
1761915165035100000,7.146099853515625,-0.2079315185546875,0.0048828125,-0.2233734130859375
1761915165045154000,7.156154052734375,-0.145721435546875,0.0192108154296875,-0.197906494140625
1761915165055208000,7.1662080078125,-0.0878143310546875,0.0174713134765625,-0.1511383056640625
1761915165065262000,7.176261962890625,-0.0260009765625,0.0515899658203125,-0.11224365234375
1761915165075317200,7.186317138671875,0.040435791015625,0.073516845703125,-0.0717010498046875
1761915165085371100,7.19637109375,0.0913238525390625,0.062957763671875,-0.0224609375
1761915165095425000,7.206425048828125,0.1178131103515625,0.064056396484375,0.0196533203125
1761915165105479000,7.21647900390625,0.1446075439453125,0.064697265625,0.0588836669921875
1761915165115534000,7.2265341796875,0.1559295654296875,0.048065185546875,0.0947723388671875
1761915165125588200,7.236588134765625,0.1421966552734375,0.0265655517578125,0.12237548828125
1761915165135642000,7.24664208984375,0.119720458984375,-0.006561279296875,0.1336822509765625
1761915165145696300,7.2566962890625,0.0760345458984375,-0.0491943359375,0.134796142578125
1761915165155750100,7.266750244140625,0.0068359375,-0.0974273681640625,0.1117706298828125
1761915165165805000,7.27680517578125,-0.080718994140625,-0.1463165283203125,0.07183837890625
1761915165175859000,7.28685888671875,-0.2219696044921875,-0.22100830078125,0.0543975830078125
1761915165185913000,7.2969130859375,-0.3240966796875,-0.352386474609375,0.0428924560546875
1761915165195967200,7.30696728515625,-0.3493499755859375,-0.492919921875,0.0077056884765625
1761915165206021000,7.317021240234375,-0.3912811279296875,-0.6764373779296875,-0.027740478515625
1761915165216076000,7.327075927734375,-0.5533599853515625,-0.87481689453125,-0.055938720703125
1761915165226130000,7.3371298828125,-0.761566162109375,-0.965972900390625,-0.1050567626953125
1761915165236184000,7.34718408203125,-1.0077362060546875,-0.9689483642578125,-0.1687164306640625
1761915165246238000,7.357238037109375,-1.14715576171875,-1.0522308349609375,-0.15380859375
1761915165256293000,7.367293212890625,-1.248870849609375,-1.2737884521484375,-0.03521728515625
1761915165266347300,7.37734716796875,-1.3337860107421875,-1.445465087890625,0.0682525634765625
1761915165276401200,7.387401123046875,-1.3659515380859375,-1.616424560546875,0.1686859130859375
1761915165286455000,7.397455078125,-1.447021484375,-1.7606201171875,0.2260589599609375
1761915165296509000,7.407509033203125,-1.5495147705078125,-1.8057861328125,0.2310333251953125
1761915165306564000,7.417564208984375,-1.690338134765625,-1.88433837890625,0.2468414306640625
1761915165316618000,7.427617919921875,-1.83721923828125,-1.913482666015625,0.2357940673828125
1761915165326672100,7.437672119140625,-1.8220367431640625,-1.903045654296875,0.186737060546875
1761915165336726300,7.447726318359375,-1.7476654052734375,-1.904815673828125,0.129425048828125
1761915165346780200,7.4577802734375,-1.6829681396484375,-1.8865509033203125,0.0698089599609375
1761915165356835000,7.4678349609375,-1.608612060546875,-1.7604522705078125,-0.005340576171875
1761915165366889000,7.477888916015625,-1.5234527587890625,-1.519989013671875,-0.1055908203125
1761915165376943000,7.487943115234375,-1.4041290283203125,-1.2448577880859375,-0.1844024658203125
1761915165386997000,7.4979970703125,-1.26806640625,-0.9929656982421875,-0.214019775390625
1761915165397051100,7.508051025390625,-1.1197662353515625,-0.78582763671875,-0.21099853515625
1761915165407106000,7.51810595703125,-0.9867095947265625,-0.6200714111328125,-0.1959075927734375
1761915165417160000,7.528159912109375,-0.8647613525390625,-0.4871826171875,-0.1743621826171875
1761915165427214000,7.538214111328125,-0.7263336181640625,-0.3872222900390625,-0.15399169921875
1761915165437268000,7.54826806640625,-0.578857421875,-0.3044891357421875,-0.1318359375
1761915165447323100,7.5583232421875,-0.444244384765625,-0.23333740234375,-0.1194000244140625
1761915165457377300,7.568377197265625,-0.2896728515625,-0.1654815673828125,-0.104888916015625
1761915165467431200,7.57843115234375,-0.13824462890625,-0.0850067138671875,-0.0874176025390625
1761915165477485000,7.588485107421875,-0.042938232421875,-0.0036773681640625,-0.060150146484375
1761915165487539000,7.5985390625,0.0074920654296875,0.041107177734375,-0.009765625
1761915165497594000,7.608593994140625,0.0083465576171875,0.0536651611328125,0.052520751953125
1761915165507648000,7.61864794921875,-0.0166778564453125,0.05072021484375,0.118133544921875
1761915165517702100,7.6287021484375,-0.0364990234375,0.0132904052734375,0.18670654296875
1761915165527756000,7.638756103515625,-0.04290771484375,-0.030731201171875,0.231292724609375
1761915165537810200,7.64881005859375,-0.0380859375,-0.0503997802734375,0.2342529296875
1761915165547865000,7.658864990234375,-0.0290069580078125,-0.06353759765625,0.2148284912109375
1761915165557919000,7.6689189453125,-0.0178070068359375,-0.08709716796875,0.1843414306640625
1761915165567973000,7.67897314453125,0.0132293701171875,-0.1035919189453125,0.1541595458984375
1761915165578027000,7.689027099609375,0.0137176513671875,-0.1231231689453125,0.1457061767578125
1761915165588081200,7.6990810546875,0.0063323974609375,-0.1610565185546875,0.1395721435546875
1761915165598135800,7.7091357421875,0.03582763671875,-0.181915283203125,0.12506103515625
1761915165608189700,7.719189697265625,0.0727691650390625,-0.194793701171875,0.1076812744140625
1761915165618243600,7.72924365234375,0.083099365234375,-0.21563720703125,0.09454345703125
1761915165628297500,7.73929736328125,0.0480804443359375,-0.2227020263671875,0.0863189697265625
1761915165638352600,7.7493525390625,-0.009002685546875,-0.2476043701171875,0.0841827392578125
1761915165648406800,7.75940673828125,-0.077667236328125,-0.30291748046875,0.1109619140625
1761915165658460700,7.769460693359375,-0.162322998046875,-0.3798828125,0.14483642578125
1761915165668514800,7.779514892578125,-0.283660888671875,-0.46734619140625,0.18682861328125
1761915165678568700,7.789568603515625,-0.4544830322265625,-0.5975341796875,0.25628662109375
1761915165688623600,7.79962353515625,-0.6789398193359375,-0.726898193359375,0.3218231201171875
1761915165698677500,7.809677490234375,-0.9109649658203125,-0.8141326904296875,0.3423004150390625
1761915165708731600,7.819731689453125,-1.049774169921875,-0.891571044921875,0.3231353759765625
1761915165718785500,7.82978564453125,-1.1559600830078125,-0.9874725341796875,0.316070556640625
1761915165728839700,7.839839599609375,-1.2196502685546875,-1.166534423828125,0.423126220703125
1761915165738894600,7.84989453125,-1.32196044921875,-1.414337158203125,0.6470184326171875
1761915165748948500,7.859948486328125,-1.51397705078125,-1.668670654296875,0.9141387939453125
1761915165759002600,7.870002685546875,-1.7144775390625,-1.815338134765625,1.080413818359375
1761915165769056500,7.880056396484375,-1.8967132568359375,-1.77081298828125,1.0548553466796875
1761915165779110700,7.890110595703125,-2.0133514404296875,-1.6002960205078125,0.917022705078125
1761915165789165800,7.900165771484375,-2.08673095703125,-1.4323577880859375,0.7863616943359375
1761915165799219700,7.9102197265625,-2.0691986083984375,-1.3134765625,0.6494140625
1761915165809273600,7.920273681640625,-1.9785003662109375,-1.2424468994140625,0.524169921875
1761915165819327500,7.930327392578125,-1.8982391357421875,-1.188995361328125,0.440277099609375
1761915165829382700,7.940382568359375,-1.8191680908203125,-1.1379241943359375,0.4025115966796875
1761915165839436500,7.9504365234375,-1.702850341796875,-1.04766845703125,0.3779144287109375
1761915165849490700,7.96049072265625,-1.530975341796875,-0.92596435546875,0.355682373046875
1761915165859544600,7.970544677734375,-1.291412353515625,-0.82073974609375,0.3506011962890625
1761915165869598700,7.9805986328125,-1.059722900390625,-0.698974609375,0.360565185546875
1761915165879653600,7.990653564453125,-0.8360595703125,-0.6010894775390625,0.377655029296875
1761915165889707500,8.00070751953125,-0.6258087158203125,-0.505401611328125,0.36663818359375
1761915165899761700,8.01076171875,-0.445037841796875,-0.3784637451171875,0.322479248046875
1761915165909815600,8.020815673828125,-0.326690673828125,-0.2404937744140625,0.271759033203125
1761915165919869700,8.03086962890625,-0.197479248046875,-0.160675048828125,0.22784423828125
1761915165929924600,8.040924560546875,-0.113037109375,-0.13616943359375,0.2200927734375
1761915165939978500,8.050978515625,-0.105194091796875,-0.1246490478515625,0.2358551025390625
1761915165950032600,8.06103271484375,-0.10931396484375,-0.0962371826171875,0.233612060546875
1761915165960086500,8.07108642578125,-0.1060943603515625,-0.0468597412109375,0.197784423828125
1761915165970141700,8.0811416015625,-0.0834808349609375,-0.0051422119140625,0.1665191650390625
1761915165980195600,8.091195556640624,-0.0533599853515625,0.0034027099609375,0.163482666015625
1761915165990249700,8.101249755859374,-0.0288238525390625,-0.005950927734375,0.1716156005859375
1761915166000303600,8.1113037109375,0.0092010498046875,-0.019744873046875,0.1828155517578125
1761915166010357500,8.121357421875,0.028778076171875,-0.0259552001953125,0.1953887939453125
1761915166020412700,8.13141259765625,0.0273895263671875,-0.01678466796875,0.1959228515625
1761915166030466600,8.141466552734375,0.026458740234375,0.003326416015625,0.1895599365234375
1761915166040520700,8.151520751953125,0.0050201416015625,0.0088653564453125,0.179443359375
1761915166050574600,8.16157470703125,-0.0152435302734375,-0.00567626953125,0.1572418212890625
1761915166060628700,8.171628662109375,-0.0492706298828125,-0.0257720947265625,0.11517333984375
1761915166070683600,8.18168359375,-0.094635009765625,-0.039703369140625,0.0384368896484375
1761915166080737500,8.191737548828126,-0.1935577392578125,-0.0758514404296875,-0.019195556640625
1761915166090791700,8.201791748046874,-0.388031005859375,-0.1520233154296875,-0.02886962890625
1761915166100845600,8.211845458984374,-0.6616363525390625,-0.208953857421875,-0.0566253662109375
1761915166110900700,8.221900634765625,-0.8393707275390625,-0.2975311279296875,-0.1186065673828125
1761915166120954600,8.23195458984375,-0.977325439453125,-0.4207305908203125,-0.1932830810546875
1761915166131008500,8.242008544921875,-1.1284332275390625,-0.578216552734375,-0.2665252685546875
1761915166141062700,8.252062744140625,-1.2308349609375,-0.712249755859375,-0.37158203125
1761915166151116500,8.262116455078125,-1.320404052734375,-0.7777252197265625,-0.4888458251953125
1761915166161171700,8.272171630859376,-1.464141845703125,-0.7747039794921875,-0.5858306884765625
1761915166171225600,8.2822255859375,-1.662750244140625,-0.744049072265625,-0.6486358642578125
1761915166181279700,8.29227978515625,-1.873565673828125,-0.68109130859375,-0.6616973876953125
1761915166191333600,8.302333740234374,-2.0108184814453125,-0.64697265625,-0.61248779296875
1761915166201387500,8.312387451171874,-2.1266937255859375,-0.694366455078125,-0.49322509765625
1761915166211442700,8.322442626953125,-2.2225799560546875,-0.7563629150390625,-0.3931121826171875
1761915166221496600,8.33249658203125,-2.2319183349609375,-0.8492584228515625,-0.3335113525390625
1761915166231550700,8.34255078125,-2.1386566162109375,-0.999359130859375,-0.2924652099609375
1761915166241604600,8.3526044921875,-1.999481201171875,-1.1487579345703125,-0.2831878662109375
1761915166251659500,8.362659423828125,-1.8031158447265625,-1.2699127197265625,-0.2982177734375
1761915166261713700,8.372713623046875,-1.5944671630859375,-1.333740234375,-0.340423583984375
1761915166271767600,8.382767578125,-1.392822265625,-1.283447265625,-0.3976593017578125
1761915166281821700,8.39282177734375,-1.2162628173828125,-1.1989593505859375,-0.4199981689453125
1761915166291875600,8.40287548828125,-1.129852294921875,-1.083770751953125,-0.392791748046875
1761915166301930800,8.4129306640625,-1.0666961669921875,-0.9046173095703125,-0.322509765625
1761915166311984600,8.422984619140625,-0.99237060546875,-0.7043304443359375,-0.2245635986328125
1761915166322038500,8.43303857421875,-0.9670562744140625,-0.51031494140625,-0.110626220703125
1761915166332092400,8.443092529296875,-0.9312896728515625,-0.369598388671875,-0.0037078857421875
1761915166342146600,8.453146484375,-0.8130340576171875,-0.2843475341796875,0.07391357421875
1761915166352201700,8.46320166015625,-0.666839599609375,-0.2278900146484375,0.122711181640625
1761915166362255600,8.473255615234375,-0.544830322265625,-0.19244384765625,0.1438751220703125
1761915166372309800,8.483309814453126,-0.4442596435546875,-0.17169189453125,0.138671875
1761915166382363600,8.49336376953125,-0.353271484375,-0.1287841796875,0.090789794921875
1761915166392418600,8.50341845703125,-0.3072509765625,-0.06414794921875,0.03997802734375
1761915166402472700,8.51347265625,-0.2914581298828125,-0.0257720947265625,0.017059326171875
1761915166412526600,8.523526611328125,-0.2527923583984375,-0.01568603515625,0.01910400390625
1761915166422580700,8.533580810546875,-0.2373046875,-0.0380096435546875,0.051666259765625
1761915166432634600,8.543634521484375,-0.2545318603515625,-0.06671142578125,0.0915679931640625
1761915166442689500,8.553689453125,-0.2479095458984375,-0.091094970703125,0.1164703369140625
1761915166452743400,8.563743408203125,-0.2178802490234375,-0.1114349365234375,0.1331787109375
1761915166462797600,8.573797607421875,-0.176116943359375,-0.125152587890625,0.1408538818359375
1761915166472851500,8.5838515625,-0.15863037109375,-0.1276397705078125,0.14434814453125
1761915166482906600,8.59390673828125,-0.147796630859375,-0.13568115234375,0.1216583251953125
1761915166492960800,8.603960693359374,-0.1151275634765625,-0.14208984375,0.0875396728515625
1761915166503014700,8.6140146484375,-0.0831146240234375,-0.16290283203125,0.0623779296875
1761915166513068800,8.62406884765625,-0.0990142822265625,-0.183746337890625,0.0450592041015625
1761915166523122400,8.634122314453125,-0.1230316162109375,-0.2005157470703125,0.0319366455078125
1761915166533177600,8.644177490234375,-0.1409454345703125,-0.239501953125,0.0368804931640625
1761915166543231700,8.654231689453125,-0.202667236328125,-0.3062286376953125,0.071746826171875
1761915166553285600,8.66428564453125,-0.3092498779296875,-0.3494873046875,0.0948028564453125
1761915166563339800,8.67433984375,-0.412322998046875,-0.397491455078125,0.11602783203125
1761915166573394400,8.68439453125,-0.510955810546875,-0.4580535888671875,0.133941650390625
1761915166583448600,8.694448486328126,-0.676910400390625,-0.5171966552734375,0.156219482421875
1761915166593502700,8.704502685546874,-0.8614044189453125,-0.5700531005859375,0.1617431640625
1761915166603556600,8.714556640625,-1.038116455078125,-0.5729522705078125,0.144256591796875
1761915166613610800,8.72461083984375,-1.1779632568359375,-0.611236572265625,0.154937744140625
1761915166623666000,8.734666015625,-1.2666778564453125,-0.7549591064453125,0.2268524169921875
1761915166633719800,8.7447197265625,-1.376251220703125,-0.9085693359375,0.3176727294921875
1761915166643773700,8.754773681640625,-1.5443115234375,-0.9808197021484375,0.372100830078125
1761915166653827600,8.76482763671875,-1.6993255615234375,-1.030120849609375,0.3957366943359375
1761915166663881700,8.7748818359375,-1.880340576171875,-1.1024932861328125,0.4031219482421875
1761915166673936600,8.7849365234375,-2.0423126220703125,-1.148529052734375,0.3570404052734375
1761915166683990800,8.79499072265625,-2.083984375,-1.16815185546875,0.2387542724609375
1761915166694044700,8.805044677734376,-2.0107269287109375,-1.248931884765625,0.1711578369140625
1761915166704098800,8.815098876953124,-1.9338836669921875,-1.3255462646484375,0.1634368896484375
1761915166714152700,8.825152587890624,-1.82269287109375,-1.298187255859375,0.1341705322265625
1761915166724207600,8.83520751953125,-1.68109130859375,-1.2382049560546875,0.1127166748046875
1761915166734261800,8.84526171875,-1.541778564453125,-1.203521728515625,0.11651611328125
1761915166744315600,8.855315673828125,-1.3701171875,-1.155670166015625,0.1092681884765625
1761915166754369800,8.865369873046875,-1.1878509521484375,-1.0799713134765625,0.1134490966796875
1761915166764424700,8.8754248046875,-1.0385284423828125,-1.00274658203125,0.127349853515625
1761915166774478600,8.885478515625,-0.92767333984375,-0.9185028076171875,0.12158203125
1761915166784532700,8.89553271484375,-0.8318939208984375,-0.8023834228515625,0.06500244140625
1761915166794586600,8.905586669921876,-0.7448883056640625,-0.6749267578125,-0.0470123291015625
1761915166804640800,8.915640869140624,-0.673553466796875,-0.5466461181640625,-0.147979736328125
1761915166814695700,8.92569580078125,-0.6410369873046875,-0.4241790771484375,-0.2172088623046875
1761915166824749800,8.935749755859375,-0.6345977783203125,-0.3214111328125,-0.236846923828125
1761915166834803700,8.9458037109375,-0.593963623046875,-0.2398529052734375,-0.22930908203125
1761915166844857600,8.955857666015625,-0.54925537109375,-0.16021728515625,-0.1998291015625
1761915166854912800,8.965912841796875,-0.5029449462890625,-0.0923004150390625,-0.1517333984375
1761915166864966700,8.975966552734375,-0.4598236083984375,-0.065032958984375,-0.07769775390625
1761915166875020800,8.986020751953125,-0.3966827392578125,-0.06427001953125,-0.00537109375
1761915166885074700,8.99607470703125,-0.31842041015625,-0.0733489990234375,0.0590057373046875
1761915166895128800,9.00612890625,-0.2572784423828125,-0.0903778076171875,0.1143798828125
1761915166905183700,9.016183837890624,-0.2056732177734375,-0.111572265625,0.1507415771484375
1761915166915237600,9.026237548828124,-0.1332244873046875,-0.1377716064453125,0.170196533203125
1761915166925291800,9.036291748046875,-0.0497589111328125,-0.1635589599609375,0.1671905517578125
1761915166935345700,9.046345703125,0.028350830078125,-0.186309814453125,0.146087646484375
1761915166945400800,9.05640087890625,0.064910888671875,-0.1909942626953125,0.12445068359375
1761915166955454700,9.066454833984375,0.07562255859375,-0.1944732666015625,0.10809326171875
1761915166965508600,9.076508544921875,0.0771026611328125,-0.1919097900390625,0.08135986328125
1761915166975562800,9.086562744140625,0.053741455078125,-0.1905670166015625,0.05126953125
1761915166985616600,9.09661669921875,-0.01568603515625,-0.1976318359375,0.036529541015625
1761915166995671800,9.106671875,-0.1059112548828125,-0.2166748046875,0.0438995361328125
1761915167005725700,9.1167255859375,-0.2247772216796875,-0.252105712890625,0.0682220458984375
1761915167015779800,9.12677978515625,-0.3448944091796875,-0.307159423828125,0.1019134521484375
1761915167025833700,9.136833740234374,-0.448150634765625,-0.411956787109375,0.1455841064453125
1761915167035887600,9.1468876953125,-0.5496063232421875,-0.5220489501953125,0.1585693359375
1761915167045942800,9.15694287109375,-0.71124267578125,-0.5994720458984375,0.131988525390625
1761915167055996700,9.16699658203125,-0.8870697021484375,-0.71417236328125,0.097991943359375
1761915167066050800,9.17705078125,-1.075836181640625,-0.8100738525390625,0.03350830078125
1761915167076104700,9.187104736328125,-1.21319580078125,-0.8349761962890625,-0.0973968505859375
1761915167086159600,9.19715966796875,-1.3231658935546875,-0.847930908203125,-0.2299652099609375
1761915167096213800,9.2072138671875,-1.4249420166015625,-0.9387359619140625,-0.28289794921875
1761915167106267600,9.217267578125,-1.51470947265625,-1.000732421875,-0.26116943359375
1761915167116321800,9.22732177734375,-1.6049652099609375,-1.1002044677734375,-0.1331024169921875
1761915167126375700,9.237375732421874,-1.8390045166015625,-1.2638702392578125,0.0360870361328125
1761915167136430800,9.247430908203125,-2.0544281005859375,-1.294097900390625,0.0576019287109375
1761915167146484700,9.257484619140625,-2.12969970703125,-1.2357177734375,-0.0500335693359375
1761915167156538600,9.26753857421875,-2.1512603759765625,-1.2067413330078125,-0.1541290283203125
1761915167166592500,9.277592529296875,-2.092193603515625,-1.155487060546875,-0.218994140625
1761915167176647700,9.287647705078125,-1.9179534912109375,-1.0452117919921875,-0.276153564453125
1761915167186701800,9.297701904296876,-1.7011260986328125,-0.951934814453125,-0.288818359375
1761915167196755700,9.307755615234376,-1.53448486328125,-0.892913818359375,-0.245849609375
1761915167206809900,9.317809814453126,-1.3514862060546875,-0.811187744140625,-0.1823272705078125
1761915167216863700,9.32786376953125,-1.20733642578125,-0.7039337158203125,-0.1005401611328125
1761915167226918700,9.337918701171875,-1.0992889404296875,-0.591461181640625,-0.0197906494140625
1761915167236972800,9.347972900390625,-0.9664154052734375,-0.49346923828125,0.0464630126953125
1761915167247026700,9.358026611328125,-0.897857666015625,-0.433380126953125,0.0872955322265625
1761915167257080800,9.368080810546875,-0.9109649658203125,-0.3769073486328125,0.068023681640625
1761915167267135700,9.3781357421875,-0.9211578369140625,-0.2605438232421875,-0.0362548828125
1761915167277189600,9.388189697265625,-0.897216796875,-0.190399169921875,-0.114044189453125
1761915167287243500,9.398243408203125,-0.851715087890625,-0.1490020751953125,-0.15899658203125
1761915167297297700,9.408297607421876,-0.78564453125,-0.106109619140625,-0.18035888671875
1761915167307351800,9.418351806640626,-0.691253662109375,-0.084808349609375,-0.16082763671875
1761915167317406700,9.42840673828125,-0.576385498046875,-0.085601806640625,-0.1137847900390625
1761915167327460900,9.4384609375,-0.454833984375,-0.10479736328125,-0.0485382080078125
1761915167337514800,9.4485146484375,-0.330841064453125,-0.133087158203125,0.0208282470703125
1761915167347568600,9.458568603515625,-0.218414306640625,-0.1305084228515625,0.0632781982421875
1761915167357622500,9.46862255859375,-0.1209869384765625,-0.098419189453125,0.074981689453125
1761915167367677700,9.478677734375,-0.0404052734375,-0.0806884765625,0.0878753662109375
1761915167377731800,9.48873193359375,0.0006256103515625,-0.083099365234375,0.1023101806640625
1761915167387785700,9.49878564453125,0.0142822265625,-0.0882720947265625,0.113525390625
1761915167397840000,9.50883984375,0.0059661865234375,-0.1023712158203125,0.1272735595703125
1761915167407894500,9.51889453125,-0.0182342529296875,-0.1218719482421875,0.13763427734375
1761915167417948700,9.52894873046875,-0.0460205078125,-0.126678466796875,0.1395721435546875
1761915167428002600,9.53900244140625,-0.0642242431640625,-0.1228790283203125,0.1240692138671875
1761915167438056700,9.549056640625,-0.0802764892578125,-0.1187744140625,0.1067352294921875
1761915167448110800,9.55911083984375,-0.1421356201171875,-0.1088714599609375,0.0976409912109375
1761915167458165800,9.569165771484375,-0.2340850830078125,-0.1013336181640625,0.089508056640625
1761915167468219600,9.5792197265625,-0.3034515380859375,-0.1195831298828125,0.08990478515625
1761915167478273500,9.5892734375,-0.362640380859375,-0.1871795654296875,0.0927581787109375
1761915167488327700,9.59932763671875,-0.405731201171875,-0.32061767578125,0.1085052490234375
1761915167498382800,9.6093828125,-0.528778076171875,-0.4925994873046875,0.145233154296875
1761915167508436700,9.619436767578126,-0.7342071533203125,-0.64990234375,0.191802978515625
1761915167518491000,9.629490966796874,-0.9779815673828125,-0.78985595703125,0.2058258056640625
1761915167528544800,9.639544677734374,-1.232452392578125,-0.8735809326171875,0.1562347412109375
1761915167538598700,9.6495986328125,-1.374298095703125,-0.906707763671875,0.048095703125
1761915167548653600,9.659653564453125,-1.415771484375,-1.015228271484375,0.018310546875
1761915167558707700,9.669707763671875,-1.4896240234375,-1.2436065673828125,0.1142730712890625
1761915167568761900,9.679761962890625,-1.6111907958984375,-1.452484130859375,0.2590789794921875
1761915167578815700,9.689815673828125,-1.7769775390625,-1.5263214111328125,0.3567962646484375
1761915167588870000,9.699869873046875,-1.94354248046875,-1.4237213134765625,0.3757476806640625
1761915167598925000,9.709925048828126,-2.1064453125,-1.2683563232421875,0.3759002685546875
1761915167608979000,9.71997900390625,-2.27166748046875,-1.086944580078125,0.328887939453125
1761915167619033000,9.730033203125,-2.2682952880859375,-0.9462432861328125,0.2474365234375
1761915167629087000,9.7400869140625,-2.1686859130859375,-0.85711669921875,0.1876068115234375
1761915167639142100,9.75014208984375,-2.064544677734375,-0.8214569091796875,0.1343536376953125
1761915167649196000,9.760196044921875,-1.8849945068359375,-0.74957275390625,0.037261962890625
1761915167659250000,9.77025,-1.6031494140625,-0.617462158203125,-0.073944091796875
1761915167669304000,9.780303955078125,-1.3072357177734375,-0.5117034912109375,-0.137908935546875
1761915167679358000,9.79035791015625,-1.006561279296875,-0.4540252685546875,-0.14056396484375
1761915167689413000,9.8004130859375,-0.7217864990234375,-0.3641815185546875,-0.1138916015625
1761915167699467300,9.81046728515625,-0.4819793701171875,-0.2884674072265625,-0.060516357421875
1761915167709521200,9.820521240234376,-0.2906646728515625,-0.2630615234375,-0.00286865234375
1761915167719575000,9.830574951171876,-0.1652069091796875,-0.2202911376953125,0.0248870849609375
1761915167729630000,9.8406298828125,-0.0096893310546875,-0.2006683349609375,0.025115966796875
1761915167739684000,9.85068408203125,0.0742340087890625,-0.2001953125,0.0321044921875
1761915167749738000,9.860738037109375,0.104827880859375,-0.1737823486328125,0.03656005859375
1761915167759792000,9.870792236328125,0.1085357666015625,-0.1487884521484375,0.03411865234375
1761915167769846300,9.88084619140625,0.08270263671875,-0.1412200927734375,0.037017822265625
1761915167779901000,9.89090087890625,0.0262603759765625,-0.1967620849609375,0.0610504150390625
1761915167789955000,9.900955078125,-0.001068115234375,-0.15545654296875,0.0648345947265625
1761915167800009000,9.911009033203126,-0.0218658447265625,-0.08050537109375,0.0591278076171875
1761915167810063000,9.92106298828125,-0.0963287353515625,-0.0478668212890625,0.0619354248046875
1761915167820118300,9.9311181640625,-0.1789093017578125,-0.003631591796875,0.06109619140625
1761915167830172200,9.941172119140624,-0.1983795166015625,-0.007293701171875,0.0653228759765625
1761915167840226000,9.95122607421875,-0.20343017578125,-0.05963134765625,0.053924560546875
1761915167850280000,9.961280029296875,-0.2251739501953125,-0.1189727783203125,0.018890380859375
1761915167860334000,9.971333984375,-0.3160400390625,-0.1638336181640625,-0.0186004638671875
1761915167870389000,9.981388916015625,-0.4312896728515625,-0.2021026611328125,-0.02398681640625
1761915167880443100,9.991443115234375,-0.521575927734375,-0.2537689208984375,0.0059051513671875
1761915167890497000,10.0014970703125,-0.588531494140625,-0.3627777099609375,0.083160400390625
1761915167900551200,10.01155126953125,-0.5278778076171875,-0.469512939453125,0.141845703125
1761915167910605300,10.021605224609376,-0.4342193603515625,-0.604949951171875,0.0973052978515625
1761915167920660000,10.031659912109374,-1.0941162109375,-0.9866485595703125,0.03399658203125
1761915167930714000,10.041714111328124,-1.4157867431640625,-1.1366729736328125,0.0044708251953125
1761915167940768000,10.05176806640625,-1.2989044189453125,-1.0212860107421875,-0.128326416015625
1761915167950822100,10.061822265625,-1.3862762451171875,-0.8388671875,-0.275970458984375
1761915167960877000,10.071876953125,-1.6208343505859375,-0.8264007568359375,-0.2543487548828125
1761915167970931000,10.081930908203125,-1.806915283203125,-0.9113311767578125,-0.184814453125
1761915167980985000,10.091985107421875,-1.847808837890625,-0.9409027099609375,-0.1134185791015625
1761915167991039000,10.1020390625,-1.7003021240234375,-0.9149322509765625,0.02484130859375
1761915168001093000,10.112093017578125,-1.6909332275390625,-0.8083343505859375,0.11566162109375
1761915168011148000,10.12214794921875,-1.6506805419921875,-0.78704833984375,0.1516571044921875
1761915168021202200,10.1322021484375,-1.5670928955078125,-0.85540771484375,0.14996337890625
1761915168031256300,10.14225634765625,-1.5341796875,-0.901397705078125,0.1566162109375
1761915168041310000,10.15231005859375,-1.4991607666015625,-0.9022674560546875,0.1703338623046875
1761915168051365000,10.162365234375,-1.3959808349609375,-0.897308349609375,0.132537841796875
1761915168061419000,10.1724189453125,-1.2566070556640625,-0.880035400390625,0.0565338134765625
1761915168071473200,10.18247314453125,-1.125244140625,-0.82275390625,-0.0261688232421875
1761915168081527000,10.192527099609375,-0.9823760986328125,-0.68682861328125,-0.076934814453125
1761915168091581200,10.202581298828125,-0.847412109375,-0.4618988037109375,-0.07171630859375
1761915168101636000,10.212635986328126,-0.7347259521484375,-0.282470703125,-0.0321807861328125
1761915168111690000,10.22268994140625,-0.7405853271484375,-0.236968994140625,0.0418853759765625
1761915168121744100,10.232744140625,-0.77410888671875,-0.2431793212890625,0.12420654296875
1761915168131798000,10.242798095703124,-0.738677978515625,-0.2107391357421875,0.1659088134765625
1761915168141853200,10.252853271484375,-0.72259521484375,-0.1576385498046875,0.1714019775390625
1761915168151907000,10.262906982421875,-0.6886138916015625,-0.1504974365234375,0.1519775390625
1761915168161961000,10.2729609375,-0.617401123046875,-0.166961669921875,0.1429595947265625
1761915168172015000,10.28301513671875,-0.5082550048828125,-0.1842041015625,0.11968994140625
1761915168182069000,10.293069091796875,-0.408233642578125,-0.1834564208984375,0.0928497314453125
1761915168192124200,10.303124267578125,-0.41558837890625,-0.1900177001953125,0.1135711669921875
1761915168202178000,10.313177978515625,-0.42120361328125,-0.2731781005859375,0.125762939453125
1761915168212232200,10.323232177734376,-0.4079132080078125,-0.334808349609375,0.131134033203125
1761915168222286000,10.3332861328125,-0.438873291015625,-0.3740997314453125,0.1438446044921875
1761915168232341000,10.343341064453124,-0.453125,-0.4115753173828125,0.14501953125
1761915168242395100,10.35339501953125,-0.475372314453125,-0.4669036865234375,0.1419219970703125
1761915168252449000,10.363448974609375,-0.4648284912109375,-0.544647216796875,0.124725341796875
1761915168262503200,10.373503173828125,-0.4944305419921875,-0.56134033203125,0.111328125
1761915168272557000,10.38355712890625,-0.576690673828125,-0.5175933837890625,0.1208343505859375
