time,seconds_elapsed,z,y,x
1761915157972032500,0.083032470703125,0.44474363327026367,0.5079026222229004,0.5014638900756836
1761915157982086400,0.09308642578125,0.4562021493911743,0.5462816953659058,0.42823389172554016
1761915157992140500,0.103140625,0.471244215965271,0.3362938463687897,0.29429182410240173
1761915158002195500,0.113195556640625,0.4964526295661926,0.10863246768712997,0.21254129707813263
1761915158012249300,0.123249267578125,0.6131952404975891,0.23612092435359955,0.3320900499820709
1761915158022303200,0.13330322265625,0.6997700929641724,-0.027274496853351593,0.36881157755851746
1761915158032357400,0.143357421875,0.6292149424552917,-0.3704800605773926,0.28783631324768066
1761915158042411500,0.15341162109375,0.585475742816925,-0.4745774269104004,0.2596518099308014
1761915158052466400,0.163466552734375,0.57838374376297,-0.35064804553985596,0.23578323423862457
1761915158062520600,0.1735205078125,0.45798513293266296,-0.06769728660583496,0.19455723464488983
1761915158072574500,0.183574462890625,0.12400982528924942,0.31169503927230835,0.16179636120796204
1761915158082628600,0.193628662109375,-0.34718966484069824,0.6983223557472229,0.20553557574748993
1761915158092682200,0.20368212890625,-0.6653282046318054,0.8896118998527527,0.35691845417022705
1761915158102737400,0.2137373046875,-0.6162080764770508,0.7850916385650635,0.5969760417938232
1761915158112791600,0.22379150390625,-0.2562991678714752,0.4425225555896759,0.8396880030632019
1761915158122845400,0.233845458984375,0.04024728760123253,-0.0776710957288742,0.9330768585205078
1761915158132899600,0.243899658203125,-0.017650365829467773,-0.3456982672214508,0.721767246723175
1761915158142953500,0.253953369140625,-0.1813191920518875,-0.4096684753894806,0.31907811760902405
1761915158153007600,0.264007568359375,-0.25330469012260437,-0.7930968403816223,-0.15731878578662872
1761915158163062500,0.2740625,-0.1450709104537964,-1.3082126379013062,-0.5774364471435547
1761915158173116400,0.284116455078125,0.13440866768360138,-1.8228552341461182,-0.8284097909927368
1761915158183170600,0.294170654296875,0.41887155175209045,-1.8153672218322754,-0.9783638715744019
1761915158193224400,0.304224365234375,0.594896137714386,-1.1950604915618896,-1.1449365615844727
1761915158203278600,0.314278564453125,0.6116876006126404,-0.4212058186531067,-1.368155598640442
1761915158213333200,0.324333251953125,0.6591858863830566,-0.026802320033311844,-1.5172585248947144
1761915158223387400,0.334387451171875,0.7856019139289856,0.048878591507673264,-1.6157782077789307
1761915158233441300,0.344441162109375,1.0193872451782227,-0.06727810949087143,-1.5669856071472168
1761915158243495400,0.354495361328125,1.1006823778152466,-0.2067584991455078,-1.4707967042922974
1761915158253549600,0.364549560546875,1.0494825839996338,-0.32671207189559937,-1.3165630102157593
1761915158263604500,0.3746044921875,0.9453753232955933,-0.31772151589393616,-1.135848045349121
1761915158273658600,0.38465869140625,0.853052020072937,-0.14429698884487152,-0.9514779448509216
1761915158283712500,0.39471240234375,0.815466582775116,0.23539067804813385,-0.7570235133171082
1761915158293766400,0.404766357421875,0.8313656449317932,0.671268105506897,-0.5470889210700989
1761915158303820300,0.4148203125,0.8657950162887573,1.0029603242874146,-0.32845377922058105
1761915158313875500,0.42487548828125,0.8450663089752197,1.1740955114364624,-0.14640462398529053
1761915158323929600,0.4349296875,0.7696412801742554,1.2143667936325073,-0.0015443670563399792
1761915158333983500,0.4449833984375,0.6957034468650818,1.2172869443893433,0.11306317150592804
1761915158344037600,0.45503759765625,0.6098649501800537,1.1897333860397339,0.22572660446166992
1761915158354091500,0.465091552734375,0.5032724738121033,1.1137973070144653,0.35420867800712585
1761915158364146400,0.475146484375,0.40981680154800415,1.0164170265197754,0.5026194453239441
1761915158374200300,0.485200439453125,0.30326133966445923,0.9285928606987,0.6605984568595886
1761915158384254500,0.49525439453125,0.15535204112529755,0.7942776679992676,0.7607508897781372
1761915158394308600,0.50530859375,-0.014929947443306446,0.6510429978370667,0.7960017919540405
1761915158404362500,0.515362548828125,-0.1720585823059082,0.5271769762039185,0.823018491268158
1761915158414417400,0.52541748046875,-0.29199591279029846,0.40334054827690125,0.8636165261268616
1761915158424471300,0.53547119140625,-0.3563586473464966,0.27906492352485657,0.9275808930397034
1761915158434525400,0.545525390625,-0.35640472173690796,0.14737267792224884,1.0170657634735107
1761915158444579300,0.555579345703125,-0.2818239629268646,0.0855356752872467,1.098405361175537
1761915158454633500,0.565633544921875,-0.1780773252248764,0.06726612150669098,1.1310487985610962
1761915158464687400,0.575687255859375,-0.06372145563364029,0.009635317139327526,1.1098036766052246
1761915158474742500,0.585742431640625,-0.010704842396080494,-0.061957910656929016,1.0237489938735962
1761915158484796400,0.59579638671875,-0.005342034623026848,-0.16692161560058594,0.9346653819084167
1761915158494850300,0.605850341796875,0.030853252857923508,-0.2426760196685791,0.8822131156921387
1761915158504904400,0.615904541015625,0.11722888797521591,-0.38558125495910645,0.7984420657157898
1761915158514958300,0.625958251953125,0.20397576689720154,-0.7922400832176208,0.5621328353881836
1761915158525013500,0.636013427734375,0.1622842401266098,-1.4845356941223145,0.15990258753299713
1761915158535067600,0.646067626953125,-0.09722775220870972,-2.148874044418335,-0.19822147488594055
1761915158545121500,0.65612158203125,-0.3740859925746918,-2.1315414905548096,-0.20694226026535034
1761915158555175400,0.666175537109375,-0.5214061737060547,-1.3546475172042847,0.14241333305835724
1761915158565229300,0.676229248046875,-0.6165750622749329,-0.3105115294456482,0.5231870412826538
1761915158575284500,0.686284423828125,-0.7613005638122559,0.31088224053382874,0.5482633709907532
1761915158585333500,0.69633349609375,-0.9426988363265991,0.38771310448646545,0.20226947963237762
1761915158595387600,0.7063876953125,-1.0519534349441528,0.24590671062469482,-0.1156403124332428
1761915158605441500,0.716441650390625,-1.0501227378845215,0.08112893998622894,-0.2889218032360077
1761915158615495700,0.72649560546875,-0.9406013488769531,-0.10899146646261215,-0.4140264689922333
1761915158625550600,0.736550537109375,-0.856853723526001,-0.1796312779188156,-0.45823201537132263
1761915158635604700,0.746604736328125,-0.808594286441803,-0.20234964787960052,-0.3819772005081177
1761915158645658600,0.75665869140625,-0.6743595004081726,-0.23798726499080658,-0.27543264627456665
1761915158655712500,0.76671240234375,-0.42364874482154846,-0.30329224467277527,-0.2756635248661041
1761915158665766700,0.7767666015625,-0.16772162914276123,-0.5242669582366943,-0.4480861723423004
1761915158675821600,0.786821533203125,0.01133947353810072,-0.8411335945129395,-0.7494819760322571
1761915158685875700,0.796875732421875,0.16777755320072174,-1.127259373664856,-1.0752131938934326
1761915158695929600,0.8069296875,0.348857581615448,-1.2833442687988281,-1.3927009105682373
1761915158705983700,0.816983642578125,0.5147131085395813,-1.21401047706604,-1.7104871273040771
1761915158716037600,0.82703759765625,0.6349868178367615,-0.8316404819488525,-1.9877368211746216
1761915158726092500,0.837092529296875,0.6557102203369141,-0.19566750526428223,-2.1974997520446777
1761915158736146700,0.847146728515625,0.6116231679916382,0.5311717391014099,-2.31842041015625
1761915158746200600,0.85720068359375,0.5091330409049988,1.1741219758987427,-2.3260128498077393
1761915158756254700,0.867254638671875,0.342539519071579,1.6154569387435913,-2.2137811183929443
1761915158766308600,0.87730859375,0.12819738686084747,1.7761536836624146,-2.0199575424194336
1761915158776362800,0.88736279296875,-0.08115983009338379,1.7483618259429932,-1.7562439441680908
1761915158786417700,0.897417724609375,-0.1883786916732788,1.57241690158844,-1.3870818614959717
1761915158796471600,0.907471435546875,-0.2019198089838028,1.2426687479019165,-0.9062284231185913
1761915158806525700,0.917525634765625,-0.16990648210048676,0.8537876009941101,-0.34137678146362305
1761915158816579600,0.92757958984375,-0.12236958742141724,0.48709428310394287,0.2512500584125519
1761915158826633700,0.9376337890625,-0.07683379203081131,0.1437923163175583,0.7897796034812927
1761915158836688600,0.947688720703125,-0.054968178272247314,-0.15943573415279388,1.2286936044692993
1761915158846742500,0.957742431640625,-0.07387076318264008,-0.42143964767456055,1.529626727104187
1761915158856796700,0.967796630859375,-0.137366384267807,-0.6656560301780701,1.695920705795288
1761915158866850600,0.9778505859375,-0.2651174068450928,-0.892949104309082,1.750026822090149
1761915158876904700,0.98790478515625,-0.43787720799446106,-1.0924170017242432,1.7163790464401245
1761915158886959600,0.997959716796875,-0.6270391345024109,-1.3060264587402344,1.5981395244598389
1761915158897013800,1.008013671875,-0.7921196818351746,-1.4985556602478027,1.430910587310791
1761915158907067600,1.018067626953125,-0.863062858581543,-1.552851915359497,1.2765265703201294
1761915158917121500,1.02812158203125,-0.8466426134109497,-1.4789623022079468,1.1323585510253906
1761915158927175400,1.038175537109375,-0.7921602129936218,-1.3507214784622192,0.9868737459182739
1761915158937230600,1.048230712890625,-0.7205880284309387,-1.1270414590835571,0.876725435256958
1761915158947284700,1.05828466796875,-0.6510608792304993,-0.8118689060211182,0.8024184107780457
1761915158957338600,1.068338623046875,-0.5471104979515076,-0.5270127058029175,0.7711880803108215
1761915158967392800,1.078392822265625,-0.4032992720603943,-0.36191532015800476,0.683812141418457
1761915158977446700,1.08844677734375,-0.23311394453048706,-0.38415539264678955,0.5177707076072693
1761915158987501600,1.09850146484375,-0.08051641285419464,-0.48939260840415955,0.3176805078983307
1761915158997555700,1.1085556640625,0.015935823321342468,-0.5015257000923157,0.2634790539741516
1761915159007609600,1.118609619140625,0.032306008040905,-0.3330823481082916,0.46100276708602905
1761915159017663700,1.128663818359375,-0.030601052567362785,-0.21123367547988892,0.766089677810669
1761915159027717600,1.138717529296875,-0.14022794365882874,-0.4096815288066864,1.0314819812774658
1761915159037772500,1.1487724609375,-0.45471131801605225,-0.21909266710281372,0.9387898445129395
1761915159047826400,1.158826416015625,-0.7143309116363525,0.26350781321525574,0.7779785990715027
1761915159057880600,1.168880615234375,-0.857304036617279,0.9066579937934875,0.8557778000831604
1761915159067934500,1.1789345703125,-0.8629922866821289,1.1846539974212646,1.0728251934051514
1761915159077988600,1.188988525390625,-0.6735405921936035,0.9458299279212952,1.1264537572860718
1761915159088043800,1.199043701171875,-0.30823051929473877,0.38738900423049927,0.8640141487121582
1761915159098097700,1.20909765625,0.043058522045612335,-0.11203865706920624,0.336007297039032
1761915159108151600,1.219151611328125,0.24822978675365448,-0.35340574383735657,-0.19540545344352722
1761915159118205400,1.229205322265625,0.3747965097427368,-0.1899781972169876,-0.5329430103302002
1761915159128259600,1.239259521484375,0.49646061658859253,0.2759261131286621,-0.6891033053398132
1761915159138313500,1.2493134765625,0.722224235534668,0.8526104688644409,-0.7486944794654846
1761915159148368600,1.25936865234375,1.0444315671920776,1.2076969146728516,-0.8393572568893433
1761915159158422800,1.2694228515625,1.2719792127609253,1.3802177906036377,-0.9696654677391052
1761915159168476700,1.2794765625,1.321515440940857,1.4155449867248535,-1.1998096704483032
1761915159178530800,1.28953076171875,1.2210726737976074,1.3329880237579346,-1.5355461835861206
1761915159188584400,1.29958447265625,1.1013007164001465,1.2378937005996704,-1.8661435842514038
1761915159198639600,1.3096396484375,1.0330578088760376,1.1680296659469604,-2.0830607414245605
1761915159208693800,1.31969384765625,1.0496463775634766,1.14437735080719,-2.146304130554199
1761915159218747600,1.32974755859375,1.099098801612854,1.1869573593139648,-2.066739559173584
1761915159228801800,1.3398017578125,1.1413005590438843,1.3079023361206055,-1.8495209217071533
1761915159238855700,1.349855712890625,1.1559027433395386,1.4429904222488403,-1.5379287004470825
1761915159248910600,1.35991064453125,1.127030611038208,1.524594783782959,-1.1856521368026733
1761915159258964500,1.369964599609375,1.0161118507385254,1.4285465478897095,-0.8136444687843323
1761915159269018600,1.3800185546875,0.8008365035057068,1.1719911098480225,-0.43745455145835876
1761915159279072500,1.390072509765625,0.5214517116546631,0.8235724568367004,-0.037026192992925644
1761915159289126700,1.400126708984375,0.23562903702259064,0.37992867827415466,0.4097598195075989
1761915159299181800,1.410181884765625,-0.01449691690504551,-0.12032002210617065,0.8946426510810852
1761915159309235500,1.4202353515625,-0.20659765601158142,-0.5961752533912659,1.3487358093261719
1761915159319289600,1.43028955078125,-0.330958753824234,-0.9428695440292358,1.725762963294983
1761915159329343500,1.440343505859375,-0.38509681820869446,-1.1414161920547485,1.9565142393112183
1761915159339397600,1.450397705078125,-0.3762127757072449,-1.1617646217346191,2.023874044418335
1761915159349452800,1.460452880859375,-0.35675865411758423,-1.0232895612716675,1.916206955909729
1761915159359506700,1.470506591796875,-0.3435709476470947,-0.7713310718536377,1.6544674634933472
1761915159369560800,1.480560791015625,-0.3336634635925293,-0.47459208965301514,1.3097772598266602
1761915159379614500,1.490614501953125,-0.3140258491039276,-0.21717679500579834,0.9366308450698853
1761915159389668600,1.500668701171875,-0.29710865020751953,-0.00361737166531384,0.558143675327301
1761915159399723500,1.5107236328125,-0.2995310425758362,0.11654791980981827,0.1802043914794922
1761915159409777700,1.520777587890625,-0.33049455285072327,0.1731688529253006,-0.1385517567396164
1761915159419831600,1.53083154296875,-0.3461337089538574,0.2148052453994751,-0.34446844458580017
1761915159429885700,1.5408857421875,-0.36685603857040405,0.20104682445526123,-0.45442450046539307
1761915159439939800,1.55093994140625,-0.3579600155353546,0.1330600529909134,-0.44738709926605225
1761915159449994500,1.560994384765625,-0.30609360337257385,0.084618479013443,-0.32431283593177795
1761915159460048600,1.571048583984375,-0.24071727693080902,0.06548073887825012,-0.12960806488990784
1761915159470102500,1.5811025390625,-0.1516028344631195,0.04183186963200569,0.1246684268116951
1761915159480156700,1.59115673828125,-0.090080626308918,-0.10232770442962646,0.4091675281524658
1761915159490210600,1.60121044921875,-0.09470467269420624,-0.4672830402851105,0.6332871913909912
1761915159500264700,1.6112646484375,-0.18683193624019623,-1.0350812673568726,0.77323979139328
1761915159510319600,1.621319580078125,-0.3709871172904968,-1.6138713359832764,0.8745120763778687
1761915159520373500,1.63137353515625,-0.5847614407539368,-1.9721325635910034,0.9557470083236694
1761915159530427600,1.641427734375,-0.8237397074699402,-2.10703182220459,0.9305889010429382
1761915159540481500,1.6514814453125,-1.0684964656829834,-1.886323094367981,0.8197817206382751
1761915159550535700,1.66153564453125,-1.2285295724868774,-1.4236931800842285,0.6162858605384827
1761915159560590800,1.6715908203125,-1.2287322282791138,-1.0264086723327637,0.276904821395874
1761915159570644700,1.681644775390625,-1.040521502494812,-0.8919584155082703,-0.15625672042369843
1761915159580699400,1.691699462890625,-0.6892897486686707,-1.0675835609436035,-0.7047722935676575
1761915159590753300,1.701753173828125,-0.27755412459373474,-1.3262286186218262,-1.2108488082885742
1761915159600807400,1.711807373046875,0.10759463906288147,-1.4932711124420166,-1.5536258220672607
1761915159610862600,1.721862548828125,0.4353618621826172,-1.572505235671997,-1.7065980434417725
1761915159620916500,1.73191650390625,0.7602605819702148,-1.4214496612548828,-1.5920968055725098
1761915159630970400,1.741970458984375,1.1005643606185913,-1.0502506494522095,-1.2992748022079468
1761915159641024300,1.752024169921875,1.4387975931167603,-0.634952187538147,-1.0338492393493652
1761915159651078400,1.762078369140625,1.7071211338043213,-0.40146273374557495,-0.9505261182785034
1761915159661132300,1.77213232421875,1.8379180431365967,-0.3346256613731384,-1.0863782167434692
1761915159671187500,1.7821875,1.8465030193328857,-0.2725604176521301,-1.3290423154830933
1761915159681241300,1.792241455078125,1.7908391952514648,-0.051601674407720566,-1.5990301370620728
1761915159691295500,1.80229541015625,1.6609363555908203,0.2723087668418884,-1.9042727947235107
1761915159701349400,1.812349365234375,1.4026504755020142,0.6309521198272705,-2.193584442138672
1761915159711404300,1.822404296875,1.1008450984954834,1.0305919647216797,-2.3182613849639893
1761915159721458400,1.83245849609375,0.8462849259376526,1.4167691469192505,-2.2394134998321533
1761915159731512300,1.84251220703125,0.6551836729049683,1.7253776788711548,-1.999123215675354
1761915159741566500,1.85256640625,0.5113056302070618,1.9706989526748657,-1.605224609375
1761915159751620400,1.862620361328125,0.4083233177661896,2.1249423027038574,-1.0863542556762695
1761915159761674500,1.872674560546875,0.3344714641571045,2.1708765029907227,-0.48495230078697205
1761915159771729400,1.8827294921875,0.2673528790473938,2.0812313556671143,0.12969860434532166
1761915159781783300,1.892783203125,0.2189461886882782,1.8117620944976807,0.6642927527427673
1761915159791837400,1.90283740234375,0.17480216920375824,1.3693255186080933,1.0912566184997559
1761915159801891300,1.912891357421875,0.1333431452512741,0.8159201145172119,1.4136525392532349
1761915159811945500,1.922945556640625,0.09954363107681274,0.24025601148605347,1.6488593816757202
1761915159822000400,1.93300048828125,0.06510523706674576,-0.2766273319721222,1.811131477355957
1761915159832054300,1.94305419921875,-0.011382350698113441,-0.6877759695053101,1.932180404663086
1761915159842108400,1.9531083984375,-0.1349080204963684,-0.8873106837272644,2.0339195728302
1761915159852162300,1.963162353515625,-0.2804897129535675,-0.8832786679267883,2.152463912963867
1761915159862216400,1.973216552734375,-0.4184720814228058,-0.8160737752914429,2.23449969291687
1761915159872271400,1.983271240234375,-0.5486753582954407,-0.777887761592865,2.1974527835845947
1761915159882325500,1.993325439453125,-0.6867280602455139,-0.8801121711730957,2.022026777267456
1761915159892379400,2.00337939453125,-0.8603839874267578,-1.1591339111328125,1.8213284015655518
1761915159902433300,2.013433349609375,-1.0032857656478882,-1.353342056274414,1.7810933589935303
1761915159912487200,2.023487060546875,-1.0389732122421265,-1.3594598770141602,1.878854751586914
1761915159922542300,2.033542236328125,-0.9561134576797485,-1.2004560232162476,1.9715453386306763
1761915159932596500,2.043596435546875,-0.7689648270606995,-0.92133629322052,1.9704350233078003
1761915159942650400,2.053650390625,-0.5400259494781494,-0.5858964920043945,1.8475855588912964
1761915159952704500,2.06370458984375,-0.36036431789398193,-0.21676532924175262,1.67156982421875
1761915159962758400,2.07375830078125,-0.2450888454914093,0.1390947699546814,1.5349451303482056
1761915159972812300,2.083812255859375,-0.19012945890426636,0.3520011901855469,1.35462486743927
1761915159982867500,2.093867431640625,-0.14063434302806854,0.19847793877124786,1.007619023323059
1761915159992921300,2.10392138671875,-0.1372971385717392,-0.39742058515548706,0.4677831828594208
1761915160002975500,2.1139755859375,-0.20647594332695007,-0.9170981049537659,-0.03283917158842087
1761915160013029400,2.124029296875,-0.25204235315322876,-0.9023495316505432,-0.21846309304237366
1761915160023083500,2.13408349609375,-0.2624475955963135,-0.29179829359054565,-0.06445808708667755
1761915160033138200,2.14413818359375,-0.29757389426231384,0.6071082949638367,0.18583671748638153
1761915160043192300,2.1541923828125,-0.3400568962097168,1.1290569305419922,0.136117085814476
1761915160053246200,2.16424609375,-0.27787289023399353,0.9527868628501892,-0.317399799823761
1761915160063300400,2.17430029296875,-0.07357382029294968,0.13281689584255219,-1.0097057819366455
1761915160073354500,2.1843544921875,0.2390565276145935,-0.7014012336730957,-1.6307648420333862
1761915160083409400,2.194409423828125,0.550665557384491,-1.0375502109527588,-2.0134952068328857
1761915160093463300,2.20446337890625,0.8288305997848511,-0.9018265008926392,-2.1508941650390625
1761915160103517200,2.21451708984375,1.1096010208129883,-0.5825819373130798,-2.106794595718384
1761915160113571300,2.2245712890625,1.3745077848434448,-0.4194020628929138,-1.9893416166305542
1761915160123625200,2.234625244140625,1.4967156648635864,-0.2285623401403427,-1.79927396774292
1761915160133680400,2.244680419921875,1.4063618183135986,0.06593214720487595,-1.5160350799560547
1761915160143734500,2.254734619140625,1.182936191558838,0.3421999514102936,-1.1865251064300537
1761915160153788400,2.264788330078125,0.9492328763008118,0.48352566361427307,-0.9011806845664978
1761915160163842600,2.274842529296875,0.7868613004684448,0.5289796590805054,-0.7268632054328918
1761915160173896200,2.284896240234375,0.6906796097755432,0.5483419299125671,-0.68904709815979
1761915160183951400,2.294951416015625,0.6432109475135803,0.5527172684669495,-0.8025880455970764
1761915160194005500,2.305005615234375,0.6420100927352905,0.6131814122200012,-0.9503916501998901
1761915160204059400,2.315059326171875,0.6959316730499268,0.757037341594696,-1.0311444997787476
1761915160214113500,2.325113525390625,0.7445844411849976,0.9235986471176147,-1.0498663187026978
1761915160224167400,2.33516748046875,0.7385603189468384,1.1257046461105347,-0.9997423887252808
1761915160234221600,2.3452216796875,0.6983838677406311,1.3741559982299805,-0.8568156361579895
1761915160244276200,2.355276123046875,0.6573371291160583,1.5078480243682861,-0.6493279337882996
1761915160254330400,2.365330322265625,0.6327297687530518,1.4071458578109741,-0.4061368703842163
1761915160264384300,2.37538427734375,0.6005886197090149,1.1421120166778564,-0.14573509991168976
1761915160274438400,2.3854384765625,0.5600425601005554,0.8268095254898071,0.11224531382322311
1761915160284492500,2.395492431640625,0.45010697841644287,0.39769142866134644,0.33220750093460083
1761915160294547200,2.405547119140625,0.2937232255935669,-0.023804664611816406,0.6062350869178772
1761915160304601300,2.415601318359375,0.1192379742860794,-0.3378203809261322,0.9922022223472595
1761915160314655200,2.4256552734375,-0.04862000048160553,-0.5563258528709412,1.4613020420074463
1761915160324709400,2.43570947265625,-0.16010364890098572,-0.7275726795196533,1.945278286933899
1761915160334763300,2.44576318359375,-0.20693427324295044,-0.9972017407417297,2.3293046951293945
1761915160344818400,2.455818359375,-0.23304390907287598,-1.3482788801193237,2.525674343109131
1761915160354872600,2.46587255859375,-0.2610315978527069,-1.678296446800232,2.5507402420043945
1761915160364926500,2.475926513671875,-0.2691284120082855,-1.8246469497680664,2.5114967823028564
1761915160374980400,2.48598046875,-0.2588065266609192,-1.734197974205017,2.4351589679718018
1761915160385034200,2.4960341796875,-0.23155254125595093,-1.457729458808899,2.2261879444122314
1761915160395089400,2.50608935546875,-0.18448010087013245,-1.1113653182983398,1.8474100828170776
1761915160405143300,2.516143310546875,-0.13522173464298248,-0.782440185546875,1.3370651006698608
1761915160415197400,2.526197509765625,-0.10471709072589874,-0.5228592157363892,0.7827703952789307
1761915160425251600,2.53625146484375,-0.09735637903213501,-0.3176160454750061,0.31573718786239624
1761915160435305500,2.546305419921875,-0.08924412727355957,-0.09829487651586533,0.044851891696453094
1761915160445360400,2.5563603515625,-0.03175366669893265,0.15036313235759735,-0.05227652192115784
1761915160455414300,2.566414306640625,0.1259281039237976,0.2741660475730896,-0.12345375865697861
1761915160465468400,2.576468505859375,0.3350917100906372,0.14637479186058044,-0.2632545232772827
1761915160475522300,2.586522216796875,0.41057395935058594,-0.10401161760091782,-0.47834312915802
1761915160485576400,2.596576416015625,0.22346903383731842,-0.3593059778213501,-0.635242760181427
1761915160495631400,2.60663134765625,-0.15861308574676514,-0.4443931579589844,-0.6206172108650208
1761915160505685200,2.616685302734375,-0.5787219405174255,-0.3135949373245239,-0.4776584506034851
1761915160515739400,2.626739501953125,-0.8717812299728394,-0.10172902792692184,-0.2812734842300415
1761915160525793300,2.636793212890625,-1.0085172653198242,-0.024719994515180588,-0.27116891741752625
1761915160535847400,2.646847412109375,-1.0374698638916016,-0.13391704857349396,-0.5345856547355652
1761915160545901300,2.6569013671875,-0.9534574747085571,-0.34958118200302124,-0.9063003659248352
1761915160555956500,2.66695654296875,-0.8026671409606934,-0.5200916528701782,-1.2149367332458496
1761915160566010400,2.67701025390625,-0.6080572009086609,-0.5144649147987366,-1.3591657876968384
1761915160576064300,2.687064208984375,-0.3953779637813568,-0.39240026473999023,-1.4003771543502808
1761915160586118100,2.6971181640625,-0.15502846240997314,-0.07024753093719482,-1.3904800415039062
1761915160596172300,2.70717236328125,0.1086077019572258,0.2788843512535095,-1.450407862663269
1761915160606227200,2.717227294921875,0.38783055543899536,0.5411550998687744,-1.5504803657531738
1761915160616281300,2.72728125,0.6270380616188049,0.7100749015808105,-1.6474708318710327
1761915160626335200,2.737335205078125,0.803805947303772,0.7140477895736694,-1.7974281311035156
1761915160636389400,2.747389404296875,0.9536846280097961,0.5461688041687012,-2.0880069732666016
1761915160646443300,2.757443359375,0.9976813793182373,0.31141355633735657,-2.513899087905884
1761915160656498200,2.767498291015625,0.7855851054191589,0.05118915066123009,-2.972151756286621
1761915160666552300,2.77755224609375,0.3753352761268616,-0.009844374842941761,-3.163947820663452
1761915160676606200,2.787606201171875,-0.04086993634700775,0.1366092413663864,-2.9619598388671875
1761915160686660400,2.797660400390625,-0.37280765175819397,0.2803557515144348,-2.4647414684295654
1761915160696714200,2.80771435546875,-0.6120338439941406,0.3328874111175537,-1.808817982673645
1761915160706769200,2.81776904296875,-0.7374029159545898,0.29561302065849304,-1.080938696861267
1761915160716823300,2.8278232421875,-0.777134895324707,0.19586457312107086,-0.36873355507850647
1761915160726877200,2.837877197265625,-0.7814271450042725,0.035053592175245285,0.22492872178554535
1761915160736931300,2.847931396484375,-0.757556676864624,-0.13258041441440582,0.6988547444343567
1761915160746985200,2.857985107421875,-0.6817713379859924,-0.2615378499031067,1.0799192190170288
1761915160757039400,2.868039306640625,-0.5813637971878052,-0.3483630418777466,1.3703402280807495
1761915160767094000,2.878093994140625,-0.4664726257324219,-0.40996408462524414,1.5676063299179077
1761915160777148200,2.888148193359375,-0.37160685658454895,-0.4657844603061676,1.6812589168548584
1761915160787202300,2.898202392578125,-0.32111144065856934,-0.47153425216674805,1.7472467422485352
1761915160797256200,2.908256103515625,-0.31650683283805847,-0.43478500843048096,1.7822701930999756
1761915160807310300,2.918310302734375,-0.359092116355896,-0.42488738894462585,1.7791924476623535
1761915160817365200,2.928365234375,-0.4509695768356323,-0.4329032301902771,1.7293167114257812
1761915160827419400,2.93841943359375,-0.5740843415260315,-0.469189316034317,1.6514089107513428
1761915160837473300,2.948473388671875,-0.7107923626899719,-0.49719804525375366,1.5502963066101074
1761915160847527200,2.958527099609375,-0.8485289216041565,-0.49783855676651,1.4240071773529053
1761915160857581000,2.9685810546875,-0.9778216481208801,-0.467279314994812,1.2799160480499268
1761915160867636200,2.97863623046875,-1.0877116918563843,-0.4310355484485626,1.1343255043029785
1761915160877690400,2.9886904296875,-1.1824471950531006,-0.40053942799568176,1.0116493701934814
1761915160887744300,2.998744140625,-1.2520880699157715,-0.32189759612083435,0.9256868362426758
1761915160897798400,3.00879833984375,-1.2818164825439453,-0.2497033029794693,0.837730884552002
1761915160907852300,3.018852294921875,-1.2632547616958618,-0.24242062866687775,0.7180793285369873
1761915160917907200,3.0289072265625,-1.1936628818511963,-0.2901860177516937,0.5850701332092285
1761915160927961300,3.03896142578125,-1.0996730327606201,-0.3369772136211395,0.47795218229293823
1761915160938015200,3.04901513671875,-0.9867453575134277,-0.34105053544044495,0.46734827756881714
1761915160948069400,3.0590693359375,-0.8911722302436829,-0.3350405693054199,0.5051334500312805
1761915160958123300,3.069123291015625,-0.8154913187026978,-0.40473708510398865,0.5028237104415894
1761915160968178200,3.07917822265625,-0.6973143815994263,-0.642118513584137,0.3971249759197235
1761915160978232000,3.089232177734375,-0.6107783913612366,-1.0492308139801025,0.12718059122562408
1761915160988286200,3.0992861328125,-0.6625936627388,-1.4011732339859009,-0.21567504107952118
1761915160998340400,3.10934033203125,-0.7993648648262024,-1.329681158065796,-0.40586334466934204
1761915161008394200,3.119394287109375,-0.9180840253829956,-0.8085436820983887,-0.4104277491569519
1761915161018448400,3.129448486328125,-0.938007652759552,-0.22782383859157562,-0.38275617361068726
1761915161028503300,3.13950341796875,-0.7788031101226807,0.1828579604625702,-0.48724767565727234
1761915161038557200,3.14955712890625,-0.3814876973628998,0.10573548078536987,-0.9340962767601013
1761915161048611000,3.159611083984375,0.08991337567567825,-0.5894203782081604,-1.843275547027588
1761915161058665200,3.169665283203125,0.6696244478225708,-1.1859173774719238,-2.875147581100464
1761915161068719000,3.179718994140625,1.3317680358886719,-1.2541056871414185,-3.7237863540649414
1761915161078774300,3.189774169921875,2.020906448364258,-0.8238046765327454,-4.286844253540039
1761915161088828400,3.199828369140625,2.7080769538879395,-0.20600029826164246,-4.5729522705078125
1761915161098882300,3.20988232421875,3.3855345249176025,0.45565861463546753,-4.488887786865234
1761915161108936200,3.219936279296875,3.90258526802063,1.0844980478286743,-4.025466442108154
1761915161118990000,3.229989990234375,4.054551601409912,1.567341685295105,-3.3436434268951416
1761915161129045200,3.240045166015625,3.7992804050445557,1.774920105934143,-2.659142017364502
1761915161139099400,3.250099365234375,3.317694664001465,1.5977219343185425,-2.1016857624053955
1761915161149153300,3.2601533203125,2.804107189178467,1.0995733737945557,-1.7740892171859741
1761915161159207400,3.27020751953125,2.408560037612915,0.545806884765625,-1.6692216396331787
1761915161169261300,3.28026123046875,2.1292519569396973,0.07872996479272842,-1.740676999092102
1761915161179316200,3.290316162109375,1.9130586385726929,-0.01702159456908703,-1.7512496709823608
1761915161189370000,3.3003701171875,1.7470626831054688,0.3623441159725189,-1.4543088674545288
1761915161199424300,3.31042431640625,1.6191697120666504,0.942115068435669,-0.8960756659507751
1761915161209478100,3.32047802734375,1.5056312084197998,1.4948745965957642,-0.20873324573040009
1761915161219532300,3.3305322265625,1.3692091703414917,1.8507333993911743,0.4701184928417206
1761915161229587200,3.340587158203125,1.2418125867843628,1.8804543018341064,1.1151288747787476
1761915161239641000,3.35064111328125,1.1425999402999878,1.6455453634262085,1.7526804208755493
1761915161249695200,3.3606953125,1.073476791381836,1.1893296241760254,2.3582959175109863
1761915161259749000,3.3707490234375,0.9950703978538513,0.6013873219490051,2.8648829460144043
1761915161269803300,3.38080322265625,0.8579514622688293,0.07940880209207535,3.2453293800354004
1761915161279858400,3.3908583984375,0.6496656537055969,-0.34109899401664734,3.5079517364501953
1761915161289912300,3.400912353515625,0.36273452639579773,-0.6350390315055847,3.654181718826294
1761915161299966200,3.41096630859375,0.047270044684410095,-0.78243088722229,3.625202178955078
1761915161310020000,3.42102001953125,-0.22850801050662994,-0.79844069480896,3.4059486389160156
1761915161320074200,3.43107421875,-0.4424775540828705,-0.7712362408638,3.082695722579956
1761915161330129200,3.441129150390625,-0.6326669454574585,-0.7721087336540222,2.793586015701294
1761915161340183300,3.451183349609375,-0.805379331111908,-0.7303362488746643,2.543203592300415
1761915161350237200,3.4612373046875,-0.8929573893547058,-0.5356982946395874,2.2737600803375244
1761915161360291300,3.471291259765625,-0.8678815960884094,-0.27037715911865234,1.9819692373275757
1761915161370345500,3.481345458984375,-0.7885995507240295,0.025230521336197853,1.6745197772979736
1761915161380399000,3.491399169921875,-0.6792751550674438,0.2889931797981262,1.352089524269104
1761915161390454300,3.501454345703125,-0.6344741582870483,0.4193283021450043,1.0454963445663452
1761915161400508200,3.511508056640625,-0.6567019820213318,0.4318387508392334,0.88480544090271
1761915161410562300,3.521562255859375,-0.6861751675605774,0.28755322098731995,0.8753206133842468
1761915161420616200,3.5316162109375,-0.6633468270301819,-0.007413174957036972,1.0274778604507446
1761915161430670300,3.54167041015625,-0.5616918206214905,-0.37384575605392456,1.2214508056640625
1761915161440725200,3.551725341796875,-0.39531058073043823,-0.8328881859779358,1.308448076248169
1761915161450779100,3.561779052734375,-0.21276259422302246,-1.3503574132919312,1.3063031435012817
1761915161460833300,3.571833251953125,-0.11907712370157242,-1.7691339254379272,1.3272864818572998
1761915161470887200,3.58188720703125,-0.1579187959432602,-2.0534164905548096,1.3646130561828613
1761915161480941300,3.59194140625,-0.2651190161705017,-2.143404722213745,1.380168080329895
1761915161490996500,3.60199658203125,-0.44495856761932373,-2.0034704208374023,1.3260999917984009
1761915161501050000,3.612050048828125,-0.680216372013092,-1.9208568334579468,1.015114665031433
1761915161511104300,3.622104248046875,-0.817476749420166,-2.0907490253448486,0.40934011340141296
1761915161521158100,3.632158203125,-0.8201201558113098,-2.301112413406372,-0.3373998701572418
1761915161531212300,3.64221240234375,-0.7312979102134705,-2.3572216033935547,-1.019970178604126
1761915161541267200,3.65226708984375,-0.5114542245864868,-2.17588472366333,-1.5253467559814453
1761915161551321300,3.6623212890625,-0.2141495794057846,-1.694142460823059,-1.8491003513336182
1761915161561375200,3.672375244140625,0.01858912967145443,-1.061418056488037,-2.0492234230041504
1761915161571429400,3.682429443359375,0.1047663614153862,-0.44172173738479614,-2.1213231086730957
1761915161581483300,3.692483154296875,0.09933590888977051,0.04700319468975067,-1.9904588460922241
1761915161591541500,3.70254150390625,0.05444806069135666,0.28743976354599,-1.69203782081604
1761915161601595600,3.712595703125,-0.02009168639779091,0.25998711585998535,-1.267586588859558
1761915161611649500,3.7226494140625,-0.09071951359510422,0.07418874651193619,-0.734393298625946
1761915161621703700,3.73270361328125,-0.11569570749998093,-0.17101462185382843,-0.16196466982364655
1761915161631757600,3.742757568359375,-0.1142144575715065,-0.5223910212516785,0.2646617591381073
1761915161641812500,3.7528125,-0.11819241940975189,-0.8414329290390015,0.43268483877182007
1761915161651866600,3.76286669921875,-0.12636113166809082,-0.9983375668525696,0.3820243179798126
1761915161661920500,3.77292041015625,-0.10409177839756012,-0.971996545791626,0.1945471167564392
1761915161671974700,3.782974609375,-0.04870016127824783,-0.856121838092804,-0.06384476274251938
1761915161682028500,3.793028564453125,-0.0133890425786376,-0.6302700638771057,-0.27126505970954895
1761915161692083700,3.803083740234375,-0.032523322850465775,-0.2616680860519409,-0.3540973663330078
1761915161702137300,3.813137451171875,-0.08940231800079346,0.15851454436779022,-0.32632431387901306
1761915161712191500,3.82319140625,-0.17924192547798157,0.47487518191337585,-0.24210557341575623
1761915161722245600,3.83324560546875,-0.28000369668006897,0.6230971217155457,-0.11459795385599136
1761915161732299500,3.843299560546875,-0.38207200169563293,0.614322304725647,0.05740337073802948
1761915161742354700,3.853354736328125,-0.48406919836997986,0.4995245933532715,0.25037282705307007
1761915161752408600,3.86340869140625,-0.5837537050247192,0.30970245599746704,0.44861534237861633
1761915161762462700,3.873462646484375,-0.669173538684845,0.07968204468488693,0.65676349401474
1761915161772516600,3.8835166015625,-0.7171820998191833,-0.17323756217956543,0.8861647248268127
1761915161782570500,3.893570556640625,-0.7519451379776001,-0.4640883207321167,1.112261176109314
1761915161792625700,3.903625732421875,-0.7933042645454407,-0.7791546583175659,1.3041778802871704
1761915161802679600,3.913679443359375,-0.8682720065116882,-1.0600148439407349,1.4205080270767212
1761915161812733700,3.923733642578125,-0.9715893268585205,-1.2949650287628174,1.470727801322937
1761915161822787600,3.93378759765625,-1.0913575887680054,-1.4754739999771118,1.4716652631759644
1761915161832841700,3.943841796875,-1.2445846796035767,-1.5872304439544678,1.4069626331329346
1761915161842896600,3.953896728515625,-1.39376962184906,-1.6148127317428589,1.3011767864227295
1761915161852950500,3.963950439453125,-1.5135107040405273,-1.5774427652359009,1.1797409057617188
1761915161863004700,3.974004638671875,-1.5788465738296509,-1.465967059135437,1.0675113201141357
1761915161873058600,3.98405859375,-1.5663261413574219,-1.3275567293167114,0.9845104813575745
1761915161883112700,3.99411279296875,-1.452813982963562,-1.1848680973052979,0.9349857568740845
1761915161893166600,4.00416650390625,-1.2129385471343994,-1.1399991512298584,0.902144730091095
1761915161903218400,4.014218505859375,-0.9349786043167114,-1.2747398614883423,0.7827752232551575
1761915161913273600,4.024273681640625,-0.7294384837150574,-1.5788038969039917,0.5225452184677124
1761915161923327700,4.03432763671875,-0.6797335147857666,-2.0848138332366943,0.12129313498735428
1761915161933381600,4.044381591796875,-0.7243526577949524,-2.6132471561431885,-0.23954440653324127
1761915161943435800,4.054435791015625,-0.8724632859230042,-2.9024038314819336,-0.36290231347084045
1761915161953489700,4.06448974609375,-1.091178297996521,-2.745579719543457,-0.28765228390693665
1761915161963544600,4.074544677734375,-1.2964297533035278,-2.366607666015625,-0.2849459946155548
1761915161973598500,4.084598388671875,-1.28534996509552,-1.7207118272781372,-0.3875304162502289
1761915161983652600,4.094652587890625,-1.0346697568893433,-0.8005390167236328,-0.5115634202957153
1761915161993706500,4.10470654296875,-0.6285819411277771,0.2068951278924942,-0.6661034822463989
1761915162003760600,4.1147607421875,-0.14387647807598114,1.0575891733169556,-0.8699244856834412
1761915162013815600,4.124815673828125,0.3146314322948456,1.622409462928772,-1.1282756328582764
1761915162023869400,4.134869384765625,0.612305223941803,1.6904723644256592,-1.5038141012191772
1761915162033923600,4.144923583984375,0.6900162696838379,1.3467233180999756,-1.9245871305465698
1761915162043977500,4.1549775390625,0.6282564997673035,0.9885461926460266,-2.155085563659668
1761915162054031600,4.165031494140625,0.5969379544258118,0.7336830496788025,-2.131906270980835
1761915162064085500,4.17508544921875,0.6602916121482849,0.5225667953491211,-1.9221296310424805
1761915162074140700,4.185140625,0.7882423996925354,0.37138980627059937,-1.5785166025161743
1761915162084194600,4.195194580078125,0.8668333888053894,0.34834253787994385,-1.1328696012496948
1761915162094248400,4.20524853515625,0.834369421005249,0.40392005443573,-0.7013735771179199
1761915162104302600,4.215302490234375,0.7779735326766968,0.40064114332199097,-0.37244465947151184
1761915162114356500,4.2253564453125,0.8375037312507629,0.2809254229068756,-0.14948029816150665
1761915162124411600,4.23541162109375,0.948171079158783,0.1022811010479927,-0.019273562356829643
1761915162134465800,4.2454658203125,0.9894577860832214,0.003941744565963745,0.08455376327037811
1761915162144519700,4.255519775390625,0.8852642774581909,0.13010287284851074,0.21694989502429962
1761915162154573600,4.265573486328125,0.6810091733932495,0.4462616443634033,0.34541651606559753
1761915162164627500,4.27562744140625,0.39511165022850037,0.8043827414512634,0.4218748211860657
1761915162174682600,4.2856826171875,0.04619439318776131,1.1093919277191162,0.430338591337204
1761915162184736500,4.295736572265625,-0.270742803812027,1.2980729341506958,0.42462265491485596
1761915162194790700,4.305790771484375,-0.5800042748451233,1.4002271890640259,0.46977177262306213
1761915162204844500,4.315844482421875,-0.9023756384849548,1.4443409442901611,0.6278716325759888
1761915162214898700,4.325898681640625,-1.2145098447799683,1.410880446434021,0.8771129250526428
1761915162224953600,4.33595361328125,-1.5232120752334595,1.312491774559021,1.174096941947937
1761915162235007500,4.346007568359375,-1.8152393102645874,1.1835644245147705,1.4972312450408936
1761915162245061600,4.3560615234375,-2.0793066024780273,1.0490734577178955,1.839379072189331
1761915162255115500,4.366115478515625,-2.315946340560913,0.902431309223175,2.150761604309082
1761915162265169700,4.376169677734375,-2.5368149280548096,0.6875962018966675,2.374882936477661
1761915162275224600,4.386224609375,-2.6980082988739014,0.4229390025138855,2.4945099353790283
1761915162285278500,4.396278564453125,-2.786205530166626,0.197816401720047,2.522120952606201
1761915162295332600,4.40633251953125,-2.7781083583831787,0.0683383122086525,2.476179361343384
1761915162305386500,4.416386474609375,-2.6361520290374756,-0.01853054016828537,2.364170789718628
1761915162315440600,4.426440673828125,-2.418510675430298,-0.06928186863660812,2.181138277053833
1761915162325495600,4.43649560546875,-2.1481034755706787,-0.01299356296658516,1.9538779258728027
1761915162335549700,4.4465498046875,-1.8512625694274902,0.17134937644004822,1.7000850439071655
1761915162345603600,4.456603515625,-1.5383931398391724,0.42825281620025635,1.4330576658248901
1761915162355657500,4.466657470703125,-1.1813987493515015,0.6795902252197266,1.1796306371688843
1761915162365711600,4.476711669921875,-0.7757282257080078,0.9476273059844971,0.9811503291130066
1761915162375766500,4.4867666015625,-0.34406495094299316,1.1461882591247559,0.8181989789009094
1761915162385820700,4.496820556640625,0.09143590927124023,1.297749638557434,0.6396968960762024
1761915162395874600,4.50687451171875,0.5285908579826355,1.4388386011123657,0.41647204756736755
1761915162405928700,4.5169287109375,0.9472509622573853,1.5814844369888306,0.163557231426239
1761915162415982600,4.526982666015625,1.1878260374069214,1.6337307691574097,-0.07375650852918625
1761915162426037500,4.53703759765625,1.0311506986618042,1.4751323461532593,-0.2741205096244812
1761915162436091600,4.547091552734375,0.48126062750816345,1.135097861289978,-0.40647053718566895
1761915162446145500,4.5571455078125,-0.18245743215084076,0.6857408285140991,-0.4488358497619629
1761915162456199700,4.56719970703125,-0.6492536067962646,0.18384519219398499,-0.3924404978752136
1761915162466253600,4.577253662109375,-0.6888287663459778,-0.14891864359378815,-0.22226954996585846
1761915162476308500,4.58730859375,-0.3069261312484741,-0.31330040097236633,0.026076607406139374
1761915162486362600,4.597362548828125,0.18897737562656403,-0.507562518119812,0.17960570752620697
1761915162496416500,4.60741650390625,0.6630671620368958,-0.7068761587142944,0.13705319166183472
1761915162506470700,4.617470703125,0.9681245684623718,-1.0717992782592773,-0.14669010043144226
1761915162516524500,4.627524658203125,0.9863576292991638,-1.4828054904937744,-0.5854696035385132
1761915162526579700,4.637579833984375,0.8304442167282104,-1.693621039390564,-0.9967713952064514
1761915162536633600,4.647633544921875,0.6785691976547241,-1.7934906482696533,-1.3603315353393555
1761915162546687500,4.6576875,0.6098135709762573,-1.706616759300232,-1.584462285041809
1761915162556741400,4.667741455078125,0.6438255906105042,-1.2799359560012817,-1.600722312927246
1761915162566795500,4.67779541015625,0.6954549551010132,-0.5160077214241028,-1.4561704397201538
1761915162576850700,4.6878505859375,0.6825354099273682,0.4356582760810852,-1.2676506042480469
1761915162586904600,4.697904541015625,0.6414404511451721,1.2407217025756836,-1.1574699878692627
1761915162596959200,4.707959228515625,0.6466027498245239,1.647594928741455,-1.1725914478302002
1761915162607013000,4.71801318359375,0.71683269739151,1.6037063598632812,-1.2129913568496704
1761915162617067000,4.72806689453125,0.7920643091201782,1.1908199787139893,-1.2108656167984009
1761915162627122200,4.7381220703125,0.799100935459137,0.5901458263397217,-1.1125341653823853
1761915162637176300,4.74817626953125,0.6985349059104919,0.016657007858157158,-0.909458577632904
1761915162647230200,4.758230224609375,0.495116263628006,-0.4626682996749878,-0.6334720253944397
1761915162657284400,4.768284423828125,0.2532075047492981,-0.7847539186477661,-0.3258036673069
1761915162667338200,4.778338134765625,0.056299757212400436,-0.9376468062400818,0.00017443705291952938
1761915162677393200,4.78839306640625,-0.048412539064884186,-0.9800493717193604,0.3151763379573822
1761915162687447300,4.798447265625,-0.0796988233923912,-0.9473055601119995,0.609318733215332
1761915162697501200,4.808501220703125,-0.04777524620294571,-0.8580657243728638,0.8572321534156799
1761915162707555300,4.818555419921875,0.06204286590218544,-0.7255369424819946,1.0853604078292847
1761915162717609200,4.828609130859375,0.2569654881954193,-0.6395837068557739,1.2711811065673828
1761915162727664000,4.8386640625,0.4761106073856354,-0.6011742353439331,1.3630598783493042
1761915162737718000,4.848718017578125,0.6762261390686035,-0.555230438709259,1.349168300628662
1761915162747772200,4.858772216796875,0.8443091511726379,-0.4815565049648285,1.247314691543579
1761915162757826000,4.868825927734375,0.9438439607620239,-0.3669186234474182,1.07016122341156
1761915162767880200,4.878880126953125,0.952491819858551,-0.21202810108661652,0.8425596952438354
1761915162777935400,4.888935302734375,0.8788492679595947,-0.0541660338640213,0.580407977104187
1761915162787989200,4.8989892578125,0.7257353663444519,0.0973220244050026,0.31985950469970703
1761915162798043100,4.909043212890625,0.5440403819084167,0.23042069375514984,0.10403851419687271
1761915162808097000,4.919096923828125,0.3766024112701416,0.3011563718318939,-0.08759243041276932
1761915162818151200,4.929151123046875,0.258116751909256,0.3095855414867401,-0.25128257274627686
1761915162828206300,4.939206298828125,0.23576831817626953,0.3419240415096283,-0.3387381136417389
1761915162838260200,4.94926025390625,0.34483781456947327,0.42482027411460876,-0.3146572709083557
1761915162848314400,4.959314453125,0.5471373796463013,0.4771724045276642,-0.2587559223175049
1761915162858368300,4.9693681640625,0.733267068862915,0.39426368474960327,-0.2803448438644409
1761915162868423200,4.979423095703125,0.8418331742286682,0.2870166003704071,-0.298532634973526
1761915162878477000,4.98947705078125,0.9085565805435181,0.3580244481563568,-0.1296464055776596
1761915162888531200,4.99953125,0.7390261292457581,0.25899747014045715,0.02744866907596588
1761915162898585300,5.00958544921875,0.17671991884708405,-0.4094676673412323,-0.16391223669052124
1761915162908639200,5.01963916015625,-0.545144259929657,-1.2516111135482788,-0.6370819211006165
1761915162918693400,5.029693359375,-0.9741110801696777,-1.7141278982162476,-1.0116944313049316
1761915162928748000,5.039748046875,-1.0904978513717651,-1.7013598680496216,-1.1749821901321411
1761915162938802200,5.04980224609375,-0.8856893181800842,-1.3088648319244385,-1.1670317649841309
1761915162948856000,5.05985595703125,-0.5202354788780212,-0.810991644859314,-1.150558590888977
1761915162958910200,5.06991015625,-0.11122772097587585,-0.19943587481975555,-1.1459834575653076
1761915162968965400,5.07996533203125,0.33259767293930054,0.367497056722641,-1.275037407875061
1761915162979019300,5.090019287109375,0.7558879256248474,0.7841310501098633,-1.5672953128814697
1761915162989073200,5.1000732421875,1.1405988931655884,1.0816562175750732,-1.8327418565750122
1761915162999127000,5.110126953125,1.5140933990478516,1.297683596611023,-1.8972042798995972
1761915163009181200,5.12018115234375,1.8737742900848389,1.4677578210830688,-1.686890959739685
1761915163019236400,5.130236328125,2.163736343383789,1.6225378513336182,-1.3068077564239502
1761915163029290200,5.140290283203125,2.324918031692505,1.6953177452087402,-0.9618895649909973
1761915163039344400,5.150344482421875,2.3387954235076904,1.6190911531448364,-0.7575316429138184
1761915163049398300,5.160398193359375,2.214261293411255,1.4351907968521118,-0.7088951468467712
1761915163059452400,5.170452392578125,2.062217950820923,1.2180614471435547,-0.7255396246910095
1761915163069507000,5.180507080078125,1.9730383157730103,1.0683339834213257,-0.7029315233230591
1761915163079561200,5.190561279296875,1.9754694700241089,0.9387049078941345,-0.6308956742286682
1761915163089615000,5.200614990234375,2.035306930541992,0.7953461408615112,-0.5148585438728333
1761915163099669200,5.210669189453125,2.0896177291870117,0.6874279379844666,-0.3589421808719635
1761915163109723100,5.22072314453125,2.068406343460083,0.6265233159065247,-0.20491665601730347
1761915163119778000,5.230778076171875,1.9539170265197754,0.6245538592338562,-0.1051005870103836
1761915163129832200,5.240832275390625,1.7843040227890015,0.6716039776802063,-0.07424866408109665
1761915163139886000,5.250885986328125,1.5461599826812744,0.6992790102958679,-0.11132758855819702
1761915163149940200,5.260940185546875,1.244490623474121,0.7129428386688232,-0.1816214621067047
1761915163159994000,5.270994140625,0.9051868915557861,0.7961820960044861,-0.24626010656356812
1761915163170049300,5.28104931640625,0.6002615690231323,0.8800889849662781,-0.3040914535522461
1761915163180103400,5.291103515625,0.37970978021621704,0.9310349822044373,-0.36124446988105774
1761915163190157000,5.301156982421875,0.26933398842811584,0.9843895435333252,-0.3576422929763794
1761915163200211200,5.311211181640625,0.32908016443252563,0.9937723875045776,-0.25314784049987793
1761915163210265000,5.32126513671875,0.5028831362724304,0.926426887512207,-0.08305041491985321
1761915163220320300,5.3313203125,0.7156134843826294,0.8315595388412476,0.09854228794574738
1761915163230374100,5.3413740234375,0.8676632046699524,0.7845326066017151,0.24717862904071808
1761915163240428300,5.35142822265625,0.8865754008293152,0.75539630651474,0.31310492753982544
1761915163250482400,5.361482421875,0.7648931741714478,0.6361074447631836,0.3032815754413605
1761915163260536300,5.371536376953125,0.5669997930526733,0.4613726735115051,0.2835129499435425
1761915163270591200,5.38159130859375,0.3363457918167114,0.2858024537563324,0.28892767429351807
1761915163280645000,5.39164501953125,0.161709263920784,0.16134095191955566,0.31352436542510986
1761915163290699300,5.40169921875,0.1035199984908104,0.1041189432144165,0.2980319559574127
1761915163300753200,5.411753173828125,0.13593973219394684,0.0843614861369133,0.2113010585308075
1761915163310807300,5.421807373046875,0.18822689354419708,0.1776892989873886,0.12407241016626358
1761915163320862200,5.4318623046875,0.17300346493721008,0.33633753657341003,0.024406539276242256
1761915163330916000,5.441916015625,0.0880022943019867,0.37833133339881897,-0.09586580842733383
1761915163340970200,5.45197021484375,-0.127578467130661,0.22217394411563873,-0.34321194887161255
1761915163351024000,5.462024169921875,-0.4304054379463196,-0.012988503091037273,-0.6460525393486023
1761915163361078300,5.472078369140625,-0.8435251116752625,-0.26613447070121765,-0.9722505807876587
1761915163371133400,5.482133544921875,-1.3244291543960571,-0.3849676549434662,-1.211469292640686
1761915163381187300,5.492187255859375,-1.752514123916626,-0.1915169656276703,-1.2135844230651855
1761915163391241200,5.5022412109375,-1.9168295860290527,0.3087248206138611,-0.9269430637359619
1761915163401295000,5.512295166015625,-1.6922905445098877,0.8742830157279968,-0.46539804339408875
1761915163411349200,5.522349365234375,-1.2213389873504639,1.168063998222351,-0.10760954767465591
1761915163421404200,5.532404052734375,-0.7504180669784546,1.235075831413269,0.02034814842045307
1761915163431458300,5.542458251953125,-0.3664725422859192,1.1193345785140991,-0.0490836575627327
1761915163441512200,5.55251220703125,-0.07912411540746689,0.7737076878547668,-0.2713300287723541
1761915163451566300,5.56256640625,0.21715734899044037,0.287358820438385,-0.572786271572113
1761915163461620000,5.572619873046875,0.5784769058227539,-0.09935641288757324,-0.8740310668945312
1761915163471675100,5.582675048828125,0.8782199621200562,-0.35032206773757935,-1.1660869121551514
1761915163481729300,5.592729248046875,0.993514358997345,-0.5247487425804138,-1.496516466140747
1761915163491783200,5.602783203125,0.9704889059066772,-0.5413458347320557,-1.8372607231140137
1761915163501837300,5.61283740234375,0.834750771522522,-0.34165000915527344,-2.0496392250061035
1761915163511892200,5.622892333984375,0.6380555629730225,0.05119554325938225,-2.0517725944519043
1761915163521946000,5.632946044921875,0.42089423537254333,0.4333581030368805,-1.9157638549804688
1761915163532000300,5.643000244140625,0.21750515699386597,0.6838787198066711,-1.7095975875854492
1761915163542054100,5.65305419921875,0.017794976010918617,0.7734261751174927,-1.4558401107788086
1761915163552108300,5.6631083984375,-0.20282422006130219,0.7269178032875061,-1.1580393314361572
1761915163562163200,5.6731630859375,-0.4313410222530365,0.6350259780883789,-0.8490820527076721
1761915163572217300,5.68321728515625,-0.6809529662132263,0.5758510828018188,-0.558137059211731
1761915163582271000,5.69327099609375,-0.8980013728141785,0.5680615901947021,-0.2784534692764282
1761915163592321300,5.7033212890625,-1.0352543592453003,0.5776569247245789,0.007639809977263212
1761915163602375400,5.71337548828125,-1.0897974967956543,0.61558997631073,0.32861757278442383
1761915163612430600,5.7234306640625,-1.045283317565918,0.6218454241752625,0.6692047119140625
1761915163622484500,5.733484375,-0.9410772323608398,0.527508556842804,0.9853088855743408
1761915163632538600,5.74353857421875,-0.8160585761070251,0.3830227553844452,1.24276864528656
1761915163642592500,5.753592529296875,-0.6867130994796753,0.2233622521162033,1.4442203044891357
1761915163652646700,5.763646728515625,-0.5730763077735901,0.04084703326225281,1.575717568397522
1761915163662701300,5.773701416015625,-0.5008087754249573,-0.16867396235466003,1.6172239780426025
1761915163672755500,5.78375537109375,-0.4992404282093048,-0.408670574426651,1.5906730890274048
1761915163682809300,5.793809326171875,-0.5355204343795776,-0.6235945820808411,1.5313838720321655
1761915163692863500,5.803863525390625,-0.5762513279914856,-0.7426954507827759,1.4555668830871582
1761915163702917600,5.813917724609375,-0.6010823845863342,-0.7770882844924927,1.4015082120895386
1761915163712972300,5.82397216796875,-0.6004791855812073,-0.7347264289855957,1.4226126670837402
1761915163723026400,5.8340263671875,-0.5817075967788696,-0.6480826139450073,1.5209051370620728
1761915163733080300,5.844080322265625,-0.5983006954193115,-0.5245002508163452,1.6312484741210938
1761915163743134500,5.854134521484375,-0.6690012216567993,-0.4122128486633301,1.6694978475570679
1761915163753188400,5.864188232421875,-0.7411779761314392,-0.37382686138153076,1.625484824180603
1761915163763243500,5.874243408203125,-0.778921902179718,-0.4386433959007263,1.5117830038070679
1761915163773297700,5.884297607421875,-0.7911439538002014,-0.6543104648590088,1.3563737869262695
1761915163783351300,5.894351318359375,-0.7507562637329102,-0.9655948281288147,1.220217227935791
1761915163793405400,5.904405517578125,-0.6835111975669861,-1.3833774328231812,1.0553816556930542
1761915163803459300,5.914459228515625,-0.7255920767784119,-1.866076111793518,0.8353614807128906
1761915163813514500,5.924514404296875,-0.9509527683258057,-2.1741552352905273,0.7005581259727478
1761915163823568400,5.934568359375,-1.2967714071273804,-2.1735918521881104,0.8090238571166992
1761915163833622500,5.94462255859375,-1.6884609460830688,-1.9118572473526,1.1059939861297607
1761915163843676700,5.9546767578125,-1.979781150817871,-1.6429530382156372,1.3301492929458618
1761915163853730600,5.96473046875,-1.9642612934112549,-1.4271690845489502,1.4191548824310303
1761915163863785500,5.974785400390625,-1.6548030376434326,-1.3447301387786865,1.4081077575683594
1761915163873839400,5.98483935546875,-1.2296829223632812,-1.3374818563461304,1.3304013013839722
1761915163883893500,5.9948935546875,-0.8521231412887573,-1.2495427131652832,1.2038934230804443
1761915163893947400,6.004947509765625,-0.47283652424812317,-1.134969711303711,0.9451912641525269
1761915163904002300,6.015002197265625,-0.07450086623430252,-1.3490577936172485,0.3932940363883972
1761915163914056400,6.025056396484375,0.06546369194984436,-1.2128515243530273,-0.1748162806034088
1761915163924110300,6.0351103515625,0.16206853091716766,-0.9729920029640198,-0.7041381597518921
1761915163934164500,6.04516455078125,0.2997707426548004,-0.5975017547607422,-1.041795015335083
1761915163944218400,6.05521826171875,0.5193963050842285,-0.12362606823444366,-1.1350741386413574
1761915163954273500,6.0652734375,0.7159101366996765,0.30220964550971985,-1.0541918277740479
1761915163964327700,6.07532763671875,0.8080658912658691,0.6823455691337585,-0.9117539525032043
1761915163974381600,6.085381591796875,0.827429473400116,0.9417648315429688,-0.8086962699890137
1761915163984435500,6.095435546875,0.8304268717765808,0.9763561487197876,-0.7756834626197815
1761915163994489300,6.1054892578125,0.8528419137001038,0.8378767967224121,-0.780492901802063
1761915164004544500,6.11554443359375,0.8936108946800232,0.7008134722709656,-0.7658260464668274
1761915164014598400,6.125598388671875,0.9550995826721191,0.6822810769081116,-0.7440576553344727
1761915164024652500,6.135652587890625,1.0288419723510742,0.821365237236023,-0.7507802844047546
1761915164034706400,6.14570654296875,1.0442955493927002,1.0514240264892578,-0.7884842157363892
1761915164044760600,6.155760498046875,1.0086491107940674,1.3341281414031982,-0.8371114134788513
1761915164054815500,6.1658154296875,0.9637383222579956,1.6466540098190308,-0.8946862816810608
1761915164064869400,6.175869384765625,0.8586747646331787,1.9311411380767822,-0.9773662686347961
1761915164074923500,6.185923583984375,0.7044878602027893,2.0948965549468994,-1.0783021450042725
1761915164084977400,6.195977294921875,0.5603359937667847,2.1127076148986816,-1.1565905809402466
1761915164095031600,6.206031494140625,0.45065104961395264,2.0416336059570312,-1.1786117553710938
1761915164105086500,6.21608642578125,0.3954687714576721,1.9387900829315186,-1.1146003007888794
1761915164115140400,6.226140380859375,0.3855562210083008,1.8201243877410889,-0.961976945400238
1761915164125194500,6.236194580078125,0.39151716232299805,1.714011311531067,-0.7712522149085999
1761915164135248400,6.246248291015625,0.38012203574180603,1.6275759935379028,-0.5530253648757935
1761915164145302500,6.256302490234375,0.355132520198822,1.5846583843231201,-0.31408390402793884
1761915164155357400,6.266357421875,0.3270210027694702,1.5866367816925049,-0.08284801244735718
1761915164165411600,6.27641162109375,0.2845323979854584,1.6253607273101807,0.11246449500322342
1761915164175465500,6.286465576171875,0.22348715364933014,1.6217678785324097,0.27887237071990967
1761915164185519400,6.296519287109375,0.1465822458267212,1.5126760005950928,0.37958645820617676
1761915164195574500,6.306574462890625,0.08266212046146393,1.2278403043746948,0.4015357196331024
1761915164205628400,6.31662841796875,0.011358648538589478,0.7910062670707703,0.37824955582618713
1761915164215682600,6.3266826171875,-0.012455071322619915,0.27928808331489563,0.3739520311355591
1761915164225736400,6.336736328125,0.03750662878155708,-0.24440069496631622,0.4037032723426819
1761915164235790600,6.34679052734375,0.11538171768188477,-0.7572882175445557,0.46310028433799744
1761915164245845500,6.356845458984375,0.10344409942626953,-1.2776442766189575,0.4769652187824249
1761915164255899400,6.3668994140625,-0.03558702394366264,-1.6238536834716797,0.44182348251342773
1761915164265953500,6.37695361328125,-0.295026034116745,-1.9610506296157837,0.27912217378616333
1761915164276007400,6.38700732421875,-0.5803512930870056,-2.2137601375579834,0.08734502643346786
1761915164286061600,6.3970615234375,-0.7553350925445557,-2.0482542514801025,0.041970618069171906
1761915164296116500,6.407116455078125,-0.7649655938148499,-1.588491439819336,0.09591294825077057
1761915164306170400,6.41717041015625,-0.739696741104126,-1.0304862260818481,0.17784376442432404
1761915164316224500,6.427224609375,-0.7747553586959839,-0.5580286383628845,0.21764151751995087
1761915164326278400,6.4372783203125,-0.8394033312797546,-0.29895076155662537,0.23270514607429504
1761915164336332500,6.44733251953125,-0.8926010727882385,-0.39588314294815063,0.3089940547943115
1761915164346387500,6.457387451171875,-0.9155724048614502,-0.6708492040634155,0.5622358918190002
1761915164356441600,6.467441650390625,-0.9088074564933777,-1.0231822729110718,0.978572428226471
1761915164366495500,6.47749560546875,-0.835720956325531,-1.3526954650878906,1.4159777164459229
1761915164376549400,6.48754931640625,-0.6958922147750854,-1.389350414276123,1.6615022420883179
1761915164386603300,6.497603271484375,-0.4967501163482666,-1.2558479309082031,1.6132338047027588
1761915164396658400,6.507658447265625,-0.3214198350906372,-1.027884602546692,1.3938201665878296
1761915164406712600,6.517712646484375,-0.22874370217323303,-0.6470234990119934,1.1407577991485596
1761915164416766500,6.527766357421875,-0.20394566655158997,-0.20866826176643372,0.9314147233963013
1761915164426820600,6.537820556640625,-0.2097092866897583,0.22574764490127563,0.7478779554367065
1761915164436874500,6.54787451171875,-0.17495742440223694,0.5882531404495239,0.5562810897827148
1761915164446929400,6.557929443359375,-0.07596161216497421,0.8264750242233276,0.3876555860042572
1761915164456983600,6.567983642578125,0.04167740419507027,0.8787752389907837,0.26254987716674805
1761915164467037400,6.578037353515625,0.13521906733512878,0.6535346508026123,0.154531791806221
1761915164477091600,6.588091552734375,0.17005029320716858,0.21575333178043365,0.007533816155046225
1761915164487146500,6.598146484375,0.08795782178640366,-0.19997116923332214,-0.156698539853096
1761915164497200400,6.608200439453125,-0.1252431422472,-0.38671573996543884,-0.3027087450027466
1761915164507254300,6.618254150390625,-0.40450140833854675,-0.24320067465305328,-0.41175931692123413
1761915164517308400,6.628308349609375,-0.6654738783836365,0.11261602491140366,-0.4723733961582184
1761915164527362300,6.6383623046875,-0.8460308909416199,0.5514511466026306,-0.4594557285308838
1761915164537417500,6.64841748046875,-0.9112450480461121,0.9457907676696777,-0.3454114496707916
1761915164547471600,6.6584716796875,-0.8918130397796631,1.208613634109497,-0.15570411086082458
1761915164557525500,6.668525390625,-0.8345092535018921,1.3329371213912964,0.09284045547246933
1761915164567579400,6.678579345703125,-0.7494502663612366,1.3210663795471191,0.37210220098495483
1761915164577633300,6.68863330078125,-0.6377685070037842,1.2273014783859253,0.6466392278671265
1761915164587688400,6.6986884765625,-0.520026683807373,1.0726860761642456,0.8958548903465271
1761915164597742000,6.7087421875,-0.4173141419887543,0.883389413356781,1.0990111827850342
1761915164607796200,6.718796142578125,-0.34939315915107727,0.6645252704620361,1.266771674156189
1761915164617850000,6.72885009765625,-0.35220491886138916,0.4134661555290222,1.3787416219711304
1761915164627904300,6.738904296875,-0.409045547246933,0.12952257692813873,1.4478152990341187
1761915164637959000,6.748958984375,-0.5120329260826111,-0.17307111620903015,1.4576668739318848
1761915164648013000,6.759012939453125,-0.6434103846549988,-0.4543755054473877,1.402157187461853
1761915164658067000,6.76906689453125,-0.7813807725906372,-0.67545485496521,1.2605502605438232
1761915164668121000,6.77912109375,-0.9126589298248291,-0.8287054300308228,1.0226283073425293
1761915164678175000,6.789175048828125,-1.0219111442565918,-0.8563048243522644,0.7251598238945007
1761915164688230100,6.799230224609375,-1.057409405708313,-0.6827495694160461,0.4409867227077484
1761915164698284000,6.809283935546875,-0.9992153644561768,-0.4042374789714813,0.201700359582901
1761915164708338000,6.819337890625,-0.844078004360199,-0.10444597899913788,0.058102983981370926
1761915164718392000,6.82939208984375,-0.6235319972038269,0.18752115964889526,0.04198287054896355
1761915164728447200,6.839447265625,-0.40134289860725403,0.3174397349357605,0.04283108562231064
1761915164738501000,6.849501220703125,-0.24919837713241577,0.09364926069974899,-0.08909578621387482
1761915164748555300,6.85955517578125,-0.27719858288764954,-0.4727315902709961,-0.3381634056568146
1761915164758609200,6.869609130859375,-0.45153284072875977,-1.1223117113113403,-0.5470979809761047
1761915164768663000,6.8796630859375,-0.6260406970977783,-1.5054795742034912,-0.551351010799408
1761915164778718000,6.889718017578125,-0.7080487608909607,-1.5345746278762817,-0.40301668643951416
1761915164788772000,6.899772216796875,-0.696959912776947,-1.3031198978424072,-0.27350398898124695
1761915164798826000,6.909825927734375,-0.568220317363739,-0.8592340350151062,-0.2540605068206787
1761915164808880000,6.919880126953125,-0.37576377391815186,-0.5183837413787842,-0.4052281975746155
1761915164818934300,6.929934326171875,-0.17783896625041962,-0.42387324571609497,-0.7168508172035217
1761915164828989000,6.939989013671875,0.00893570389598608,-0.48078233003616333,-1.1257117986679077
1761915164839043000,6.95004296875,0.1099264994263649,-0.5346586108207703,-1.5097084045410156
1761915164849097000,6.960096923828125,0.18044008314609528,-0.4218095541000366,-1.7462818622589111
1761915164859151000,6.970151123046875,0.3580816984176636,-0.15976276993751526,-1.7584000825881958
1761915164869205000,6.980205078125,0.6918138861656189,0.10486596077680588,-1.519250512123108
1761915164879260200,6.99026025390625,1.0830726623535156,0.19062773883342743,-1.0869725942611694
1761915164889314000,7.00031396484375,1.4073296785354614,0.09513823688030243,-0.5362985730171204
1761915164899368000,7.010367919921875,1.5906519889831543,-0.17953966557979584,0.07791450619697571
1761915164909422000,7.020422119140625,1.6489603519439697,-0.6709845066070557,0.6167116761207581
1761915164919476000,7.03047607421875,1.6523058414459229,-1.343854546546936,0.9013811945915222
1761915164929531100,7.04053125,1.6377569437026978,-2.039212703704834,0.8470415472984314
1761915164939585000,7.0505849609375,1.601850152015686,-2.5168228149414062,0.6045492887496948
1761915164949639200,7.06063916015625,1.5248371362686157,-2.6342546939849854,0.3394140303134918
1761915164959693300,7.070693359375,1.4377943277359009,-2.3947064876556396,0.1456938236951828
1761915164969748000,7.080748046875,1.399229884147644,-1.9514446258544922,0.06482986360788345
1761915164979802000,7.090802001953125,1.4067250490188599,-1.4403339624404907,0.09058529138565063
1761915164989856000,7.10085595703125,1.4282429218292236,-0.9451223015785217,0.22738975286483765
1761915164999910100,7.11091015625,1.3871492147445679,-0.4883779287338257,0.49930888414382935
1761915165009964000,7.120964111328125,1.2477141618728638,-0.2187667042016983,0.7851624488830566
1761915165020019000,7.13101904296875,0.9879240989685059,-0.09099355340003967,1.0227086544036865
1761915165030073000,7.141072998046875,0.6608557105064392,-0.0044014062732458115,1.2076727151870728
1761915165040127000,7.151126953125,0.3426327109336853,0.051237087696790695,1.3185185194015503
1761915165050181000,7.16118115234375,0.05740869790315628,0.09237600117921829,1.3557966947555542
1761915165060235000,7.171235107421875,-0.22769202291965485,0.16680443286895752,1.3223612308502197
1761915165070290200,7.181290283203125,-0.4910789132118225,0.30970272421836853,1.2527821063995361
1761915165080344300,7.19134423828125,-0.696597158908844,0.4906378984451294,1.1304397583007812
1761915165090398000,7.20139794921875,-0.8435450792312622,0.6809273958206177,0.9559094309806824
1761915165100452000,7.2114521484375,-0.9169540405273438,0.8940290212631226,0.7611929774284363
1761915165110506000,7.221506103515625,-0.8976842164993286,1.097440242767334,0.5595152378082275
1761915165120561200,7.23156103515625,-0.7951509356498718,1.2429313659667969,0.3728393614292145
1761915165130615000,7.241614990234375,-0.6730636358261108,1.3089420795440674,0.2027198225259781
1761915165140669200,7.251669189453125,-0.5863218307495117,1.2600829601287842,0.02936907485127449
1761915165150723000,7.26172314453125,-0.5454023480415344,1.0910403728485107,-0.11315345019102097
1761915165160777200,7.271777099609375,-0.556505560874939,0.8046655654907227,-0.23174427449703217
1761915165170832100,7.28183203125,-0.583240807056427,0.3615100085735321,-0.27423393726348877
1761915165180886000,7.291885986328125,-0.5687316060066223,-0.043227098882198334,-0.1370667815208435
1761915165190940200,7.301940185546875,-0.5715455412864685,-0.18764978647232056,0.1565728336572647
1761915165200994000,7.311994140625,-0.5669263005256653,-0.1797228902578354,0.4466424584388733
1761915165211049000,7.322049072265625,-0.575166642665863,-0.32714056968688965,0.5608526468276978
1761915165221103000,7.33210302734375,-0.691057562828064,-0.671183705329895,0.4957066774368286
1761915165231157000,7.342156982421875,-0.9469881057739258,-1.1175869703292847,0.4295521676540375
1761915165241211100,7.352211181640625,-1.2030401229858398,-1.264675498008728,0.5226901173591614
1761915165251265000,7.36226513671875,-1.2640368938446045,-1.07577645778656,0.6463356018066406
1761915165261320200,7.3723203125,-1.1041401624679565,-0.6912857890129089,0.5879614949226379
1761915165271374000,7.3823740234375,-0.7356111407279968,-0.24469709396362305,0.3207780122756958
1761915165281428200,7.39242822265625,-0.26965412497520447,-0.011924570426344872,-0.04656430706381798
1761915165291481900,7.40248193359375,0.08158913254737854,-0.04736937955021858,-0.40448278188705444
1761915165301536000,7.412535888671875,0.24157267808914185,-0.381058931350708,-0.7325612902641296
1761915165311591200,7.422591064453125,0.21826256811618805,-0.9335077404975891,-0.9800558090209961
1761915165321645000,7.43264501953125,0.19576923549175262,-1.2541747093200684,-1.1034318208694458
1761915165331699200,7.44269921875,0.28538432717323303,-1.3167136907577515,-1.22350013256073
1761915165341753000,7.452753173828125,0.4304454028606415,-1.226495385169983,-1.412998914718628
1761915165351807200,7.46280712890625,0.47418275475502014,-1.006291151046753,-1.6538525819778442
1761915165361862100,7.472862060546875,0.38247573375701904,-0.6365740299224854,-1.8379707336425781
1761915165371916000,7.482916015625,0.23541730642318726,-0.11923318356275558,-1.9014424085617065
1761915165381970200,7.49297021484375,0.1214718371629715,0.4474126696586609,-1.8046711683273315
1761915165392024000,7.503024169921875,0.018691396340727806,0.9387744069099426,-1.5495909452438354
1761915165402079200,7.513079345703125,-0.11614125221967697,1.1824328899383545,-1.1748236417770386
1761915165412132900,7.5231328125,-0.27927371859550476,1.1599065065383911,-0.7020268440246582
1761915165422187000,7.53318701171875,-0.4515349566936493,0.9468315243721008,-0.16918955743312836
1761915165432241200,7.5432412109375,-0.6324309706687927,0.6486541628837585,0.26676085591316223
1761915165442295000,7.553294921875,-0.8065279722213745,0.345638632774353,0.4528076946735382
1761915165452350200,7.56335009765625,-0.9580618143081665,0.2141042947769165,0.4062953293323517
1761915165462404000,7.573404052734375,-1.0677003860473633,0.3255365490913391,0.24039316177368164
1761915165472458200,7.583458251953125,-1.124493956565857,0.6044510006904602,0.06088092550635338
1761915165482512000,7.593511962890625,-1.1003779172897339,0.9881592392921448,-0.03470525145530701
1761915165492566000,7.60356591796875,-1.0068516731262207,1.332953929901123,0.0037912761326879263
1761915165502621200,7.61362109375,-0.8856549859046936,1.550170660018921,0.19149060547351837
1761915165512675000,7.623675048828125,-0.7575992941856384,1.6091868877410889,0.4920283257961273
1761915165522729200,7.633729248046875,-0.62665194272995,1.5342963933944702,0.8312039971351624
1761915165532783000,7.643783203125,-0.5151687860488892,1.341846227645874,1.1386356353759766
1761915165542838000,7.653838134765625,-0.4522092640399933,1.0648937225341797,1.3707423210144043
1761915165552892000,7.663891845703125,-0.45728951692581177,0.7143234610557556,1.5295237302780151
1761915165562946000,7.673946044921875,-0.5719140768051147,0.33689385652542114,1.6002460718154907
1761915165573000200,7.684000244140625,-0.7824545502662659,-0.1345367729663849,1.5287671089172363
1761915165583054000,7.69405419921875,-1.0053260326385498,-0.6087467074394226,1.3332687616348267
1761915165593108700,7.704108642578125,-1.2039381265640259,-0.9132924675941467,1.0765913724899292
1761915165603162600,7.71416259765625,-1.3382205963134766,-0.9494632482528687,0.7954249382019043
1761915165613216500,7.724216552734375,-1.3884453773498535,-0.7703779339790344,0.49642786383628845
1761915165623270400,7.7342705078125,-1.373837947845459,-0.5098147988319397,0.16510772705078125
1761915165633324500,7.744324462890625,-1.308731198310852,-0.21727745234966278,-0.14267006516456604
1761915165643379700,7.754379638671875,-1.2000504732131958,0.03720888867974281,-0.37069177627563477
1761915165653433600,7.76443359375,-1.0651264190673828,0.1912650316953659,-0.532812774181366
1761915165663487700,7.77448779296875,-0.9571883082389832,0.17944298684597015,-0.6432490348815918
1761915165673541600,7.784541748046875,-0.8680115342140198,-0.014346715062856674,-0.6558476090431213
1761915165683595800,7.794595703125,-0.8204493522644043,-0.43292880058288574,-0.528708815574646
1761915165693650700,7.804650634765625,-0.838485062122345,-0.985152542591095,-0.25181546807289124
1761915165703704600,7.81470458984375,-0.8881927132606506,-1.3877923488616943,0.11538039147853851
1761915165713758700,7.8247587890625,-0.9841866493225098,-1.6089591979980469,0.38359159231185913
1761915165723812600,7.8348125,-1.0932409763336182,-1.6001629829406738,0.4401552677154541
1761915165733867500,7.844867431640625,-1.2072761058807373,-1.5410640239715576,0.2527363896369934
1761915165743921400,7.85492138671875,-1.309657335281372,-1.5858293771743774,-0.050031740218400955
1761915165753975600,7.8649755859375,-1.3171696662902832,-1.8129242658615112,-0.3354176878929138
1761915165764029700,7.87502978515625,-1.1476298570632935,-2.229613780975342,-0.644283652305603
1761915165774083600,7.88508349609375,-0.8563610315322876,-2.6721415519714355,-1.0274853706359863
1761915165784138800,7.895138671875,-0.5522708892822266,-3.001089572906494,-1.506685495376587
1761915165794192600,7.905192626953125,-0.20944003760814667,-2.9422249794006348,-1.9725013971328735
1761915165804246800,7.915246826171875,0.23242312669754028,-2.408108949661255,-2.232337236404419
1761915165814300400,7.925300537109375,0.6573677659034729,-1.5718247890472412,-2.178960084915161
1761915165824354600,7.9353544921875,0.9688191413879395,-0.6797788143157959,-1.84574294090271
1761915165834409700,7.94540966796875,1.122322916984558,0.05655435472726822,-1.3667033910751343
1761915165844463600,7.955463623046875,1.132426142692566,0.49720630049705505,-0.9045253396034241
1761915165854517800,7.965517822265625,1.0618371963500977,0.6230566501617432,-0.5168508291244507
1761915165864571600,7.975571533203125,0.9365501403808594,0.405598908662796,-0.27537989616394043
1761915165874626600,7.98562646484375,0.857009768486023,-0.03183808922767639,-0.23022601008415222
1761915165884680400,7.995680419921875,0.8786529898643494,-0.47817349433898926,-0.3945430517196655
1761915165894734600,8.005734619140625,0.9803943037986755,-0.7783016562461853,-0.6978235840797424
1761915165904788700,8.015788818359376,1.097019910812378,-0.8574206829071045,-0.9900924563407898
1761915165914842600,8.025842529296876,1.2584525346755981,-0.5314359068870544,-1.0985462665557861
1761915165924897800,8.035897705078124,1.4559952020645142,0.03158322721719742,-1.0451719760894775
1761915165934951400,8.045951416015624,1.628548264503479,0.486377090215683,-0.899223268032074
1761915165945005600,8.056005615234374,1.7334954738616943,0.7053115963935852,-0.7245997786521912
1761915165955059500,8.0660595703125,1.7571922540664673,0.688890278339386,-0.5476343035697937
1761915165965113600,8.076113525390625,1.7041176557540894,0.538414478302002,-0.3790479898452759
1761915165975168800,8.086168701171875,1.6042217016220093,0.3294716477394104,-0.21735522150993347
1761915165985222700,8.09622265625,1.498091697692871,0.12307585775852203,-0.09031444787979126
1761915165995276800,8.10627685546875,1.4271568059921265,0.002226402750238776,-0.012622051872313023
1761915166005330700,8.11633056640625,1.4203490018844604,-0.030480144545435905,0.015426094643771648
1761915166015385600,8.126385498046876,1.4653226137161255,0.0376507043838501,0.04664979502558708
1761915166025439700,8.136439697265626,1.542615532875061,0.22678494453430176,0.12309662997722626
1761915166035493600,8.14649365234375,1.6294289827346802,0.48945438861846924,0.25517717003822327
1761915166045547800,8.1565478515625,1.7023974657058716,0.8131951689720154,0.39165377616882324
1761915166055601700,8.1666015625,1.7235571146011353,1.1631361246109009,0.48798006772994995
1761915166065656600,8.176656494140625,1.6837588548660278,1.4536550045013428,0.5455355048179626
1761915166075710500,8.18671044921875,1.5961437225341797,1.495822787284851,0.5638654828071594
1761915166085764600,8.1967646484375,1.4545154571533203,1.0583322048187256,0.5208359956741333
1761915166095818500,8.206818603515625,1.2544453144073486,0.19927528500556946,0.42991650104522705
1761915166105872600,8.21687255859375,1.053371787071228,-0.5359489321708679,0.442626953125
1761915166115927800,8.226927734375,0.8386816382408142,-0.8886462450027466,0.5502532720565796
1761915166125981700,8.236981689453126,0.6508211493492126,-0.8414595723152161,0.6465755701065063
1761915166136035600,8.24703564453125,0.4862529933452606,-0.38171353936195374,0.6058427691459656
1761915166146089500,8.25708935546875,0.29638904333114624,0.3509684205055237,0.36665281653404236
1761915166156144600,8.26714453125,0.06746745854616165,1.0948747396469116,-0.05958503484725952
1761915166166198800,8.27719873046875,-0.14302267134189606,1.68143630027771,-0.5024764537811279
1761915166176252700,8.287252685546875,-0.31871992349624634,2.060723066329956,-0.762486457824707
1761915166186306800,8.297306884765625,-0.3759733736515045,2.2858705520629883,-0.6924759149551392
1761915166196360700,8.307360595703125,-0.34050431847572327,2.158938407897949,-0.3566446602344513
1761915166206415600,8.31741552734375,-0.2783117890357971,1.5736889839172363,0.13312476873397827
1761915166216469500,8.327469482421876,-0.20449641346931458,0.7227571606636047,0.65871262550354
1761915166226523600,8.337523681640626,-0.19271326065063477,-0.13263900578022003,1.1504740715026855
1761915166236577500,8.34757763671875,-0.28271397948265076,-0.8805531859397888,1.4815559387207031
1761915166246631700,8.357631591796874,-0.4483194649219513,-1.4220963716506958,1.5229310989379883
1761915166256686600,8.3676865234375,-0.6471009850502014,-1.7637511491775513,1.2440701723098755
1761915166266740500,8.377740478515625,-0.8579376339912415,-1.8885399103164673,0.7158092260360718
1761915166276794600,8.387794677734375,-1.0096895694732666,-1.7792885303497314,0.06447060406208038
1761915166286848500,8.3978486328125,-1.0963016748428345,-1.552253246307373,-0.5991406440734863
1761915166296902700,8.407902587890625,-1.1384485960006714,-1.2118171453475952,-1.106201171875
1761915166306957800,8.417957763671875,-1.1323494911193848,-0.8273035287857056,-1.3908926248550415
1761915166317011700,8.42801171875,-1.0811078548431396,-0.619411051273346,-1.497275710105896
1761915166327065600,8.438065673828126,-0.9750959277153015,-0.5857462882995605,-1.404699444770813
1761915166337119500,8.448119384765626,-0.8304809331893921,-0.5635533928871155,-1.1080288887023926
1761915166347174700,8.458174560546874,-0.7110826373100281,-0.5473304390907288,-0.7120656371116638
1761915166357228500,8.468228515625,-0.6623308062553406,-0.6090266108512878,-0.3762737810611725
1761915166367282700,8.47828271484375,-0.670134961605072,-0.7620630264282227,-0.19367891550064087
1761915166377336800,8.4883369140625,-0.7411723732948303,-0.9289731383323669,-0.16342967748641968
1761915166387390700,8.498390625,-0.883080780506134,-1.0894544124603271,-0.25790345668792725
1761915166397445600,8.508445556640625,-1.022369384765625,-1.1585376262664795,-0.34894147515296936
1761915166407499500,8.51849951171875,-1.0943794250488281,-1.0428762435913086,-0.3101368248462677
1761915166417553700,8.5285537109375,-1.1132463216781616,-0.8291919827461243,-0.1379709243774414
1761915166427607600,8.538607666015626,-1.103662133216858,-0.6521093249320984,0.11342882364988327
1761915166437662700,8.548662841796874,-1.0703353881835938,-0.5270438194274902,0.42000871896743774
1761915166447716600,8.558716552734374,-1.0188878774642944,-0.44388556480407715,0.7424041032791138
1761915166457770500,8.5687705078125,-0.9278088212013245,-0.43202492594718933,1.0479930639266968
1761915166467824600,8.57882470703125,-0.8353875279426575,-0.5718464851379395,1.2371906042099
1761915166477878500,8.58887841796875,-0.7741564512252808,-0.797616183757782,1.2793759107589722
1761915166487933700,8.59893359375,-0.8018378615379333,-0.9576037526130676,1.2268788814544678
1761915166497987600,8.608987548828125,-0.9033026695251465,-1.0011712312698364,1.1183899641036987
1761915166508041700,8.619041748046875,-1.0238416194915771,-0.9994305372238159,0.9559192657470703
1761915166518095600,8.629095703125,-1.0940423011779785,-0.9018906950950623,0.7990604639053345
1761915166528149500,8.6391494140625,-1.1007637977600098,-0.6585842967033386,0.7042223215103149
1761915166538204700,8.64920458984375,-1.0686428546905518,-0.4001796245574951,0.6975314021110535
1761915166548258600,8.659258544921874,-1.0267313718795776,-0.2354772388935089,0.7300645709037781
1761915166558312700,8.669312744140624,-0.9537560343742371,-0.12626099586486816,0.7793381214141846
1761915166568366600,8.67936669921875,-0.8611927628517151,-0.06257309764623642,0.8042818307876587
1761915166578421500,8.68942138671875,-0.818297803401947,-0.1556633561849594,0.7461138963699341
1761915166588475600,8.6994755859375,-0.8315206170082092,-0.3594662845134735,0.6297305226325989
1761915166598529800,8.70952978515625,-0.9162472486495972,-0.5341150760650635,0.5373116731643677
1761915166608583700,8.719583740234375,-0.9696494936943054,-0.4803871214389801,0.5564392805099487
1761915166618637800,8.729637939453125,-0.8897264003753662,-0.0993548184633255,0.6362746953964233
1761915166628692700,8.739692626953126,-0.6819058656692505,0.4254879057407379,0.6160818338394165
1761915166638746600,8.74974658203125,-0.4434432089328766,0.8163228034973145,0.40423643589019775
1761915166648800500,8.759800537109374,-0.17317897081375122,0.9898421168327332,0.08892934024333954
1761915166658854700,8.769854736328124,0.09521067142486572,0.8646442294120789,-0.19283948838710785
1761915166668909800,8.779909912109375,0.23682479560375214,0.5078666806221008,-0.32797256112098694
1761915166678963700,8.789963623046875,0.2786313593387604,0.24138198792934418,-0.30274203419685364
1761915166689017900,8.800017822265625,0.2883998453617096,0.2195930778980255,-0.2302611619234085
1761915166699071700,8.81007177734375,0.24457965791225433,0.24008449912071228,-0.2442970871925354
1761915166709125600,8.820125732421875,0.18180760741233826,0.20993885397911072,-0.3788953721523285
1761915166719180800,8.830180908203126,0.15199778974056244,0.13682310283184052,-0.6048645973205566
1761915166729234700,8.840234619140626,0.13737890124320984,0.08580252528190613,-0.8805007338523865
1761915166739288800,8.850288818359376,0.12365482747554779,0.18052077293395996,-1.1792794466018677
1761915166749342700,8.8603427734375,0.1082465797662735,0.3865668773651123,-1.4819825887680054
1761915166759396900,8.87039697265625,0.1462424248456955,0.5431381464004517,-1.7762773036956787
1761915166769451500,8.880451416015624,0.21904632449150085,0.539828360080719,-2.0470643043518066
1761915166779505700,8.890505615234375,0.24382518231868744,0.37660107016563416,-2.248821496963501
1761915166789559600,8.9005595703125,0.20041832327842712,0.13224831223487854,-2.362628698348999
1761915166799613700,8.91061376953125,0.0810229480266571,-0.0913834422826767,-2.3833537101745605
1761915166809668900,8.9206689453125,-0.04866793751716614,-0.2959009110927582,-2.301764488220215
1761915166819722800,8.93072265625,-0.15185317397117615,-0.4102360010147095,-2.0887503623962402
1761915166829776600,8.940776611328126,-0.20416724681854248,-0.33416998386383057,-1.6879104375839233
1761915166839830500,8.95083056640625,-0.2308473289012909,-0.16854773461818695,-1.142291784286499
1761915166849884700,8.960884765625,-0.23454032838344574,-0.031096400693058968,-0.5554845333099365
1761915166859939800,8.97093994140625,-0.20051632821559906,-0.004029628820717335,0.01709083653986454
1761915166869993700,8.98099365234375,-0.13803750276565552,-0.07634084671735764,0.571067214012146
1761915166880047900,8.9910478515625,-0.060994911938905716,-0.23651106655597687,1.0974372625350952
1761915166890101800,9.001101806640625,0.021796641871333122,-0.5269373059272766,1.5209357738494873
1761915166900156700,9.01115673828125,0.0765877217054367,-0.8944261074066162,1.8104687929153442
1761915166910210600,9.02121044921875,0.06917134672403336,-1.2091872692108154,1.9760830402374268
1761915166920264700,9.0312646484375,0.009326656349003315,-1.3284939527511597,2.022404193878174
1761915166930318600,9.041318603515625,-0.055930908769369125,-1.2286165952682495,1.967527985572815
1761915166940372700,9.051372802734376,-0.14535479247570038,-1.0359911918640137,1.8342971801757812
1761915166950427600,9.061427734375,-0.25597718358039856,-0.795360267162323,1.6275908946990967
1761915166960481500,9.0714814453125,-0.3877258896827698,-0.5021914839744568,1.3532743453979492
1761915166970535700,9.08153564453125,-0.5258547067642212,-0.1897299885749817,1.0394588708877563
1761915166980589600,9.091589599609375,-0.6478797197341919,0.07421111315488815,0.7564994096755981
1761915166990643700,9.101643798828125,-0.7053896188735962,0.2737540602684021,0.5801475644111633
1761915167000699000,9.111698974609375,-0.663791298866272,0.34495553374290466,0.5415838956832886
1761915167010752800,9.121752685546875,-0.5664759278297424,0.2908504903316498,0.6089259386062622
1761915167020807000,9.131806884765625,-0.4455503225326538,0.17321546375751495,0.7441977262496948
1761915167030860500,9.141860595703125,-0.33870962262153625,-0.03779638186097145,0.8352122902870178
1761915167040915700,9.151915771484376,-0.27876797318458557,-0.437921941280365,0.7808443903923035
1761915167050969600,9.161969482421876,-0.2506764233112335,-0.923575222492218,0.6074627637863159
1761915167061023700,9.172023681640624,-0.26841306686401367,-1.385318636894226,0.4221155643463135
1761915167071078000,9.182077880859374,-0.36082983016967773,-1.5981602668762207,0.2500061094760895
1761915167081131800,9.1921318359375,-0.5088845491409302,-1.439120888710022,0.030233535915613174
1761915167091186700,9.202186767578125,-0.6154661178588867,-0.9078282117843628,-0.21285581588745117
1761915167101240600,9.212240478515625,-0.660207986831665,-0.10371387749910355,-0.37349289655685425
1761915167111294700,9.222294677734375,-0.5651139616966248,0.6955060958862305,-0.37415096163749695
1761915167121348600,9.2323486328125,-0.33548638224601746,0.8032528162002563,-0.43312907218933105
1761915167131403800,9.24240380859375,-0.12342606484889984,0.24052472412586212,-0.6589611172676086
1761915167141458000,9.2524580078125,-0.040163666009902954,-0.5555505752563477,-1.01557195186615
1761915167151511600,9.262511474609376,-0.08087541162967682,-1.2366575002670288,-1.4329878091812134
1761915167161565700,9.272565673828124,-0.18316316604614258,-1.5021264553070068,-1.803623914718628
1761915167171619600,9.28261962890625,-0.23075731098651886,-1.2414610385894775,-2.065225601196289
1761915167181674800,9.2926748046875,-0.15412965416908264,-0.6284223794937134,-2.311619758605957
1761915167191728600,9.302728759765625,0.007728759665042162,-0.003209908027201891,-2.623321533203125
1761915167201782800,9.31278271484375,0.12328118830919266,0.5676016211509705,-2.908329963684082
1761915167211837000,9.3228369140625,0.09962140023708344,0.9769577383995056,-3.126617908477783
1761915167221890600,9.332890625,-0.027874773368239403,1.2424852848052979,-3.2183356285095215
1761915167231945700,9.34294580078125,-0.1526329517364502,1.4580929279327393,-3.1365725994110107
1761915167241999600,9.35299951171875,-0.17031393945217133,1.4353697299957275,-2.935429573059082
1761915167252053800,9.3630537109375,-0.09146813303232193,1.1238137483596802,-2.63860821723938
1761915167262107600,9.373107666015626,-0.08289834856987,0.6556643843650818,-2.1723904609680176
1761915167272162600,9.38316259765625,-0.2234533280134201,0.232933908700943,-1.535231351852417
1761915167282216700,9.393216796875,-0.4831823706626892,-0.0961313247680664,-0.8148412704467773
1761915167292270600,9.4032705078125,-0.769285261631012,-0.31587353348731995,-0.09591614454984665
1761915167302324700,9.41332470703125,-1.0086547136306763,-0.42869091033935547,0.5845353603363037
1761915167312378600,9.423378662109375,-1.165652871131897,-0.42553186416625977,1.2112964391708374
1761915167322433800,9.433433837890625,-1.242637038230896,-0.31813323497772217,1.770036220550537
1761915167332488000,9.443488037109375,-1.261391043663025,-0.09934975951910019,2.218384027481079
1761915167342541600,9.45354150390625,-1.2208318710327148,0.16244909167289734,2.529874324798584
1761915167352595700,9.463595703125,-1.1307861804962158,0.38658180832862854,2.6824724674224854
1761915167362650600,9.473650634765624,-1.0082725286483765,0.5412613749504089,2.6599910259246826
1761915167372704800,9.483704833984374,-0.8847976922988892,0.5788143277168274,2.501711130142212
1761915167382758700,9.493758544921874,-0.8377394080162048,0.47920599579811096,2.25982403755188
1761915167392812800,9.503812744140625,-0.8787579536437988,0.28032487630844116,2.0363645553588867
1761915167402866700,9.51386669921875,-0.9993463754653931,0.021574534475803375,1.860381841659546
1761915167412921600,9.523921630859375,-1.1579176187515259,-0.24449709057807922,1.7278671264648438
1761915167422975700,9.533975830078125,-1.283638596534729,-0.43759703636169434,1.6135234832763672
1761915167433029600,9.544029541015625,-1.3394174575805664,-0.5428276062011719,1.5151927471160889
1761915167443083800,9.554083740234375,-1.3377947807312012,-0.6525570154190063,1.4248486757278442
1761915167453138700,9.564138671875,-1.2798517942428589,-0.7752086520195007,1.3710848093032837
1761915167463192600,9.574192626953124,-1.1792527437210083,-0.8303384780883789,1.4015634059906006
1761915167473246700,9.584246826171874,-1.0611103773117065,-0.7708029747009277,1.4911755323410034
1761915167483300600,9.594300537109374,-0.9304373860359192,-0.5946269035339355,1.5717194080352783
1761915167493354800,9.604354736328125,-0.8155749440193176,-0.541106104850769,1.5143271684646606
1761915167503409700,9.61440966796875,-0.7718600034713745,-0.7058157324790955,1.2993354797363281
1761915167513463800,9.6244638671875,-0.7871912717819214,-1.128095269203186,1.0294342041015625
1761915167523517700,9.634517578125,-0.8584262728691101,-1.6922215223312378,0.8135789036750793
1761915167533571800,9.64457177734375,-0.9934717416763306,-2.031362771987915,0.6560553312301636
1761915167543625500,9.65462548828125,-1.1903831958770752,-1.8507094383239746,0.4356260299682617
1761915167553680600,9.6646806640625,-1.3717002868652344,-1.301711082458496,0.02720152772963047
1761915167563734800,9.67473486328125,-1.4435986280441284,-0.6128777861595154,-0.48961204290390015
1761915167573788700,9.68478857421875,-1.390407919883728,-0.06846987456083298,-0.9895816445350647
1761915167583842800,9.6948427734375,-1.258018136024475,0.17722004652023315,-1.3565186262130737
1761915167593898000,9.70489794921875,-1.105236291885376,-0.027839886024594307,-1.6209607124328613
1761915167603952000,9.7149521484375,-0.9702215194702148,-0.6786949038505554,-1.8724943399429321
1761915167614006000,9.725006103515625,-0.8227420449256897,-1.2788147926330566,-1.98396897315979
1761915167624060200,9.73506005859375,-0.6688675284385681,-1.647592544555664,-1.863460659980774
1761915167634114000,9.745114013671875,-0.4923599064350128,-1.8587287664413452,-1.5141162872314453
1761915167644169200,9.755169189453126,-0.36555054783821106,-1.8722575902938843,-0.9701102375984192
1761915167654222800,9.765222900390626,-0.34293845295906067,-1.6315795183181763,-0.3164045810699463
1761915167664277000,9.775277099609376,-0.3884254992008209,-1.21347975730896,0.3082537055015564
1761915167674331100,9.7853310546875,-0.4271728992462158,-0.7326222658157349,0.8052951693534851
1761915167684386000,9.795385986328125,-0.5053797960281372,-0.3256358802318573,1.1411362886428833
1761915167694440200,9.805440185546875,-0.620231568813324,-0.07744765281677246,1.2798137664794922
1761915167704494000,9.815494140625,-0.678443193435669,0.010803379118442535,1.1897163391113281
1761915167714548200,9.82554833984375,-0.7084024548530579,0.0011145329335704446,0.8796730041503906
1761915167724602000,9.83560205078125,-0.7013013958930969,0.12796995043754578,0.500159502029419
1761915167734657000,9.845656982421875,-0.6670928001403809,0.2749626040458679,0.1412591189146042
1761915167744711200,9.855711181640626,-0.6798432469367981,0.36924514174461365,-0.14497555792331696
1761915167754765000,9.86576513671875,-0.7897734642028809,0.3466072082519531,-0.29238125681877136
1761915167764819200,9.875819091796876,-0.9578729867935181,0.18006058037281036,-0.30811363458633423
1761915167774873900,9.885873779296874,-1.0765618085861206,-0.12955214083194733,-0.26529186964035034
1761915167784928000,9.895927978515624,-1.2340798377990723,-0.45049554109573364,-0.13985083997249603
1761915167794982100,9.905982177734375,-1.4013478755950928,-0.7524162530899048,0.06863898038864136
1761915167805036000,9.9160361328125,-1.5110636949539185,-1.1810238361358643,0.30580785870552063
1761915167815090200,9.926090087890625,-1.5816154479980469,-1.7317601442337036,0.5592145323753357
1761915167825145000,9.93614501953125,-1.5726778507232666,-2.1955084800720215,0.828235924243927
1761915167835199200,9.94619921875,-1.526484727859497,-2.4338762760162354,1.004421591758728
1761915167845252900,9.9562529296875,-1.5112829208374023,-2.444827079772949,1.0276355743408203
1761915167855307000,9.96630712890625,-1.5432320833206177,-2.414114475250244,0.9378191232681274
1761915167865362200,9.976362060546874,-1.5895631313323975,-2.3806686401367188,0.8193297386169434
1761915167875416000,9.986416015625,-1.5867257118225098,-2.343757390975952,0.7171536087989807
1761915167885470200,9.99647021484375,-1.5140259265899658,-2.208735466003418,0.5817683339118958
1761915167895524000,10.006524169921875,-1.4039742946624756,-1.6044692993164062,0.46315646171569824
1761915167905578200,10.016578125,-1.2288129329681396,-0.5546019673347473,0.3777659237384796
1761915167915633200,10.026633056640625,-0.8940937519073486,-0.576594352722168,-0.009978597983717918
1761915167925687000,10.03668701171875,-0.6565453410148621,-0.9401770830154419,-0.50673508644104
1761915167935741200,10.0467412109375,-0.6061785817146301,-0.7726003527641296,-0.8396603465080261
1761915167945795000,10.056795166015625,-0.7524538040161133,-0.5022732615470886,-1.1959494352340698
1761915167955850200,10.066850341796876,-0.9749390482902527,-0.391365647315979,-1.48434579372406
1761915167965904000,10.07690380859375,-1.0864903926849365,-0.2818319499492645,-1.547181248664856
1761915167975958000,10.0869580078125,-0.9938182234764099,0.0699593797326088,-1.3443913459777832
1761915167986012000,10.097011962890624,-0.8468590974807739,0.7437748312950134,-0.7962196469306946
1761915167996066000,10.107066162109374,-0.7951043248176575,1.1299039125442505,-0.24845588207244873
1761915168006121200,10.117121337890625,-0.7907891869544983,1.1795294284820557,0.17760860919952393
1761915168016175000,10.127175048828125,-0.7525949478149414,0.9015833735466003,0.4633095860481262
1761915168026229200,10.137229248046875,-0.7991445660591125,0.22931894659996033,0.5799288749694824
1761915168036283100,10.147283203125,-1.0230027437210083,-0.679772138595581,0.481251060962677
1761915168046337000,10.1573369140625,-1.2763711214065552,-1.4686493873596191,0.22006098926067352
1761915168056392200,10.16739208984375,-1.3706027269363403,-1.886537790298462,-0.1406700313091278
1761915168066446000,10.177446044921876,-1.2984838485717773,-1.840734601020813,-0.5294393301010132
1761915168076500200,10.187500244140624,-1.2120165824890137,-1.3412400484085083,-0.8593757152557373
1761915168086554000,10.19755419921875,-1.239546775817871,-0.563736081123352,-1.0181152820587158
1761915168096609000,10.207609130859375,-1.288710594177246,0.30062589049339294,-0.9748650193214417
1761915168106663000,10.217662841796875,-1.2574772834777832,0.8756390810012817,-0.8130673170089722
1761915168116717000,10.227717041015625,-1.155654788017273,1.0960551500320435,-0.594233512878418
1761915168126771000,10.23777099609375,-1.0735276937484741,1.1203678846359253,-0.33332470059394836
1761915168136825000,10.2478251953125,-1.0318026542663574,0.9204912781715393,-0.09031099081039429
1761915168146880300,10.25788037109375,-0.9318605661392212,0.6225764751434326,0.1457257717847824
1761915168156934100,10.26793408203125,-0.7952491641044617,0.3785017728805542,0.3944226801395416
1761915168166988000,10.277988037109376,-0.6601190567016602,0.3639103174209595,0.6425262093544006
1761915168177042000,10.2880419921875,-0.6162312626838684,0.5512974858283997,0.8342258930206299
1761915168187097000,10.29809716796875,-0.7041411399841309,0.5562123656272888,0.978882908821106
1761915168197151200,10.308151123046875,-0.7353184819221497,0.47380831837654114,1.025057077407837
1761915168207205000,10.318205078125,-0.7136003971099854,0.2558536231517792,0.9695621132850647
1761915168217259300,10.32825927734375,-0.6393168568611145,-0.0735517144203186,0.8411524891853333
1761915168227313200,10.338313232421875,-0.5243868231773376,-0.4147769510746002,0.6758553981781006
1761915168237368000,10.3483681640625,-0.4077427387237549,-0.6158373355865479,0.4439321756362915
1761915168247422000,10.358421875,-0.31834787130355835,-0.42696836590766907,0.13661271333694458
1761915168257476000,10.36847607421875,-0.26213228702545166,-0.03991226106882095,-0.14769650995731354
1761915168267530000,10.378530029296876,-0.13757170736789703,0.15336771309375763,-0.20809541642665863
1761915168277585200,10.388585205078124,0.07373840361833572,-0.07087257504463196,-0.18226061761379242
