time,seconds_elapsed,z,y,x
1761914842821392100,0.07339208984375,-0.7308807373046875,-0.651519775390625,0.1524200439453125
1761914842831446800,0.08344677734375,-0.73956298828125,-0.6529998779296875,0.153900146484375
1761914842841502000,0.093501953125,-0.7458343505859375,-0.652679443359375,0.15289306640625
1761914842851557000,0.10355712890625,-0.7511749267578125,-0.6544647216796875,0.1508331298828125
1761914842861611800,0.11361181640625,-0.7607421875,-0.659332275390625,0.149139404296875
1761914842871667000,0.1236669921875,-0.7612457275390625,-0.662322998046875,0.144287109375
1761914842881721900,0.133721923828125,-0.7532806396484375,-0.65960693359375,0.13702392578125
1761914842891778000,0.143778076171875,-0.7434844970703125,-0.6547393798828125,0.1322021484375
1761914842901833000,0.1538330078125,-0.73779296875,-0.6541290283203125,0.128997802734375
1761914842911888000,0.163887939453125,-0.73577880859375,-0.6609649658203125,0.1307830810546875
1761914842921943000,0.173943115234375,-0.738555908203125,-0.6714324951171875,0.13385009765625
1761914842931998000,0.183998046875,-0.7408294677734375,-0.6789398193359375,0.1371612548828125
1761914842942052900,0.194052978515625,-0.7370452880859375,-0.6794891357421875,0.1372528076171875
1761914842952108000,0.20410791015625,-0.7299957275390625,-0.6761322021484375,0.134063720703125
1761914842962163000,0.214162841796875,-0.7253875732421875,-0.6744232177734375,0.1298065185546875
1761914842972218000,0.224218017578125,-0.7274169921875,-0.6716461181640625,0.1223297119140625
1761914842982272800,0.234272705078125,-0.7269134521484375,-0.66717529296875,0.11468505859375
1761914842992328000,0.244327880859375,-0.7166748046875,-0.6617584228515625,0.1055145263671875
1761914843002383000,0.254383056640625,-0.7107391357421875,-0.6500396728515625,0.102996826171875
1761914843012438000,0.26443798828125,-0.710174560546875,-0.63970947265625,0.1045074462890625
1761914843022493000,0.274492919921875,-0.706512451171875,-0.635986328125,0.105194091796875
1761914843032547800,0.2845478515625,-0.7022247314453125,-0.6316070556640625,0.1032867431640625
1761914843042603000,0.29460302734375,-0.6967315673828125,-0.6212005615234375,0.1000213623046875
1761914843052658000,0.304657958984375,-0.679779052734375,-0.6098175048828125,0.09466552734375
1761914843062712800,0.314712890625,-0.66107177734375,-0.5969696044921875,0.0884246826171875
1761914843072768000,0.32476806640625,-0.6590118408203125,-0.58245849609375,0.083343505859375
1761914843082823000,0.334822998046875,-0.6597137451171875,-0.5660552978515625,0.0773773193359375
1761914843092877800,0.3448779296875,-0.6399993896484375,-0.55023193359375,0.072967529296875
1761914843102933000,0.35493310546875,-0.6134033203125,-0.5403289794921875,0.0691375732421875
1761914843112989000,0.364989013671875,-0.59442138671875,-0.5243682861328125,0.0563201904296875
1761914843123044000,0.375044189453125,-0.577911376953125,-0.50457763671875,0.04205322265625
1761914843133098800,0.3850986328125,-0.5693359375,-0.4880828857421875,0.0367431640625
1761914843143154000,0.39515380859375,-0.5628662109375,-0.4648590087890625,0.0286102294921875
1761914843153209000,0.405208984375,-0.555450439453125,-0.43408203125,0.017486572265625
1761914843163264000,0.415263916015625,-0.5527496337890625,-0.4023590087890625,0.007476806640625
1761914843173319000,0.42531884765625,-0.5327301025390625,-0.378570556640625,-0.00189208984375
1761914843183373800,0.435373779296875,-0.485565185546875,-0.373565673828125,0.0006256103515625
1761914843193429000,0.445428955078125,-0.4367828369140625,-0.3853912353515625,0.015869140625
1761914843203484200,0.455484130859375,-0.4852752685546875,-0.42620849609375,0.023101806640625
1761914843213538800,0.465538818359375,-0.4767303466796875,-0.477935791015625,0.0353851318359375
1761914843223594000,0.475593994140625,-0.5192718505859375,-0.518798828125,0.040771484375
1761914843233649000,0.48564892578125,-0.5931854248046875,-0.566436767578125,0.032318115234375
1761914843243703800,0.495703857421875,-0.673553466796875,-0.62939453125,0.0427398681640625
1761914843253759200,0.50575927734375,-0.7306976318359375,-0.7275390625,0.074493408203125
1761914843263814000,0.51581396484375,-0.790496826171875,-0.8527069091796875,0.0981903076171875
1761914843273869000,0.525869140625,-0.865814208984375,-0.960845947265625,0.0922393798828125
1761914843283924200,0.53592431640625,-0.9986419677734375,-1.014495849609375,0.0610198974609375
1761914843293979100,0.545979248046875,-1.131561279296875,-1.0555419921875,0.043731689453125
1761914843304034000,0.556033935546875,-1.201019287109375,-1.1067962646484375,0.0734100341796875
1761914843314089000,0.5660888671875,-1.2405242919921875,-1.168182373046875,0.14794921875
1761914843324144000,0.57614404296875,-1.2426300048828125,-1.2281036376953125,0.2234954833984375
1761914843334199300,0.58619921875,-1.2401580810546875,-1.2791290283203125,0.276519775390625
1761914843344254000,0.59625390625,-1.222808837890625,-1.29376220703125,0.306732177734375
1761914843354310100,0.60631005859375,-1.2086181640625,-1.2899322509765625,0.316925048828125
1761914843364365000,0.616364990234375,-1.1840972900390625,-1.3205413818359375,0.33135986328125
1761914843374420200,0.626420166015625,-1.166778564453125,-1.3656005859375,0.349212646484375
1761914843384475000,0.636474853515625,-1.1543426513671875,-1.4018707275390625,0.3514251708984375
1761914843394530000,0.646530029296875,-1.1295166015625,-1.42266845703125,0.3396148681640625
1761914843404585200,0.656585205078125,-1.1203155517578125,-1.4315948486328125,0.3217010498046875
1761914843414640000,0.66664013671875,-1.11572265625,-1.4293365478515625,0.3135528564453125
1761914843424695000,0.676695068359375,-1.06475830078125,-1.4140625,0.307220458984375
1761914843434750200,0.686750244140625,-1.010406494140625,-1.381622314453125,0.2936859130859375
1761914843444805000,0.69680517578125,-0.9453277587890625,-1.3244171142578125,0.2737884521484375
1761914843454860000,0.706860107421875,-0.844482421875,-1.24530029296875,0.2569732666015625
1761914843464915000,0.7169150390625,-0.75274658203125,-1.149261474609375,0.237274169921875
1761914843474970000,0.72697021484375,-0.6696929931640625,-1.0372161865234375,0.2085723876953125
1761914843485025300,0.737025390625,-0.59466552734375,-0.907928466796875,0.150177001953125
1761914843495080000,0.747079833984375,-0.5522308349609375,-0.7672119140625,0.061920166015625
1761914843505135000,0.757135009765625,-0.5213470458984375,-0.6399078369140625,-0.016326904296875
1761914843515190000,0.76718994140625,-0.4776611328125,-0.5425262451171875,-0.0802764892578125
1761914843525245200,0.7772451171875,-0.41107177734375,-0.463409423828125,-0.1417694091796875
1761914843535300000,0.787300048828125,-0.336822509765625,-0.3868560791015625,-0.19329833984375
1761914843545355000,0.79735498046875,-0.2728729248046875,-0.3160552978515625,-0.2162017822265625
1761914843555410200,0.80741015625,-0.2226104736328125,-0.2572784423828125,-0.2071685791015625
1761914843565465000,0.817465087890625,-0.1934967041015625,-0.2109222412109375,-0.1731414794921875
1761914843575520000,0.82752001953125,-0.175506591796875,-0.1726837158203125,-0.1249542236328125
1761914843585575200,0.8375751953125,-0.144622802734375,-0.141693115234375,-0.0718231201171875
1761914843595631000,0.847631103515625,-0.1130828857421875,-0.1215667724609375,-0.0163116455078125
1761914843605686300,0.857686279296875,-0.0868682861328125,-0.12115478515625,0.03271484375
1761914843615741000,0.867740966796875,-0.0810546875,-0.1475067138671875,0.081634521484375
1761914843625796000,0.877796142578125,-0.1109161376953125,-0.168914794921875,0.124420166015625
1761914843635851300,0.887851318359375,-0.1391754150390625,-0.1624603271484375,0.145660400390625
1761914843645906000,0.897906005859375,-0.1573333740234375,-0.1484832763671875,0.149658203125
1761914843655961000,0.907961181640625,-0.1739501953125,-0.1507415771484375,0.1447296142578125
1761914843666016000,0.91801611328125,-0.1875762939453125,-0.1717681884765625,0.144134521484375
1761914843676071200,0.9280712890625,-0.1778106689453125,-0.201995849609375,0.1472320556640625
1761914843686126000,0.9381259765625,-0.165069580078125,-0.2233123779296875,0.1504058837890625
1761914843696181000,0.948180908203125,-0.161895751953125,-0.2317962646484375,0.1614532470703125
1761914843706236200,0.958236083984375,-0.150665283203125,-0.2369232177734375,0.17169189453125
1761914843716291000,0.968291015625,-0.149871826171875,-0.2408599853515625,0.1790008544921875
1761914843726346000,0.978345947265625,-0.1730804443359375,-0.235992431640625,0.1913299560546875
1761914843736401200,0.988401123046875,-0.20587158203125,-0.2681121826171875,0.21185302734375
1761914843746456000,0.9984560546875,-0.198150634765625,-0.376129150390625,0.264495849609375
1761914843756511000,1.008510986328125,-0.1245880126953125,-0.4915924072265625,0.33404541015625
1761914843766566100,1.018566162109375,-0.0770416259765625,-0.5561370849609375,0.3939361572265625
1761914843776621000,1.02862109375,-0.107757568359375,-0.6444091796875,0.4250335693359375
1761914843786676200,1.03867626953125,-0.2123565673828125,-0.6434326171875,0.3784332275390625
1761914843796731000,1.04873095703125,-0.4427490234375,-0.5812530517578125,0.308807373046875
1761914843806786000,1.0587861328125,-0.71630859375,-0.548187255859375,0.3021697998046875
1761914843816841200,1.06884130859375,-0.8616790771484375,-0.5895843505859375,0.354217529296875
1761914843826896100,1.078896240234375,-0.84375,-0.7191619873046875,0.4500732421875
1761914843836951000,1.088950927734375,-0.7772979736328125,-0.9144439697265625,0.5543060302734375
1761914843847007000,1.099007080078125,-0.8627777099609375,-1.0447235107421875,0.5858001708984375
1761914843857062100,1.109062255859375,-1.1072845458984375,-1.0526885986328125,0.53082275390625
1761914843867117000,1.119116943359375,-1.3927001953125,-1.024658203125,0.5119476318359375
1761914843877172000,1.129171875,-1.5456695556640625,-1.0406341552734375,0.570953369140625
1761914843887227100,1.13922705078125,-1.6082763671875,-1.14349365234375,0.640899658203125
1761914843897282000,1.149281982421875,-1.6637725830078125,-1.312652587890625,0.699310302734375
1761914843907337200,1.159337158203125,-1.6478729248046875,-1.475982666015625,0.73675537109375
1761914843917392100,1.16939208984375,-1.4740142822265625,-1.523162841796875,0.715240478515625
1761914843927447000,1.179447021484375,-1.37353515625,-1.52020263671875,0.6681671142578125
1761914843937502200,1.189502197265625,-1.462371826171875,-1.455963134765625,0.62908935546875
1761914843947556900,1.199556884765625,-1.5908966064453125,-1.3520965576171875,0.572662353515625
1761914843957612000,1.209612060546875,-1.6099395751953125,-1.3053741455078125,0.4875946044921875
1761914843967667200,1.219667236328125,-1.4893341064453125,-1.24432373046875,0.4008941650390625
1761914843977722000,1.22972216796875,-1.364227294921875,-1.166656494140625,0.3400115966796875
1761914843987777000,1.239777099609375,-1.303741455078125,-1.04376220703125,0.3112640380859375
1761914843997832000,1.24983203125,-1.2430419921875,-0.8856048583984375,0.30804443359375
1761914844007887000,1.25988720703125,-1.100128173828125,-0.7231292724609375,0.3149261474609375
1761914844017942300,1.2699423828125,-0.9631195068359375,-0.6085052490234375,0.261566162109375
1761914844027997000,1.279996826171875,-0.8302764892578125,-0.5278472900390625,0.1748046875
1761914844038052000,1.290052001953125,-0.70989990234375,-0.432708740234375,0.0715179443359375
1761914844048107300,1.300107177734375,-0.6238861083984375,-0.304168701171875,0.0058441162109375
1761914844058162000,1.310161865234375,-0.5518951416015625,-0.198486328125,-0.065216064453125
1761914844068217000,1.320217041015625,-0.5216217041015625,-0.144073486328125,-0.1746978759765625
1761914844078272000,1.33027197265625,-0.41363525390625,-0.0741119384765625,-0.1877899169921875
1761914844088327200,1.3403271484375,-0.2897796630859375,-0.016357421875,-0.10858154296875
1761914844098382000,1.350382080078125,-0.2249755859375,0.03521728515625,0.024810791015625
1761914844108438000,1.36043798828125,-0.2080078125,0.1268768310546875,0.171295166015625
1761914844118493200,1.3704931640625,-0.198516845703125,0.12481689453125,0.221832275390625
1761914844128548000,1.380548095703125,-0.23687744140625,0.0335693359375,0.1981353759765625
1761914844138603000,1.39060302734375,-0.2424774169921875,-0.0690155029296875,0.1432037353515625
1761914844148658000,1.400657958984375,-0.199737548828125,-0.1111907958984375,0.1114501953125
1761914844158713000,1.410713134765625,-0.1907806396484375,-0.137939453125,0.11181640625
1761914844168768300,1.420768310546875,-0.20916748046875,-0.178253173828125,0.110595703125
1761914844178823000,1.430822998046875,-0.174652099609375,-0.22198486328125,0.109375
1761914844188878000,1.440878173828125,-0.1100006103515625,-0.249420166015625,0.1031341552734375
1761914844198933200,1.450933349609375,-0.0853118896484375,-0.273590087890625,0.0856475830078125
1761914844208988200,1.46098828125,-0.08251953125,-0.2926025390625,0.0774078369140625
1761914844219043000,1.47104296875,-0.078399658203125,-0.2976226806640625,0.07720947265625
1761914844229098000,1.481097900390625,-0.11041259765625,-0.30780029296875,0.080108642578125
1761914844239153200,1.491153076171875,-0.1451873779296875,-0.3282012939453125,0.0857696533203125
1761914844249208000,1.5012080078125,-0.1830902099609375,-0.3270111083984375,0.0721435546875
1761914844259262500,1.511262451171875,-0.257049560546875,-0.3029022216796875,0.0646820068359375
1761914844269317600,1.521317626953125,-0.3457183837890625,-0.3319854736328125,0.0967254638671875
1761914844279372800,1.531372802734375,-0.4434814453125,-0.4608612060546875,0.14117431640625
1761914844289427500,1.541427490234375,-0.530975341796875,-0.6336212158203125,0.171722412109375
1761914844299482600,1.551482666015625,-0.5818634033203125,-0.739349365234375,0.1563873291015625
1761914844309537500,1.56153759765625,-0.6725616455078125,-0.7243804931640625,0.0714569091796875
1761914844319592400,1.571592529296875,-0.900970458984375,-0.6114959716796875,-0.03985595703125
1761914844329647600,1.581647705078125,-1.17962646484375,-0.55096435546875,-0.1119384765625
1761914844339702500,1.59170263671875,-1.2692413330078125,-0.7142791748046875,-0.1206512451171875
1761914844349757700,1.6017578125,-1.2830963134765625,-0.9514923095703125,-0.1076202392578125
1761914844359812600,1.6118125,-1.2875213623046875,-1.1275787353515625,-0.087066650390625
1761914844369867500,1.621867431640625,-1.359283447265625,-1.1827850341796875,-0.064910888671875
1761914844379923500,1.63192333984375,-1.475738525390625,-1.17755126953125,-0.03857421875
1761914844389978600,1.641978515625,-1.539276123046875,-1.2547454833984375,0.0148162841796875
1761914844400033500,1.652033447265625,-1.592803955078125,-1.36700439453125,0.05621337890625
1761914844410088400,1.66208837890625,-1.6102752685546875,-1.420654296875,0.068572998046875
1761914844420143600,1.6721435546875,-1.5514373779296875,-1.4327239990234375,0.060089111328125
1761914844430198800,1.68219873046875,-1.51666259765625,-1.4555816650390625,0.0678253173828125
1761914844440253400,1.69225341796875,-1.5035552978515625,-1.4976806640625,0.089813232421875
1761914844450308600,1.70230859375,-1.4806976318359375,-1.51275634765625,0.099334716796875
1761914844460363500,1.712363525390625,-1.447509765625,-1.5025482177734375,0.09771728515625
1761914844470418700,1.722418701171875,-1.3925323486328125,-1.490631103515625,0.0692138671875
1761914844480473600,1.7324736328125,-1.314910888671875,-1.4515380859375,0.0110015869140625
1761914844490528500,1.742528564453125,-1.2335968017578125,-1.3791351318359375,-0.0491943359375
1761914844500583700,1.752583740234375,-1.1273193359375,-1.281341552734375,-0.1035614013671875
1761914844510638600,1.762638671875,-1.020721435546875,-1.13970947265625,-0.142242431640625
1761914844520693500,1.772693603515625,-0.9178619384765625,-0.9803314208984375,-0.1481170654296875
1761914844530748700,1.782748779296875,-0.8215179443359375,-0.8235015869140625,-0.1331329345703125
1761914844540803600,1.792803466796875,-0.7259674072265625,-0.6856689453125,-0.1149749755859375
1761914844550858500,1.8028583984375,-0.640472412109375,-0.5650177001953125,-0.1128692626953125
1761914844560913700,1.81291357421875,-0.5403900146484375,-0.4442138671875,-0.1333160400390625
1761914844570968600,1.822968505859375,-0.4368438720703125,-0.3350982666015625,-0.1554718017578125
1761914844581023700,1.833023681640625,-0.3446502685546875,-0.2423095703125,-0.1738739013671875
1761914844591078400,1.843078369140625,-0.2559814453125,-0.1652069091796875,-0.1743011474609375
1761914844601133600,1.853133544921875,-0.17822265625,-0.1156005859375,-0.1583099365234375
1761914844611188700,1.863188720703125,-0.129852294921875,-0.0789031982421875,-0.1292877197265625
1761914844621243400,1.873243408203125,-0.1182861328125,-0.0616302490234375,-0.0793304443359375
1761914844631298600,1.883298583984375,-0.121307373046875,-0.07275390625,-0.0185089111328125
1761914844641353700,1.893353759765625,-0.11602783203125,-0.0898284912109375,0.044769287109375
1761914844651408600,1.90340869140625,-0.1313934326171875,-0.1082763671875,0.0947265625
1761914844661463600,1.913463623046875,-0.14947509765625,-0.1221923828125,0.12890625
1761914844671518500,1.9235185546875,-0.1496429443359375,-0.149749755859375,0.1506195068359375
1761914844681574700,1.93357470703125,-0.1655120849609375,-0.185333251953125,0.14251708984375
1761914844691629600,1.943629638671875,-0.171478271484375,-0.2046661376953125,0.1185302734375
1761914844701684500,1.9536845703125,-0.1628570556640625,-0.2213134765625,0.086883544921875
1761914844711739600,1.96373974609375,-0.16583251953125,-0.22869873046875,0.059295654296875
1761914844721794600,1.973794677734375,-0.18994140625,-0.2330169677734375,0.0481109619140625
1761914844731849700,1.983849609375,-0.2204132080078125,-0.2493743896484375,0.0579681396484375
1761914844741904400,1.993904296875,-0.2525787353515625,-0.2852783203125,0.07550048828125
1761914844751959600,2.00395947265625,-0.2953643798828125,-0.3239593505859375,0.0850830078125
1761914844762014700,2.0140146484375,-0.3640289306640625,-0.34112548828125,0.0762939453125
1761914844772069600,2.024069580078125,-0.4297027587890625,-0.3424835205078125,0.0492401123046875
1761914844782124500,2.03412451171875,-0.4989776611328125,-0.3568878173828125,0.0066986083984375
1761914844792179700,2.0441796875,-0.615509033203125,-0.4253387451171875,0.0038604736328125
1761914844802234600,2.054234619140625,-0.7811126708984375,-0.579071044921875,0.0470733642578125
1761914844812289500,2.06428955078125,-0.9357147216796875,-0.7197113037109375,0.072509765625
1761914844822344400,2.074344482421875,-1.0413818359375,-0.707366943359375,0.001007080078125
1761914844832399600,2.084399658203125,-1.1502227783203125,-0.6019134521484375,-0.1258087158203125
1761914844842454800,2.094454833984375,-1.2501220703125,-0.5635528564453125,-0.2031707763671875
1761914844852509400,2.104509521484375,-1.3673095703125,-0.63690185546875,-0.21185302734375
1761914844862564600,2.114564697265625,-1.4819488525390625,-0.7623138427734375,-0.16009521484375
1761914844872619500,2.12461962890625,-1.5502471923828125,-0.821197509765625,-0.11920166015625
1761914844882674400,2.13467431640625,-1.6598968505859375,-0.8296356201171875,-0.0563201904296875
1761914844892729600,2.1447294921875,-1.757415771484375,-0.914794921875,0.0558624267578125
1761914844902784500,2.154784423828125,-1.7586212158203125,-1.0379486083984375,0.1386566162109375
1761914844912839700,2.164839599609375,-1.7283782958984375,-1.10284423828125,0.1481170654296875
1761914844922894600,2.17489453125,-1.6606903076171875,-1.1065673828125,0.094696044921875
1761914844932949500,2.184949462890625,-1.5561676025390625,-1.116119384765625,0.047821044921875
1761914844943004700,2.195004638671875,-1.4482269287109375,-1.1780242919921875,0.022247314453125
1761914844953059600,2.2050595703125,-1.345123291015625,-1.2567901611328125,0.022247314453125
1761914844963114500,2.215114501953125,-1.2510223388671875,-1.3435211181640625,0.0361480712890625
1761914844973169700,2.225169677734375,-1.1416168212890625,-1.390899658203125,0.0412445068359375
1761914844983224600,2.235224609375,-1.06195068359375,-1.3717193603515625,0.05255126953125
1761914844993280800,2.24528076171875,-1.051361083984375,-1.3355255126953125,0.0693817138671875
1761914845003335400,2.25533544921875,-1.05084228515625,-1.284332275390625,0.0756072998046875
1761914845013390600,2.265390625,-1.050933837890625,-1.1812896728515625,0.0494384765625
1761914845023445500,2.275445556640625,-1.025909423828125,-1.0349273681640625,0.0069427490234375
1761914845033500700,2.285500732421875,-0.951751708984375,-0.8988189697265625,-0.016510009765625
1761914845043555600,2.2955556640625,-0.8490447998046875,-0.79119873046875,-0.029327392578125
1761914845053610500,2.305610595703125,-0.7400360107421875,-0.6876678466796875,-0.0537872314453125
1761914845063665700,2.315665771484375,-0.6406707763671875,-0.5908660888671875,-0.084991455078125
1761914845073720600,2.325720458984375,-0.55902099609375,-0.48028564453125,-0.119171142578125
1761914845083775500,2.335775390625,-0.5095062255859375,-0.3568267822265625,-0.1534576416015625
1761914845093830700,2.34583056640625,-0.482818603515625,-0.238311767578125,-0.177886962890625
1761914845103885600,2.355885498046875,-0.4582672119140625,-0.1181640625,-0.184173583984375
1761914845113940500,2.3659404296875,-0.4535675048828125,-0.0189666748046875,-0.165985107421875
1761914845123995600,2.37599560546875,-0.457122802734375,0.028564453125,-0.1256866455078125
1761914845134050600,2.386050537109375,-0.4473114013671875,0.02587890625,-0.0688323974609375
1761914845144105700,2.396105712890625,-0.414886474609375,0.0058746337890625,-0.0068817138671875
1761914845154160400,2.406160400390625,-0.3799285888671875,-0.0260467529296875,0.0455780029296875
1761914845164215600,2.416215576171875,-0.321868896484375,-0.032867431640625,0.08404541015625
1761914845174270700,2.426270751953125,-0.274139404296875,-0.040924072265625,0.106353759765625
1761914845184325400,2.436325439453125,-0.241455078125,-0.0670928955078125,0.1199188232421875
1761914845194380500,2.446380615234375,-0.225006103515625,-0.102203369140625,0.1247406005859375
1761914845204435700,2.456435791015625,-0.215087890625,-0.1534423828125,0.11138916015625
1761914845214490600,2.46649072265625,-0.1916351318359375,-0.1876373291015625,0.0706329345703125
1761914845224545500,2.476545654296875,-0.174713134765625,-0.195556640625,0.0220794677734375
1761914845234600400,2.486600341796875,-0.165008544921875,-0.207305908203125,-0.0235137939453125
1761914845244655600,2.496655517578125,-0.162872314453125,-0.2186279296875,-0.050872802734375
1761914845254714600,2.506714599609375,-0.183624267578125,-0.223876953125,-0.058349609375
1761914845264769800,2.516769775390625,-0.206939697265625,-0.2308502197265625,-0.0715484619140625
1761914845274825000,2.526824951171875,-0.2584228515625,-0.2244415283203125,-0.071136474609375
1761914845284880000,2.5368798828125,-0.3198699951171875,-0.235809326171875,-0.0568389892578125
1761914845294936000,2.54693603515625,-0.379608154296875,-0.2791748046875,-0.0266571044921875
1761914845304990700,2.55699072265625,-0.44866943359375,-0.38372802734375,0.0347900390625
1761914845315046000,2.5670458984375,-0.4931488037109375,-0.5443572998046875,0.0935821533203125
1761914845325100800,2.577100830078125,-0.5322113037109375,-0.664306640625,0.111236572265625
1761914845335155700,2.58715576171875,-0.604034423828125,-0.666717529296875,0.046234130859375
1761914845345211000,2.5972109375,-0.66680908203125,-0.6416778564453125,-0.0478515625
1761914845355265800,2.607265869140625,-0.750732421875,-0.7022705078125,-0.1154022216796875
1761914845365321000,2.617321044921875,-0.8768768310546875,-0.74578857421875,-0.1719970703125
1761914845375376000,2.6273759765625,-0.975860595703125,-0.7875213623046875,-0.1989288330078125
1761914845385430800,2.6374306640625,-1.0800628662109375,-0.8459320068359375,-0.167388916015625
1761914845395486000,2.64748583984375,-1.21380615234375,-0.87921142578125,-0.1040191650390625
1761914845405540900,2.657540771484375,-1.3300628662109375,-0.920257568359375,-0.0289154052734375
1761914845415595800,2.667595703125,-1.418304443359375,-0.999908447265625,0.038360595703125
1761914845425651000,2.67765087890625,-1.589447021484375,-0.9973297119140625,0.067657470703125
1761914845435705900,2.687705810546875,-1.6796875,-0.9527130126953125,0.0592041015625
1761914845445760800,2.6977607421875,-1.7117156982421875,-0.9873046875,0.06353759765625
1761914845455815700,2.707815673828125,-1.7044677734375,-1.1014251708984375,0.0988616943359375
1761914845465870800,2.717870849609375,-1.62261962890625,-1.2490997314453125,0.1381683349609375
1761914845475926000,2.727926025390625,-1.502166748046875,-1.41558837890625,0.1566314697265625
1761914845485980700,2.737980712890625,-1.3395843505859375,-1.5238037109375,0.1470794677734375
1761914845496035800,2.748035888671875,-1.203155517578125,-1.5193328857421875,0.116729736328125
1761914845506090800,2.7580908203125,-1.112701416015625,-1.452911376953125,0.083648681640625
1761914845516145700,2.768145751953125,-1.0244140625,-1.393280029296875,0.0460357666015625
1761914845526200800,2.778200927734375,-0.946563720703125,-1.3667755126953125,0.0125885009765625
1761914845536255700,2.788255859375,-0.8601531982421875,-1.3381500244140625,-0.0133209228515625
1761914845546311000,2.798310791015625,-0.7468109130859375,-1.2769927978515625,-0.044464111328125
1761914845556365800,2.80836572265625,-0.64410400390625,-1.1937713623046875,-0.0734100341796875
1761914845566420700,2.818420654296875,-0.542938232421875,-1.1193084716796875,-0.095428466796875
1761914845576476000,2.828475830078125,-0.44622802734375,-1.0191802978515625,-0.118896484375
1761914845586530800,2.83853076171875,-0.4032440185546875,-0.8985595703125,-0.1379241943359375
1761914845596585700,2.848585693359375,-0.4130401611328125,-0.7661895751953125,-0.1558990478515625
1761914845606641000,2.858640869140625,-0.4412689208984375,-0.637603759765625,-0.1579742431640625
1761914845616695800,2.86869580078125,-0.467071533203125,-0.5120849609375,-0.146331787109375
1761914845626752000,2.878751953125,-0.48577880859375,-0.4054107666015625,-0.1199493408203125
1761914845636806700,2.888806640625,-0.48974609375,-0.309173583984375,-0.08453369140625
1761914845646861800,2.89886181640625,-0.4782867431640625,-0.227691650390625,-0.046600341796875
1761914845656916700,2.908916748046875,-0.4534454345703125,-0.17718505859375,-0.0135040283203125
1761914845666972000,2.918971923828125,-0.418792724609375,-0.1346282958984375,0.017669677734375
1761914845677026800,2.92902685546875,-0.374359130859375,-0.1126861572265625,0.0485076904296875
1761914845687081700,2.939081787109375,-0.3193511962890625,-0.133026123046875,0.0834197998046875
1761914845697137000,2.949136962890625,-0.26666259765625,-0.17333984375,0.11541748046875
1761914845707191800,2.95919189453125,-0.2138519287109375,-0.18743896484375,0.1296539306640625
1761914845717246700,2.969246826171875,-0.1648101806640625,-0.1788330078125,0.11968994140625
1761914845727302000,2.979302001953125,-0.1420135498046875,-0.1795501708984375,0.1072845458984375
1761914845737356800,2.989356689453125,-0.128326416015625,-0.1912689208984375,0.092529296875
1761914845747411700,2.99941162109375,-0.1134490966796875,-0.1986846923828125,0.0712738037109375
1761914845757467000,3.009466796875,-0.1248626708984375,-0.198577880859375,0.0527801513671875
1761914845767521800,3.019521728515625,-0.1342315673828125,-0.2011566162109375,0.032745361328125
1761914845777577000,3.029576904296875,-0.1473388671875,-0.2013702392578125,0.0169830322265625
1761914845787631900,3.0396318359375,-0.170166015625,-0.2115325927734375,0.010772705078125
1761914845797686800,3.049686767578125,-0.1910858154296875,-0.2326812744140625,0.003204345703125
1761914845807742000,3.059741943359375,-0.2366943359375,-0.243804931640625,0.001678466796875
1761914845817796600,3.069796630859375,-0.3033294677734375,-0.27655029296875,0.008697509765625
1761914845827851800,3.079851806640625,-0.3542633056640625,-0.3812713623046875,0.03515625
1761914845837907000,3.089906982421875,-0.430694580078125,-0.5236968994140625,0.0709686279296875
1761914845847961900,3.0999619140625,-0.474456787109375,-0.67352294921875,0.0989990234375
1761914845858016800,3.110016845703125,-0.47064208984375,-0.772064208984375,0.090179443359375
1761914845868071700,3.12007177734375,-0.5328521728515625,-0.733734130859375,0.02227783203125
1761914845878126800,3.130126953125,-0.690643310546875,-0.6204071044921875,-0.0673828125
1761914845888182000,3.14018212890625,-0.8795013427734375,-0.6429290771484375,-0.0966339111328125
1761914845898236700,3.150236572265625,-0.9876556396484375,-0.8040924072265625,-0.0645294189453125
1761914845908291800,3.160291748046875,-1.038726806640625,-0.94158935546875,-0.00592041015625
1761914845918347000,3.170346923828125,-1.078216552734375,-1.084747314453125,0.1055908203125
1761914845928401700,3.180401611328125,-1.172027587890625,-1.234344482421875,0.2399444580078125
1761914845938456800,3.190456787109375,-1.2619171142578125,-1.372100830078125,0.33056640625
1761914845948512800,3.2005126953125,-1.3271026611328125,-1.4751129150390625,0.3437042236328125
1761914845958568000,3.21056787109375,-1.42169189453125,-1.4686279296875,0.2676544189453125
1761914845968622800,3.220622802734375,-1.4652862548828125,-1.470550537109375,0.180877685546875
1761914845978677800,3.230677734375,-1.4593048095703125,-1.538726806640625,0.1195526123046875
1761914845988733000,3.24073291015625,-1.4503173828125,-1.5789031982421875,0.07513427734375
1761914845998787800,3.250787841796875,-1.42645263671875,-1.6210174560546875,0.0537109375
1761914846008842800,3.2608427734375,-1.407257080078125,-1.6572265625,0.042022705078125
1761914846018897700,3.270897705078125,-1.4037628173828125,-1.6501617431640625,0.0121307373046875
1761914846028952800,3.280952880859375,-1.41705322265625,-1.601226806640625,-0.041778564453125
1761914846039008000,3.291008056640625,-1.43475341796875,-1.5026092529296875,-0.106353759765625
1761914846049062700,3.301062744140625,-1.39984130859375,-1.3520965576171875,-0.1669921875
1761914846059117800,3.311117919921875,-1.327880859375,-1.178619384765625,-0.18951416015625
1761914846069172700,3.3211728515625,-1.2451324462890625,-1.0064544677734375,-0.1526336669921875
1761914846079228000,3.331227783203125,-1.1720123291015625,-0.8442840576171875,-0.091827392578125
1761914846089282800,3.34128271484375,-1.1049957275390625,-0.7325897216796875,-0.06365966796875
1761914846099337700,3.351337646484375,-1.00372314453125,-0.6729583740234375,-0.0670318603515625
1761914846109393000,3.361392822265625,-0.8786468505859375,-0.62738037109375,-0.112579345703125
1761914846119447800,3.37144775390625,-0.745147705078125,-0.550018310546875,-0.1637420654296875
1761914846129502700,3.381502685546875,-0.6119384765625,-0.4455718994140625,-0.1893157958984375
1761914846139558000,3.391557861328125,-0.4893646240234375,-0.3636322021484375,-0.1863861083984375
1761914846149612800,3.40161279296875,-0.3957977294921875,-0.304046630859375,-0.1532440185546875
1761914846159667700,3.411667724609375,-0.3420867919921875,-0.246368408203125,-0.101715087890625
1761914846169723000,3.421722900390625,-0.304443359375,-0.210968017578125,-0.044189453125
1761914846179777800,3.43177783203125,-0.266876220703125,-0.1744842529296875,-0.0003204345703125
1761914846189833000,3.4418330078125,-0.2434234619140625,-0.1291351318359375,0.0302276611328125
1761914846199888000,3.451887939453125,-0.2360076904296875,-0.1128997802734375,0.0546875
1761914846209942800,3.46194287109375,-0.23455810546875,-0.1224212646484375,0.078948974609375
1761914846219998000,3.471998046875,-0.2250213623046875,-0.1564178466796875,0.10491943359375
1761914846230052600,3.482052490234375,-0.1956939697265625,-0.1971893310546875,0.12176513671875
1761914846240107800,3.492107666015625,-0.1504669189453125,-0.209136962890625,0.123016357421875
1761914846250163000,3.502162841796875,-0.11370849609375,-0.2218475341796875,0.1226959228515625
1761914846260217900,3.5122177734375,-0.094268798828125,-0.2404327392578125,0.1220855712890625
1761914846270273000,3.52227294921875,-0.0994873046875,-0.246673583984375,0.1164093017578125
1761914846280328000,3.532327880859375,-0.132598876953125,-0.2406768798828125,0.10833740234375
1761914846290384100,3.542384033203125,-0.1658477783203125,-0.2364044189453125,0.1009521484375
1761914846300438800,3.552438720703125,-0.1974334716796875,-0.2199859619140625,0.08966064453125
1761914846310494000,3.562493896484375,-0.23175048828125,-0.2115325927734375,0.07403564453125
1761914846320549000,3.572549072265625,-0.2652740478515625,-0.211700439453125,0.0712127685546875
1761914846330603800,3.582603759765625,-0.3251800537109375,-0.21307373046875,0.075714111328125
1761914846340659000,3.592658935546875,-0.3809814453125,-0.2562255859375,0.0906219482421875
1761914846350713900,3.6027138671875,-0.4120635986328125,-0.360260009765625,0.123443603515625
1761914846360769000,3.61276904296875,-0.4385528564453125,-0.498016357421875,0.154541015625
1761914846370824000,3.622823974609375,-0.457183837890625,-0.613861083984375,0.150970458984375
1761914846380878800,3.63287890625,-0.49578857421875,-0.6311798095703125,0.1027374267578125
1761914846390934000,3.64293408203125,-0.6364593505859375,-0.6405792236328125,0.078460693359375
1761914846400989000,3.652989013671875,-0.7631988525390625,-0.753570556640625,0.0598297119140625
1761914846411043800,3.6630439453125,-0.80340576171875,-0.897552490234375,-0.008544921875
1761914846421099000,3.67309912109375,-0.8748016357421875,-0.9057159423828125,-0.1185760498046875
1761914846431154000,3.68315380859375,-0.9683074951171875,-0.883941650390625,-0.1847991943359375
1761914846441208800,3.693208740234375,-1.0439910888671875,-1.02606201171875,-0.15179443359375
1761914846451264000,3.703263916015625,-1.15887451171875,-1.1542816162109375,-0.0890350341796875
1761914846461319000,3.71331884765625,-1.238616943359375,-1.2670135498046875,-0.011138916015625
1761914846471374000,3.7233740234375,-1.280548095703125,-1.36029052734375,0.049072265625
1761914846481428700,3.7334287109375,-1.3305816650390625,-1.3383941650390625,0.06256103515625
1761914846491484000,3.74348388671875,-1.3541107177734375,-1.3227081298828125,0.0583343505859375
1761914846501539000,3.7535390625,-1.306915283203125,-1.4161224365234375,0.075042724609375
1761914846511594000,3.763593994140625,-1.2215423583984375,-1.5454559326171875,0.104095458984375
1761914846521649000,3.77364892578125,-1.1548614501953125,-1.6575927734375,0.1223297119140625
1761914846531704000,3.7837041015625,-1.16259765625,-1.719818115234375,0.1128082275390625
1761914846541759000,3.793759033203125,-1.1544647216796875,-1.7031402587890625,0.0710601806640625
1761914846551814000,3.80381396484375,-1.1515655517578125,-1.6381683349609375,0.0149993896484375
1761914846561868800,3.813868896484375,-1.1542816162109375,-1.5372314453125,-0.0418548583984375
1761914846571924000,3.823924072265625,-1.1333160400390625,-1.4295654296875,-0.0920257568359375
1761914846581979100,3.833979248046875,-1.0774383544921875,-1.3202667236328125,-0.138397216796875
1761914846592033800,3.84403369140625,-0.997344970703125,-1.1672210693359375,-0.175445556640625
1761914846602089000,3.8540888671875,-0.9190673828125,-0.9896087646484375,-0.1816864013671875
1761914846612143900,3.864143798828125,-0.851409912109375,-0.8287200927734375,-0.1638031005859375
1761914846622199000,3.874198974609375,-0.7704010009765625,-0.691680908203125,-0.1486663818359375
1761914846632254700,3.884254638671875,-0.684783935546875,-0.5630950927734375,-0.136077880859375
1761914846642310000,3.894309814453125,-0.6149139404296875,-0.4283447265625,-0.1279449462890625
1761914846652365000,3.904364990234375,-0.55621337890625,-0.301605224609375,-0.1166229248046875
1761914846662420000,3.914419921875,-0.4908905029296875,-0.2112579345703125,-0.1014862060546875
1761914846672475000,3.924474853515625,-0.424072265625,-0.1449127197265625,-0.0841827392578125
1761914846682530000,3.934530029296875,-0.3621063232421875,-0.092010498046875,-0.069793701171875
1761914846692585000,3.9445849609375,-0.3060455322265625,-0.0434417724609375,-0.0526580810546875
1761914846702640000,3.95464013671875,-0.27349853515625,-0.012847900390625,-0.02685546875
1761914846712694800,3.96469482421875,-0.258941650390625,-0.0239410400390625,0.027374267578125
1761914846722750000,3.97475,-0.2426300048828125,-0.063232421875,0.09185791015625
1761914846732805000,3.98480517578125,-0.230682373046875,-0.1041107177734375,0.13360595703125
1761914846742859800,3.99485986328125,-0.2000579833984375,-0.119293212890625,0.141143798828125
1761914846752912100,4.004912109375,-0.176971435546875,-0.098724365234375,0.117950439453125
1761914846762966800,4.014966796875,-0.1891021728515625,-0.0947265625,0.0977020263671875
1761914846773022000,4.02502197265625,-0.2022857666015625,-0.1392974853515625,0.0709686279296875
1761914846783077000,4.0350771484375,-0.204071044921875,-0.1669464111328125,0.0616607666015625
1761914846793132000,4.045132080078125,-0.2068939208984375,-0.1914215087890625,0.072296142578125
1761914846803187000,4.05518701171875,-0.2084197998046875,-0.2110748291015625,0.084869384765625
1761914846813241900,4.065241943359375,-0.23590087890625,-0.2235107421875,0.105926513671875
1761914846823297000,4.075297119140625,-0.2263031005859375,-0.2661590576171875,0.1121368408203125
1761914846833353000,4.08535302734375,-0.315704345703125,-0.32452392578125,0.1001739501953125
1761914846843408000,4.095407958984375,-0.353302001953125,-0.32330322265625,0.07940673828125
1761914846853463000,4.105463134765625,-0.4182586669921875,-0.3546600341796875,0.07928466796875
1761914846863518000,4.11551806640625,-0.5131378173828125,-0.4716033935546875,0.099945068359375
1761914846873573000,4.125572998046875,-0.521087646484375,-0.58319091796875,0.1253662109375
1761914846883627800,4.135627685546875,-0.4616851806640625,-0.6829833984375,0.1330718994140625
1761914846893683000,4.145682861328125,-0.44586181640625,-0.75823974609375,0.095703125
1761914846903738000,4.155738037109375,-0.528656005859375,-0.8207244873046875,0.0933685302734375
1761914846913792800,4.165792724609375,-0.51934814453125,-1.0452880859375,0.118438720703125
1761914846923848000,4.175847900390625,-0.544830322265625,-1.1641693115234375,0.0647430419921875
1761914846933903000,4.185903076171875,-0.6612091064453125,-1.013671875,-0.0908355712890625
1761914846943958000,4.1959580078125,-0.793121337890625,-1.00408935546875,-0.1087188720703125
1761914846954013000,4.206012939453125,-0.8483734130859375,-1.1638031005859375,-0.0296478271484375
1761914846964067800,4.21606787109375,-0.9126129150390625,-1.2448577880859375,0.059051513671875
1761914846974123000,4.226123046875,-0.9683380126953125,-1.321502685546875,0.14208984375
1761914846984178200,4.23617822265625,-0.92120361328125,-1.4054718017578125,0.1945953369140625
1761914846994232800,4.24623291015625,-0.885589599609375,-1.43212890625,0.201080322265625
1761914847004288000,4.2562880859375,-0.8977508544921875,-1.4781341552734375,0.1993560791015625
1761914847014343000,4.266343017578125,-0.8818511962890625,-1.5655059814453125,0.20733642578125
1761914847024397800,4.276397705078125,-0.866790771484375,-1.63348388671875,0.2133331298828125
1761914847034453000,4.286452880859375,-0.862030029296875,-1.660003662109375,0.2095794677734375
1761914847044508000,4.2965078125,-0.8906402587890625,-1.6637115478515625,0.2296295166015625
1761914847054563000,4.30656298828125,-0.9793243408203125,-1.6080169677734375,0.2588958740234375
1761914847064618000,4.316617919921875,-1.0869293212890625,-1.5763702392578125,0.2739410400390625
1761914847074673000,4.3266728515625,-1.1741485595703125,-1.5875396728515625,0.2859954833984375
1761914847084728000,4.33672802734375,-1.2176971435546875,-1.482635498046875,0.2531585693359375
1761914847094783000,4.346782958984375,-1.2418060302734375,-1.350555419921875,0.207763671875
1761914847104838000,4.356837890625,-1.1705169677734375,-1.2400360107421875,0.1683349609375
1761914847114893000,4.36689306640625,-1.0417938232421875,-1.133941650390625,0.1370391845703125
1761914847124948000,4.376947998046875,-0.898040771484375,-1.030426025390625,0.1176300048828125
1761914847135003000,4.3870029296875,-0.7292938232421875,-0.9273529052734375,0.09942626953125
1761914847145057800,4.397057861328125,-0.561492919921875,-0.8123321533203125,0.0873260498046875
1761914847155113000,4.407113037109375,-0.4390716552734375,-0.7044219970703125,0.0813446044921875
1761914847165168000,4.417168212890625,-0.3784942626953125,-0.6168060302734375,0.037750244140625
1761914847175222800,4.427222900390625,-0.3782806396484375,-0.545623779296875,-0.0218505859375
1761914847185279000,4.437279052734375,-0.393402099609375,-0.4424591064453125,-0.070953369140625
1761914847195334000,4.447333984375,-0.4282379150390625,-0.3271331787109375,-0.0945587158203125
1761914847205389000,4.45738916015625,-0.4634857177734375,-0.2355499267578125,-0.0832977294921875
1761914847215444000,4.46744384765625,-0.4740753173828125,-0.177001953125,-0.0423736572265625
1761914847225499000,4.477498779296875,-0.4331512451171875,-0.127166748046875,0.0254058837890625
1761914847235554000,4.487553955078125,-0.381195068359375,-0.0984649658203125,0.0864410400390625
1761914847245609000,4.49760888671875,-0.348388671875,-0.1323394775390625,0.1246795654296875
1761914847255663900,4.507663818359375,-0.333099365234375,-0.1805877685546875,0.1641845703125
1761914847265715000,4.51771484375,-0.3310089111328125,-0.2127532958984375,0.178497314453125
1761914847275769600,4.52776953125,-0.2942657470703125,-0.2206878662109375,0.172119140625
1761914847285824800,4.53782470703125,-0.2162017822265625,-0.2239227294921875,0.149993896484375
1761914847295880000,4.5478798828125,-0.1637725830078125,-0.2014312744140625,0.1237335205078125
1761914847305934800,4.557934814453125,-0.1333465576171875,-0.17041015625,0.132598876953125
1761914847315989800,4.56798974609375,-0.0587310791015625,-0.25665283203125,0.110198974609375
1761914847326044700,4.578044677734375,-0.0694580078125,-0.3341064453125,0.0726165771484375
1761914847336102700,4.5881025390625,-0.1135406494140625,-0.32879638671875,0.060791015625
1761914847346157800,4.59815771484375,-0.1099700927734375,-0.32330322265625,0.037078857421875
1761914847356212700,4.608212646484375,-0.093353271484375,-0.34368896484375,0.034820556640625
1761914847366268000,4.618267822265625,-0.1146087646484375,-0.447052001953125,0.072509765625
1761914847376322800,4.62832275390625,-0.212982177734375,-0.57757568359375,0.1205902099609375
1761914847386377700,4.638377685546875,-0.284393310546875,-0.6723785400390625,0.1622314453125
1761914847396433000,4.648432861328125,-0.295928955078125,-0.77459716796875,0.1641693115234375
1761914847406488000,4.658488037109375,-0.3279266357421875,-0.849822998046875,0.1490020751953125
1761914847416542700,4.668542724609375,-0.3711700439453125,-0.860107421875,0.113861083984375
1761914847426598000,4.678597900390625,-0.42108154296875,-0.833984375,0.0801849365234375
1761914847436652800,4.68865283203125,-0.4474945068359375,-0.8679656982421875,0.0549774169921875
1761914847446707700,4.698707763671875,-0.5278167724609375,-0.96148681640625,0.0264892578125
1761914847456763000,4.708762939453125,-0.6051177978515625,-0.9667510986328125,-0.005157470703125
1761914847466817800,4.71881787109375,-0.5965118408203125,-0.875762939453125,-0.0125274658203125
1761914847476873000,4.728873046875,-0.637115478515625,-0.7938385009765625,0.025848388671875
1761914847486928000,4.738927978515625,-0.8288116455078125,-0.8080902099609375,0.135589599609375
1761914847496982800,4.748982666015625,-1.0679168701171875,-0.9162750244140625,0.2710723876953125
1761914847507038000,4.759037841796875,-1.2726593017578125,-1.0242462158203125,0.375823974609375
1761914847517092600,4.769092529296875,-1.4563446044921875,-1.0618438720703125,0.4530792236328125
1761914847527147800,4.779147705078125,-1.51422119140625,-1.09539794921875,0.5121917724609375
1761914847537203000,4.789202880859375,-1.4805755615234375,-1.19024658203125,0.5619964599609375
1761914847547257900,4.7992578125,-1.407318115234375,-1.32354736328125,0.5833892822265625
1761914847557312800,4.809312744140625,-1.3310394287109375,-1.4203643798828125,0.531158447265625
1761914847567367700,4.81936767578125,-1.2291259765625,-1.400909423828125,0.4552764892578125
1761914847577422800,4.8294228515625,-1.2375030517578125,-1.27691650390625,0.424957275390625
1761914847587478000,4.83947802734375,-1.3392486572265625,-1.194793701171875,0.4130706787109375
1761914847597532700,4.84953271484375,-1.3894805908203125,-1.1661529541015625,0.3802032470703125
1761914847607587800,4.859587890625,-1.324462890625,-1.0992431640625,0.3141326904296875
1761914847617642800,4.869642822265625,-1.18121337890625,-0.9545135498046875,0.24658203125
1761914847627697700,4.87969775390625,-1.1006011962890625,-0.78472900390625,0.2142791748046875
1761914847637752800,4.8897529296875,-1.05072021484375,-0.6708526611328125,0.225341796875
1761914847647808800,4.899808837890625,-0.9901580810546875,-0.6069793701171875,0.2413787841796875
1761914847657864000,4.909864013671875,-0.94342041015625,-0.5638427734375,0.24285888671875
1761914847667918800,4.9199189453125,-0.850189208984375,-0.5837249755859375,0.1898651123046875
1761914847677973800,4.929973876953125,-0.7558135986328125,-0.5552215576171875,0.0841064453125
1761914847688029000,4.94002880859375,-0.6362152099609375,-0.470733642578125,-0.0128326416015625
1761914847698083800,4.950083740234375,-0.6063079833984375,-0.381622314453125,-0.1023712158203125
1761914847708139000,4.960138916015625,-0.5902557373046875,-0.2916412353515625,-0.149200439453125
1761914847718193700,4.970193603515625,-0.53839111328125,-0.207977294921875,-0.1498870849609375
1761914847728248800,4.980248779296875,-0.553466796875,-0.1251678466796875,-0.1292266845703125
1761914847738304000,4.990303955078125,-0.5427398681640625,-0.040191650390625,-0.13726806640625
1761914847748358700,5.000358642578125,-0.4932098388671875,-0.0186920166015625,-0.0830535888671875
1761914847758413800,5.010413818359375,-0.5444488525390625,0.007171630859375,-0.0197601318359375
1761914847768468700,5.02046875,-0.52197265625,0.0051727294921875,0.0262451171875
1761914847778524000,5.03052392578125,-0.46807861328125,-0.0306854248046875,0.0741119384765625
1761914847788578800,5.040578857421875,-0.4300384521484375,-0.0541839599609375,0.1281890869140625
1761914847798633700,5.0506337890625,-0.3889312744140625,-0.0732269287109375,0.1616058349609375
1761914847808689000,5.06068896484375,-0.362884521484375,-0.130706787109375,0.144500732421875
1761914847818743800,5.070743896484375,-0.26123046875,-0.0867462158203125,0.1384429931640625
1761914847828798700,5.080798828125,-0.16705322265625,-0.0907135009765625,0.111083984375
1761914847838854000,5.09085400390625,-0.1690673828125,-0.1482086181640625,0.0915374755859375
1761914847848908800,5.10090869140625,-0.1932525634765625,-0.13543701171875,0.091217041015625
1761914847858963700,5.110963623046875,-0.22491455078125,-0.1445159912109375,0.1031036376953125
1761914847869019000,5.121018798828125,-0.2626190185546875,-0.164031982421875,0.1058197021484375
1761914847879073800,5.13107373046875,-0.31719970703125,-0.1880950927734375,0.082672119140625
1761914847889129000,5.14112890625,-0.35955810546875,-0.2423858642578125,0.0520172119140625
1761914847899183900,5.151183837890625,-0.4156341552734375,-0.304473876953125,0.0833892822265625
1761914847909238800,5.16123876953125,-0.4806671142578125,-0.4229583740234375,0.1488037109375
1761914847919294000,5.1712939453125,-0.5139007568359375,-0.6013641357421875,0.211029052734375
1761914847929348600,5.1813486328125,-0.5640106201171875,-0.7290802001953125,0.21514892578125
1761914847939403800,5.19140380859375,-0.6273956298828125,-0.744232177734375,0.146820068359375
1761914847949459000,5.201458984375,-0.633819580078125,-0.7626190185546875,0.090301513671875
1761914847959513900,5.211513916015625,-0.630401611328125,-0.8873748779296875,0.07745361328125
1761914847969568800,5.22156884765625,-0.7172698974609375,-0.966888427734375,0.06341552734375
1761914847979624700,5.231624755859375,-0.8321533203125,-0.91748046875,0.0496063232421875
1761914847989679900,5.241679931640625,-0.9084014892578125,-0.8788604736328125,0.0707550048828125
1761914847999734800,5.25173486328125,-1.019989013671875,-0.94256591796875,0.1263885498046875
1761914848009789700,5.261789794921875,-1.25299072265625,-1.0420074462890625,0.2425994873046875
1761914848019844900,5.271844970703125,-1.496856689453125,-1.1177215576171875,0.3430328369140625
1761914848029899800,5.281899658203125,-1.6519012451171875,-1.151885986328125,0.3801422119140625
1761914848039955000,5.291954833984375,-1.6766815185546875,-1.165863037109375,0.4031524658203125
1761914848050009600,5.302009521484375,-1.6532745361328125,-1.2296905517578125,0.433135986328125
1761914848060064800,5.312064697265625,-1.6247406005859375,-1.337921142578125,0.474365234375
1761914848070120000,5.322119873046875,-1.567962646484375,-1.3923492431640625,0.50054931640625
1761914848080174800,5.3321748046875,-1.501495361328125,-1.3872222900390625,0.4500274658203125
1761914848090229800,5.342229736328125,-1.428985595703125,-1.3287506103515625,0.3641357421875
1761914848100285000,5.352284912109375,-1.3621826171875,-1.2558746337890625,0.27728271484375
1761914848110339800,5.36233984375,-1.30462646484375,-1.181060791015625,0.1882781982421875
1761914848120394800,5.372394775390625,-1.234100341796875,-1.0554351806640625,0.1517486572265625
1761914848130449700,5.38244970703125,-1.2129669189453125,-0.9151458740234375,0.12615966796875
1761914848140504800,5.3925048828125,-1.1526641845703125,-0.7624664306640625,0.123931884765625
1761914848150560000,5.40256005859375,-0.840057373046875,-0.680938720703125,0.1792755126953125
1761914848160614700,5.41261474609375,-0.470123291015625,-0.6131591796875,0.1844024658203125
1761914848170669800,5.422669921875,-0.615631103515625,-0.7059478759765625,0.0703887939453125
1761914848180724700,5.432724853515625,-0.833404541015625,-0.7525177001953125,-0.0190582275390625
1761914848190780000,5.44277978515625,-0.707244873046875,-0.6135711669921875,-0.0262908935546875
1761914848200834800,5.452834716796875,-0.5552520751953125,-0.4354095458984375,-0.066192626953125
1761914848210889700,5.4628896484375,-0.5621795654296875,-0.3707122802734375,-0.1439971923828125
1761914848220945000,5.47294482421875,-0.5178375244140625,-0.3505859375,-0.183441162109375
1761914848230999800,5.482999755859375,-0.358367919921875,-0.3093719482421875,-0.171356201171875
1761914848241054700,5.4930546875,-0.121734619140625,-0.267486572265625,-0.163665771484375
1761914848251110000,5.50310986328125,-0.096466064453125,-0.2178802490234375,-0.1155242919921875
1761914848261168600,5.513168701171875,-0.101226806640625,-0.168060302734375,-0.0325927734375
1761914848271223600,5.5232236328125,-0.2519378662109375,-0.143341064453125,0.0519866943359375
1761914848281278700,5.53327880859375,-0.5364837646484375,-0.1560821533203125,0.116607666015625
1761914848291333600,5.543333740234375,-0.454620361328125,-0.194000244140625,0.1464385986328125
1761914848301388500,5.553388427734375,-0.3994293212890625,-0.1995086669921875,0.154693603515625
1761914848311443500,5.563443359375,-0.4526824951171875,-0.162139892578125,0.1431121826171875
1761914848321498600,5.57349853515625,-0.4868316650390625,-0.1384735107421875,0.1237030029296875
1761914848331553800,5.5835537109375,-0.45404052734375,-0.139984130859375,0.1009368896484375
1761914848341609700,5.593609619140625,-0.425506591796875,-0.15203857421875,0.0810699462890625
1761914848351664600,5.60366455078125,-0.421966552734375,-0.1582183837890625,0.0888214111328125
1761914848361719600,5.613719482421875,-0.429168701171875,-0.163360595703125,0.11932373046875
1761914848371774700,5.623774658203125,-0.454864501953125,-0.1756744384765625,0.1405181884765625
1761914848381829400,5.633829345703125,-0.470245361328125,-0.1915283203125,0.1247406005859375
1761914848391884500,5.643884521484375,-0.4629364013671875,-0.21832275390625,0.0895538330078125
1761914848401939700,5.653939697265625,-0.451568603515625,-0.2862701416015625,0.09716796875
1761914848411994600,5.66399462890625,-0.455596923828125,-0.405426025390625,0.1791229248046875
1761914848422049500,5.674049560546875,-0.5015869140625,-0.536163330078125,0.268035888671875
1761914848432104700,5.684104736328125,-0.631439208984375,-0.6172332763671875,0.2794647216796875
1761914848442159600,5.69415966796875,-0.7763824462890625,-0.642730712890625,0.2200927734375
1761914848452214800,5.70421484375,-0.8414306640625,-0.6459503173828125,0.136749267578125
1761914848462269400,5.71426953125,-0.81219482421875,-0.690155029296875,0.090118408203125
1761914848472324600,5.72432470703125,-0.7829437255859375,-0.77886962890625,0.0874176025390625
1761914848482379800,5.7343798828125,-0.8163604736328125,-0.814727783203125,0.0911712646484375
1761914848492434400,5.744434326171875,-0.8750152587890625,-0.8064422607421875,0.102447509765625
1761914848502489600,5.754489501953125,-0.9778900146484375,-0.822906494140625,0.1196746826171875
1761914848512544500,5.76454443359375,-1.0346832275390625,-0.857757568359375,0.1680450439453125
1761914848522599700,5.774599609375,-1.0792694091796875,-0.9062652587890625,0.2692108154296875
1761914848532654600,5.784654541015625,-1.1768646240234375,-0.9824981689453125,0.3791351318359375
1761914848542709500,5.79470947265625,-1.2564849853515625,-1.0653228759765625,0.4486541748046875
1761914848552764700,5.8047646484375,-1.29766845703125,-1.1271820068359375,0.4783782958984375
1761914848562819800,5.81481982421875,-1.299072265625,-1.211395263671875,0.505157470703125
1761914848572874500,5.82487451171875,-1.2813568115234375,-1.322845458984375,0.5294036865234375
1761914848582929700,5.8349296875,-1.2797393798828125,-1.405120849609375,0.5284881591796875
1761914848592984600,5.844984619140625,-1.270751953125,-1.429931640625,0.49884033203125
1761914848603039500,5.85503955078125,-1.234649658203125,-1.3773956298828125,0.43463134765625
1761914848613094700,5.8650947265625,-1.1974945068359375,-1.2875823974609375,0.3607330322265625
1761914848623149600,5.875149658203125,-1.1761016845703125,-1.232879638671875,0.304351806640625
1761914848633204700,5.885204833984375,-1.1575469970703125,-1.2193145751953125,0.25933837890625
1761914848643259600,5.895259765625,-1.1312713623046875,-1.167877197265625,0.2148590087890625
1761914848653314600,5.905314453125,-1.072357177734375,-1.0420684814453125,0.1773834228515625
1761914848663369700,5.91536962890625,-0.9829559326171875,-0.891693115234375,0.1631622314453125
1761914848673424600,5.925424560546875,-0.91900634765625,-0.763427734375,0.174896240234375
1761914848683479600,5.9354794921875,-0.8797607421875,-0.6713714599609375,0.192901611328125
1761914848693534700,5.94553466796875,-0.853271484375,-0.6031951904296875,0.183135986328125
1761914848703589600,5.955589599609375,-0.8302001953125,-0.538787841796875,0.1472015380859375
1761914848713645800,5.965645751953125,-0.7921905517578125,-0.467254638671875,0.0845794677734375
1761914848723700500,5.975700439453125,-0.7097625732421875,-0.39056396484375,0.012939453125
1761914848733755600,5.985755615234375,-0.620147705078125,-0.3138580322265625,-0.0497589111328125
1761914848743810600,5.995810546875,-0.5609588623046875,-0.2415313720703125,-0.0936737060546875
1761914848753865700,6.00586572265625,-0.4999847412109375,-0.1804351806640625,-0.1202392578125
1761914848763920600,6.015920654296875,-0.4098358154296875,-0.1320343017578125,-0.129974365234375
1761914848773975600,6.0259755859375,-0.307647705078125,-0.097198486328125,-0.1171722412109375
1761914848784030700,6.03603076171875,-0.2419891357421875,-0.0886077880859375,-0.0818023681640625
1761914848794085400,6.04608544921875,-0.2126007080078125,-0.108978271484375,-0.0245208740234375
1761914848804140500,6.056140625,-0.211151123046875,-0.150634765625,0.041839599609375
1761914848814195700,6.06619580078125,-0.2279205322265625,-0.17535400390625,0.093719482421875
1761914848824250600,6.076250732421875,-0.23724365234375,-0.1729278564453125,0.1242218017578125
1761914848834305500,6.086305419921875,-0.23992919921875,-0.1669158935546875,0.135772705078125
1761914848844360700,6.096360595703125,-0.233673095703125,-0.172210693359375,0.137298583984375
1761914848854415600,6.10641552734375,-0.22509765625,-0.1807098388671875,0.1237335205078125
1761914848864470800,6.116470703125,-0.21026611328125,-0.1932373046875,0.10498046875
1761914848874525400,6.126525390625,-0.2075042724609375,-0.2085723876953125,0.0912322998046875
1761914848884580600,6.13658056640625,-0.219696044921875,-0.231842041015625,0.0774688720703125
1761914848894635800,6.1466357421875,-0.226715087890625,-0.24530029296875,0.06427001953125
1761914848904690400,6.1566904296875,-0.24737548828125,-0.242889404296875,0.0552520751953125
1761914848914745600,6.16674560546875,-0.287933349609375,-0.26727294921875,0.0726165771484375
1761914848924800500,6.176800537109375,-0.3515472412109375,-0.3549957275390625,0.107574462890625
1761914848934855700,6.186855712890625,-0.4465484619140625,-0.48455810546875,0.13916015625
1761914848944910600,6.19691064453125,-0.5360107421875,-0.6116485595703125,0.16864013671875
1761914848954965500,6.206965576171875,-0.57769775390625,-0.7104949951171875,0.1989593505859375
1761914848965020700,6.217020751953125,-0.6113739013671875,-0.7977447509765625,0.2348175048828125
1761914848975075800,6.227075927734375,-0.7129669189453125,-0.873382568359375,0.2293548583984375
1761914848985130500,6.237130615234375,-0.8653564453125,-0.880828857421875,0.169830322265625
1761914848995185700,6.247185546875,-1.0043182373046875,-0.843719482421875,0.116363525390625
1761914849005240600,6.257240478515625,-1.090667724609375,-0.8638763427734375,0.111083984375
1761914849015295500,6.26729541015625,-1.1461334228515625,-0.92864990234375,0.1207733154296875
1761914849025350700,6.2773505859375,-1.169891357421875,-0.972991943359375,0.1284332275390625
1761914849035405600,6.287405517578125,-1.1545562744140625,-1.0515594482421875,0.185455322265625
1761914849045460700,6.297460693359375,-1.1946868896484375,-1.164276123046875,0.2451019287109375
1761914849055515600,6.307515625,-1.2649993896484375,-1.25494384765625,0.2754974365234375
1761914849065571600,6.317571533203125,-1.258514404296875,-1.3378448486328125,0.2947540283203125
1761914849075626500,6.32762646484375,-1.256134033203125,-1.438812255859375,0.30999755859375
1761914849085681700,6.337681640625,-1.287628173828125,-1.5179901123046875,0.3288116455078125
1761914849095736600,6.347736572265625,-1.2864532470703125,-1.570037841796875,0.3076324462890625
1761914849105791500,6.35779150390625,-1.2516326904296875,-1.5783538818359375,0.2321319580078125
1761914849115846700,6.3678466796875,-1.20770263671875,-1.5204620361328125,0.135101318359375
1761914849125901800,6.37790185546875,-1.1747283935546875,-1.40435791015625,0.0575714111328125
1761914849135956500,6.38795654296875,-1.196563720703125,-1.29144287109375,0.0106658935546875
1761914849146011600,6.39801171875,-1.209320068359375,-1.2207794189453125,-0.003692626953125
1761914849156066600,6.408066650390625,-1.192596435546875,-1.1488800048828125,0.0005340576171875
1761914849166121700,6.418121826171875,-1.150482177734375,-1.025726318359375,0.0106353759765625
1761914849176176600,6.4281767578125,-1.107574462890625,-0.8830108642578125,0.0419158935546875
1761914849186231600,6.4382314453125,-1.081085205078125,-0.76959228515625,0.0704345703125
1761914849196286700,6.44828662109375,-1.09991455078125,-0.648712158203125,0.054534912109375
1761914849206341600,6.458341552734375,-1.0850067138671875,-0.537353515625,0.025482177734375
1761914849216396500,6.468396484375,-1.007843017578125,-0.4373626708984375,-0.046356201171875
1761914849226451700,6.47845166015625,-0.8923492431640625,-0.3394775390625,-0.1478424072265625
1761914849236506600,6.488506591796875,-0.7616119384765625,-0.257781982421875,-0.234222412109375
1761914849246561500,6.4985615234375,-0.623565673828125,-0.1780853271484375,-0.29052734375
1761914849256616700,6.50861669921875,-0.49005126953125,-0.11431884765625,-0.304656982421875
1761914849266671600,6.518671630859375,-0.385406494140625,-0.0861358642578125,-0.2723846435546875
1761914849276726800,6.528726806640625,-0.3069305419921875,-0.08935546875,-0.201873779296875
1761914849286781700,6.53878173828125,-0.2760162353515625,-0.1130218505859375,-0.1129150390625
1761914849296836600,6.548836669921875,-0.2738494873046875,-0.1277923583984375,-0.033172607421875
1761914849306891800,6.558891845703125,-0.26605224609375,-0.1257781982421875,0.030303955078125
1761914849316946700,6.56894677734375,-0.2439117431640625,-0.132781982421875,0.0748138427734375
1761914849327001900,6.579001953125,-0.2108306884765625,-0.153778076171875,0.0955810546875
1761914849337056500,6.589056396484375,-0.1825103759765625,-0.179931640625,0.0992889404296875
1761914849347111700,6.599111572265625,-0.152618408203125,-0.2113037109375,0.0915985107421875
1761914849357166800,6.609166748046875,-0.1172943115234375,-0.2306671142578125,0.0787506103515625
1761914849367222800,6.619222900390625,-0.1022186279296875,-0.2268524169921875,0.0611724853515625
1761914849377277700,6.629277587890625,-0.0949859619140625,-0.217987060546875,0.0424346923828125
1761914849387332600,6.63933251953125,-0.085601806640625,-0.2135772705078125,0.0345458984375
1761914849397387800,6.6493876953125,-0.0919647216796875,-0.2132415771484375,0.037994384765625
1761914849407442700,6.659442626953125,-0.11669921875,-0.227386474609375,0.04815673828125
1761914849417497600,6.66949755859375,-0.16912841796875,-0.2543792724609375,0.064239501953125
1761914849427552800,6.679552734375,-0.2370452880859375,-0.2872314453125,0.0616302490234375
1761914849437607700,6.689607666015625,-0.2796630859375,-0.3221282958984375,0.052642822265625
1761914849447662600,6.69966259765625,-0.27685546875,-0.38983154296875,0.070526123046875
1761914849457717800,6.7097177734375,-0.276885986328125,-0.5252838134765625,0.1235504150390625
1761914849467772700,6.719772705078125,-0.328460693359375,-0.7098846435546875,0.201263427734375
1761914849477827800,6.729827880859375,-0.44842529296875,-0.85589599609375,0.2585906982421875
1761914849487882500,6.739882568359375,-0.63763427734375,-0.8845672607421875,0.249542236328125
1761914849497937700,6.749937744140625,-0.770843505859375,-0.857147216796875,0.2107696533203125
1761914849507992800,6.759992919921875,-0.8005523681640625,-0.944061279296875,0.21063232421875
1761914849518047700,6.7700478515625,-0.843658447265625,-1.109619140625,0.1768646240234375
1761914849528102700,6.7801025390625,-0.9778289794921875,-1.174896240234375,0.1310272216796875
1761914849538157800,6.79015771484375,-1.0578460693359375,-1.162322998046875,0.1344146728515625
1761914849548212700,6.800212646484375,-1.0640106201171875,-1.2371673583984375,0.1797637939453125
1761914849558267600,6.810267578125,-1.167877197265625,-1.4012298583984375,0.2749481201171875
1761914849568322600,6.820322509765625,-1.2920379638671875,-1.5330657958984375,0.346954345703125
1761914849578377700,6.830377685546875,-1.3694305419921875,-1.575042724609375,0.3554840087890625
1761914849588433000,6.840432861328125,-1.387969970703125,-1.634521484375,0.37054443359375
1761914849598487600,6.850487548828125,-1.4637603759765625,-1.7418060302734375,0.3686065673828125
1761914849608542700,6.860542724609375,-1.5026397705078125,-1.7988739013671875,0.324371337890625
1761914849618597600,6.87059765625,-1.41973876953125,-1.7437896728515625,0.22637939453125
1761914849628652800,6.88065283203125,-1.3116302490234375,-1.5740509033203125,0.136566162109375
1761914849638707700,6.890707763671875,-1.239349365234375,-1.3964996337890625,0.09527587890625
1761914849648762600,6.9007626953125,-1.18499755859375,-1.30078125,0.0927581787109375
1761914849658817800,6.91081787109375,-1.094451904296875,-1.2769927978515625,0.1004180908203125
1761914849668872700,6.920872802734375,-0.9534149169921875,-1.2147064208984375,0.1110076904296875
1761914849678927600,6.930927734375,-0.765594482421875,-1.1041412353515625,0.138702392578125
1761914849688982800,6.940982666015625,-0.59820556640625,-0.9877471923828125,0.1681060791015625
1761914849699038700,6.951038818359375,-0.450592041015625,-0.88531494140625,0.1921844482421875
1761914849709094000,6.961093994140625,-0.35296630859375,-0.7995758056640625,0.19549560546875
1761914849719148500,6.9711484375,-0.327117919921875,-0.73883056640625,0.1644134521484375
1761914849729203700,6.98120361328125,-0.3365478515625,-0.6988677978515625,0.0970611572265625
1761914849739259000,6.9912587890625,-0.371856689453125,-0.629058837890625,0.0063934326171875
1761914849749313500,7.0013134765625,-0.414764404296875,-0.507293701171875,-0.096710205078125
1761914849759368700,7.01136865234375,-0.418548583984375,-0.349395751953125,-0.2002716064453125
1761914849769423600,7.021423583984375,-0.38238525390625,-0.18316650390625,-0.280029296875
1761914849779478800,7.031478759765625,-0.379730224609375,-0.0547637939453125,-0.2910308837890625
1761914849789533700,7.04153369140625,-0.4298095703125,-0.01116943359375,-0.229827880859375
1761914849799588600,7.051588623046875,-0.465667724609375,-0.0373992919921875,-0.12554931640625
1761914849809643800,7.061643798828125,-0.4556884765625,-0.0551605224609375,-0.023681640625
1761914849819698700,7.07169873046875,-0.4177398681640625,-0.05181884765625,0.063720703125
1761914849829753600,7.081753662109375,-0.3688812255859375,-0.0567779541015625,0.1374359130859375
1761914849839808800,7.091808837890625,-0.3177032470703125,-0.0724945068359375,0.185150146484375
1761914849849863700,7.10186376953125,-0.28851318359375,-0.1004180908203125,0.2102203369140625
1761914849859918600,7.111918701171875,-0.266815185546875,-0.145294189453125,0.2193145751953125
1761914849869973800,7.121973876953125,-0.231170654296875,-0.1912994384765625,0.2047119140625
1761914849880028700,7.132028564453125,-0.1873626708984375,-0.2165374755859375,0.176666259765625
1761914849890083800,7.142083740234375,-0.143157958984375,-0.2151336669921875,0.1450347900390625
1761914849900138500,7.152138427734375,-0.108245849609375,-0.211822509765625,0.1186981201171875
1761914849910193700,7.162193603515625,-0.0974578857421875,-0.2077178955078125,0.1034698486328125
1761914849920248800,7.172248779296875,-0.1070709228515625,-0.202850341796875,0.0889434814453125
1761914849930303700,7.1823037109375,-0.1287994384765625,-0.1971893310546875,0.0740509033203125
1761914849940358700,7.192358642578125,-0.1632537841796875,-0.20458984375,0.082122802734375
1761914849950413800,7.202413818359375,-0.19879150390625,-0.2581787109375,0.118255615234375
1761914849960468700,7.21246875,-0.2305450439453125,-0.3668975830078125,0.1762542724609375
1761914849970523600,7.222523681640625,-0.284027099609375,-0.490875244140625,0.231201171875
1761914849980578600,7.23257861328125,-0.3755645751953125,-0.590362548828125,0.2619476318359375
1761914849990633700,7.2426337890625,-0.4639434814453125,-0.7043609619140625,0.2952423095703125
1761914850000689000,7.25268896484375,-0.498931884765625,-0.9526824951171875,0.37841796875
1761914850010743600,7.26274365234375,-0.643402099609375,-1.24053955078125,0.37628173828125
1761914850020799700,7.2727998046875,-0.80908203125,-1.16571044921875,0.2452545166015625
1761914850030854700,7.282854736328125,-0.720245361328125,-0.93475341796875,0.2166900634765625
1761914850040909800,7.292909912109375,-0.77752685546875,-0.9210205078125,0.2852325439453125
1761914850050964500,7.302964599609375,-1.05902099609375,-1.186370849609375,0.404296875
1761914850061019600,7.31301953125,-1.352935791015625,-1.44781494140625,0.4832763671875
1761914850071074800,7.32307470703125,-1.461639404296875,-1.4264068603515625,0.4427337646484375
1761914850081129700,7.333129638671875,-1.369720458984375,-1.2525177001953125,0.3152313232421875
1761914850091184600,7.3431845703125,-1.330291748046875,-1.2471771240234375,0.27777099609375
1761914850101239800,7.35323974609375,-1.4055328369140625,-1.44091796875,0.34417724609375
1761914850111294700,7.363294677734375,-1.4754638671875,-1.591217041015625,0.38800048828125
1761914850121350000,7.373349853515625,-1.4862060546875,-1.6467437744140625,0.3860626220703125
1761914850131404500,7.383404541015625,-1.4708404541015625,-1.6569366455078125,0.351348876953125
1761914850141459700,7.393459716796875,-1.4720611572265625,-1.63787841796875,0.275665283203125
1761914850151515000,7.403514892578125,-1.4718780517578125,-1.537994384765625,0.1609039306640625
1761914850161569500,7.413569580078125,-1.4567718505859375,-1.3422698974609375,0.027496337890625
1761914850171624700,7.423624755859375,-1.380126953125,-1.0869140625,-0.074249267578125
1761914850181679600,7.4336796875,-1.241302490234375,-0.867218017578125,-0.1363677978515625
1761914850191734800,7.44373486328125,-1.1350555419921875,-0.774871826171875,-0.1671600341796875
1761914850201789700,7.453789794921875,-1.0436248779296875,-0.743988037109375,-0.1669921875
1761914850211844600,7.4638447265625,-0.9426727294921875,-0.67791748046875,-0.1772613525390625
1761914850221899800,7.473899658203125,-0.836578369140625,-0.56732177734375,-0.2172088623046875
1761914850231954700,7.48395458984375,-0.7475128173828125,-0.436859130859375,-0.277008056640625
1761914850242009600,7.494009521484375,-0.642333984375,-0.3293914794921875,-0.3245086669921875
1761914850252064800,7.504064697265625,-0.5071258544921875,-0.23394775390625,-0.35272216796875
1761914850262115800,7.51411572265625,-0.39654541015625,-0.1133270263671875,-0.3698577880859375
1761914850272171000,7.5241708984375,-0.331451416015625,-0.0206451416015625,-0.34490966796875
1761914850282226000,7.534225830078125,-0.3433837890625,0.003387451171875,-0.2547149658203125
1761914850292280800,7.54428076171875,-0.4023284912109375,-0.0282745361328125,-0.1249237060546875
1761914850302336000,7.5543359375,-0.447906494140625,-0.061279296875,0.0059051513671875
1761914850312391200,7.56439111328125,-0.4746856689453125,-0.0743255615234375,0.10064697265625
1761914850322445800,7.57444580078125,-0.4641571044921875,-0.07855224609375,0.15740966796875
1761914850332501000,7.5845009765625,-0.433837890625,-0.0806884765625,0.1754913330078125
1761914850342556000,7.594555908203125,-0.378082275390625,-0.0817108154296875,0.1698760986328125
1761914850352611000,7.604611083984375,-0.28948974609375,-0.0831451416015625,0.1517791748046875
1761914850362666800,7.614666748046875,-0.1984100341796875,-0.0965576171875,0.1282501220703125
1761914850372722000,7.624721923828125,-0.129241943359375,-0.127593994140625,0.1070709228515625
1761914850382777000,7.634777099609375,-0.0802764892578125,-0.1580810546875,0.09454345703125
1761914850392832000,7.64483203125,-0.0597076416015625,-0.18255615234375,0.082427978515625
1761914850402887000,7.654886962890625,-0.0821380615234375,-0.196929931640625,0.0782012939453125
1761914850412941800,7.66494189453125,-0.1407012939453125,-0.2059326171875,0.0795135498046875
1761914850422997000,7.6749970703125,-0.2258758544921875,-0.2149505615234375,0.08026123046875
1761914850433052200,7.68505224609375,-0.30145263671875,-0.2454071044921875,0.095184326171875
1761914850443106800,7.69510693359375,-0.3532562255859375,-0.3418731689453125,0.1245574951171875
1761914850453162000,7.705161865234375,-0.4060211181640625,-0.5030364990234375,0.160675048828125
1761914850463217000,7.715216796875,-0.482513427734375,-0.660858154296875,0.173736572265625
1761914850473271800,7.725271728515625,-0.551361083984375,-0.71234130859375,0.1304931640625
1761914850483327000,7.735326904296875,-0.5860595703125,-0.625335693359375,0.0478363037109375
1761914850493382000,7.7453818359375,-0.6168365478515625,-0.58843994140625,0.00537109375
1761914850503437000,7.75543701171875,-0.68048095703125,-0.7891998291015625,0.0450592041015625
1761914850513492000,7.765491943359375,-0.8536224365234375,-1.0457763671875,0.066162109375
1761914850523547000,7.775546875,-1.02728271484375,-1.0391845703125,0.0243072509765625
1761914850533602000,7.78560205078125,-1.011199951171875,-0.9013824462890625,0.0139312744140625
1761914850543657000,7.795656982421875,-0.993682861328125,-0.9168853759765625,0.050262451171875
1761914850553711900,7.8057119140625,-1.0929107666015625,-1.04937744140625,0.131591796875
1761914850563767000,7.81576708984375,-1.2203369140625,-1.09429931640625,0.207916259765625
1761914850573822000,7.825822021484375,-1.3001251220703125,-1.0897979736328125,0.28009033203125
1761914850583876900,7.835876953125,-1.3365325927734375,-1.1516876220703125,0.3332977294921875
1761914850593932000,7.84593212890625,-1.39227294921875,-1.2320709228515625,0.3537139892578125
1761914850603987000,7.855987060546875,-1.3961029052734375,-1.3184051513671875,0.3637237548828125
1761914850614042000,7.8660419921875,-1.3549652099609375,-1.4101409912109375,0.3509368896484375
1761914850624096800,7.8760966796875,-1.3662261962890625,-1.4822235107421875,0.327972412109375
1761914850634152000,7.88615185546875,-1.415802001953125,-1.5316314697265625,0.2951812744140625
1761914850644207000,7.89620703125,-1.493377685546875,-1.5089569091796875,0.23846435546875
1761914850654262000,7.906261962890625,-1.579345703125,-1.426513671875,0.170654296875
1761914850664317000,7.91631689453125,-1.660736083984375,-1.349517822265625,0.10870361328125
1761914850674371800,7.926371826171875,-1.7008209228515625,-1.2952117919921875,0.04803466796875
1761914850684427000,7.936427001953125,-1.6640167236328125,-1.23468017578125,-0.020355224609375
1761914850694482000,7.94648193359375,-1.5292205810546875,-1.153656005859375,-0.0726470947265625
1761914850704537900,7.956537841796875,-1.35693359375,-1.06689453125,-0.090911865234375
1761914850714593000,7.966593017578125,-1.17840576171875,-0.9949188232421875,-0.082489013671875
1761914850724648000,7.97664794921875,-0.9613800048828125,-0.93060302734375,-0.0551910400390625
1761914850734703000,7.986703125,-0.7662200927734375,-0.8590087890625,-0.037139892578125
1761914850744758000,7.996758056640625,-0.6077117919921875,-0.7731781005859375,-0.0550537109375
1761914850754809900,8.006809814453124,-0.464202880859375,-0.668701171875,-0.094482421875
1761914850764865000,8.016864990234374,-0.364105224609375,-0.528717041015625,-0.14453125
1761914850774920000,8.026919921875,-0.286407470703125,-0.359649658203125,-0.2036895751953125
1761914850784975000,8.03697509765625,-0.2219085693359375,-0.187896728515625,-0.2318572998046875
1761914850795029800,8.04702978515625,-0.183349609375,-0.049896240234375,-0.21148681640625
1761914850805085000,8.0570849609375,-0.2381591796875,0.0320892333984375,-0.1860198974609375
1761914850815140000,8.06714013671875,-0.226593017578125,0.0190582275390625,-0.1233062744140625
1761914850825194800,8.07719482421875,-0.248748779296875,-0.0339202880859375,-0.023284912109375
1761914850835250000,8.08725,-0.2219390869140625,-0.0038604736328125,0.0416259765625
1761914850845305000,8.09730517578125,-0.1352996826171875,0.006134033203125,0.083892822265625
1761914850855360000,8.107360107421876,-0.087371826171875,-0.001983642578125,0.106964111328125
1761914850865415000,8.117414794921874,-0.0807037353515625,0.0012664794921875,0.102325439453125
1761914850875469800,8.1274697265625,-0.0449066162109375,-0.0288543701171875,0.1025390625
1761914850885525000,8.13752490234375,-0.007110595703125,-0.0612640380859375,0.1008758544921875
1761914850895580200,8.147580078125,-0.00970458984375,-0.07623291015625,0.0811309814453125
1761914850905634800,8.157634765625,-0.0171356201171875,-0.08905029296875,0.0731201171875
1761914850915690000,8.16768994140625,-0.0294647216796875,-0.1441192626953125,0.0639495849609375
1761914850925746000,8.177745849609375,-0.029571533203125,-0.177459716796875,0.041961669921875
1761914850935801000,8.187801025390625,-0.0053558349609375,-0.1873016357421875,0.021881103515625
1761914850945855700,8.197855712890625,0.0049896240234375,-0.218536376953125,0.0017852783203125
1761914850955911000,8.207910888671876,-0.032135009765625,-0.271514892578125,-0.006744384765625
1761914850965966000,8.217966064453124,-0.0782012939453125,-0.3521270751953125,0.014434814453125
1761914850976021000,8.22802099609375,-0.0955963134765625,-0.4929351806640625,0.0817413330078125
1761914850986076000,8.238075927734375,-0.1235504150390625,-0.69451904296875,0.162689208984375
1761914850996130800,8.248130859375,-0.179840087890625,-0.8425750732421875,0.196075439453125
1761914851006186000,8.25818603515625,-0.246978759765625,-0.8324737548828125,0.140106201171875
1761914851016241000,8.268240966796874,-0.322723388671875,-0.8215484619140625,0.0589599609375
1761914851026295800,8.2782958984375,-0.46673583984375,-0.953216552734375,-0.012115478515625
1761914851036351000,8.28835107421875,-0.6102752685546875,-1.2392425537109375,-0.006988525390625
1761914851046406100,8.29840625,-0.5252838134765625,-1.318450927734375,-0.0216217041015625
1761914851056460800,8.308460693359375,-0.4755706787109375,-1.218780517578125,-0.1123504638671875
1761914851066516000,8.318515869140626,-0.573394775390625,-1.2921142578125,-0.096527099609375
1761914851076571000,8.32857080078125,-0.6595001220703125,-1.3003692626953125,-0.05328369140625
1761914851086626000,8.3386259765625,-0.7220001220703125,-1.3001861572265625,0.011688232421875
1761914851096681000,8.348680908203125,-0.816192626953125,-1.3408355712890625,0.066192626953125
1761914851106735900,8.35873583984375,-1.004974365234375,-1.3285675048828125,0.048797607421875
1761914851116791000,8.368791015625,-1.1777496337890625,-1.2869415283203125,-0.0055389404296875
1761914851126846000,8.378845947265624,-1.2237701416015625,-1.3118133544921875,-0.0377349853515625
1761914851136900900,8.38890087890625,-1.195648193359375,-1.4156646728515625,-0.028289794921875
1761914851146956000,8.3989560546875,-1.188140869140625,-1.5222015380859375,0.0110015869140625
1761914851157011000,8.409010986328125,-1.2248382568359375,-1.6235504150390625,0.09759521484375
1761914851167065900,8.41906591796875,-1.2894287109375,-1.7147216796875,0.2044525146484375
1761914851177121000,8.42912109375,-1.347625732421875,-1.7358245849609375,0.2664642333984375
1761914851187176000,8.439176025390625,-1.394866943359375,-1.654693603515625,0.2762908935546875
1761914851197231000,8.449231201171875,-1.427764892578125,-1.4918670654296875,0.242218017578125
1761914851207285800,8.45928564453125,-1.3630828857421875,-1.25592041015625,0.1625823974609375
1761914851217341000,8.4693408203125,-1.165802001953125,-0.995086669921875,0.0513458251953125
1761914851227396000,8.47939599609375,-1.24298095703125,-0.9056396484375,-0.0743865966796875
1761914851237450800,8.48945068359375,-1.0181884765625,-0.7166290283203125,-0.14373779296875
1761914851247506000,8.499505859375,-0.78662109375,-0.5752716064453125,-0.235382080078125
1761914851257561000,8.50956103515625,-0.748626708984375,-0.557861328125,-0.2750091552734375
1761914851267615700,8.51961572265625,-0.7625885009765625,-0.602630615234375,-0.2461090087890625
1761914851277670700,8.529670654296876,-0.74652099609375,-0.654693603515625,-0.2131500244140625
1761914851287725600,8.5397255859375,-0.6912384033203125,-0.6513671875,-0.1829071044921875
1761914851297780700,8.54978076171875,-0.6522979736328125,-0.5763092041015625,-0.145843505859375
1761914851307836700,8.559836669921875,-0.6241455078125,-0.466339111328125,-0.0936737060546875
1761914851317891800,8.569891845703125,-0.565673828125,-0.34130859375,-0.0380859375
1761914851327946800,8.57994677734375,-0.48272705078125,-0.2400054931640625,-0.003265380859375
1761914851338001700,8.590001708984374,-0.4049224853515625,-0.1800384521484375,0.0240631103515625
1761914851348056800,8.600056884765625,-0.3803253173828125,-0.13739013671875,0.0656890869140625
1761914851358111700,8.61011181640625,-0.3812103271484375,-0.122406005859375,0.0965423583984375
1761914851368166700,8.620166748046875,-0.3401947021484375,-0.1304779052734375,0.118408203125
1761914851378221800,8.630221923828126,-0.2905426025390625,-0.14703369140625,0.1499481201171875
1761914851388276700,8.64027685546875,-0.2740020751953125,-0.15557861328125,0.181488037109375
1761914851398331600,8.65033154296875,-0.2602996826171875,-0.1571502685546875,0.1964111328125
1761914851408386800,8.66038671875,-0.255401611328125,-0.160797119140625,0.2039642333984375
1761914851418441700,8.670441650390625,-0.2524871826171875,-0.1667938232421875,0.2094573974609375
1761914851428497000,8.680496826171876,-0.2447967529296875,-0.17962646484375,0.1993408203125
1761914851438551600,8.690551513671876,-0.2366180419921875,-0.1996307373046875,0.1805419921875
1761914851448606700,8.700606689453124,-0.2130889892578125,-0.2243804931640625,0.16876220703125
1761914851458662000,8.710661865234375,-0.1909332275390625,-0.2425384521484375,0.1665802001953125
1761914851468716800,8.720716796875,-0.1648406982421875,-0.2652130126953125,0.158599853515625
1761914851478771700,8.730771728515625,-0.1670074462890625,-0.27764892578125,0.16705322265625
1761914851488826600,8.74082666015625,-0.2023773193359375,-0.271697998046875,0.2105712890625
1761914851498881800,8.7508818359375,-0.229827880859375,-0.30889892578125,0.2616729736328125
1761914851508936700,8.760936767578125,-0.257232666015625,-0.4061737060546875,0.2941131591796875
1761914851518991600,8.77099169921875,-0.3034820556640625,-0.5519256591796875,0.321746826171875
1761914851529046800,8.781046875,-0.3608245849609375,-0.7496490478515625,0.368804931640625
1761914851539102000,8.79110205078125,-0.3759002685546875,-1.04693603515625,0.4252166748046875
1761914851549156600,8.801156494140624,-0.39373779296875,-1.35748291015625,0.382843017578125
1761914851559211800,8.811211669921875,-0.4719696044921875,-1.324951171875,0.219085693359375
1761914851569266700,8.8212666015625,-0.4884796142578125,-0.9924468994140625,0.09906005859375
1761914851579321600,8.831321533203125,-0.5345306396484375,-0.829437255859375,0.09033203125
1761914851589376800,8.841376708984376,-0.651641845703125,-0.9595947265625,0.1915435791015625
1761914851599431700,8.851431640625,-0.738250732421875,-1.188995361328125,0.3456268310546875
1761914851609486800,8.86148681640625,-0.8662109375,-1.310333251953125,0.490936279296875
1761914851619542800,8.871542724609375,-0.9703216552734375,-1.3801727294921875,0.5586700439453125
1761914851629597700,8.88159765625,-0.994781494140625,-1.420257568359375,0.541107177734375
1761914851639652600,8.891652587890626,-0.989898681640625,-1.43829345703125,0.4885711669921875
1761914851649707800,8.901707763671874,-1.0029449462890625,-1.4936370849609375,0.43621826171875
1761914851659763000,8.911762939453125,-1.0481109619140625,-1.581695556640625,0.3746337890625
1761914851669817600,8.921817626953125,-1.116241455078125,-1.6387939453125,0.325042724609375
1761914851679872800,8.931872802734375,-1.1919708251953125,-1.6481170654296875,0.2769622802734375
1761914851689928000,8.941927978515626,-1.2828216552734375,-1.6102447509765625,0.23553466796875
1761914851699982600,8.951982666015626,-1.34649658203125,-1.5396270751953125,0.1988372802734375
1761914851710037800,8.962037841796874,-1.4082489013671875,-1.4213104248046875,0.1737213134765625
1761914851720092700,8.9720927734375,-1.440460205078125,-1.282958984375,0.146392822265625
1761914851730147800,8.98214794921875,-1.3932952880859375,-1.144287109375,0.1129150390625
1761914851740202800,8.99220263671875,-1.3053131103515625,-0.994720458984375,0.090911865234375
1761914851750257700,9.002257568359376,-1.1615142822265625,-0.861785888671875,0.08087158203125
1761914851760312800,9.012312744140624,-1.0115966796875,-0.75994873046875,0.0713043212890625
1761914851770367700,9.02236767578125,-0.8930511474609375,-0.6981048583984375,0.0468292236328125
1761914851780422700,9.032422607421875,-0.8082122802734375,-0.6422271728515625,0.0050048828125
1761914851790477800,9.042477783203125,-0.7083892822265625,-0.571380615234375,-0.0473785400390625
1761914851800532700,9.05253271484375,-0.6162261962890625,-0.469451904296875,-0.1045074462890625
1761914851810587600,9.062587646484374,-0.5037994384765625,-0.3667144775390625,-0.1357269287109375
1761914851820642800,9.072642822265625,-0.4397735595703125,-0.27191162109375,-0.1288604736328125
1761914851830697700,9.08269775390625,-0.42047119140625,-0.201690673828125,-0.107086181640625
1761914851840753000,9.0927529296875,-0.4110870361328125,-0.129913330078125,-0.05938720703125
1761914851850807600,9.1028076171875,-0.4290924072265625,-0.0444488525390625,0.003082275390625
1761914851860862700,9.11286279296875,-0.46435546875,0.0057525634765625,0.051025390625
1761914851870918000,9.12291796875,-0.4432373046875,0.0025177001953125,0.0859222412109375
1761914851880972500,9.13297265625,-0.4342803955078125,-0.0384979248046875,0.115814208984375
1761914851891027700,9.14302783203125,-0.41082763671875,-0.0796661376953125,0.11334228515625
1761914851901083000,9.153082763671875,-0.322479248046875,-0.0921173095703125,0.0760498046875
1761914851911138800,9.163138916015624,-0.21392822265625,-0.0995330810546875,0.0307159423828125
1761914851921193700,9.17319384765625,-0.1364593505859375,-0.1200714111328125,0.01214599609375
1761914851931248600,9.18324853515625,-0.10809326171875,-0.1514129638671875,0.012725830078125
1761914851941303800,9.1933037109375,-0.0999298095703125,-0.1853179931640625,0.016571044921875
1761914851951358700,9.203358642578126,-0.0895538330078125,-0.2201995849609375,0.02490234375
1761914851961413600,9.21341357421875,-0.078399658203125,-0.2515106201171875,0.04296875
1761914851971468800,9.22346875,-0.1023406982421875,-0.2789764404296875,0.0733184814453125
1761914851981523700,9.233523681640625,-0.161224365234375,-0.30865478515625,0.112060546875
1761914851991579000,9.243578857421875,-0.2232666015625,-0.3344879150390625,0.137298583984375
1761914852001633500,9.253633544921875,-0.2490997314453125,-0.376312255859375,0.14312744140625
1761914852011688700,9.263688720703126,-0.2571258544921875,-0.466766357421875,0.154510498046875
1761914852021743900,9.273743896484374,-0.3066864013671875,-0.6046905517578125,0.1839447021484375
1761914852031798800,9.283798828125,-0.3742523193359375,-0.7912445068359375,0.2261505126953125
1761914852041853700,9.293853759765625,-0.41119384765625,-1.042755126953125,0.229583740234375
1761914852051908600,9.30390869140625,-0.5362548828125,-1.16015625,0.1210784912109375
1761914852061963800,9.3139638671875,-0.56976318359375,-1.0037994384765625,-0.071319580078125
1761914852072018700,9.324018798828124,-0.500946044921875,-0.710174560546875,-0.1994476318359375
1761914852082073600,9.334073486328125,-0.489349365234375,-0.57257080078125,-0.1763916015625
1761914852092128800,9.344128662109375,-0.632476806640625,-0.75885009765625,-0.0126953125
1761914852102184000,9.354183837890625,-0.8676605224609375,-1.05078125,0.1947174072265625
1761914852112238600,9.364238525390626,-1.1011962890625,-1.1798095703125,0.3556060791015625
1761914852122293800,9.374293701171876,-1.2029571533203125,-1.157989501953125,0.4166717529296875
1761914852132348700,9.3843486328125,-1.249053955078125,-1.1008148193359375,0.3828887939453125
1761914852142403800,9.39440380859375,-1.242950439453125,-1.1448516845703125,0.3291015625
1761914852152458800,9.404458740234375,-1.2206573486328125,-1.2880096435546875,0.2977447509765625
1761914852162513700,9.414513671875,-1.2381591796875,-1.396087646484375,0.2380218505859375
1761914852172568800,9.42456884765625,-1.2501220703125,-1.393890380859375,0.169281005859375
1761914852182623700,9.434623779296874,-1.3038177490234375,-1.359130859375,0.14776611328125
1761914852192678700,9.4446787109375,-1.4031219482421875,-1.3385162353515625,0.165985107421875
1761914852202734600,9.454734619140625,-1.51458740234375,-1.2954864501953125,0.206695556640625
1761914852212789800,9.464789794921876,-1.638214111328125,-1.2285308837890625,0.2302093505859375
1761914852222845000,9.474844970703124,-1.68194580078125,-1.132568359375,0.204345703125
1761914852232899600,9.484899658203124,-1.6295928955078125,-1.007171630859375,0.1423492431640625
1761914852242954800,9.494954833984375,-1.518890380859375,-0.876617431640625,0.0716705322265625
1761914852253010000,9.505010009765625,-1.3964080810546875,-0.7493133544921875,0.027618408203125
1761914852263064600,9.515064697265625,-1.2661285400390625,-0.6442718505859375,0.02630615234375
1761914852273119500,9.525119384765626,-1.0980224609375,-0.579437255859375,0.0398712158203125
1761914852283174400,9.53517431640625,-0.916595458984375,-0.5465545654296875,0.0742950439453125
1761914852293229300,9.545229248046875,-0.7647552490234375,-0.5430145263671875,0.1071929931640625
1761914852303284500,9.555284423828125,-0.643707275390625,-0.5661163330078125,0.127532958984375
1761914852313339400,9.56533935546875,-0.549041748046875,-0.5843505859375,0.12701416015625
1761914852323394600,9.57539453125,-0.459136962890625,-0.5546417236328125,0.09649658203125
1761914852333449500,9.585449462890624,-0.391357421875,-0.4700164794921875,0.06549072265625
1761914852343504400,9.59550439453125,-0.36651611328125,-0.3597259521484375,0.0417022705078125
1761914852353559600,9.6055595703125,-0.3731842041015625,-0.2566375732421875,0.04266357421875
1761914852363614500,9.615614501953125,-0.41912841796875,-0.1741943359375,0.07208251953125
1761914852373669400,9.62566943359375,-0.4735565185546875,-0.10601806640625,0.1065521240234375
1761914852383724500,9.635724609375,-0.4971923828125,-0.03643798828125,0.1403045654296875
1761914852393779500,9.645779541015624,-0.4806671142578125,0.0052947998046875,0.169830322265625
1761914852403834400,9.65583447265625,-0.428955078125,-0.008758544921875,0.1959686279296875
1761914852413889500,9.6658896484375,-0.3974609375,-0.0639495849609375,0.2360992431640625
1761914852423944400,9.6759443359375,-0.34417724609375,-0.14691162109375,0.2514190673828125
1761914852433999600,9.68599951171875,-0.227630615234375,-0.191314697265625,0.237091064453125
1761914852444054300,9.69605419921875,-0.13494873046875,-0.1918487548828125,0.2159271240234375
1761914852454109400,9.706109375,-0.0885009765625,-0.205841064453125,0.1938323974609375
1761914852464164600,9.71616455078125,-0.11407470703125,-0.2369842529296875,0.172027587890625
1761914852474219500,9.726219482421875,-0.1346588134765625,-0.2751007080078125,0.144378662109375
1761914852484274400,9.7362744140625,-0.1871337890625,-0.2855377197265625,0.1243438720703125
1761914852494329300,9.746329345703124,-0.26776123046875,-0.30364990234375,0.1297607421875
1761914852504384500,9.756384521484375,-0.3628997802734375,-0.3505096435546875,0.1495819091796875
1761914852514440400,9.7664404296875,-0.48907470703125,-0.42425537109375,0.1814422607421875
1761914852524495400,9.776495361328125,-0.5567626953125,-0.56201171875,0.20343017578125
1761914852534550500,9.786550537109376,-0.560577392578125,-0.7657012939453125,0.216796875
1761914852544605400,9.79660546875,-0.562225341796875,-0.9609222412109375,0.2579803466796875
1761914852554660600,9.80666064453125,-0.5238189697265625,-1.1906280517578125,0.295196533203125
1761914852564715300,9.81671533203125,-0.5285797119140625,-1.3079071044921875,0.131622314453125
1761914852574770400,9.8267705078125,-0.500274658203125,-1.0574951171875,-0.0937347412109375
1761914852584825600,9.83682568359375,-0.487823486328125,-0.6471405029296875,-0.1764678955078125
1761914852594880300,9.84688037109375,-0.6446685791015625,-0.438507080078125,-0.1882781982421875
1761914852604935400,9.856935302734374,-0.8592681884765625,-0.562255859375,-0.0778961181640625
1761914852614990600,9.866990478515625,-0.9623565673828125,-0.80975341796875,0.1029510498046875
1761914852625045500,9.87704541015625,-1.1031036376953125,-0.8332672119140625,0.2674713134765625
1761914852635100400,9.887100341796875,-1.0769805908203125,-0.9035797119140625,0.30584716796875
1761914852645155300,9.8971552734375,-1.05364990234375,-1.0335845947265625,0.303466796875
1761914852655210500,9.90721044921875,-1.0268402099609375,-1.0005950927734375,0.2367095947265625
1761914852665265700,9.917265625,-0.9012298583984375,-0.991119384765625,0.1044769287109375
1761914852675320300,9.9273203125,-0.798431396484375,-1.159393310546875,0.0625457763671875
1761914852685375500,9.93737548828125,-0.845306396484375,-1.3562164306640625,0.04644775390625
1761914852695430400,9.947430419921876,-1.0031890869140625,-1.3744659423828125,0.02728271484375
1761914852705485300,9.9574853515625,-1.1254119873046875,-1.3530120849609375,0.06005859375
1761914852715540500,9.96754052734375,-1.259674072265625,-1.358856201171875,0.1278839111328125
1761914852725595400,9.977595458984375,-1.4435272216796875,-1.304931640625,0.2085113525390625
1761914852735650600,9.987650634765625,-1.5710601806640625,-1.212799072265625,0.248626708984375
1761914852745705500,9.99770556640625,-1.62738037109375,-1.1150970458984375,0.2435455322265625
1761914852755760400,10.007760498046874,-1.598846435546875,-1.0413360595703125,0.179595947265625
1761914852765815600,10.017815673828125,-1.4873504638671875,-0.9487457275390625,0.0559234619140625
1761914852775870500,10.027870361328125,-1.32513427734375,-0.876983642578125,-0.0735626220703125
1761914852785925400,10.03792529296875,-1.175018310546875,-0.8712921142578125,-0.151275634765625
1761914852795980500,10.04798046875,-1.0177154541015625,-0.8597412109375,-0.20001220703125
1761914852806035500,10.058035400390626,-0.8771209716796875,-0.77899169921875,-0.2104949951171875
1761914852816090400,10.06809033203125,-0.772064208984375,-0.65283203125,-0.1715087890625
1761914852826145500,10.0781455078125,-0.7568511962890625,-0.5718231201171875,-0.070648193359375
1761914852836200400,10.088200439453125,-0.778076171875,-0.567901611328125,0.0642547607421875
1761914852846255600,10.098255615234375,-0.8261566162109375,-0.593597412109375,0.1535491943359375
1761914852856311600,10.1083115234375,-0.74017333984375,-0.5556488037109375,0.153594970703125
1761914852866366500,10.118366455078124,-0.5036163330078125,-0.4150543212890625,0.05340576171875
1761914852876421400,10.12842138671875,-0.3543243408203125,-0.2645263671875,-0.024017333984375
1761914852886476500,10.1384765625,-0.3219451904296875,-0.1962890625,-0.0134124755859375
1761914852896531500,10.148531494140625,-0.3670501708984375,-0.1773529052734375,0.053802490234375
1761914852906586400,10.15858642578125,-0.5247344970703125,-0.166595458984375,0.1728363037109375
1761914852916641500,10.1686416015625,-0.5774078369140625,-0.26031494140625,0.2101898193359375
1761914852926696400,10.178696533203125,-0.4684600830078125,-0.26861572265625,0.1952362060546875
1761914852936751400,10.18875146484375,-0.4091644287109375,-0.212921142578125,0.1305389404296875
1761914852946806500,10.198806640625,-0.377655029296875,-0.1727294921875,0.0712738037109375
1761914852956861400,10.208861328125,-0.3755340576171875,-0.1529541015625,0.0567474365234375
1761914852966916600,10.21891650390625,-0.41571044921875,-0.167999267578125,0.0702667236328125
