time,seconds_elapsed,z,y,x
1761914842874178800,0.1261787109375,-0.045509705287218094,-0.20131810663640498,0.26304792903624474
1761914842884234000,0.13623388671875,0.007919102561473846,-0.19243162034749983,0.21239282368458806
1761914842894290000,0.1462900390625,0.106538466745615,-0.13872516460120676,0.17418065499439833
1761914842904345000,0.156344970703125,0.17494155636429787,-0.10545943933725356,0.14207571713812647
1761914842914399700,0.166399658203125,0.2005284175634384,-0.1361351481080055,0.1481516029857099
1761914842924455000,0.176454833984375,0.18894436275362966,-0.22876024031341075,0.18299875222221015
1761914842934510000,0.186510009765625,0.1505968041807413,-0.31773265523016453,0.22309162009246647
1761914842944565000,0.19656494140625,0.16525544413030147,-0.34373452697098256,0.247487664071843
1761914842954620000,0.206619873046875,0.22641572301387786,-0.3186228820681572,0.23667159795984624
1761914842964675000,0.216675048828125,0.29222470448613164,-0.28907880767583843,0.20463395318612454
1761914842974730000,0.22672998046875,0.292410582447052,-0.27884909008443354,0.14398476562984286
1761914842984785000,0.236784912109375,0.2790712084025144,-0.23972411739826202,0.0713170043040067
1761914842994839800,0.24683984375,0.3498053713172674,-0.19753508096635342,-0.02178834569901228
1761914843004895000,0.25689501953125,0.43575346997678277,-0.10189444033205508,-0.0856451701901853
1761914843014950100,0.2669501953125,0.44823184327781196,0.018074585872888564,-0.09064085958562791
1761914843025004800,0.2770048828125,0.4631792370408773,0.07882219230234623,-0.08880151532925665
1761914843035060000,0.28706005859375,0.5050508780866861,0.10930267076194286,-0.10663564350977539
1761914843045115000,0.297114990234375,0.5415016631275416,0.19658815550506115,-0.14401187283247707
1761914843055170000,0.307170166015625,0.6568219867438078,0.3118319067537784,-0.19691585308946669
1761914843065225000,0.317224853515625,0.8557166656255721,0.42816053062975407,-0.26744609092995525
1761914843075280000,0.32727978515625,0.9377204105734824,0.5779957027882338,-0.32567053555734454
1761914843085335000,0.3373349609375,0.9009048838734626,0.7345622290283441,-0.3775820707108825
1761914843095390000,0.347389892578125,0.9979121366858482,0.917487769883871,-0.4239447395656258
1761914843105444900,0.35744482421875,1.2582067484259605,1.0394675513893366,-0.44921537442244586
1761914843115500800,0.367500732421875,1.452666075208783,1.1881453702062368,-0.5216081181991845
1761914843125556000,0.377555908203125,1.5999650068879128,1.4009633605003355,-0.675645418222621
1761914843135611100,0.387611083984375,1.698365759885311,1.6001123064041136,-0.7415450005877763
1761914843145665800,0.397665771484375,1.730117573454976,1.8183967454105614,-0.7971146198574454
1761914843155721000,0.407720947265625,1.783723491436243,2.13727857067585,-0.8954072363052517
1761914843165776100,0.417776123046875,1.774644697445631,2.490650110042095,-0.991439871931821
1761914843175830800,0.427830810546875,1.8579279608100652,2.8211241734236476,-1.0847275196991861
1761914843185886000,0.437885986328125,2.0957342618882655,2.994093552932143,-1.126273801248148
1761914843195940900,0.44794091796875,2.729337285608053,3.0323458344370127,-1.0083156764741987
1761914843205996000,0.45799609375,2.357062308329344,2.809494525906443,-0.9296454598631709
1761914843216051000,0.468051025390625,2.158367535933852,2.393257657304406,-0.8488250794809311
1761914843226105900,0.47810595703125,1.9471043738663196,2.0234405945718286,-0.7562625311177223
1761914843236161000,0.4881611328125,1.1911679328978062,1.6770868250131605,-0.8153969301968812
1761914843246216000,0.4982158203125,0.3470060959875583,1.1805682129502295,-0.8240235234405845
1761914843256271000,0.50827099609375,-0.35853462121784685,0.4140121782898903,-0.5727099444050342
1761914843266326300,0.518326171875,-0.9492384144097566,-0.7077315052479505,-0.2978241319283843
1761914843276381000,0.528380859375,-1.6480588834494352,-1.8728624950915573,-0.2568337306965142
1761914843286436000,0.53843603515625,-2.729108153027296,-2.5556355001717805,-0.5221732778012752
1761914843296491300,0.5484912109375,-4.208687369602918,-2.9424171417087317,-0.8041526287354528
1761914843306546000,0.5585458984375,-5.105124752673507,-3.3808518135935066,-0.732733698426932
1761914843316601000,0.56860107421875,-5.649094851741195,-3.930411695492267,-0.17119491718187926
1761914843326656000,0.578656005859375,-5.839983918821812,-4.489731339383125,0.5596246181868016
1761914843336711200,0.588711181640625,-5.913402790775895,-4.974740715438127,1.0955373752661048
1761914843346766000,0.59876611328125,-5.883172487685084,-5.2219794462502,1.4328763559810815
1761914843356822000,0.608822021484375,-5.813740055018663,-5.105695246037841,1.5539745323464274
1761914843366877200,0.618877197265625,-5.688648863494396,-5.210520479124784,1.656686718802154
1761914843376932000,0.62893212890625,-5.517307961970567,-5.600001442748308,1.8691227240413426
1761914843386987000,0.638987060546875,-5.455116001951694,-5.952732930645347,1.99359359171018
1761914843397042000,0.6490419921875,-5.276834487509727,-6.183217510533332,1.9720921001285314
1761914843407097000,0.65909716796875,-5.125301863783598,-6.274228153279424,1.8527618102185428
1761914843417152300,0.66915234375,-5.171764339751005,-6.265342836034297,1.7914730826497076
1761914843427207000,0.67920703125,-4.8399686723768705,-6.143523213526606,1.7884667404405772
1761914843437262000,0.689261962890625,-4.287828126335143,-5.886890046903491,1.735233016772568
1761914843447317200,0.699317138671875,-3.7520658836424348,-5.408608517798781,1.583075685276836
1761914843457372200,0.7093720703125,-2.8822072954177855,-4.694232167708874,1.4398931028753519
1761914843467427000,0.719427001953125,-1.9172323826938866,-3.793426068034768,1.2841270793631672
1761914843477482000,0.72948193359375,-1.1206330919474363,-2.743599619716406,1.077726481830701
1761914843487537200,0.739537109375,-0.3328367008596658,-1.5140432117134333,0.6887368088554591
1761914843497592000,0.749592041015625,0.19157704934477804,-0.15224106425642966,-0.046654053016752
1761914843507647000,0.75964697265625,0.5114893867015838,1.187074526104331,-0.8003334357734769
1761914843517702100,0.7697021484375,0.9024293169617652,2.241280212420225,-1.3800317777611315
1761914843527757000,0.779757080078125,1.506525675690174,3.0395038894981146,-1.9074105152510106
1761914843537812000,0.78981201171875,2.2896499833136796,3.763034436902404,-2.4177207751706242
1761914843547867100,0.7998671875,3.010498159766197,4.449143892928958,-2.7425299446582794
1761914843557922000,0.809922119140625,3.615552549871802,5.034271931815147,-2.7816271525546905
1761914843567977200,0.819977294921875,4.032942680162191,5.484110625767707,-2.5916031778708097
1761914843578032000,0.8300322265625,4.267055387419462,5.834152728450298,-2.2400948020279405
1761914843588087000,0.840087158203125,4.558088836294412,6.128972125604748,-1.8424276093393563
1761914843598143000,0.85014306640625,4.927839263531565,6.314338045349717,-1.4324766891390084
1761914843608198100,0.8601982421875,5.225144047760963,6.381050113141536,-1.0545466087080537
1761914843618253000,0.870253173828125,5.4161845060110085,6.148152626892924,-0.7367467334605753
1761914843628308000,0.880307861328125,5.24741783888936,5.849067388987541,-0.3984859617255628
1761914843638363100,0.890363037109375,4.921852005815506,5.774373090270161,-0.25127251637279985
1761914843648418300,0.900418212890625,4.735992165073752,5.890438094773888,-0.26833938650786876
1761914843658473000,0.910472900390625,4.560364380010962,5.920780626067518,-0.4147660653971135
1761914843668528000,0.920528076171875,4.395209473645687,5.756681950756907,-0.5292595828004181
1761914843678583000,0.9305830078125,4.376860162484646,5.4762850467085835,-0.5768102923959493
1761914843688638000,0.940637939453125,4.501282660967111,5.22151241326034,-0.6170701143309474
1761914843698693000,0.950693115234375,4.505386004632711,5.116938524585962,-0.5944551085494458
1761914843708748000,0.960748046875,4.5518636781692505,5.0797366289168595,-0.5244971907041966
1761914843718803200,0.97080322265625,4.586313060259819,5.041420634526014,-0.5187435956135392
1761914843728858000,0.980858154296875,4.419901431831717,5.073596810987591,-0.4672106845140457
1761914843738913000,0.9909130859375,4.0773651747345925,4.9805800891160965,-0.3836166016347706
1761914843748968200,1.00096826171875,3.912625863432884,4.163840512138605,-0.07338774616345763
1761914843759023000,1.011023193359375,4.4219782381057735,2.9002018017917868,0.5027028536558151
1761914843769078000,1.021078125,5.117193376129865,2.1287708545714614,0.9923074485465884
1761914843779133200,1.03113330078125,5.083973243573308,1.2471493478387594,1.334650813420117
1761914843789188000,1.04118798828125,4.44384286391139,0.71086571162045,1.0240104545384645
1761914843799243000,1.051242919921875,2.7548212709546087,1.1092325770109892,0.1724912406027317
1761914843809298000,1.0612978515625,0.15167758515477178,1.4460440267205237,-0.2279296347081661
1761914843819353000,1.07135302734375,-1.7180343369513749,1.1875193472623824,0.03269289381206036
1761914843829408300,1.081408203125,-1.9753104776531456,0.11023965935111045,0.8258382447123527
1761914843839463000,1.091462890625,-1.134214458054304,-1.7764900330513715,1.8513982667803763
1761914843849519000,1.10151904296875,-1.2550795563161372,-3.5343998687952753,2.5014549971729516
1761914843859574000,1.111573974609375,-3.026343963673711,-4.101307191336154,2.161810369864106
1761914843869629200,1.121629150390625,-5.88995060351789,-3.91263346221745,1.7108754051074384
1761914843879684000,1.13168408203125,-7.797628391402959,-3.9408816515803333,2.0855334781304
1761914843889739000,1.141739013671875,-8.570278651285172,-4.695647879725694,2.8263711341664193
1761914843899794200,1.151794189453125,-8.967280658063292,-6.253034558603167,3.4875767428219318
1761914843909849000,1.16184912109375,-9.250915813380479,-8.080746244847774,4.030458754391968
1761914843919904000,1.171904052734375,-7.896983084124326,-9.028747810938954,4.066550935253501
1761914843929959200,1.181959228515625,-6.3791065778583285,-9.113962919148802,3.656385203258693
1761914843940014000,1.19201416015625,-6.546551640987396,-8.838940109354256,3.24322671918869
1761914843950069200,1.2020693359375,-7.866397976246476,-7.804363837137818,2.8531057040959595
1761914843960124000,1.2121240234375,-8.492242056402564,-7.252903674575686,2.1649907534658905
1761914843970179000,1.222178955078125,-7.624207760995626,-6.826750392115116,1.3796788726702331
1761914843980234200,1.232234130859375,-6.164473062574863,-6.2205690438061945,0.7500432912766933
1761914843990289000,1.242288818359375,-5.237070632398129,-5.307148961752652,0.47237055149525403
1761914844000344000,1.252343994140625,-4.678018699532747,-3.916553266009688,0.44207975038886066
1761914844010399000,1.26239892578125,-3.4916613817870616,-2.402400748702884,0.679786244354397
1761914844020454100,1.2724541015625,-1.94163909419775,-1.0480191066354512,0.5112041400194168
1761914844030509000,1.282509033203125,-0.651077305611968,-0.25982524066269397,-0.11797595269158481
1761914844040564000,1.29256396484375,0.6944681190490722,0.6122960317969321,-0.9660783439211547
1761914844050619100,1.302619140625,1.6541583693683146,1.7474036392986774,-1.6441352802649138
1761914844060674300,1.31267431640625,2.478829323866963,2.9618109934866426,-2.057425135629624
1761914844070729000,1.32272900390625,2.9259236875474453,3.636826808568835,-2.8945483060747383
1761914844080784100,1.3327841796875,3.5895495090872047,4.199131605750322,-3.383535061328113
1761914844090839000,1.342839111328125,4.982003399917483,4.984244456842541,-2.5923484432801605
1761914844100894000,1.35289404296875,5.763383494222164,5.386203209245204,-1.4667767258867621
1761914844110950000,1.362949951171875,6.028629590889811,6.3694081906646485,0.18729294228479265
1761914844121005000,1.373005126953125,6.120752578791976,6.861065334171056,1.0921277860183267
1761914844131060200,1.383060302734375,5.829325746685266,6.33803631632328,1.12271727781035
1761914844141115100,1.393115234375,5.479205902591348,5.3487961463928215,0.6848368057422339
1761914844151170000,1.403170166015625,5.735437502676248,4.8271068527162075,0.31847214848585426
1761914844161225000,1.413224853515625,5.950617545926571,4.669530272650719,0.3253063784200698
1761914844171280100,1.423280029296875,5.7123640856027595,4.420412303963303,0.4402398216105997
1761914844181335000,1.4333349609375,5.758848188880085,4.055831388318539,0.5076576265189796
1761914844191390000,1.443389892578125,6.325365635320544,3.7897248754292723,0.5527033310236409
1761914844201445000,1.453445068359375,6.710429367023706,3.609711422628164,0.4463978693163022
1761914844211500300,1.463500244140625,6.7177306299477815,3.4344957254976034,0.34277671478949484
1761914844221555000,1.473554931640625,6.751077019232511,3.3774691854178904,0.3382372812615707
1761914844231610000,1.483610107421875,6.558192394420504,3.3675188692897557,0.33681433578636494
1761914844241665000,1.4936650390625,6.135296067929268,3.207279207494855,0.39048108057677744
1761914844251720200,1.50372021484375,5.8056374125838275,3.133998282706737,0.30228173239175227
1761914844261774600,1.513774658203125,5.188023400634527,3.368098130482435,0.11690090733859687
1761914844271829500,1.52382958984375,4.3076819968402384,3.403607835280895,0.26630119521114975
1761914844281884700,1.533884765625,3.381879987597465,2.534143799331784,0.7108363393954932
1761914844291939600,1.543939697265625,2.365357258465886,0.918524711716175,1.1043993847008793
1761914844301994500,1.553994384765625,1.7448790892571209,-0.4161357463151216,1.2446319581903516
1761914844312049700,1.564049560546875,1.0654881278306245,-0.677129446235299,0.7303302174817771
1761914844322104600,1.5741044921875,-0.5756324807882308,0.16644260808825492,-0.21318112451806664
1761914844332159500,1.584159423828125,-3.5182033517539497,1.2534078237116335,-0.9849923762928694
1761914844342214700,1.594214599609375,-5.076707051962614,0.46543782962262625,-1.1446302728023379
1761914844352269600,1.60426953125,-5.42610501152277,-1.7843840011715888,-0.9493665708340704
1761914844362324500,1.614324462890625,-5.464681702676415,-3.756780637204647,-0.7541060837361961
1761914844372379600,1.624379638671875,-5.946399635970592,-4.710225855654477,-0.5230138933438807
1761914844382435600,1.634435546875,-7.070077502441406,-4.6468625137686725,-0.37859289172124116
1761914844392490800,1.64449072265625,-7.975632257947325,-4.9987429377943275,0.035517467979807406
1761914844402545700,1.654545654296875,-8.468948274576663,-6.096931558221578,0.46781416683252897
1761914844412600600,1.6646005859375,-8.927550705221295,-6.850936154344677,0.6743569858472794
1761914844422655500,1.674655517578125,-8.55590350445211,-7.048121691220999,0.5945531620964407
1761914844432710700,1.684710693359375,-8.058039907521009,-7.178147416538,0.5686222001673653
1761914844442765600,1.694765625,-7.890630500227212,-7.5716908072948454,0.7590384986370802
1761914844452820500,1.704820556640625,-7.696150715178251,-7.888800946712493,0.9408229796987027
1761914844462875600,1.714875732421875,-7.362886144295334,-7.864998630842566,1.005693292081356
1761914844472930600,1.7249306640625,-6.894567790800332,-7.8174822619080535,0.917062164882943
1761914844482985500,1.7349853515625,-6.120937872231006,-7.618501658308506,0.5020764653857797
1761914844493040600,1.74504052734375,-5.297977228781581,-7.082322066986561,-0.02388599383169785
1761914844503095600,1.755095458984375,-4.273295158591866,-6.301162337434292,-0.5207456196183339
1761914844513150700,1.765150634765625,-3.1435107919394967,-5.150750777816772,-0.9389110085975378
1761914844523205600,1.77520556640625,-2.0438480073064564,-3.6873634021073576,-1.0970092013843358
1761914844533260500,1.785260498046875,-1.0246744714051483,-2.2066765165507793,-1.0020115348286927
1761914844543315700,1.795315673828125,0.004866144731640816,-0.846587602752447,-0.8031838567685335
1761914844553370400,1.805370361328125,0.9170791890829801,0.2998597294092178,-0.6864242941293865
1761914844563425500,1.815425537109375,1.8976362863421439,1.4131874667793511,-0.791868462832272
1761914844573480700,1.825480712890625,2.9756740991443396,2.4715993726134298,-0.9839682208769023
1761914844583535600,1.83553564453125,3.9806028365939854,3.3660061266392467,-1.1421943508923054
1761914844593590500,1.845590576171875,4.899397597423196,4.121907496294379,-1.200062967819348
1761914844603645400,1.8556455078125,5.804987424242496,4.624438500514626,-1.0746815611768514
1761914844613700600,1.86570068359375,6.450899309915304,4.922642863932252,-0.8673663330174982
1761914844623755500,1.875755615234375,6.787475197303294,5.099378902497888,-0.4872562416663393
1761914844633810400,1.885810546875,6.820860749554634,4.976920982086658,0.024516017097234725
1761914844643865600,1.895865478515625,6.937564636483788,4.72842377564609,0.5752981342673301
1761914844653920800,1.905920654296875,6.928194166070223,4.465206554457545,1.0637449374251067
1761914844663975400,1.915975341796875,6.764550833311676,4.248676265642047,1.3901689947634934
1761914844674030600,1.926030517578125,6.764392427879572,3.9955695195794103,1.6099094777971505
1761914844684086500,1.93608642578125,6.7014230537474155,3.5854935116946693,1.6264800888478754
1761914844694141700,1.9461416015625,6.58417906859219,3.3235160614341495,1.3982954564653336
1761914844704196600,1.956196533203125,6.651231328123807,3.135123487344384,1.1098763548072428
1761914844714251500,1.96625146484375,6.694699298450351,3.0205051745176315,0.7802699411056936
1761914844724306700,1.976306640625,6.516530596733093,2.991894581583142,0.5909174359425902
1761914844734361600,1.986361572265625,6.2244783262044185,2.9094939462721348,0.5928687892060727
1761914844744416500,1.99641650390625,5.899748359432816,2.6404946345508096,0.7549983564008027
1761914844754471400,2.006471435546875,5.52772998726368,2.273690197637677,0.8938378680966794
1761914844764526600,2.016526611328125,4.923966806012392,2.0366993045955897,0.8901886248741299
1761914844774581800,2.026581787109375,4.194897329181432,2.0408038173049685,0.734802029133588
1761914844784636400,2.036636474609375,3.5660318553775547,2.023790723183751,0.3722952528817579
1761914844794691600,2.046691650390625,2.5778753890305754,1.6644009464412928,0.1878150664627552
1761914844804746800,2.056746826171875,1.0733785888195038,0.5028863935291766,0.5351827623043209
1761914844814801700,2.0668017578125,-0.6484054560542106,-1.0515133784919977,1.0080966999612748
1761914844824856600,2.076856689453125,-1.86798992061913,-1.4681605814605951,0.7631518522400409
1761914844834911500,2.086911376953125,-2.973477465882897,-0.4915490069568157,-0.361516924964264
1761914844844966700,2.096966552734375,-4.056846118319035,0.3281581876546144,-1.2968009752362966
1761914844855021600,2.107021484375,-5.143021060347556,0.06379471904039383,-1.6097975418552755
1761914844865076500,2.117076416015625,-6.42347237380743,-1.0336708478093146,-1.2643937664978206
1761914844875131600,2.127131591796875,-7.277423783326149,-1.8848171367794275,-0.8304425236374139
1761914844885186600,2.1371865234375,-8.189335798904299,-1.8967191714972256,-0.4730083379421383
1761914844895241500,2.147241455078125,-9.445122626706958,-2.293275188073516,0.4191866948509589
1761914844905296600,2.157296630859375,-9.859324774610995,-3.396633904615044,1.3482253113947809
1761914844915351600,2.1673515625,-9.70049497961402,-4.204466537037492,1.6807748658761381
1761914844925406500,2.177406494140625,-9.290161197575927,-4.339691584563255,1.2994506129622458
1761914844935461600,2.187461669921875,-8.415520051249862,-4.241605888864398,0.7415856248591095
1761914844945516500,2.1975166015625,-7.399894563218951,-4.6306110516697165,0.4038208564801141
1761914844955571700,2.20757177734375,-6.376385043939948,-5.341245292621851,0.29667547334991395
1761914844965626400,2.21762646484375,-5.460734426355361,-6.171167007255554,0.41815658461824057
1761914844975681500,2.227681640625,-4.431178612649441,-6.863380625376105,0.5052097219102084
1761914844985736700,2.23773681640625,-3.4182267277419567,-6.923444341194629,0.5744085650164633
1761914844995792600,2.247792724609375,-3.0380729799121617,-6.642941054162383,0.7387807235062122
1761914845005847800,2.257847900390625,-2.9765894604235887,-6.322196942156553,0.887363776711747
1761914845015902500,2.26790234375,-2.891436311534047,-5.616516524219513,0.7797061697430908
1761914845025957600,2.27795751953125,-2.7240134602367876,-4.3795781892716885,0.4107126618204638
1761914845036012500,2.288012451171875,-2.081017754271626,-3.0427526621609924,0.12722781996047122
1761914845046067500,2.2980673828125,-1.0926724873542786,-1.9972411544322966,0.04157010081596672
1761914845056122600,2.30812255859375,0.07976911776363849,-1.0824445233285427,-0.11726857160720973
1761914845066177500,2.318177490234375,1.1716799730956553,-0.23041034560799598,-0.3786490423552692
1761914845076232700,2.328232666015625,2.1630442955732345,0.638790655490756,-0.6970188995104283
1761914845086287600,2.33828759765625,2.8771675476849077,1.6872423083245753,-1.051747771769762
1761914845096342500,2.348342529296875,3.3017297615617514,2.7040818483203646,-1.368544169063121
1761914845106397700,2.358397705078125,3.654522624257207,3.7366578866302964,-1.562368412812799
1761914845116452400,2.368452392578125,3.875611599290371,4.68275040422976,-1.545301104286313
1761914845126507500,2.378507568359375,3.9081618697613476,5.262964367589354,-1.3074202766671776
1761914845136562700,2.388562744140625,3.9739959856748577,5.309681110578775,-0.8867994208272546
1761914845146617600,2.39861767578125,4.251269789266586,5.129352015957236,-0.35578773366250094
1761914845156672500,2.408672607421875,4.5723710441470145,4.83847755703628,0.12900872116102835
1761914845166727400,2.4187275390625,5.046040695542096,4.683319728550314,0.5161430577263236
1761914845176782600,2.428782470703125,5.560825032135844,4.719056227841973,0.7515570568405091
1761914845186837800,2.438837646484375,5.887733511990309,4.557633493742347,0.9041204118538647
1761914845196892400,2.448892333984375,6.0815083636403084,4.32834426111877,1.0155350332684814
1761914845206947600,2.458947509765625,6.134422207704186,3.925887496066093,1.0186614947259425
1761914845217002800,2.469002685546875,6.272173558837175,3.5500060187280176,0.7745324203670024
1761914845227057400,2.479057373046875,6.452507914155722,3.4646260753452776,0.36303423419203606
1761914845237112600,2.489112548828125,6.50693099373877,3.455294767898321,-0.05507295375994872
1761914845247167500,2.49916748046875,6.5440405349493025,3.3768794028311966,-0.3944469885330647
1761914845257226800,2.509226806640625,6.367416140064597,3.3923493591636418,-0.49527606465592977
1761914845267281700,2.51928173828125,6.095312432587146,3.3753906255781647,-0.6217544727548957
1761914845277336800,2.5293369140625,5.674618000054359,3.4745781450390814,-0.7128234215594828
1761914845287392000,2.53939208984375,4.99780653372705,3.5405239046335217,-0.6286183671750127
1761914845297448000,2.549447998046875,4.379531427520513,3.327463337755203,-0.43746509620025753
1761914845307502800,2.5595029296875,3.641576633444428,2.659483997181058,0.050726343956962225
1761914845317557800,2.569557861328125,3.0099358497083184,1.313577922514081,0.706159287495166
1761914845327613000,2.579613037109375,2.602804078581929,-0.04042728745639324,1.1064145239155738
1761914845337667800,2.589667724609375,1.9286814129471779,-0.42313188881278035,0.8494079208701848
1761914845347722800,2.59972265625,1.176022386214137,0.01850654754936695,-0.013385249879723414
1761914845357778000,2.60977783203125,0.48191491717100143,-0.2634901929110288,-0.7099929473739117
1761914845367832800,2.619832763671875,-0.6926385655343532,-0.8202256655275821,-1.2387259490169584
1761914845377887700,2.6298876953125,-1.8267606691300868,-1.1256196481883525,-1.6460687325455248
1761914845387943000,2.63994287109375,-2.7589503335833547,-1.6635995669305323,-1.5529969194859266
1761914845397997800,2.649997802734375,-4.026946070095897,-2.0678408773124217,-1.0420970961753278
1761914845408053000,2.660052978515625,-5.353939939022064,-2.3000264158993957,-0.39205556335188446
1761914845418107600,2.670107666015625,-6.22936083754897,-2.9728116954505444,0.27606450086720286
1761914845428162800,2.680162841796875,-7.701151299944519,-3.296308905556798,0.6721564801283181
1761914845438218000,2.690218017578125,-9.10770210518837,-2.768416665586829,0.6668643650695681
1761914845448272600,2.700272705078125,-9.57660088891983,-2.674472307476401,0.5805258057877422
1761914845458327800,2.710327880859375,-9.815995335972309,-3.476339309492707,0.8501979022040963
1761914845468382700,2.7203828125,-9.344829191830753,-4.7270501492053265,1.2840848476566373
1761914845478438000,2.73043798828125,-8.387503332555294,-6.252531285256147,1.5859491948865354
1761914845488492800,2.740492919921875,-7.0076663467139,-7.558118793538212,1.645870579624921
1761914845498547700,2.750547607421875,-5.544932466477156,-7.8511337716192005,1.4251514608174563
1761914845508603000,2.760602783203125,-4.582386826726794,-7.308389999476074,1.1506950527340174
1761914845518658000,2.770657958984375,-3.722759125137329,-6.629371378493309,0.8405493455015123
1761914845528712700,2.780712646484375,-2.9048674555152654,-6.284908537247777,0.5302192946780473
1761914845538768000,2.790767822265625,-2.093737535113096,-6.089319914174079,0.31686935293171553
1761914845548822800,2.80082275390625,-1.0267167908877133,-5.6679877682596445,0.0735367992453277
1761914845558877700,2.810877685546875,0.09618892216682433,-4.923476392146945,-0.206016931977123
1761914845568932900,2.820932861328125,1.1230997743219135,-4.240523354324698,-0.4260681614603847
1761914845578987800,2.83098779296875,2.227732164061069,-3.4586803186833857,-0.6780401313394308
1761914845589043000,2.84104296875,2.9905519348025322,-2.4477988103091715,-0.9179572870917617
1761914845599097900,2.851097900390625,3.1903771725326773,-1.3100725447416304,-1.17441743523553
1761914845609152800,2.86115283203125,3.079716072899103,-0.1792179185092449,-1.3276884270615874
1761914845619208000,2.8712080078125,2.943639376980066,0.9176163646996021,-1.3337734460636972
1761914845629264000,2.881263916015625,2.8469676397323607,1.9098580545336008,-1.2008657355695962
1761914845639319000,2.891319091796875,2.8449288273811337,2.748543505859375,-0.9490845390222966
1761914845649373700,2.901373779296875,2.9758418569266794,3.546609362027049,-0.6523796203821897
1761914845659428900,2.911428955078125,3.21016031588912,4.080813853883743,-0.36823366599865254
1761914845669483800,2.92148388671875,3.547984157511592,4.490190189066529,-0.12554775791903958
1761914845679538700,2.93153857421875,3.9309389342367647,4.818499183368683,0.12589478125842288
1761914845689593900,2.94159375,4.420061006307602,4.809963994735479,0.4010830655466765
1761914845699648800,2.951648681640625,4.914761170771718,4.4808384233534335,0.7002173302255571
1761914845709704000,2.961703857421875,5.376442862731218,4.272435326892137,0.9000811464004218
1761914845719758800,2.9717587890625,5.840421725717187,4.377774939242005,0.851085717889294
1761914845729813800,2.981813720703125,6.123376497554779,4.4814714605599635,0.7184975216731428
1761914845739869000,2.991868896484375,6.207843417745829,4.4458740774780505,0.593029021269083
1761914845749923600,3.001923583984375,6.350965940523147,4.380457310193777,0.416497346169129
1761914845759978800,3.011978759765625,6.303138021421432,4.398527219891548,0.22690708672739565
1761914845770034000,3.022033935546875,6.148073716437816,4.410561941078305,0.055201845403201874
1761914845780088800,3.0320888671875,6.053461834329366,4.422425981873274,-0.13299739807154984
1761914845790143700,3.042143798828125,5.815968252462148,4.404694510349631,-0.2189760014671832
1761914845800199000,3.052198974609375,5.591270439282059,4.241946665126085,-0.3064749097652733
1761914845810253800,3.06225390625,5.24700633547902,4.112610675638914,-0.37226602678727355
1761914845820309000,3.07230908203125,4.57092493699193,4.00370138810873,-0.37681353402379897
1761914845830363600,3.08236376953125,3.9836037719756363,3.286425809445977,-0.21146829271819442
1761914845840418800,3.092418701171875,3.2938410541385412,2.043307909080386,0.10441723680794239
1761914845850474000,3.102473876953125,2.5288825178027152,0.6540402470707893,0.4229808629695326
1761914845860528600,3.112528564453125,2.4449679707974195,-0.521364299505949,0.5047625991972163
1761914845870583800,3.122583740234375,2.0666998905837533,-0.6181324828654527,0.047028000895679
1761914845880638700,3.132638671875,0.8339256895780562,0.489729974836111,-0.857516700784862
1761914845890694000,3.14269384765625,-1.1290320869803427,0.9818389537632465,-1.4165472986012697
1761914845900748800,3.152748779296875,-2.524240829476714,-0.24240648835003376,-1.27980907003358
1761914845910803700,3.1628037109375,-3.284557677486539,-1.6953735923320055,-0.8393537790413945
1761914845920859000,3.17285888671875,-3.68696826530993,-2.9282372251868245,0.003291698489151895
1761914845930914000,3.1829140625,-4.519776933556795,-4.332018565717339,1.2814679431565106
1761914845940968700,3.19296875,-5.5725686614215375,-5.656774884849787,2.3560367646738887
1761914845951025000,3.20302490234375,-6.297492124488949,-6.839407044592499,2.808694899961352
1761914845961079800,3.213079833984375,-7.133456041896343,-7.16384124328792,2.373060380189121
1761914845971135000,3.223135009765625,-7.8473466542959205,-6.949844856864214,1.4943810643881559
1761914845981189600,3.233189697265625,-7.841979574304819,-7.5064710238873955,0.8802158046532422
1761914845991244800,3.243244873046875,-7.716548775562644,-8.079233502197265,0.423822136099264
1761914846001300000,3.253300048828125,-7.494920871347189,-8.480607732710242,0.18224789732228963
1761914846011355000,3.26335498046875,-7.156618306297063,-8.988544395366311,0.11340060760006308
1761914846021409800,3.273409912109375,-6.985494262394309,-9.195960234355926,-0.049147111941501495
1761914846031464700,3.283464599609375,-6.908003610956668,-8.969124240103364,-0.47289808250069615
1761914846041519900,3.293519775390625,-7.002191130173206,-8.352883854594825,-1.053890336756408
1761914846051574800,3.30357470703125,-6.741022658208013,-7.181355857190489,-1.6929593707971273
1761914846061629700,3.313629638671875,-6.018454233834147,-5.645649679723381,-2.1302420961678026
1761914846071684900,3.323684814453125,-5.118008784165978,-4.071441045382619,-2.033401432093978
1761914846081739800,3.33373974609375,-4.265411127343774,-2.51408359259963,-1.5081402712799608
1761914846091794700,3.343794677734375,-3.547031971353292,-1.278683719265461,-1.1420609337709844
1761914846101849900,3.353849853515625,-2.6736662517905234,-0.6003437281966209,-1.0942885442487895
1761914846111904800,3.36390478515625,-1.460801450869441,-0.18282091143727303,-1.38461296807155
1761914846121960000,3.3739599609375,-0.1635989090949297,0.3956225351184606,-1.9254235801950097
1761914846132014800,3.384014892578125,1.1806132211357354,1.347903385964036,-2.275094219216704
1761914846142069800,3.39406982421875,2.4564783758491275,2.2446324454575777,-2.360289453682303
1761914846152125000,3.404125,3.5397622726112603,2.835205890268087,-2.166741688786447
1761914846162179600,3.4141796875,4.223694969120621,3.3801842895954843,-1.7481055039577185
1761914846172234800,3.42423486328125,4.637100413689017,3.79213602822423,-1.2269554317243396
1761914846182290000,3.4342900390625,5.024591664800048,4.077195078864693,-0.7818583793409168
1761914846192344800,3.4443447265625,5.323149079439044,4.528000572022796,-0.47164333319924767
1761914846202399700,3.454399658203125,5.442658671438694,4.811821605300903,-0.24719518393129108
1761914846212455000,3.464454833984375,5.443748804762959,4.823050855323672,-0.015877806480973956
1761914846222509800,3.474509765625,5.463270082312822,4.625001395094395,0.23899682603701947
1761914846232565000,3.48456494140625,5.625428144949674,4.24978919532001,0.4727721910987049
1761914846242619600,3.49461962890625,5.975230593657494,4.108394519248605,0.5415312545482069
1761914846252674800,3.5046748046875,6.3301458553344006,4.10245343876183,0.5525074796579778
1761914846262730000,3.51472998046875,6.504844835114478,4.00388785059154,0.5546404000334442
1761914846272785000,3.524784912109375,6.513040416529774,3.957427128189802,0.5325673921741545
1761914846282840000,3.534840087890625,6.196394972014427,4.059138028648495,0.456879844635725
1761914846292896000,3.54489599609375,5.808236196905375,4.1592210356444115,0.39751434021443127
1761914846302951000,3.554950927734375,5.448220981740951,4.336357471704483,0.3203979289166629
1761914846313005800,3.565005859375,5.066693022948503,4.523757527625561,0.17867117134667931
1761914846323061000,3.57506103515625,4.706458612075448,4.592106841230392,0.10480850114785134
1761914846333116200,3.5851162109375,4.177943856292963,4.651503617572784,0.13222860565613956
1761914846343170800,3.5951708984375,3.483997130769491,4.512266411796212,0.21718729141950607
1761914846353226000,3.60522607421875,3.0368630196005104,3.766950149041414,0.49069147681202735
1761914846363281000,3.615281005859375,2.686736745765805,2.6001585325092074,0.8315474892046302
1761914846373335800,3.625335693359375,2.3614935687750576,1.3569605526447295,1.0078464515272527
1761914846383391000,3.635390869140625,2.1054957774460314,0.8964946662157773,0.6874028568379581
1761914846393446000,3.64544580078125,1.0449848535060882,1.0020791932374238,0.3938956017279997
1761914846403501000,3.6555009765625,-0.4568494494974613,0.3259662305682897,0.3866152354614809
1761914846413556000,3.665555908203125,-1.1038789410233496,-1.15917588083148,0.03813112107692286
1761914846423611000,3.67561083984375,-1.5865841317892073,-1.840343204280734,-0.8133346639048308
1761914846433666000,3.685666015625,-2.5382494810849425,-1.365846454411745,-1.68505152028203
1761914846443721000,3.695720947265625,-3.2732167837828396,-2.232296110975742,-1.6072339749775826
1761914846453776000,3.70577587890625,-4.285893358880281,-3.7192648532807824,-1.0482175518169998
1761914846463831000,3.7158310546875,-5.302071220096946,-4.744150337088108,-0.3567885812681168
1761914846473886000,3.725885986328125,-5.818647116282582,-5.844446743449568,0.3193593065839261
1761914846483940900,3.73594091796875,-6.297466405525803,-6.017089375221729,0.5984093260679394
1761914846493996000,3.74599609375,-6.717987235057354,-5.605936678016185,0.5820907170169055
1761914846504051000,3.756051025390625,-6.498336768394708,-6.165939043474197,0.7156400133501738
1761914846514106000,3.766106201171875,-5.7182689257323736,-7.4301266198754305,1.0414037801489233
1761914846524160800,3.776160888671875,-4.853274728673696,-8.648503462216258,1.3604491254128515
1761914846534216000,3.7862158203125,-4.667894780403375,-9.551393966948986,1.461569512632489
1761914846544271000,3.79627099609375,-4.660658399409056,-9.704069915491342,1.2249836201947182
1761914846554326000,3.806325927734375,-4.49796491472125,-9.275113850569724,0.7715865761734545
1761914846564381000,3.816380859375,-4.475626826184988,-8.471741120165586,0.2608690871598199
1761914846574435800,3.826435791015625,-4.303342506331205,-7.476706584742665,-0.2354318635644391
1761914846584491000,3.836490966796875,-3.8039158978670833,-6.536171701270342,-0.6815643599428236
1761914846594546000,3.8465458984375,-3.00879544750154,-5.29801522270441,-1.1237515162289142
1761914846604600800,3.856600830078125,-2.129541838943958,-3.6544016282260414,-1.3501548181526362
1761914846614656000,3.866656005859375,-1.3898703040778637,-2.062599469527602,-1.2897022491469978
1761914846624711000,3.8767109375,-0.5942495029747485,-0.6945125427126884,-1.1878443414330482
1761914846634767000,3.88676708984375,0.30001404318809505,0.520267736440897,-1.1207433473888784
1761914846644821800,3.89682177734375,1.0935428404480219,1.773443504962325,-1.0855228347953407
1761914846654877000,3.906876953125,1.730341445338726,3.045757689195871,-1.0399632259517908
1761914846664932000,3.91693212890625,2.360688682132959,4.038663980418444,-0.9362651702638715
1761914846674986800,3.92698681640625,3.068861501407623,4.713882624596357,-0.8132397521629929
1761914846685042000,3.9370419921875,3.7082442775726316,5.245913864067196,-0.7199824995338916
1761914846695097000,3.94709716796875,4.32606871740222,5.698235607007145,-0.6380502123869956
1761914846705152000,3.957152099609375,4.758443650856614,6.085709906983375,-0.5331952417489141
1761914846715207000,3.96720703125,4.95179647770226,6.119228145703673,-0.2281993732939474
1761914846725261800,3.97726171875,5.0770191866517065,5.825436922553181,0.2875745771253481
1761914846735317000,3.98731689453125,5.1789709101289505,5.427531244933605,0.6734982501260935
1761914846745372200,3.9973720703125,5.322861494669318,5.215630954006314,0.7510917043510824
1761914846755426000,4.007426025390625,5.575064569890499,5.379939472675323,0.47983562667891383
1761914846765481000,4.01748095703125,5.484088998457789,5.649145705145597,0.15461531910710036
1761914846775536000,4.0275361328125,5.209680521169305,5.431961336335539,-0.15806443664766848
1761914846785590800,4.0375908203125,5.096002704063058,5.140362070271372,-0.41546917216517026
1761914846795646000,4.04764599609375,4.944172558695078,5.037745160883665,-0.38193778170235454
1761914846805701000,4.057701171875,4.875339845487475,4.869211133474111,-0.3383905355945229
1761914846815755800,4.067755859375,4.516750863733887,4.88993360350728,-0.17993176586702464
1761914846825811000,4.07781103515625,4.443572230276465,4.711145308586954,-0.08609035667441785
1761914846835865900,4.087865966796875,3.7782419429063796,4.226050007814169,-0.1724614299863577
1761914846845921000,4.097921142578125,2.970964021757245,4.144028142687678,-0.3551517007812857
1761914846855976000,4.107975830078125,2.4711808549404144,4.232653351601958,-0.45790085824653504
1761914846866030800,4.11803076171875,1.3188672610938548,3.4517630866408346,-0.24604864424467085
1761914846876086000,4.1280859375,0.8070002732515335,2.358329551786184,-0.020941958002746106
1761914846886141200,4.13814111328125,0.9702595751285552,1.514131474518776,0.27137466255053877
1761914846896195800,4.14819580078125,1.4311656065404414,0.6730296097010373,0.0020738105993717906
1761914846906251000,4.1582509765625,0.6217454126656055,0.3480406997323036,-0.1633431807681918
1761914846916307000,4.168306884765625,0.30803251447081564,-1.2460638906896113,0.11492664812356233
1761914846926362000,4.178362060546875,0.2946539774596691,-3.240882201889157,0.12125029818713665
1761914846936416800,4.188416748046875,-0.5409323388069868,-2.4593191522330042,-1.1998341274995357
1761914846946472000,4.198471923828125,-1.9386025029808283,-1.4102870691627263,-1.9926459355965256
1761914846956527000,4.208527099609375,-2.7672762633800505,-2.704088862583041,-1.3670527614615857
1761914846966582000,4.21858203125,-3.265021202367544,-3.8350925418972968,-0.5200198991596698
1761914846976637000,4.228636962890625,-4.087769664371013,-4.415807440516352,0.30863157634250815
1761914846986691800,4.23869189453125,-4.015754229474068,-5.306279193180799,0.9659147508572786
1761914846996747000,4.2487470703125,-3.509196453955769,-5.710267405584454,1.1454193042881786
1761914847006802000,4.258802001953125,-3.560300033727288,-6.005589491564035,1.1181424441754817
1761914847016856800,4.26885693359375,-3.480006015306711,-6.766937436187267,1.1511082366447896
1761914847026912000,4.278912109375,-3.250931302216649,-7.61569536871612,1.2480848751232028
1761914847036967000,4.288966796875,-3.067362202760577,-8.056952696806192,1.1998466947201638
1761914847047021800,4.299021728515625,-3.0752041484326123,-8.258974567797779,1.2598159371882676
1761914847057077000,4.309076904296875,-3.59578694217205,-8.069145823425053,1.5351089422263204
1761914847067132000,4.3191318359375,-4.472547564870119,-7.571955011188983,1.67244396764338
1761914847077187000,4.32918701171875,-5.367459345808625,-7.862088296353816,1.8443568238362669
1761914847087242000,4.339241943359375,-5.733778629553318,-7.3633368106722825,1.6927438283503056
1761914847097297000,4.349296875,-6.059305299660563,-6.090937870764732,1.285206545162946
1761914847107352000,4.35935205078125,-5.668403947845101,-4.9870466547816985,0.9302790085263549
1761914847117406700,4.36940673828125,-4.517089886429906,-3.9580788700968026,0.6510179035749286
1761914847127462000,4.3794619140625,-3.1255694770574567,-2.9313568185120817,0.4837971507210284
1761914847137517000,4.38951708984375,-1.5922300287216902,-1.9331652803629635,0.3688037209715694
1761914847147572000,4.399572021484375,0.1315086573511362,-0.8291273493856192,0.23982684712037441
1761914847157627000,4.409626953125,1.5056354488521813,0.2620803261131048,0.19455358093753455
1761914847167682000,4.41968212890625,2.3782757767498492,1.2287415844887495,-0.057382806171476834
1761914847177737000,4.429737060546875,2.5681834315776824,1.8909867653250694,-0.6869203340180218
1761914847187792100,4.439792236328125,2.5075468843072652,2.731744931271672,-1.2503756164088844
1761914847197846800,4.4498466796875,2.2815356504410502,3.818948631826043,-1.6915253924712537
1761914847207902000,4.45990185546875,1.9599977577090262,4.782725859197974,-1.7892001692816615
1761914847217957000,4.46995703125,1.743396741744876,5.429366059145331,-1.6005732019141314
1761914847228011800,4.48001171875,1.970759390220046,5.888265426909923,-1.1415157209783793
1761914847238067000,4.49006689453125,2.4972528693079945,6.344942442449927,-0.5457370356749743
1761914847248121900,4.500121826171875,2.8265158033341167,6.221282160511612,-0.24864085269495845
1761914847258172700,4.510172607421875,2.9840146419882774,5.804727896523476,0.10704363978877662
1761914847268228900,4.520228759765625,2.9362346536815163,5.466344082930684,0.3155237470090389
1761914847278283800,4.53028369140625,3.0187516088485715,5.393085369974375,0.3188997993133962
1761914847288339000,4.5403388671875,3.606177403283119,5.428066666984558,0.17099442617371677
1761914847298393600,4.5503935546875,4.172508387240767,5.577874366614222,-0.07109349774643778
1761914847308448800,4.56044873046875,4.375385998278856,6.0734933994889255,-0.13180676351487636
1761914847318504000,4.57050390625,4.923925304958224,5.727197497597336,-0.07944383133202791
1761914847328558800,4.580558837890625,5.166378555059433,4.773869768047333,-0.5411627865619957
1761914847338615000,4.590614990234375,4.6216398097068065,4.634253207564353,-0.6827670137308538
1761914847348669700,4.600669677734375,4.448792595273256,4.78521358436048,-0.9113254478618502
1761914847358724900,4.610724853515625,4.568825334364176,4.718698500445485,-1.094695663744956
1761914847368779800,4.62077978515625,4.577998820900917,4.086017267745733,-0.9151603498496115
1761914847378834700,4.630834716796875,3.8168046055346725,2.73281226824224,-0.5205583899505436
1761914847388889900,4.640889892578125,2.8693244329690932,1.719608454400301,-0.09892258491441606
1761914847398944800,4.65094482421875,2.620299403262138,0.74654317420125,0.026593115632236004
1761914847409000000,4.661,2.4048276835888625,-0.14583821147680281,-0.08702069632709025
1761914847419054800,4.671054931640625,2.01215464592576,-0.5080208338081836,-0.33967253822907806
1761914847429109800,4.68110986328125,1.5683838737100362,-0.31633097173869607,-0.6952265362009405
1761914847439165000,4.6911650390625,1.3133172257512806,-0.3774246151268482,-0.9421141154877841
1761914847449219800,4.7012197265625,0.8927180702865123,-1.2702227649122475,-1.1884845390327274
1761914847459274800,4.711274658203125,0.045962125229835504,-1.8795593623816966,-1.5299226256296037
1761914847469330000,4.721329833984375,0.009113865303993225,-1.3178420096993446,-1.7691414238542318
1761914847479384800,4.731384765625,0.10721417405009269,-0.5035737912714481,-1.699639433082938
1761914847489439700,4.741439697265625,-1.0654530565172433,-0.36721418675780293,-1.0253569007113574
1761914847499495000,4.751494873046875,-3.3122733674079177,-1.3366279587119816,0.12684797206372023
1761914847509549800,4.7615498046875,-5.2323114551723,-2.692718158262968,1.1423816901579498
1761914847519605000,4.77160498046875,-7.101808273223042,-3.466109591901302,1.8860710823632776
1761914847529659600,4.78165966796875,-8.040408973762393,-3.8366532153427597,2.49285054269582
1761914847539714800,4.79171484375,-7.859123601329326,-4.6191439012378455,3.042967766216397
1761914847549770000,4.80177001953125,-7.092211592838168,-5.970577799415588,3.485596674920618
1761914847559824600,4.81182470703125,-6.309577699080109,-7.220507133361696,3.3169255771279333
1761914847569879800,4.8218798828125,-5.215534507894516,-7.640118446832894,2.59241420199275
1761914847579934700,4.831934814453125,-4.654892090967297,-6.770574915906787,2.122147344778478
1761914847589990000,4.841989990234375,-5.353463553681969,-5.8200207427233455,2.0516556123174725
1761914847600044800,4.852044921875,-6.023739480760693,-5.58782000656724,1.9007305990956722
1761914847610099700,4.862099609375,-5.7002703277051445,-5.3036710565090175,1.4774888201676308
1761914847620155000,4.87215478515625,-4.304792705139517,-4.288138507458568,0.8391162439584732
1761914847630210000,4.8822099609375,-3.120544926893711,-2.7297242390990255,0.44985944447964427
1761914847640264700,4.8922646484375,-2.486006668150425,-1.4579454769164324,0.44897740094810723
1761914847650321000,4.90232080078125,-1.9736381605267523,-0.793987062421441,0.7585029304556549
1761914847660375800,4.912375732421875,-1.240025779569149,-0.34772798052132126,0.8525260528907179
1761914847670431000,4.922430908203125,-0.5529553695559501,-0.3726268594563007,0.8384666940085589
1761914847680485600,4.932485595703125,0.4466629865258932,-0.5119961671799421,-0.005261719920486211
1761914847690540800,4.942540771484375,1.710348458623886,0.15170213507413863,-0.8018162216771394
1761914847700596000,4.952595947265625,2.4226830737531184,0.9085288028806447,-1.659997158524394
1761914847710651000,4.96265087890625,2.5345155552536247,1.7351421236187219,-2.2051827708616853
1761914847720705800,4.972705810546875,3.033639381378889,2.4819980170309544,-2.3752482456222177
1761914847730760700,4.9827607421875,3.2486025670081373,3.230227244623005,-2.169615929048508
1761914847740816000,4.99281591796875,2.99665434333086,4.110371372279524,-2.2156857524365186
1761914847750871000,5.00287109375,3.679639529857039,4.499965148627758,-1.9381540285609662
1761914847760925700,5.01292578125,3.372697733232379,4.739215218773484,-1.2532448882348834
1761914847770980900,5.02298095703125,3.19887670533061,4.9231040517032145,-0.7036007621187716
1761914847781035800,5.033035888671875,3.715314069828391,4.717712119756639,-0.2165982394851744
1761914847791090700,5.043090576171875,4.0588533664882185,4.499353154209256,0.37048341768682
1761914847801145900,5.053145751953125,4.4301358255982395,4.470132320421934,0.9094887339539826
1761914847811200800,5.06320068359375,4.549624959331751,4.095784044000506,0.963469476597011
1761914847821256000,5.073255859375,5.256218400460481,4.243369975927472,0.9456784569058567
1761914847831310800,5.083310791015625,6.241866098856925,4.712292725056409,0.779678185757622
1761914847841365800,5.09336572265625,6.53136342420578,4.203156623482704,0.5452406669927761
1761914847851421000,5.1034208984375,6.247909470674395,4.163799595606327,0.4538425592990592
1761914847861475600,5.1134755859375,5.9757683537960045,4.253718935984373,0.5311626034101471
1761914847871530800,5.12353076171875,5.578239692795276,4.063844598904252,0.55096598583702
1761914847881586000,5.1335859375,5.128165436521172,3.922847982239723,0.4061232882035896
1761914847891640800,5.143640869140625,4.566991104674339,3.508518408563733,-0.03573072713799774
1761914847901695700,5.15369580078125,4.113397442102432,2.996497691464424,-0.04391081872321665
1761914847911751000,5.1637509765625,3.356111924612522,2.1910978391468525,0.4434091723617166
1761914847921805800,5.173805908203125,2.8607541730225083,0.6608306378632783,1.0300041419953108
1761914847931861000,5.183861083984375,2.41883808876276,-0.8354448619693517,1.29635644633919
1761914847941915600,5.19391552734375,1.7288275336444376,-1.296658351895213,0.8525953187346458
1761914847951970800,5.203970703125,1.3731009555846452,-1.2250690334558487,0.1539385158240795
1761914847962026000,5.21402587890625,1.530337928432226,-2.079302767047286,-0.061551397093012924
1761914847972080600,5.22408056640625,1.0138888734966516,-3.285271963235736,-0.18774923468492924
1761914847982136800,5.23413671875,-0.11550152540206908,-3.1949726836293935,-0.4183041763953864
1761914847992191700,5.244191650390625,-0.9856833542317152,-2.637504805085063,-0.4672397644780576
1761914848002247000,5.254246826171875,-1.7807079430073498,-2.935142182269692,-0.22856172206662595
1761914848012301800,5.2643017578125,-3.6493291472673413,-3.918685601863265,0.5407416385404765
1761914848022356700,5.274356689453125,-6.194843066397309,-4.800740823838114,1.570462579680234
1761914848032412000,5.284411865234375,-8.126140214800834,-5.283118097823858,2.024749923604727
1761914848042466800,5.294466796875,-8.861715420264005,-5.407141367855668,2.2188896630443633
1761914848052521700,5.304521728515625,-8.72057851834595,-5.7371121578902,2.4689602562814947
1761914848062577000,5.314576904296875,-8.52253548785746,-6.666489103010297,2.8972657483398914
1761914848072631800,5.3246318359375,-8.09304458540678,-7.431966694784164,3.3555236033305524
1761914848082687000,5.33468701171875,-7.467497442370653,-7.527911871322989,3.2700930988043546
1761914848092741600,5.34474169921875,-6.771045456027984,-7.134223519137501,2.5994553526759145
1761914848102796800,5.354796875,-6.028937049403786,-6.415556778377294,1.8714950061306357
1761914848112852000,5.36485205078125,-5.433669309297204,-5.817370520475507,1.0477147899266332
1761914848122907000,5.374906982421875,-4.679199433749914,-4.767354687064886,0.5833547456033528
1761914848132961800,5.3849619140625,-4.234280076020956,-3.5463375593483444,0.4016440604303032
1761914848143016700,5.3950166015625,-3.9351638584554194,-1.9689450342744588,0.3025403467953205
1761914848153071900,5.40507177734375,-2.1503023028999566,-1.101121751269698,0.6607276158802211
1761914848163126800,5.415126708984375,2.350032848083973,0.014793079984188079,1.0896189450025557
1761914848173181700,5.425181640625,2.4523604191362858,-0.4340162709206342,0.20987214610055088
1761914848183236900,5.43523681640625,-0.07731354130506515,-1.1840408574968575,-0.89909140471071
1761914848193291800,5.445291748046875,-0.28538404481112956,-0.43504386040270326,-1.1739327204585075
1761914848203346700,5.4553466796875,1.6868045014292001,1.5388018053948878,-1.2649705434724687
1761914848213401900,5.46540185546875,1.9580279189407825,2.607807585957646,-1.9180697103008626
1761914848223456800,5.475456787109375,2.0496353585362432,2.8519179556161163,-2.425340018002689
1761914848233512000,5.485511962890625,3.2208138118505474,3.1114480127245185,-2.413015958480537
1761914848243566800,5.49556689453125,5.563534875616431,3.4864866094976663,-2.3197525683715936
1761914848253621800,5.505621826171875,6.760365656581521,3.8150066162019964,-2.193997067719698
1761914848263680800,5.5156806640625,6.631692514917254,4.258687372046709,-1.584589450840652
1761914848273735400,5.5257353515625,6.214432733008265,4.474675809070468,-0.9584580051105469
1761914848283790600,5.53579052734375,3.2181934002190826,4.3985979470402,-0.3489209896981716
1761914848293845800,5.545845703125,2.8395979877471924,3.9504485213488336,-0.10816694473028182
1761914848303900700,5.555900634765625,3.949323316711187,3.627211423483491,-0.08518792794197798
1761914848313955600,5.56595556640625,3.6808828079164027,3.823827636039257,-0.24649156570658087
1761914848324010500,5.576010498046875,3.1791923461735245,4.105833144327998,-0.5206942912898957
1761914848334065700,5.586065673828125,3.2845693679243326,4.146241142562031,-0.8080046279884875
1761914848344121600,5.59612158203125,3.6443121958881615,4.052299707061052,-1.1121912806861103
1761914848354176500,5.606176513671875,3.7004455865204333,3.990853596973419,-1.220736264948547
1761914848364231700,5.616231689453125,3.6418729860424994,3.990383056852221,-1.034280942531675
1761914848374286600,5.62628662109375,3.381279683616757,3.9602871937960384,-0.7881072106026112
1761914848384341800,5.636341796875,3.1126135493725537,3.871327638360858,-0.8320940902367234
1761914848394396400,5.646396484375,3.044468818429112,3.747537008041143,-1.1892356496609746
1761914848404451600,5.65645166015625,3.111549719533324,3.335052185449004,-1.3798774639822542
1761914848414506800,5.6665068359375,3.057318947651982,2.4244085823714734,-0.8470977442316711
1761914848424561400,5.6765615234375,2.758947995495796,1.200959259071946,0.1032967083454132
1761914848434616600,5.686616455078125,1.6969512169122696,0.27534078970253467,0.5655003783524036
1761914848444671700,5.696671630859375,0.17161211968064308,-0.07483458397090434,0.25290903153344985
1761914848454726700,5.7067265625,-0.895672828438878,-0.05462240154743194,-0.44649113709032534
1761914848464781600,5.716781494140625,-0.8951894288361072,-0.2130459538310766,-1.0136302225604652
1761914848474836500,5.72683642578125,-0.5085948343038559,-0.9591308628708124,-1.0817132864445447
1761914848484891600,5.7368916015625,-0.6565770720720291,-1.5410118826597927,-1.013999932655692
1761914848494946800,5.74694677734375,-1.1728028396457433,-1.4888070636481046,-0.924934871019423
1761914848505001500,5.75700146484375,-2.069105198159814,-1.5099381144821642,-0.7856307374864816
1761914848515056600,5.767056640625,-2.9342385114282368,-1.784488046067953,-0.5291849101290107
1761914848525111600,5.777111572265625,-3.2899902239292858,-2.171633844742179,0.21641996030882
1761914848535166500,5.78716650390625,-4.160584725213051,-2.790025855326652,1.2604396220445633
1761914848545221600,5.7972216796875,-5.1038095784217115,-3.6035640059143303,2.061950942490995
1761914848555276500,5.807276611328125,-5.694411080282927,-4.237205023556948,2.454932899972796
1761914848565331700,5.817331787109375,-5.859999117368459,-4.892106855893135,2.7172844442427158
1761914848575386600,5.82738671875,-5.715812764751911,-5.9279562167853115,3.0582769790291784
1761914848585441500,5.837441650390625,-5.603771024414897,-6.883429141670465,3.242864900138974
1761914848595496700,5.84749658203125,-5.5445496046394105,-7.379400056722759,3.1825568541705604
1761914848605551600,5.857551513671875,-5.216877739197016,-7.18788204408884,2.798327527464926
1761914848615606500,5.8676064453125,-4.718869765359163,-6.421524746870994,2.1872812034681437
1761914848625661700,5.87766162109375,-4.3506332498162985,-5.790428153014183,1.6867666536368429
1761914848635716600,5.887716552734375,-4.0508232047677035,-5.685093801361322,1.3357681270122528
1761914848645771500,5.897771484375,-3.7146354399144648,-5.536553929710388,1.0101191456995904
1761914848655826700,5.90782666015625,-3.1701755115032193,-4.6791094173789025,0.6680608813777565
1761914848665881600,5.917881591796875,-2.2596996662080286,-3.337228360444307,0.46851453365422785
1761914848675936800,5.927936767578125,-1.4135282430410385,-2.0690748030215502,0.49503283048458396
1761914848685991400,5.937991455078125,-0.9241004660218953,-1.1073071619063615,0.6873225581433624
1761914848696046600,5.948046630859375,-0.5736024362653493,-0.4265080872476101,0.7102818473178892
1761914848706101800,5.958101806640625,-0.32806174154281614,0.17841420091092586,0.5027759188920259
1761914848716157700,5.96815771484375,-0.038600656551122665,0.8482324473500251,0.07033982983492314
1761914848726212600,5.978212646484375,0.6171674372255802,1.5976467930734157,-0.4894474315676838
1761914848736267500,5.988267578125,1.537201384460926,2.3784897117614743,-0.9890206088956445
1761914848746322700,5.99832275390625,2.226916171503067,3.1336715349704027,-1.3337253691382704
1761914848756377600,6.008377685546875,2.7469740645855665,3.8157717553555965,-1.4870662113301456
1761914848766432500,6.0184326171875,3.4995021584153174,4.368860395902395,-1.5250325155004858
1761914848776487700,6.02848779296875,4.459393484264612,4.834751814511418,-1.3867955728076398
1761914848786542600,6.03854248046875,5.225106053838133,5.095507614022493,-1.0773959347020834
1761914848796597800,6.04859765625,5.562226715627312,5.077324307078123,-0.5858130254756659
1761914848806652700,6.058652587890625,5.612041424632072,4.809211130541563,0.04976516164145432
1761914848816707600,6.06870751953125,5.41250903236866,4.546182125401496,0.6057323989650234
1761914848826762800,6.0787626953125,5.204444958603382,4.585701650363206,0.9694033966906368
1761914848836817400,6.0888173828125,5.08747452969253,4.737141919630766,1.1341058831132949
1761914848846872600,6.09887255859375,5.04702269231677,4.810498247742653,1.1829697941992432
1761914848856927700,6.108927734375,5.067267607966065,4.796902853110432,1.1191090241853148
1761914848866982700,6.118982666015625,5.140681219223142,4.743469953608512,0.9187425922505557
1761914848877037600,6.12903759765625,5.200022465986013,4.651092114162445,0.7468764247436076
1761914848887092500,6.139092529296875,5.0917959000229835,4.469605081677437,0.5753509604331105
1761914848897147600,6.149147705078125,4.986102651929855,4.283293405514955,0.37321598445586857
1761914848907202800,6.159202880859375,4.868776249188184,4.273217417180538,0.17098014192003755
1761914848917257500,6.169257568359375,4.519582872289419,4.188539484587311,0.11453501845747231
1761914848927312600,6.179312744140625,4.015635571530461,3.559229774147272,0.31880634887628256
1761914848937367600,6.189367431640625,3.169144999411702,2.384790273210406,0.5421919834792613
1761914848947422500,6.19942236328125,2.2115876694679257,1.0785638825029134,0.7503295608721673
1761914848957477600,6.2094775390625,1.5979589277625084,0.0006686930418014526,0.945743046574667
1761914848967532500,6.219532470703125,1.3336229316771029,-0.8596814776033163,1.2395441335320472
1761914848977587700,6.229587646484375,0.6136258190959691,-1.6848884386748075,1.3445543677970766
1761914848987642600,6.239642578125,-0.7591244233548641,-2.0701941624402997,0.9162688225481659
1761914848997697500,6.249697509765625,-2.226988652217388,-1.7626602451413869,0.3164324593517929
1761914849007752700,6.259752685546875,-3.2298651333123445,-1.7107149538487194,0.13443608910515903
1761914849017807600,6.2698076171875,-3.8369618429005143,-2.3073785322278737,0.28288952458165584
1761914849027862500,6.279862548828125,-4.215172055447101,-2.806608741337061,0.32938436844870445
1761914849037917700,6.289917724609375,-4.1886078736484045,-3.3417952299684286,0.67309704891406
1761914849047972600,6.29997265625,-4.348102854555845,-4.324712042096257,1.3088586389072239
1761914849058027500,6.310027587890625,-5.188337873411179,-5.224754171660543,1.6682041381165384
1761914849068083500,6.32008349609375,-5.513156687510013,-5.908890281787515,1.8978161729536949
1761914849078138600,6.330138671875,-5.436803515669703,-6.754930187529325,2.0669345761224625
1761914849088193500,6.340193603515625,-5.74761309363842,-7.584851317641139,2.3271759963706136
1761914849098248700,6.350248779296875,-5.940807515051961,-8.153201240205764,2.3883646245658396
1761914849108303600,6.3603037109375,-5.643969179290533,-8.451541212701796,1.9214628598704933
1761914849118358500,6.370358642578125,-5.1802469214141365,-8.204983449891209,1.0853577804267407
1761914849128413700,6.38041357421875,-4.617759753403067,-7.346590843054652,0.29092914825025945
1761914849138468600,6.390468505859375,-4.516480230098963,-6.294866452160477,-0.23109672043696045
1761914849148523500,6.4005234375,-4.58017382685244,-5.622711871728301,-0.46703346478361635
1761914849158578700,6.41057861328125,-4.375268509379029,-5.17850621522665,-0.4752050808014348
1761914849168633600,6.420633544921875,-3.907062384086847,-4.323482208040357,-0.44751346587538715
1761914849178688500,6.4306884765625,-3.367570891737938,-3.041082683122158,-0.29527459357604385
1761914849188743700,6.44074365234375,-2.9403672234416005,-1.9212439564228057,0.006739829649031162
1761914849198798600,6.450798583984375,-2.9355034167975185,-0.8644371476978063,-0.018361293859779835
1761914849208853800,6.460853759765625,-2.9745120696276426,0.25983050135970115,-0.22301435360517352
1761914849218908700,6.47090869140625,-2.3853292023926973,1.212470248645544,-0.6296003639496862
1761914849228963600,6.480963623046875,-1.3317156367510556,2.1652146253496407,-1.4605546365015207
1761914849239018800,6.491018798828125,-0.06597089403569698,2.9961995853006838,-2.256411438317597
1761914849249073400,6.501073486328125,1.285309859406948,3.7449943378210064,-2.8381673704221844
1761914849259128800,6.51112890625,2.6538351776391265,4.465573634204268,-3.0902132092550394
1761914849269183700,6.521183837890625,3.767821086657047,4.877862057441472,-2.9525346310973166
1761914849279238700,6.53123876953125,4.639270743465423,4.99631366482079,-2.444139995540678
1761914849289293800,6.5412939453125,5.067697231554985,4.870886373209953,-1.701660563647002
1761914849299348500,6.551348388671875,5.09305086852014,4.732555176362395,-0.9681755353961139
1761914849309403600,6.561403564453125,5.04674387537539,4.811750878152251,-0.37628819497544314
1761914849319458800,6.571458740234375,5.127441213899851,4.899547819548845,0.07143770807422697
1761914849329513700,6.581513671875,5.334080223298073,4.8394642299860715,0.3298349617604166
1761914849339568600,6.591568603515625,5.550833214953541,4.706054707449674,0.40850484957788136
1761914849349623800,6.601623779296875,5.728115196964144,4.5116006413638585,0.3817726542685181
1761914849359678700,6.6116787109375,5.996130173823237,4.346744425684213,0.2805392351284623
1761914849369734700,6.621734619140625,6.158833595383167,4.387923408290743,0.1252465647490695
1761914849379789600,6.63178955078125,6.1590650660514825,4.555058090296387,-0.08577763746343553
1761914849389844700,6.6418447265625,6.199029412171244,4.664631394693255,-0.26823731437288223
1761914849399899600,6.651899658203125,6.1498950866460795,4.745159806391596,-0.3358781143821776
1761914849409954800,6.661954833984375,5.939100126612186,4.69886508820653,-0.3621596067819744
1761914849420009700,6.672009765625,5.484951752766967,4.506370924016833,-0.31775618223622437
1761914849430064600,6.682064697265625,4.802871406126022,4.220352672955394,-0.35724516592919825
1761914849440119800,6.692119873046875,4.18964189287126,3.928742885497212,-0.574563024925813
1761914849450174700,6.7021748046875,4.020054557016492,3.476082704383135,-0.6294348711896688
1761914849460229600,6.712229736328125,4.025171461638808,2.4667379040569064,-0.35264936257153745
1761914849470284800,6.722284912109375,3.635366088366508,0.8406032676458358,0.2329939323604107
1761914849480339700,6.732339599609375,2.650799755465984,-0.7943278386831283,0.8569370012007653
1761914849490394600,6.74239453125,0.8829957176953553,-1.4667214885681867,0.9796056417532265
1761914849500449500,6.752449462890625,-0.8216594977229833,-1.1780004082888365,0.5953183012500405
1761914849510504700,6.762504638671875,-1.5015116469204426,-1.4286620992869137,0.4872730832032859
1761914849520559900,6.772559814453125,-1.7157435956656932,-2.936460863652825,0.3843779413960874
1761914849530614500,6.782614501953125,-2.8518524891644716,-3.999315135848522,-0.0916297975577414
1761914849540669700,6.792669677734375,-4.076915092879534,-3.9245372505009173,-0.21058380150124428
1761914849550724900,6.802724853515625,-4.284188308528066,-4.161801699787378,0.07057341939508914
1761914849560779800,6.81277978515625,-4.927031454280018,-5.5154912679374215,0.8355287408605218
1761914849570834700,6.822834716796875,-6.289651932382584,-7.032398636910319,1.703998212814331
1761914849580889600,6.8328896484375,-7.29138976483643,-7.697405099153518,1.9254509065933525
1761914849590944800,6.84294482421875,-7.6505895719647405,-8.04470228704214,2.0015229234047234
1761914849600999700,6.852999755859375,-8.108588191497326,-9.009621670186519,2.1026247520543633
1761914849611054600,6.8630546875,-8.848356756997108,-9.856419700819254,1.9065062598876654
1761914849621109800,6.87310986328125,-8.362172491943836,-9.793068049371241,1.1744964918211103
1761914849631164700,6.88316455078125,-7.265587215059996,-8.483117085182666,0.23391528498902917
1761914849641219600,6.893219482421875,-6.361824019145965,-6.650166329240799,-0.29650135889202356
1761914849651274800,6.903274658203125,-5.830041201478243,-5.347415505689383,-0.3934402226433158
1761914849661329700,6.91332958984375,-5.115851313871145,-4.945062785533071,-0.26721746980585154
1761914849671384800,6.923384765625,-3.9659284145534035,-4.5234664357244965,-0.1279738342884928
1761914849681439700,6.933439697265625,-2.2969290344059465,-3.5183255168288943,0.13011413425281643
1761914849691494700,6.94349462890625,-0.583627571195364,-2.3112410528749225,0.48249447062462564
1761914849701550800,6.95355078125,0.8975853840619326,-1.2271756503462792,0.7874834526810794
1761914849711605800,6.963605712890625,2.132811069872975,-0.32957331514954563,0.9714585025895386
1761914849721660700,6.97366064453125,2.7021353904277086,0.3020961101591587,0.8881465245872735
1761914849731715600,6.983715576171875,2.8650451482146977,0.6491799475580453,0.4530703693501651
1761914849741770800,6.993770751953125,2.7854338513612746,1.0067670587927102,-0.24467962091378867
1761914849751826000,7.003825927734375,2.54881003806591,1.8697195208907127,-1.1170226463653146
1761914849761880600,7.013880615234375,2.5153806466728446,3.132868986415863,-2.079293853088468
1761914849771935700,7.023935791015625,2.949428481775522,4.623324401792884,-3.002020254278183
1761914849781990700,7.03399072265625,3.3182191240698096,5.9381958712488405,-3.4755835226893423
1761914849792045600,7.044045654296875,3.060594023799896,6.602784400340914,-3.2431013392433523
1761914849802100700,7.054100830078125,2.6476304777801034,6.435405972707271,-2.4910227427467704
1761914849812155600,7.06415576171875,2.5943916395455595,6.1245093009769915,-1.6189131607249378
1761914849822210800,7.0742109375,2.8893782099604604,6.092366442263126,-0.8794467199768871
1761914849832265700,7.084265625,3.2879432282716032,6.104437988328933,-0.23169088693782686
1761914849842320600,7.094320556640625,3.775195414817333,6.0159817062407726,0.23018267433196304
1761914849852375800,7.104375732421875,4.078686194205284,5.846617657747864,0.4887386257112026
1761914849862430700,7.1144306640625,4.2243145623236895,5.521040134236216,0.6262709272660315
1761914849872485600,7.124485595703125,4.455799843686819,5.1173167102485895,0.5909053071133792
1761914849882540800,7.134540771484375,4.8079099848151206,4.837166474437713,0.3853482477329671
1761914849892595700,7.144595703125,5.187697821941971,4.8387359157115215,0.11632672417983413
1761914849902650600,7.154650634765625,5.524075556409358,4.946102649974823,-0.14455445527657865
1761914849912705500,7.16470556640625,5.681407806324959,5.020180278098583,-0.3239367705672979
1761914849922760700,7.1747607421875,5.600424636596441,5.110329920101165,-0.4549819020599127
1761914849932816000,7.18481591796875,5.404046324449777,5.190360319149494,-0.6442024514064192
1761914849942870500,7.19487060546875,5.07468168361485,5.221957234418392,-0.6950548328958451
1761914849952925700,7.20492578125,4.69880897410512,4.905182610565424,-0.4748177985168993
1761914849962980900,7.21498095703125,4.353355368256569,4.040687010678648,-0.015962123763561247
1761914849973035800,7.225035888671875,3.952672627139091,2.806515217834711,0.5464912881083787
1761914849983090700,7.235090576171875,3.165265527629852,1.7426421239852905,0.9209247585952282
1761914849993145600,7.2451455078125,2.2050497921317813,0.7823995004802942,1.1743107599906624
1761914850003200800,7.25520068359375,1.7014385914593935,-1.0160469283133744,1.8397882007464765
1761914850013255700,7.265255615234375,0.9289958368480205,-4.135983367919922,2.427430560541153
1761914850023311600,7.2753115234375,-1.1306441983520985,-4.953336692881584,1.456974293796718
1761914850033366800,7.28536669921875,-0.9412292954772711,-2.7028940998405218,0.6876276055045425
1761914850043421700,7.295421630859375,-0.42185880013704297,-1.6500848363190888,1.1340040301740169
1761914850053476900,7.305476806640625,-2.51369196293354,-3.4164357526719566,2.2042516274914146
1761914850063531500,7.315531494140625,-5.440490095227957,-6.592029197570681,3.30945304929018
1761914850073586700,7.325586669921875,-7.358924839448928,-7.511901232242584,3.4625109828874465
1761914850083641900,7.335641845703125,-6.903000103580951,-6.054436232319474,2.424383155669272
1761914850093696500,7.345696533203125,-6.084905604863167,-5.080417012396454,1.5895666547313332
1761914850103751700,7.355751708984375,-6.5111798833549015,-6.504443853098154,2.0501927001580595
1761914850113806800,7.365806884765625,-7.322582190957665,-8.33079652594924,2.7366099069595333
1761914850123861800,7.37586181640625,-7.617259549292921,-9.200489694479108,2.927457472985983
1761914850133916700,7.385916748046875,-7.405219557633996,-9.474721061635018,2.846373765492439
1761914850143971600,7.3959716796875,-7.255293784582615,-9.5249595490098,2.3786771971575913
1761914850154026800,7.40602685546875,-7.145088612022995,-9.039858403018117,1.539886678022146
1761914850164082000,7.41608203125,-6.931225496590137,-7.607468223118782,0.3696485012326389
1761914850174136600,7.426136474609375,-6.349525094065069,-5.399622662788629,-0.6962121862374245
1761914850184191700,7.436191650390625,-5.010990424948931,-3.097157621565461,-1.3910947313062847
1761914850194246700,7.44624658203125,-3.7259120362102984,-1.7820652028352022,-1.8252543562203645
1761914850204301600,7.456301513671875,-2.8129911358505484,-1.4456214173942803,-1.8992041201807557
1761914850214356700,7.466356689453125,-1.8353285909891128,-0.9950473949044942,-1.9047858658358454
1761914850224411600,7.47641162109375,-0.7971078247904777,-0.053090369674563404,-2.117103067000955
1761914850234466800,7.486466796875,0.1626654276371002,1.172857200181484,-2.574437815797329
1761914850244521700,7.496521728515625,1.0919874276995658,2.317141216829419,-2.997118453711271
1761914850254576600,7.50657666015625,2.4215596226811407,3.156231741824746,-3.246583920662105
1761914850264628000,7.5166279296875,3.6908097431689497,4.185025338986516,-3.4313141728520393
1761914850274683000,7.526682861328125,4.592572705176472,5.180169764524698,-3.442984444640577
1761914850284738000,7.536738037109375,4.842349430033564,5.600750799810886,-2.897922750943899
1761914850294793000,7.54679296875,4.375950061902404,5.3898488722711795,-1.8904677098870277
1761914850304848000,7.556847900390625,3.8759599743366238,4.987942142316698,-0.723366881275177
1761914850314903000,7.566903076171875,3.504743566200137,4.811455694597959,0.20546412039995193
1761914850324958000,7.5769580078125,3.423636477831006,4.808588614729047,0.7931209471113979
1761914850335012900,7.587012939453125,3.603439502751827,4.873825349271297,1.0530375923845916
1761914850345068000,7.597068115234375,3.944444897019863,4.973883221825957,1.0538180752377957
1761914850355123000,7.607123046875,4.627638757860661,5.087441211944818,0.9376380660522728
1761914850365179100,7.61717919921875,5.457197484400868,5.143503290906549,0.7454880391251295
1761914850375233800,7.62723388671875,6.137832308408617,5.005670691230893,0.5286661469519138
1761914850385289000,7.6372890625,6.592936960065365,4.79440694464147,0.37490426633637397
1761914850395344100,7.64734423828125,6.856950300067663,4.619233917608857,0.2322441369064152
1761914850405398800,7.657398681640625,6.722430770462751,4.510187851956487,0.1135155392166227
1761914850415454000,7.667453857421875,6.231197989848256,4.459262551361322,0.0792439248457551
1761914850425508900,7.6775087890625,5.4319443852007385,4.41105644659698,0.04513882614821196
1761914850435564000,7.68756396484375,4.579454280406236,4.2748020560234785,0.0987701708316803
1761914850445619000,7.697618896484375,3.96103012111783,3.651543900707364,0.33502924246788024
1761914850455673900,7.707673828125,3.4379923354417086,2.3091209919810294,0.6715478467106819
1761914850465729000,7.71772900390625,2.721457930535078,0.6997346612751484,0.9587173866990953
1761914850475784000,7.727783935546875,1.912213093227148,-0.25381577111482617,0.7753362840957939
1761914850485838800,7.7378388671875,1.4110288274407385,0.22716098842322824,0.0789934572160244
1761914850495894000,7.74789404296875,1.1104863764643669,1.1228010836362838,-0.5695253960847855
1761914850505949000,7.757948974609375,0.6528162582337856,0.08146130863428115,-0.4385356480412185
1761914850516003800,7.76800390625,-0.6137585055649281,-2.6495085466116666,0.026727336471155286
1761914850526059000,7.77805908203125,-2.6397698274075982,-3.6865959248661992,-0.22774448739960787
1761914850536114000,7.788114013671875,-3.1357103473216292,-2.425916064324975,-0.4918582921016961
1761914850546169000,7.798169189453125,-2.6495459560126067,-1.8787965613156556,-0.36620815152041614
1761914850556223700,7.8082236328125,-3.251998054665327,-3.009053221654892,0.24519604600332676
1761914850566279000,7.81827880859375,-4.506165756833553,-3.8985125824064015,0.9543032965838909
1761914850576334000,7.828333984375,-5.557574505907297,-3.826145265331864,1.5853608736045657
1761914850586389000,7.838388916015625,-6.004307635059952,-4.150181989142299,2.187056747062504
1761914850596444000,7.84844384765625,-6.527939294975996,-4.922810621714592,2.4894553472995757
1761914850606499000,7.8584990234375,-6.85190061546266,-5.693612038859724,2.676121243727207
1761914850616554000,7.868553955078125,-6.483112895777821,-6.623035745730996,2.7122844439983367
1761914850626609000,7.87860888671875,-6.317402109095454,-7.42143711746335,2.575785723274946
1761914850636663800,7.888663818359375,-6.653530252715945,-8.078819076177478,2.3973884734988213
1761914850646719000,7.898718994140625,-7.23851742182672,-8.230802950802445,2.0068876653082666
1761914850656774100,7.908774169921875,-7.997080119645595,-7.648223427355289,1.4509309219792483
1761914850666828800,7.918828857421875,-8.751828812134265,-6.896282193502783,0.8957594107437878
1761914850676884000,7.928884033203125,-9.295991803425549,-6.359513404116034,0.41750579255931075
1761914850686939000,7.93893896484375,-9.221610223919154,-5.857761567574739,-0.15433975356873125
1761914850696994000,7.948994140625,-8.241972579592465,-5.12667724379003,-0.6869655613992363
1761914850707049700,7.9590498046875,-6.625280309787392,-4.247014469909668,-0.9449155097093432
1761914850717105000,7.96910498046875,-4.974669403767585,-3.4227497581243513,-0.9150671186082064
1761914850727160000,7.97916015625,-3.020605127760768,-2.732446357539296,-0.680635700790584
1761914850737215000,7.989215087890625,-1.0010182860076426,-2.02071555352211,-0.4101702985720709
1761914850747270000,7.999269775390625,0.6174819100022315,-1.1866735440880058,-0.42974089515637603
1761914850757324000,8.009323974609375,2.073037861433625,-0.2268804179161787,-0.7254859923209994
1761914850767379000,8.01937890625,3.2100136008948086,1.01320206027627,-1.142403244402632
1761914850777433900,8.029433837890625,4.047924560716748,2.576218853995204,-1.6755964403249322
1761914850787489000,8.039489013671876,4.673908341604471,4.263819474238157,-2.1687695413522423
1761914850797544000,8.0495439453125,5.410204847079515,5.806186863160133,-2.0888314967624844
1761914850807599000,8.05959912109375,4.92038836300373,6.781682000854611,-2.0376259179212153
1761914850817654000,8.069654052734375,4.8731578252732755,7.120243509101868,-1.6999616507746278
1761914850827709000,8.079708984375,4.736801727890968,6.549723841282725,-0.9163692141827195
1761914850837764000,8.08976416015625,4.639428564375638,6.62640376085937,-0.2508211193434894
1761914850847818800,8.09981884765625,5.292727053168416,7.000398986059427,0.1028220765709877
1761914850857874000,8.1098740234375,5.899470127013325,6.9533245156735175,0.34107882483042773
1761914850867929000,8.11992919921875,5.93976355895698,7.106380987966061,0.3320683468356728
1761914850877984000,8.12998388671875,6.037143152213096,7.0121198189914224,0.25512444256059824
1761914850888039000,8.140038818359375,6.419802745383977,6.754110687839985,0.3011254384960979
1761914850898093800,8.15009375,6.386368093293905,6.618186552134156,0.15973967638351022
1761914850908149000,8.16014892578125,6.250751416102052,6.6350546848267316,0.03598777063898742
1761914850918204000,8.170203857421875,6.034948857039213,6.307652283975481,0.004747632918506861
1761914850928258800,8.1802587890625,5.860991635537147,5.911483805412054,-0.17226766097992657
1761914850938314000,8.19031396484375,5.939448501658439,5.860089718261361,-0.3795184456009418
1761914850948369200,8.200369140625,6.070384327557683,5.728619054833054,-0.6206503109052777
1761914850958423800,8.210423828125,5.780034184771776,5.3267392128854985,-0.7947507402703166
1761914850968479000,8.22047900390625,5.218507970747352,4.7395092332839965,-0.8014838479176163
1761914850978534000,8.230533935546875,4.849849430400133,3.663005790442228,-0.35186544565223155
1761914850988589000,8.240589111328125,4.570727368593215,1.9324609314858912,0.38136677688136694
1761914850998644000,8.25064404296875,4.016398372596502,0.1328857909232378,0.9473135107617825
1761914851008700000,8.260699951171874,3.266496535617113,-0.23905542435646054,0.6556706978168338
1761914851018755000,8.270755126953125,2.5525936482578513,0.17500176211893556,-0.11135953022651374
1761914851028810000,8.28081005859375,1.3767612316578626,-0.48764849238693714,-0.8797022291079163
1761914851038865000,8.290864990234375,-0.31922084796130656,-2.887293804901838,-1.078044534803927
1761914851048919800,8.300919921875,-0.33305531204640865,-4.876770170551538,-0.8357631341382861
1761914851058975000,8.31097509765625,0.7314034727364778,-3.9999943502843376,-1.6091390779465435
1761914851069030100,8.321030029296875,0.18476152411103247,-4.153561110186577,-1.8655286450721322
1761914851079084800,8.331084716796875,-0.7594388961315155,-4.73748912563324,-1.410207574185729
1761914851089140000,8.341139892578125,-1.3497387846976518,-4.567049556863307,-0.9267395823538302
1761914851099195000,8.35119482421875,-2.0301567510843275,-4.973904264613986,-0.2554867000017315
1761914851109249800,8.361249755859374,-3.5024224297761917,-5.121316009017825,-0.18020926763415335
1761914851119305000,8.371304931640625,-5.398973258969187,-4.761831539729237,-0.6253115076493472
1761914851129360000,8.38135986328125,-6.2581017788648605,-4.7174815258711575,-1.0616344480771571
1761914851139415000,8.3914150390625,-6.048598612207174,-5.595998636847734,-1.0887371206667273
1761914851149470000,8.401469970703126,-5.739009515944123,-6.744920250168442,-0.8321467702720313
1761914851159524900,8.41152490234375,-5.830201944997906,-7.825510085541009,-0.19390943781509995
1761914851169580000,8.421580078125,-6.307680925548076,-8.88529912494719,0.8332477903164923
1761914851179635000,8.431635009765625,-6.803326846429705,-9.519330018690228,1.6262398503512143
1761914851189689900,8.44168994140625,-7.1877142863065,-9.186896637934446,1.8926468074917793
1761914851199745000,8.4517451171875,-7.483353183150291,-7.9585560354620215,1.737659659397602
1761914851209800000,8.461800048828126,-7.277011695393919,-6.023492812523245,1.1417276101633906
1761914851219854800,8.471854736328124,-5.253399251386523,-3.339474678066373,0.21952713254392145
1761914851229910000,8.481909912109375,-5.232009841877222,-2.1071160721242426,-1.0110958087120205
1761914851239965000,8.49196484375,-4.37323378868103,-0.761030549237132,-1.7608458891957997
1761914851250020000,8.50202001953125,-1.4675035788565873,1.0247709175169468,-2.5279326697319746
1761914851260074800,8.51207470703125,-0.49647652648687357,1.553089273944497,-3.2199136481404302
1761914851270129700,8.522129638671874,-0.558283871102333,1.275712594500184,-3.1177614336550232
1761914851280184800,8.532184814453124,-0.559229627519846,0.6819903302699327,-2.8246789432957766
1761914851290239700,8.54223974609375,-0.060931730824708936,0.43132220953106876,-2.584206345617771
1761914851300294700,8.552294677734375,0.438753820836544,0.8848714484393596,-2.316187569366395
1761914851310349800,8.562349853515625,0.7506418416917323,1.830719635888934,-1.9163672902971505
1761914851320404700,8.57240478515625,1.2245254280984401,2.9816531735539433,-1.3907969174034893
1761914851330461700,8.582461669921875,2.004927617281675,4.074174854260683,-1.0019706182964145
1761914851340516900,8.592516845703125,2.8721453356087205,4.763441313013434,-0.7790454408120363
1761914851350571500,8.602571533203125,3.3512206454396245,5.211138318762183,-0.45223749872259794
1761914851360626700,8.612626708984376,3.3457892680406567,5.468334379965067,-0.10579363972768187
1761914851370681900,8.622681884765624,3.5620249578237533,5.4555128923147915,0.07270056761689483
1761914851380736800,8.63273681640625,4.070311164569855,5.338681579613685,0.3071418492414057
1761914851390791700,8.642791748046875,4.296805213516951,5.254255575954914,0.5931930527243763
1761914851400846600,8.6528466796875,4.345035868200659,5.287800702682137,0.7606208724576979
1761914851410901800,8.66290185546875,4.359294110655784,5.344284221926332,0.805556284988299
1761914851420957000,8.67295703125,4.272566844317317,5.381744476270676,0.8469457685403525
1761914851431011600,8.683011474609375,4.236690644294023,5.391166384610534,0.7945728264201432
1761914851441066800,8.693066650390625,4.183259498357772,5.3134980385184285,0.6028752925008535
1761914851451122000,8.703121826171875,4.255758917379379,5.181330624997615,0.43577553567811844
1761914851461177900,8.713177734375,4.3862025758475065,5.057414906993508,0.35962957684770225
1761914851471232800,8.723232666015624,4.5073231101751325,4.95834195382297,0.2704277370892465
1761914851481287700,8.73328759765625,4.567302070319652,4.807813538703322,0.17724530326202512
1761914851491342800,8.7433427734375,4.193831161254644,4.918601479586958,0.41660730934962625
1761914851501397800,8.753397705078125,3.79814082159698,4.8170367096006865,0.8716938408277928
1761914851511452700,8.76345263671875,3.4706045652329918,4.1171763761192555,1.1988098259530962
1761914851521507800,8.7735078125,3.0449738453418016,2.907483190971613,1.4375858488462865
1761914851531562800,8.783562744140625,2.3969570963442326,1.2398048302948474,1.8089929572492838
1761914851541617700,8.79361767578125,1.9928841282665728,-1.2131547237783669,2.4160237619943916
1761914851551672600,8.803672607421875,1.9234248075932263,-4.476989346709847,2.551471950751543
1761914851561727700,8.813727783203126,1.261167351797223,-5.761556278795004,1.3039251280277966
1761914851571783000,8.823782958984374,0.8040963685035705,-3.0595097356945273,-0.16756372107267378
1761914851581837600,8.833837646484374,0.7333703888952732,-0.507796377402544,-0.6844101047627628
1761914851591892700,8.843892822265625,-0.25568507211804387,-0.8419055824160575,-0.08836056662872434
1761914851601948000,8.853947998046875,-1.0791209318637847,-3.157391433253884,1.264736296325177
1761914851612002800,8.8640029296875,-2.0651053148686884,-4.853191142043471,2.7885096055448053
1761914851622057700,8.8740576171875,-3.2208512212514875,-5.693430252552032,3.8323850365042684
1761914851632112600,8.884112548828124,-3.6521044571995733,-6.280619315621257,3.9751387259691953
1761914851642167800,8.894167724609375,-3.578376373165846,-6.49943450050354,3.613245441973209
1761914851652222700,8.90422265625,-3.570809152781963,-6.887527224639058,3.1588059762269256
1761914851662277600,8.914277587890625,-3.8253462239086624,-7.738354364657401,2.638003986778855
1761914851672332800,8.924332763671876,-4.369674050372839,-8.520583184745908,2.138947380670905
1761914851682387700,8.9343876953125,-4.960424605315923,-8.877963375231623,1.7112801865160465
1761914851692442600,8.944442626953125,-5.689821414405107,-8.774838516321777,1.2975114615932106
1761914851702497800,8.954497802734375,-6.2853837535440915,-8.346337793952227,0.9690578711885959
1761914851712552700,8.964552734375,-6.685766050410271,-7.523799175307154,0.7095340246252715
1761914851722607900,8.97460791015625,-7.059988654625416,-6.329963484504819,0.5442031041059643
1761914851732662800,8.984662841796874,-6.731066496860981,-5.128184725743532,0.26848405567556616
1761914851742717700,8.9947177734375,-5.912677399110794,-3.7783757984191175,0.049862785930186504
1761914851752772900,9.00477294921875,-4.630733216744661,-2.4529724135547877,-0.036921909683942794
1761914851762827500,9.01482763671875,-3.107445206823945,-1.335289988106489,-0.09814663210585713
1761914851772883700,9.0248837890625,-1.7937462882786988,-0.597206599214673,-0.24133301389962433
1761914851782938600,9.034938720703124,-0.9313029447466135,-0.019016835159063338,-0.5743839420318603
1761914851792993800,9.044993896484375,-0.008003273713588714,0.588871901589632,-1.0161775689557193
1761914851803049000,9.055049072265625,0.9244225375831127,1.499559928330779,-1.559063087657094
1761914851813103600,9.065103515625,1.9930828657090662,2.4798791251808403,-1.9965878050900994
1761914851823158800,9.07515869140625,2.9579712691932913,3.3811651173263786,-2.0761746981546283
1761914851833213700,9.085213623046876,3.293164762312174,4.078434265270829,-1.9556158893629907
1761914851843268600,9.0952685546875,3.5022044031113384,4.631982340022922,-1.6671595974996685
1761914851853323800,9.10532373046875,3.509724277222156,5.392772066241503,-1.1384917700473218
1761914851863378700,9.115378662109375,3.1385213130891323,6.024160336521268,-0.651114715012908
1761914851873433900,9.125433837890625,3.16976459261477,6.189312320277095,-0.3102047439433634
1761914851883488800,9.13548876953125,3.3044618168741464,5.9394449945271015,0.010609583754464984
1761914851893543700,9.145543701171874,3.3261890800356864,5.56808654757142,0.14406623336821794
1761914851903598800,9.155598876953125,3.8769355413705107,5.442908846807479,-0.10626096497848629
1761914851913653800,9.16565380859375,4.8443327128052704,5.499872258523106,-0.566932530047372
1761914851923708700,9.175708740234375,5.665388399416208,5.458005878174305,-0.8852643932797014
1761914851933763800,9.185763916015626,6.012538872310519,5.275063970705866,-0.9543982813909649
1761914851943818800,9.19581884765625,6.045652037361264,5.032824655616283,-0.9767490832783281
1761914851953873700,9.205873779296875,6.045113692700863,4.766566751557589,-0.963534943048656
1761914851963928600,9.215928466796875,6.121052438521385,4.489135711577535,-0.8833651355296372
1761914851973983700,9.225983642578125,5.992851590543985,4.262445263275504,-0.6796693399764597
1761914851984039000,9.236038818359376,5.472103377109765,4.009779831239581,-0.3550590540617704
1761914851994093600,9.246093505859376,4.796271569469571,3.767981245654821,-0.049591713903844356
1761914852004148700,9.256148681640624,4.35969275458455,3.4921260766893623,0.04880597035363316
1761914852014204000,9.266203857421875,4.245947717460989,2.832520012184977,0.11187792807742952
1761914852024258800,9.2762587890625,3.9252176339805125,1.6819582304418086,0.3553640283577144
1761914852034313700,9.286313720703125,3.140876936304569,0.11403437545895576,0.736894617498666
1761914852044369700,9.29636962890625,2.768168243783712,-2.1418916174292564,1.0980506732612847
1761914852054424800,9.3064248046875,1.745073150524497,-4.031688296186924,0.5018533241543919
1761914852064479700,9.316479736328125,0.8992121084809303,-3.4858038879305124,-1.0846074004508555
1761914852074534700,9.32653466796875,1.3463976575762033,-0.7989706960529088,-2.726146672873199
1761914852084589800,9.33658984375,1.9325088622808455,1.390899062603712,-3.0813544877558945
1761914852094644700,9.346644775390626,1.1249275742709637,0.6811357592672109,-1.996723852559924
1761914852104700000,9.356699951171874,-0.8738280763775109,-2.2940905961096285,-0.07915580817088484
1761914852114754600,9.366754638671875,-3.3039410078704354,-4.315802759453654,1.695040414854884
1761914852124809700,9.376809814453125,-4.792563362601399,-4.577972517415881,2.6674972077667713
1761914852134865000,9.386864990234375,-5.311061751282215,-3.9883196945816275,2.667838276289403
1761914852144919600,9.39691943359375,-5.485607586327195,-3.9694975052118298,2.139353331123292
1761914852154974700,9.406974609375,-5.138783276647329,-5.153723656147718,1.83792138396129
1761914852165030000,9.41702978515625,-5.154300579252839,-6.5753200548321,1.4015043355092405
1761914852175084800,9.427084716796875,-5.196173389342427,-7.01673052765727,0.6623820320237428
1761914852185139700,9.4371396484375,-5.398494535541534,-6.807500332722068,0.20693916138857602
1761914852195194600,9.447194580078126,-6.155125973036885,-6.708978583693504,0.20320932721048593
1761914852205249800,9.457249755859374,-7.0526961595296855,-6.5615042954474685,0.49621582972407335
1761914852215305000,9.467304931640625,-8.181497944885491,-6.119239251619577,0.8281190491259097
1761914852225359600,9.477359619140625,-8.870480910521746,-5.443386985713243,0.7737852552615105
1761914852235414800,9.487414794921875,-8.602245568910242,-4.378763950279355,0.28808438981100914
1761914852245469700,9.4974697265625,-7.624605820402502,-3.1652532526701687,-0.37009324932545423
1761914852255524600,9.507524658203126,-6.419613944813609,-1.9013228659003971,-0.9331262146510183
1761914852265579500,9.51757958984375,-5.209715007960796,-0.7487216872841119,-1.063171813712269
1761914852275634400,9.527634521484375,-3.7446634984314437,0.07363163792192935,-0.9743395379185676
1761914852285689300,9.537689453125,-1.9797966831564902,0.538089808857441,-0.7184662497520447
1761914852295744500,9.54774462890625,-0.3939858738273382,0.7229255672484636,-0.362896615819633
1761914852305799400,9.55779931640625,0.8962111730992793,0.5857008703380823,-0.12167524560093879
1761914852315854600,9.5678544921875,1.9102315640211105,0.32160569727122784,-0.023739333636313677
1761914852325909500,9.577909423828125,2.839820106065273,0.35815059033632274,-0.22401129222065208
1761914852335964400,9.58796435546875,3.67154448620677,0.9377017058730125,-0.5789274306803941
1761914852346019600,9.59801953125,4.13294619218111,1.8875217195630072,-0.8622652104862034
1761914852356075500,9.608075439453126,4.230159781220555,2.8584008878946303,-1.0430724440135062
1761914852366130400,9.61813037109375,3.9680607504069805,3.67333429223299,-0.8901122717022896
1761914852376185300,9.628185302734375,3.4420950945854183,4.312604255673289,-0.6123483465060592
1761914852386240500,9.638240478515625,3.0720868931949137,4.9697319473654025,-0.3167651253722608
1761914852396295400,9.64829541015625,3.0742420254021883,5.54876634555161,-0.02224924120903015
1761914852406350300,9.658350341796876,3.451215974152088,5.669325738865137,0.21076777976602315
1761914852416405500,9.668405517578124,3.8162592466115948,5.356503067508339,0.5996947627685963
1761914852426460400,9.67846044921875,4.052293861842156,4.71706593080759,0.9130391199119389
1761914852436515300,9.688515380859375,4.951383220726251,4.184705605512857,0.8974949292995035
1761914852446570500,9.698570556640625,5.926115557354688,4.222091041055322,0.7357891404747963
1761914852456625400,9.70862548828125,6.504474248236417,4.247153586119413,0.5448812225632369
1761914852466680600,9.7186806640625,6.420502418085932,4.086625755032896,0.3497155010767281
1761914852476735200,9.7287353515625,6.115214818409085,3.730764736938476,0.13493117914572358
1761914852486790400,9.738790283203125,5.784489995136857,3.5576568257421255,-0.10771598609238862
1761914852496845600,9.748845458984375,5.017700151720643,3.471445107710361,-0.11828253442272543
1761914852506900500,9.758900390625,4.184431464746594,3.1365812849372623,0.061657999272644516
1761914852516955400,9.768955322265626,2.9648382323533293,2.543020933270454,0.3576268587231636
1761914852527010600,9.779010498046874,1.9604747275710104,1.5645932492554186,0.6922330534733832
1761914852537065500,9.7890654296875,1.7149369554579257,-0.21661738257706165,0.8437721069402992
1761914852547120400,9.799120361328125,1.5816466753870249,-2.0653964067697523,1.1350466710947453
1761914852557175300,9.80917529296875,1.7633260155737398,-4.055061572989821,1.7933979132324456
1761914852567230500,9.81923046875,1.818822861868143,-5.922908870267868,1.0664522236224263
1761914852577285600,9.82928564453125,1.8848469473958014,-4.832913493168354,-1.1549467188291251
1761914852587340300,9.83934033203125,2.297299621284008,-0.9767805013298988,-2.469359192471206
1761914852597395500,9.8493955078125,1.5506266832232474,2.052631617742777,-2.7376953641086814
1761914852607450400,9.859450439453125,-0.6492021593898535,1.9373902045816183,-2.200259342984855
1761914852617505500,9.869505615234376,-1.8858523250460624,-0.5103805486768483,-0.5504047352250665
1761914852627560400,9.879560546875,-3.2453426884293552,-1.6423364141494035,1.1662093596648424
1761914852637615400,9.889615478515625,-3.8332168111532923,-1.5624007076472044,2.0558172620415687
1761914852647670500,9.89967041015625,-3.389856957826018,-2.90056888153851,2.113696911819279
1761914852657725400,9.909725341796875,-3.5113702908635136,-3.031321167564392,1.9152422317899762
1761914852667780400,9.9197802734375,-2.649897838190198,-2.455601008492708,0.7514552769664674
1761914852677836500,9.92983642578125,-1.3536965824127196,-3.463859182626009,0.017209785737097263
1761914852687891500,9.939891357421875,-1.1660755772173403,-5.655442174941301,-0.09584580781757832
1761914852697946600,9.949946533203125,-2.3516788617253304,-6.647185267603397,-0.36124512228555977
1761914852708001300,9.960001220703125,-3.6076270175695417,-6.465813970452547,-0.2915384027224034
1761914852718056400,9.970056396484376,-4.604889750435948,-6.7180655609905715,0.19423282455056903
1761914852728111600,9.980111572265624,-6.1951271440356965,-6.562848695793748,0.9304854178186506
1761914852738166300,9.990166259765624,-7.616112717345357,-5.888592174646258,1.4602460089437663
1761914852748221400,10.000221435546875,-8.396153672000766,-4.952421331602335,1.5916662573590874
1761914852758276400,10.0102763671875,-8.381753975248337,-4.222278088060021,1.2348691274583339
1761914852768331500,10.02033154296875,-7.572672804069518,-3.4067087239056826,0.28881511523835357
1761914852778386400,10.030386474609376,-6.0695572290837765,-2.5444004049301148,-1.0111203586313873
1761914852788441300,10.04044140625,-4.526888811388612,-2.278551081672311,-1.921970517131686
1761914852798496500,10.05049658203125,-3.0018115799635647,-2.339002920025587,-2.511224988298118
1761914852808551400,10.060551513671875,-1.4851678303629159,-1.8631179306685923,-2.8693349543631075
1761914852818606300,10.0706064453125,-0.2660235107809305,-0.7747866873890161,-2.8027485587775707
1761914852828661500,10.08066162109375,0.2830909654378891,0.22436814283430576,-2.238378061237931
1761914852838716400,10.09071630859375,0.12399112132787704,0.4831406595736742,-1.0614852488648145
1761914852848771300,10.100771240234375,-0.2789391064554453,0.2278425409466028,-0.033395927514880894
1761914852858826500,10.110826416015625,-0.13682488393783568,0.22504443466067311,0.30072803667634723
1761914852868881400,10.12088134765625,1.831020080140233,1.26768184825778,-0.4042497859492898
1761914852878936600,10.1309365234375,3.8890877514570947,2.817552160155773,-1.5406882036633789
1761914852888991200,10.1409912109375,4.478005830276012,3.7996319369375704,-1.8556962562352417
1761914852899046400,10.15104638671875,4.2719431594610215,4.057206768324971,-1.5238988352954386
1761914852909101600,10.1611015625,3.3584792382657525,4.318288731050491,-0.5299221383623779
1761914852919156500,10.171156494140625,1.6903677468687295,3.6681940067350864,0.19028759405612944
1761914852929211400,10.18121142578125,2.733092838749289,3.168250096398592,0.254042711738497
1761914852939266600,10.1912666015625,3.3845740489870306,3.635546121108532,-0.1680377683252096
1761914852949321500,10.201321533203124,3.843234347298741,4.117082852616906,-0.8716602308191359
1761914852959376400,10.21137646484375,3.912985928916931,4.452155349704623,-1.1348466184780002
