time,seconds_elapsed,z,y,x
1761914842826419700,0.078419677734375,0.11273559927940369,-0.058148790150880814,-0.08238701522350311
1761914842836475000,0.088474853515625,0.0943472757935524,-0.10636532306671143,-0.06696651875972748
1761914842846530000,0.098530029296875,0.0759568139910698,-0.1654965579509735,-0.04860668256878853
1761914842856585000,0.1085849609375,0.05862869322299957,-0.2239614576101303,-0.023361248895525932
1761914842866640000,0.118639892578125,0.03659050166606903,-0.2651653587818146,0.007252852898091078
1761914842876695000,0.128695068359375,0.0057652113027870655,-0.269096702337265,0.041248105466365814
1761914842886750000,0.13875,-0.025253957137465477,-0.24026240408420563,0.06885203719139099
1761914842896805000,0.14880517578125,-0.04746738448739052,-0.18852011859416962,0.09824534505605698
1761914842906859800,0.15885986328125,-0.047621048986911774,-0.14076723158359528,0.11551860719919205
1761914842916915000,0.1689150390625,-0.03575533255934715,-0.1124543696641922,0.10450270771980286
1761914842926970000,0.17897021484375,-0.011082745157182217,-0.10695680975914001,0.08026447892189026
1761914842937024800,0.189024658203125,0.007757788058370352,-0.10326407104730606,0.05487869307398796
1761914842947080000,0.199079833984375,0.01654462143778801,-0.09695584326982498,0.03780490159988403
1761914842957134800,0.209134765625,0.01486469991505146,-0.0808277353644371,0.011862251907587051
1761914842967190000,0.21918994140625,0.0007648598402738571,-0.06252703070640564,-0.015864983201026917
1761914842977245000,0.229244873046875,-0.009120261296629906,-0.025788987055420876,-0.028932848945260048
1761914842987299800,0.2392998046875,-0.013572268187999725,0.03790077567100525,-0.015398130752146244
1761914842997355000,0.24935498046875,-0.021131383255124092,0.09242873638868332,0.015570171177387238
1761914843007411000,0.259410888671875,-0.03706561028957367,0.11552046984434128,0.04403909668326378
1761914843017465900,0.2694658203125,-0.05411383509635925,0.11042504757642746,0.06251131743192673
1761914843027520800,0.279520751953125,-0.07040119916200638,0.08330900222063065,0.06776466965675354
1761914843037576000,0.289575927734375,-0.08887367695569992,0.04831346869468689,0.05844280496239662
1761914843047631000,0.299631103515625,-0.10656559467315674,0.030834345147013664,0.061411693692207336
1761914843057685800,0.309685791015625,-0.11659745126962662,0.022945262491703033,0.0714733824133873
1761914843067741000,0.319740966796875,-0.11514683067798615,-0.02003123238682747,0.09088356792926788
1761914843077796000,0.329796142578125,-0.11761610954999924,-0.10610513389110565,0.12026968598365784
1761914843087851000,0.33985107421875,-0.1191365122795105,-0.17387644946575165,0.18146033585071564
1761914843097906000,0.349906005859375,-0.1213647797703743,-0.21011275053024292,0.23761655390262604
1761914843107960800,0.3599609375,-0.1196901798248291,-0.22454282641410828,0.2954210042953491
1761914843118016000,0.37001611328125,-0.12297705560922623,-0.22271190583705902,0.3333430886268616
1761914843128071000,0.38007080078125,-0.13686516880989075,-0.21428486704826355,0.36971360445022583
1761914843138125800,0.390125732421875,-0.15564845502376556,-0.22377850115299225,0.4185200333595276
1761914843148181000,0.400180908203125,-0.16961699724197388,-0.23984135687351227,0.4867941439151764
1761914843158236000,0.41023583984375,-0.18506811559200287,-0.2708096504211426,0.5707295536994934
1761914843168290800,0.420290771484375,-0.19407892227172852,-0.2721766531467438,0.6887446045875549
1761914843178346000,0.430345947265625,-0.1926719844341278,-0.1616474837064743,0.8454612493515015
1761914843188401000,0.44040087890625,-0.16783428192138672,0.03175633028149605,1.0178412199020386
1761914843198456000,0.4504560546875,-0.11627361178398132,0.11193026602268219,1.1400319337844849
1761914843208511000,0.460510986328125,-0.041735995560884476,0.2049211859703064,1.1955965757369995
1761914843218566000,0.47056591796875,0.022360432893037796,0.20576195418834686,1.1512783765792847
1761914843228622000,0.4806220703125,0.048166465014219284,0.14345356822013855,1.0323011875152588
1761914843238677000,0.490677001953125,0.000040746363083599135,0.05908116325736046,0.8814690113067627
1761914843248732000,0.50073193359375,-0.09059301763772964,0.044560808688402176,0.7649911642074585
1761914843258787000,0.510787109375,-0.16672800481319427,0.10468007624149323,0.6683655381202698
1761914843268842000,0.520842041015625,-0.19137687981128693,0.161222442984581,0.568974494934082
1761914843278897200,0.530897216796875,-0.2182876020669937,0.058041732758283615,0.42246708273887634
1761914843288952000,0.5409521484375,-0.2895441949367523,-0.11782144010066986,0.30452555418014526
1761914843299007200,0.55100732421875,-0.44972240924835205,-0.20155814290046692,0.32589635252952576
1761914843309062000,0.561061767578125,-0.66178297996521,-0.18197593092918396,0.5148806571960449
1761914843319117000,0.571116943359375,-0.8302252888679504,-0.08282990008592606,0.8177065849304199
1761914843329172200,0.581172119140625,-0.8909046053886414,-0.01631106249988079,1.1010831594467163
1761914843339227000,0.591226806640625,-0.8196426630020142,-0.053940463811159134,1.2624717950820923
1761914843349282000,0.601281982421875,-0.6550212502479553,-0.21635280549526215,1.235084891319275
1761914843359337200,0.611337158203125,-0.43411684036254883,-0.40327075123786926,1.0768119096755981
1761914843369392000,0.62139208984375,-0.22121228277683258,-0.569647490978241,0.8727575540542603
1761914843379447000,0.631447021484375,-0.05849766358733177,-0.6791537404060364,0.7075241208076477
1761914843389502000,0.641501953125,0.04282709211111069,-0.7304108142852783,0.6172677278518677
1761914843399557000,0.65155712890625,0.09254031628370285,-0.7865310907363892,0.5681047439575195
1761914843409612300,0.6616123046875,0.0825665146112442,-0.8609943985939026,0.5039910078048706
1761914843419667000,0.6716669921875,0.03629382699728012,-0.8716012239456177,0.4058031737804413
1761914843429722000,0.68172216796875,-0.01660427637398243,-0.8224994540214539,0.29358047246932983
1761914843439777000,0.691777099609375,-0.03785150870680809,-0.718265175819397,0.21154792606830597
1761914843449832000,0.70183203125,-0.013336312025785446,-0.5234227180480957,0.19797034561634064
1761914843459887000,0.71188720703125,0.0491664819419384,-0.33166101574897766,0.23334723711013794
1761914843469942000,0.72194189453125,0.15744395554065704,-0.2289314568042755,0.2747093141078949
1761914843479998200,0.731998291015625,0.3039681315422058,-0.25115740299224854,0.27571067214012146
1761914843490053000,0.74205322265625,0.4340324103832245,-0.40866580605506897,0.1941194087266922
1761914843500108000,0.75210791015625,0.501954972743988,-0.6358584761619568,0.03304263949394226
1761914843510163000,0.762162841796875,0.49055612087249756,-0.8166234493255615,-0.16585874557495117
1761914843520218000,0.772218017578125,0.41719722747802734,-0.8558523654937744,-0.36305463314056396
1761914843530273000,0.78227294921875,0.2729867994785309,-0.6999951004981995,-0.5190740823745728
1761914843540328000,0.792327880859375,0.08517055213451385,-0.39033737778663635,-0.6189732551574707
1761914843550383000,0.802383056640625,-0.12589587271213531,0.0015970977256074548,-0.6632829308509827
1761914843560438300,0.812438232421875,-0.3223138749599457,0.385763943195343,-0.6824243664741516
1761914843570493000,0.822492919921875,-0.4744970202445984,0.7105830311775208,-0.684855043888092
1761914843580548000,0.832548095703125,-0.5805124044418335,0.9900612831115723,-0.6683740615844727
1761914843590603000,0.84260302734375,-0.6320679783821106,1.2381595373153687,-0.6546840667724609
1761914843600658200,0.852658203125,-0.6365793943405151,1.4273701906204224,-0.6135313510894775
1761914843610713000,0.862713134765625,-0.6279478073120117,1.5356814861297607,-0.5241572260856628
1761914843620768000,0.87276806640625,-0.6281632781028748,1.5135018825531006,-0.43368884921073914
1761914843630823200,0.8828232421875,-0.6372156143188477,1.3962095975875854,-0.37219861149787903
1761914843640878000,0.892878173828125,-0.6471459865570068,1.228580117225647,-0.31367775797843933
1761914843650933000,0.90293310546875,-0.6410279273986816,1.0189763307571411,-0.23707886040210724
1761914843660988200,0.91298828125,-0.6100095510482788,0.7768155932426453,-0.10644814372062683
1761914843671043000,0.92304296875,-0.5684040784835815,0.5603379011154175,0.08288023620843887
1761914843681098000,0.933097900390625,-0.542076826095581,0.38708245754241943,0.27837491035461426
1761914843691153200,0.943153076171875,-0.5535318851470947,0.2447759211063385,0.433695524930954
1761914843701208000,0.9532080078125,-0.5881543159484863,0.16461344063282013,0.5031172037124634
1761914843711263200,0.96326318359375,-0.6494203209877014,0.11011052131652832,0.4997142255306244
1761914843721319000,0.97331884765625,-0.7246922254562378,0.05781456455588341,0.4201189875602722
1761914843731374000,0.9833740234375,-0.7985208630561829,0.03239096328616142,0.292781263589859
1761914843741429000,0.993428955078125,-0.8068728446960449,0.15398797392845154,0.1884487420320511
1761914843751484200,1.003484130859375,-0.7711547613143921,0.5345715284347534,0.0554206483066082
1761914843761539000,1.0135390625,-0.7371640205383301,1.0555492639541626,-0.21773818135261536
1761914843771594000,1.023593994140625,-0.6746143698692322,1.5203683376312256,-0.6629660129547119
1761914843781649200,1.033649169921875,-0.5894763469696045,1.7576831579208374,-1.2219698429107666
1761914843791704000,1.0437041015625,-0.5028061270713806,1.5591806173324585,-1.797236680984497
1761914843801759000,1.053759033203125,-0.41341739892959595,0.9919132590293884,-2.252035140991211
1761914843811814100,1.063814208984375,-0.2907665967941284,0.4301535189151764,-2.401841163635254
1761914843821869000,1.073869140625,-0.11327755451202393,0.2595841586589813,-2.234034299850464
1761914843831924000,1.083924072265625,0.1298120617866516,0.4919484257698059,-1.8612054586410522
1761914843841979100,1.093979248046875,0.3486163020133972,0.7682734727859497,-1.5198590755462646
1761914843852034000,1.104033935546875,0.4266565144062042,0.7217425107955933,-1.3570771217346191
1761914843862089200,1.114089111328125,0.311985045671463,0.3055780231952667,-1.3459240198135376
1761914843872144000,1.124143798828125,0.04441433772444725,-0.1925492137670517,-1.3253815174102783
1761914843882199000,1.134198974609375,-0.2027222216129303,-0.6179761290550232,-1.2045602798461914
1761914843892254200,1.144254150390625,-0.3199457824230194,-0.973116397857666,-1.0175880193710327
1761914843902309000,1.15430908203125,-0.2834010720252991,-1.027155876159668,-0.814578652381897
1761914843912364000,1.164364013671875,-0.19909073412418365,-0.6447957754135132,-0.558972179889679
1761914843922419000,1.1744189453125,-0.09908370673656464,-0.20786984264850616,-0.30602943897247314
1761914843932474000,1.18447412109375,-0.0173259936273098,-0.14636041224002838,-0.2332708090543747
1761914843942529000,1.194529052734375,-0.007642739452421665,-0.48738643527030945,-0.4222226142883301
1761914843952584000,1.204583984375,0.011406585574150085,-0.8971337676048279,-0.7435321807861328
1761914843962639000,1.21463916015625,0.10663536936044693,-1.0535051822662354,-1.0495020151138306
1761914843972694300,1.2246943359375,0.2843545079231262,-1.0016162395477295,-1.2629791498184204
1761914843982750200,1.234750244140625,0.46053457260131836,-0.9561757445335388,-1.3660706281661987
1761914843992805000,1.24480517578125,0.5660365223884583,-1.0343352556228638,-1.3176519870758057
1761914844002860000,1.254860107421875,0.5625847578048706,-1.0843675136566162,-1.1079058647155762
1761914844012915200,1.264915283203125,0.5183259844779968,-1.1655523777008057,-0.7845771312713623
1761914844022969900,1.274969970703125,0.46941035985946655,-1.2948579788208008,-0.428727388381958
1761914844033025000,1.28502490234375,0.37414535880088806,-1.4877890348434448,-0.1224132627248764
1761914844043080200,1.295080078125,0.12293684482574463,-1.7101882696151733,0.02286590076982975
1761914844053135000,1.305135009765625,-0.1633947789669037,-1.927557349205017,0.02870195172727108
1761914844063190000,1.31518994140625,-0.25989416241645813,-2.2030892372131348,0.009753827005624771
1761914844073245000,1.325244873046875,-0.10787107050418854,-2.2306621074676514,0.06609326601028442
1761914844083300000,1.335300048828125,0.29665830731391907,-1.8457274436950684,0.2799339294433594
1761914844093355300,1.345355224609375,0.6516185402870178,-1.2022454738616943,0.5961257219314575
1761914844103410000,1.355409912109375,0.7692753672599792,-0.5259572863578796,0.8594254851341248
1761914844113465000,1.365465087890625,0.7592073082923889,-0.01164626982063055,1.043419361114502
1761914844123520300,1.375520263671875,0.776539146900177,0.138899028301239,1.1503132581710815
1761914844133575000,1.385574951171875,0.8527015447616577,0.022355372086167336,1.2108945846557617
1761914844143630000,1.395630126953125,0.8891099095344543,-0.19454844295978546,1.2384873628616333
1761914844153685000,1.40568505859375,0.7896589636802673,-0.506953239440918,1.2294310331344604
1761914844163740200,1.415740234375,0.5416382551193237,-0.8660533428192139,1.165136694908142
1761914844173795000,1.425795166015625,0.18625536561012268,-1.086545467376709,1.0606094598770142
1761914844183850000,1.43585009765625,-0.17330308258533478,-1.0807557106018066,0.9182334542274475
1761914844193905200,1.4459052734375,-0.4375517666339874,-0.9855312705039978,0.7714517116546631
1761914844203960000,1.4559599609375,-0.5595330595970154,-0.8519628047943115,0.6606812477111816
1761914844214015000,1.466014892578125,-0.580096960067749,-0.6539549231529236,0.594889223575592
1761914844224070100,1.476070068359375,-0.5626633763313293,-0.44187673926353455,0.5388957262039185
1761914844234125000,1.486125,-0.5418291687965393,-0.236237034201622,0.4951290488243103
1761914844244181200,1.49618115234375,-0.5310928821563721,-0.09188997745513916,0.46083498001098633
1761914844254235400,1.5062353515625,-0.5321621894836426,-0.04598267003893852,0.4156999886035919
1761914844264290600,1.51629052734375,-0.4896993935108185,-0.07869214564561844,0.389242559671402
1761914844274345700,1.526345703125,-0.34771430492401123,-0.2432536631822586,0.4455455243587494
1761914844284400400,1.536400390625,-0.15080974996089935,-0.46797120571136475,0.594306468963623
1761914844294455600,1.54645556640625,0.02672748453915119,-0.6828406453132629,0.7351735830307007
1761914844304510700,1.5565107421875,0.1014174371957779,-1.0012356042861938,0.7125077247619629
1761914844314565600,1.566565673828125,-0.04146461933851242,-1.6196469068527222,0.43327394127845764
1761914844324620500,1.57662060546875,-0.3755105137825012,-2.334693431854248,0.12106490880250931
1761914844334675500,1.586675537109375,-0.6693351864814758,-2.6130616664886475,0.13066400587558746
1761914844344730600,1.596730712890625,-0.8176026940345764,-2.2705442905426025,0.4616227447986603
1761914844354785800,1.606785888671875,-0.8094885945320129,-1.4601994752883911,0.8335113525390625
1761914844364840400,1.61684033203125,-0.7110469341278076,-0.6170696020126343,0.9311066269874573
1761914844374895600,1.6268955078125,-0.5980293154716492,-0.07558344304561615,0.7377992272377014
1761914844384950500,1.636950439453125,-0.4701366126537323,0.25038108229637146,0.5164852142333984
1761914844395005400,1.64700537109375,-0.3474181592464447,0.32955846190452576,0.3810964822769165
1761914844405060600,1.657060546875,-0.2788606584072113,0.2672886848449707,0.31792470812797546
1761914844415115500,1.667115478515625,-0.2492540329694748,0.2236272394657135,0.25148043036460876
1761914844425170700,1.677170654296875,-0.19475802779197693,0.12452222406864166,0.11110841482877731
1761914844435225600,1.6872255859375,-0.08920098096132278,-0.03431696072220802,-0.08856262266635895
1761914844445280500,1.697280517578125,0.043717388063669205,-0.19825902581214905,-0.28029051423072815
1761914844455335700,1.707335693359375,0.18674218654632568,-0.35870489478111267,-0.44185757637023926
1761914844465390600,1.717390625,0.3730827569961548,-0.46617355942726135,-0.5974493026733398
1761914844475445500,1.727445556640625,0.5951166152954102,-0.47551167011260986,-0.7642577290534973
1761914844485500700,1.737500732421875,0.7877795696258545,-0.3612079918384552,-0.8927310109138489
1761914844495555600,1.7475556640625,0.9189165234565735,-0.09795266389846802,-0.9438019394874573
1761914844505610500,1.757610595703125,0.9927055239677429,0.24778982996940613,-0.9682263135910034
1761914844515665400,1.76766552734375,1.0134265422821045,0.568524181842804,-0.982380211353302
1761914844525720600,1.777720458984375,0.9759902358055115,0.756146252155304,-0.996731698513031
1761914844535776500,1.787776611328125,0.9199551939964294,0.7479436993598938,-0.9980470538139343
1761914844545831700,1.797831787109375,0.8639065623283386,0.5548994541168213,-0.9685661196708679
1761914844555886600,1.807886474609375,0.7795197367668152,0.2992303669452667,-0.9142925143241882
1761914844565941500,1.81794140625,0.6613134741783142,0.061110224574804306,-0.8593618869781494
1761914844575996700,1.82799658203125,0.5193720459938049,-0.11715538799762726,-0.840561032295227
1761914844586051600,1.838051513671875,0.34711775183677673,-0.196770578622818,-0.8883269429206848
1761914844596106500,1.8481064453125,0.16097582876682281,-0.095516137778759,-1.0048378705978394
1761914844606161700,1.85816162109375,0.029137112200260162,0.13777491450309753,-1.1196688413619995
1761914844616216600,1.868216552734375,-0.047629568725824356,0.38459694385528564,-1.1918755769729614
1761914844626271500,1.878271484375,-0.08473273366689682,0.6087054014205933,-1.1859275102615356
1761914844636326700,1.88832666015625,-0.07715284079313278,0.7888096570968628,-1.111661434173584
1761914844646381600,1.898381591796875,-0.022937273606657982,0.8510751724243164,-1.0078784227371216
1761914844656436700,1.908436767578125,0.05799219757318497,0.8067977428436279,-0.8898481130599976
1761914844666491400,1.918491455078125,0.15913505852222443,0.7184047698974609,-0.7282075881958008
1761914844676546600,1.928546630859375,0.27684757113456726,0.5689084529876709,-0.54207843542099
1761914844686601700,1.938601806640625,0.35563212633132935,0.45475631952285767,-0.3623398542404175
1761914844696656400,1.948656494140625,0.3748582899570465,0.414306640625,-0.1873408704996109
1761914844706711600,1.958711669921875,0.31616276502609253,0.384942889213562,-0.03525226190686226
1761914844716766700,1.9687666015625,0.21540366113185883,0.32798105478286743,0.07786097377538681
1761914844726821600,1.978821533203125,0.10699702054262161,0.257548451423645,0.15535816550254822
1761914844736876500,1.98887646484375,0.040347687900066376,0.17039330303668976,0.2372186779975891
1761914844746931500,1.998931396484375,0.011651862412691116,0.044083572924137115,0.3306490182876587
1761914844756986600,2.008986572265625,0.0026844663079828024,-0.15400181710720062,0.4081789553165436
1761914844767041800,2.019041748046875,-0.0109253516420722,-0.35043710470199585,0.47367727756500244
1761914844777096400,2.029096435546875,-0.0532698780298233,-0.5102355480194092,0.5351739525794983
1761914844787151600,2.039151611328125,-0.14652977883815765,-0.6253352761268616,0.5967680811882019
1761914844797206500,2.04920654296875,-0.2563026249408722,-0.7684764266014099,0.691961944103241
1761914844807261400,2.059261474609375,-0.366791307926178,-0.8945510387420654,0.8463845252990723
1761914844817316600,2.069316650390625,-0.4722421169281006,-1.0270973443984985,1.0315533876419067
1761914844827372500,2.07937255859375,-0.6148895621299744,-1.1885539293289185,1.0836654901504517
1761914844837427700,2.089427734375,-0.7953208088874817,-1.3312228918075562,0.9656752347946167
1761914844847482600,2.099482666015625,-0.999500572681427,-1.3419817686080933,0.7774779200553894
1761914844857537500,2.10953759765625,-1.2501338720321655,-1.080186128616333,0.7262663841247559
1761914844867592400,2.119592529296875,-1.456472396850586,-0.5853990316390991,0.891605794429779
1761914844877647600,2.129647705078125,-1.5049430131912231,-0.17458884418010712,1.0816620588302612
1761914844887702500,2.13970263671875,-1.3364919424057007,0.08521290123462677,1.2070382833480835
1761914844897757400,2.14975732421875,-1.0007935762405396,0.2508801519870758,1.299618124961853
1761914844907812600,2.1598125,-0.6172949075698853,0.2340622991323471,1.3121380805969238
1761914844917867800,2.16986767578125,-0.3091732859611511,0.13736851513385773,1.1811162233352661
1761914844927922400,2.17992236328125,-0.11339925974607468,0.1301494836807251,0.975726842880249
1761914844937977600,2.1899775390625,0.06296884268522263,0.21610885858535767,0.7372122406959534
1761914844948032500,2.200032470703125,0.2709425389766693,0.36692073941230774,0.4871685802936554
1761914844958087700,2.210087646484375,0.5028844475746155,0.4817887544631958,0.23840084671974182
1761914844968142600,2.220142578125,0.686644434928894,0.6054465174674988,-0.027166374027729034
1761914844978197500,2.230197509765625,0.7961583733558655,0.7170090079307556,-0.3810727894306183
1761914844988252700,2.240252685546875,0.8878062963485718,0.7487304210662842,-0.7725236415863037
1761914844998307600,2.2503076171875,0.996351957321167,0.7443809509277344,-1.038341760635376
1761914845008362500,2.260362548828125,1.0996352434158325,0.6665316820144653,-1.1554715633392334
1761914845018417700,2.270417724609375,1.1368110179901123,0.5388288497924805,-1.1718422174453735
1761914845028472600,2.28047265625,1.0981321334838867,0.41895732283592224,-1.1455092430114746
1761914845038527500,2.290527587890625,1.0449591875076294,0.34032002091407776,-1.1686811447143555
1761914845048582700,2.300582763671875,1.0134649276733398,0.31429001688957214,-1.2591912746429443
1761914845058637600,2.310637451171875,0.9827336072921753,0.37794196605682373,-1.419100284576416
1761914845068692700,2.320692626953125,0.9167566895484924,0.5073777437210083,-1.6129165887832642
1761914845078747400,2.330747314453125,0.8120419979095459,0.6582143902778625,-1.7824273109436035
1761914845088802600,2.340802490234375,0.6803053021430969,0.7956430912017822,-1.875714659690857
1761914845098857700,2.350857666015625,0.5247343182563782,0.9363881945610046,-1.8498966693878174
1761914845108912400,2.360912353515625,0.3693743050098419,1.047611951828003,-1.689811110496521
1761914845118967600,2.370967529296875,0.2267354130744934,1.0968327522277832,-1.3776262998580933
1761914845129022700,2.381022705078125,0.10309762507677078,1.0607362985610962,-0.9491199851036072
1761914845139077600,2.39107763671875,0.004701278172433376,0.969841480255127,-0.48326733708381653
1761914845149133600,2.401133544921875,-0.06408604234457016,0.8082496523857117,-0.057305365800857544
1761914845159188500,2.4111884765625,-0.09299945086240768,0.635251522064209,0.2918635308742523
1761914845169243600,2.42124365234375,-0.0688946470618248,0.41653355956077576,0.5413482189178467
1761914845179298600,2.431298583984375,0.012911004945635796,0.16378360986709595,0.6864619851112366
1761914845189353500,2.441353515625,0.112973153591156,-0.13739460706710815,0.7395273447036743
1761914845199408600,2.45140869140625,0.19377745687961578,-0.4314675033092499,0.7439114451408386
1761914845209463600,2.461463623046875,0.21560180187225342,-0.6094551086425781,0.7532836198806763
1761914845219518700,2.471518798828125,0.1699509620666504,-0.6421490907669067,0.7663128972053528
1761914845229573400,2.481573486328125,0.07210162281990051,-0.5725937485694885,0.7931380867958069
1761914845239628500,2.491628662109375,-0.06421706825494766,-0.42313554883003235,0.8016412854194641
1761914845249683700,2.50168359375,-0.21102355420589447,-0.26160818338394165,0.8099783062934875
1761914845259742700,2.51174267578125,-0.3244475722312927,-0.11155715584754944,0.8398699164390564
1761914845269798000,2.5217978515625,-0.4143471121788025,-0.029645243659615517,0.8845945000648499
1761914845279852800,2.531852783203125,-0.4737286865711212,-0.032110799103975296,0.9507107138633728
1761914845289908000,2.541907958984375,-0.49690112471580505,-0.10182010382413864,1.0305259227752686
1761914845299963000,2.551962890625,-0.48372459411621094,-0.22101467847824097,1.1153709888458252
1761914845310017800,2.562017822265625,-0.3830757439136505,-0.3475891351699829,1.2407819032669067
1761914845320073000,2.572072998046875,-0.24920369684696198,-0.5582776665687561,1.3244390487670898
1761914845330127600,2.582127685546875,-0.20220662653446198,-0.8743118047714233,1.2477834224700928
1761914845340182800,2.592182861328125,-0.31507325172424316,-1.1630780696868896,1.023038387298584
1761914845350238000,2.602238037109375,-0.5278893709182739,-1.3519049882888794,0.706375002861023
1761914845360292900,2.61229296875,-0.775124728679657,-1.4096343517303467,0.39920464158058167
1761914845370347800,2.62234765625,-0.9758034944534302,-1.223726511001587,0.25864967703819275
1761914845380402700,2.632402587890625,-1.0572967529296875,-0.8741892576217651,0.28625917434692383
1761914845390457900,2.642457763671875,-1.0309841632843018,-0.5094954967498779,0.40540769696235657
1761914845400513000,2.652512939453125,-0.917384684085846,-0.15251870453357697,0.5625302195549011
1761914845410567700,2.662567626953125,-0.7536647319793701,0.1446908712387085,0.711521565914154
1761914845420622800,2.672622802734375,-0.6631923317909241,0.13228453695774078,0.766739547252655
1761914845430678000,2.682677978515625,-0.6446016430854797,-0.06082766503095627,0.8695873618125916
1761914845440732700,2.692732666015625,-0.6288354396820068,-0.33371883630752563,1.048372507095337
1761914845450787800,2.702787841796875,-0.5706227421760559,-0.6252649426460266,1.2129279375076294
1761914845460842800,2.7128427734375,-0.4628259539604187,-0.786925733089447,1.2984862327575684
1761914845470899000,2.72289892578125,-0.29191628098487854,-0.798797607421875,1.3215209245681763
1761914845480953900,2.732953857421875,-0.10183954238891602,-0.6453246474266052,1.267583966255188
1761914845491008800,2.7430087890625,0.05828674137592316,-0.46946150064468384,1.0352787971496582
1761914845501064000,2.75306396484375,0.1870308667421341,-0.35476821660995483,0.6220044493675232
1761914845511118800,2.763118896484375,0.3413962125778198,-0.25309696793556213,0.16376949846744537
1761914845521173800,2.773173828125,0.5757048726081848,-0.11275477707386017,-0.19404511153697968
1761914845531228700,2.783228759765625,0.8199617266654968,0.10250160843133926,-0.3753557801246643
1761914845541283800,2.793283935546875,0.9998174905776978,0.39640647172927856,-0.435230553150177
1761914845551339000,2.803339111328125,1.0793397426605225,0.6629214882850647,-0.5288324356079102
1761914845561393700,2.8133935546875,1.0413873195648193,0.8679340481758118,-0.7422120571136475
1761914845571448800,2.82344873046875,0.8484072089195251,1.0333315134048462,-1.0683441162109375
1761914845581503700,2.833503662109375,0.5474066138267517,1.1012413501739502,-1.4461934566497803
1761914845591559000,2.843558837890625,0.22413456439971924,1.0370732545852661,-1.800014853477478
1761914845601613800,2.85361376953125,-0.0642562210559845,0.8877783417701721,-2.0265073776245117
1761914845611668700,2.863668701171875,-0.28261253237724304,0.7276195287704468,-2.0671420097351074
1761914845621724000,2.873723876953125,-0.44284212589263916,0.6001782417297363,-1.9282293319702148
1761914845631778800,2.88377880859375,-0.5322988033294678,0.5155400633811951,-1.6453485488891602
1761914845641833700,2.893833740234375,-0.5519302487373352,0.47404879331588745,-1.262514591217041
1761914845651889000,2.903888916015625,-0.4935188889503479,0.46371838450431824,-0.8298606872558594
1761914845661943800,2.91394384765625,-0.4020768702030182,0.47862836718559265,-0.40724819898605347
1761914845671998700,2.923998779296875,-0.29279884696006775,0.4964659512042999,-0.01924959383904934
1761914845682054000,2.934053955078125,-0.16719751060009003,0.5156643986701965,0.3225410282611847
1761914845692108800,2.94410888671875,-0.030417026951909065,0.5061574578285217,0.5928968787193298
1761914845702164000,2.9541640625,0.0889543741941452,0.472848504781723,0.7658819556236267
1761914845712219000,2.964218994140625,0.17248842120170593,0.41754424571990967,0.8329390287399292
1761914845722273800,2.974273681640625,0.22081813216209412,0.31042736768722534,0.7927199602127075
1761914845732329000,2.984328857421875,0.2292632758617401,0.17363037168979645,0.6897150278091431
1761914845742383600,2.994383544921875,0.18703992664813995,0.046904657036066055,0.5724957585334778
1761914845752438800,3.004438720703125,0.09694945067167282,-0.07624683529138565,0.4614794850349426
1761914845762494000,3.014493896484375,-0.006042712368071079,-0.15624339878559113,0.38035720586776733
1761914845772548900,3.024548828125,-0.10925111919641495,-0.17254620790481567,0.3298588693141937
1761914845782603800,3.034603759765625,-0.20702429115772247,-0.13095028698444366,0.3253650367259979
1761914845792659700,3.04465966796875,-0.27183258533477783,-0.04791399464011192,0.3668171465396881
1761914845802715000,3.05471484375,-0.3263799846172333,0.03314889967441559,0.42882218956947327
1761914845812769800,3.064769775390625,-0.36248019337654114,0.06314142048358917,0.5266438126564026
1761914845822824700,3.07482470703125,-0.34961339831352234,0.05348985642194748,0.7030710577964783
1761914845832879900,3.0848798828125,-0.293337881565094,-0.02304406650364399,0.9042624831199646
1761914845842934800,3.094934814453125,-0.25467783212661743,-0.07964236289262772,1.1303735971450806
1761914845852990000,3.104989990234375,-0.26113706827163696,-0.09826398640871048,1.297167420387268
1761914845863044900,3.115044921875,-0.37948766350746155,-0.23364178836345673,1.2238154411315918
1761914845873099800,3.125099853515625,-0.6613382697105408,-0.5973478555679321,0.8827587962150574
1761914845883155000,3.135155029296875,-1.028039813041687,-1.0609517097473145,0.5829808712005615
1761914845893209900,3.1452099609375,-1.3262749910354614,-1.312416434288025,0.6067495942115784
1761914845903264800,3.1552646484375,-1.4602354764938354,-1.2075730562210083,0.9199823141098022
1761914845913320000,3.16531982421875,-1.3543606996536255,-0.8393218517303467,1.251796007156372
1761914845923374800,3.175374755859375,-1.0577348470687866,-0.5055454969406128,1.3564767837524414
1761914845933429800,3.1854296875,-0.6873189806938171,-0.3140258491039276,1.2004233598709106
1761914845943484700,3.195484619140625,-0.32789769768714905,-0.23922216892242432,0.8359524011611938
1761914845953539800,3.205539794921875,-0.036497291177511215,-0.33409249782562256,0.342650830745697
1761914845963595000,3.215594970703125,0.2025962471961975,-0.37501221895217896,-0.08279953896999359
1761914845973649700,3.225649658203125,0.4692697525024414,-0.26816675066947937,-0.3574385643005371
1761914845983704800,3.235704833984375,0.7066364884376526,-0.05993630364537239,-0.5642263293266296
1761914845993759700,3.245759765625,0.8931797742843628,0.1843794286251068,-0.7682915925979614
1761914846003815000,3.25581494140625,1.017000436782837,0.3932221233844757,-1.0291352272033691
1761914846013869800,3.265869873046875,1.1019971370697021,0.5682530403137207,-1.364928960800171
1761914846023924700,3.2759248046875,1.1631499528884888,0.6866382956504822,-1.7137370109558105
1761914846033980000,3.28597998046875,1.1702414751052856,0.7800065875053406,-1.9370843172073364
1761914846044034800,3.296034912109375,1.0786385536193848,0.9363479614257812,-1.9708771705627441
1761914846054089700,3.30608984375,0.8919035792350769,1.127181887626648,-1.848949909210205
1761914846064145000,3.316144775390625,0.6439547538757324,1.261460781097412,-1.6670509576797485
1761914846074199800,3.32619970703125,0.3873639702796936,1.202580213546753,-1.4630365371704102
1761914846084254700,3.336254638671875,0.1934938281774521,0.9231030344963074,-1.2121933698654175
1761914846094310000,3.346309814453125,0.0666983351111412,0.524890124797821,-0.8592748045921326
1761914846104364800,3.35636474609375,-0.013233779929578304,0.11786991357803345,-0.5048895478248596
1761914846114420000,3.366419921875,-0.12912389636039734,-0.19341419637203217,-0.2806127667427063
1761914846124475600,3.3764755859375,-0.29897525906562805,-0.3356826603412628,-0.2632598578929901
1761914846134530800,3.38653076171875,-0.43455544114112854,-0.29458823800086975,-0.35736319422721863
1761914846144585700,3.396585693359375,-0.480991929769516,-0.11738335341215134,-0.4366888999938965
1761914846154641000,3.406640869140625,-0.4493865966796875,0.08998554944992065,-0.4431265592575073
1761914846164695800,3.41669580078125,-0.3690217137336731,0.267976850271225,-0.36216673254966736
1761914846174750700,3.426750732421875,-0.2623107135295868,0.371012419462204,-0.2370157390832901
1761914846184806000,3.436805908203125,-0.16736209392547607,0.37112826108932495,-0.10645720362663269
1761914846194861000,3.446861083984375,-0.09286948293447495,0.2733857333660126,0.035528965294361115
1761914846204915700,3.456915771484375,-0.04354587942361832,0.1156320571899414,0.20945122838020325
1761914846214971000,3.466970947265625,-0.006774016655981541,-0.04032931476831436,0.43363213539123535
1761914846225025800,3.47702587890625,0.02135349251329899,-0.14747308194637299,0.693743884563446
1761914846235080700,3.487080810546875,0.03618010878562927,-0.17036081850528717,0.9362078905105591
1761914846245136000,3.497135986328125,0.036495693027973175,-0.14876604080200195,1.0825227499008179
1761914846255190800,3.507190673828125,0.015902267768979073,-0.1154450997710228,1.1085034608840942
1761914846265246000,3.517245849609375,-0.045274537056684494,-0.12562903761863708,1.0441285371780396
1761914846275300900,3.52730078125,-0.1354912519454956,-0.21291279792785645,0.9490616321563721
1761914846285356000,3.53735595703125,-0.2518916130065918,-0.3552662134170532,0.8700485825538635
1761914846295411000,3.547410888671875,-0.3755507171154022,-0.49543291330337524,0.8192349672317505
1761914846305465900,3.5574658203125,-0.4820933938026428,-0.6002288460731506,0.7886176705360413
1761914846315521000,3.56752099609375,-0.5708797574043274,-0.640925407409668,0.7906493544578552
1761914846325576200,3.577576171875,-0.629347562789917,-0.6329255104064941,0.8267226815223694
1761914846335630800,3.587630859375,-0.6143577098846436,-0.5569849610328674,0.932695746421814
1761914846345686000,3.59768603515625,-0.49392688274383545,-0.43442147970199585,1.1230089664459229
1761914846355741000,3.607740966796875,-0.2787195146083832,-0.3459310531616211,1.298129916191101
1761914846365795800,3.6177958984375,-0.05967264994978905,-0.374895304441452,1.3442518711090088
1761914846375851000,3.62785107421875,0.048052214086055756,-0.6099818348884583,1.1600077152252197
1761914846385906000,3.637906005859375,-0.00027563716867007315,-1.1274378299713135,0.7471154928207397
1761914846395961000,3.647961181640625,-0.08504512161016464,-1.6640993356704712,0.359991192817688
1761914846406016000,3.65801611328125,-0.1572769731283188,-1.9670501947402954,0.23164094984531403
1761914846416071000,3.66807080078125,-0.2916092276573181,-2.0822837352752686,0.1848236471414566
1761914846426126000,3.6781259765625,-0.4646454453468323,-1.9606164693832397,0.0815981924533844
1761914846436180700,3.6881806640625,-0.5904787182807922,-1.5789532661437988,0.004372111521661282
1761914846446236000,3.69823583984375,-0.712945282459259,-1.0713238716125488,0.03815164789557457
1761914846456291800,3.708291748046875,-0.7884114980697632,-0.5314494967460632,0.24177613854408264
1761914846466347000,3.718346923828125,-0.744859516620636,-0.17986802756786346,0.4687584340572357
1761914846476402000,3.72840185546875,-0.5973398089408875,-0.23604156076908112,0.4830896854400635
1761914846486456800,3.738456787109375,-0.3765169084072113,-0.5828671455383301,0.23290595412254333
1761914846496512000,3.748511962890625,-0.156102254986763,-0.9077975749969482,-0.1115206703543663
1761914846506567000,3.75856689453125,0.004588626325130463,-0.9974097609519958,-0.37158259749412537
1761914846516622000,3.7686220703125,0.13816586136817932,-0.9167913198471069,-0.4967442452907562
1761914846526677000,3.778677001953125,0.2587745785713196,-0.8442206978797913,-0.5844216346740723
1761914846536732000,3.78873193359375,0.3496709167957306,-0.7243713140487671,-0.6739832162857056
1761914846546787000,3.798787109375,0.40488383173942566,-0.5422643423080444,-0.7948643565177917
1761914846556841700,3.808841796875,0.44411778450012207,-0.32077667117118835,-0.9464672207832336
1761914846566897000,3.81889697265625,0.49371835589408875,-0.038896799087524414,-1.0677003860473633
1761914846576952000,3.8289521484375,0.5656183958053589,0.32599329948425293,-1.1041151285171509
1761914846587007000,3.839007080078125,0.6015665531158447,0.7124350070953369,-1.0614103078842163
1761914846597062000,3.849061767578125,0.5537742376327515,1.0226293802261353,-0.9812078475952148
1761914846607117000,3.859116943359375,0.4347866177558899,1.180457353591919,-0.9036648869514465
1761914846617172000,3.869171875,0.28800541162490845,1.1771975755691528,-0.8175302743911743
1761914846627227100,3.87922705078125,0.12832015752792358,1.0449833869934082,-0.7075079083442688
1761914846637281800,3.88928173828125,-0.01709216833114624,0.7943437099456787,-0.5891197323799133
1761914846647337000,3.8993369140625,-0.1292048543691635,0.5233675837516785,-0.5144023299217224
1761914846657392000,3.90939208984375,-0.2080586552619934,0.33845022320747375,-0.4867400825023651
1761914846667446800,3.91944677734375,-0.2554109990596771,0.30865105986595154,-0.4820326864719391
1761914846677502000,3.929501953125,-0.2677699327468872,0.4392700493335724,-0.46431681513786316
1761914846687556900,3.939556884765625,-0.24804602563381195,0.7138012051582336,-0.41354337334632874
1761914846697612000,3.949612060546875,-0.20571960508823395,1.0345451831817627,-0.31909623742103577
1761914846707667000,3.9596669921875,-0.14277499914169312,1.3291466236114502,-0.14776922762393951
1761914846717721900,3.969721923828125,-0.06444130837917328,1.573548674583435,0.0952753871679306
1761914846727777000,3.979777099609375,0.01738431677222252,1.728073239326477,0.3858683407306671
1761914846737832000,3.98983203125,0.07534296065568924,1.7929599285125732,0.691967248916626
1761914846747885000,3.999885009765625,0.07128163427114487,1.7403606176376343,0.9424570202827454
1761914846757940000,4.00993994140625,0.036192093044519424,1.527524471282959,1.113441824913025
1761914846767995000,4.019994873046875,0.015353922732174397,1.1943577527999878,1.2224109172821045
1761914846778050000,4.030050048828125,-0.0362088717520237,0.8361274003982544,1.3005709648132324
1761914846788105000,4.04010498046875,-0.163595050573349,0.5173283815383911,1.375038504600525
1761914846798160000,4.050159912109375,-0.3408912718296051,0.3010687530040741,1.4395115375518799
1761914846808214800,4.06021484375,-0.5082679986953735,0.13720420002937317,1.5421103239059448
1761914846818270000,4.07027001953125,-0.5659371614456177,0.07245049625635147,1.7468125820159912
1761914846828325000,4.0803251953125,-0.4670766294002533,-0.12020363658666611,1.9036674499511719
1761914846838379800,4.0903798828125,-0.3301595449447632,-0.32053834199905396,1.9690568447113037
1761914846848435000,4.10043505859375,-0.2655392587184906,-0.5482000112533569,1.9624301195144653
1761914846858490000,4.110489990234375,-0.21269655227661133,-0.7505009174346924,1.9228962659835815
1761914846868545000,4.120544921875,-0.17959612607955933,-0.7880248427391052,1.929439902305603
1761914846878600000,4.130599853515625,-0.12549453973770142,-0.6188017129898071,1.988150715827942
1761914846888654800,4.14065478515625,-0.005155080929398537,-0.4737236201763153,1.864408016204834
1761914846898710000,4.1507099609375,0.10717731714248657,-0.5569708347320557,1.513258457183838
1761914846908765000,4.160764892578125,0.2615216076374054,-0.6336531043052673,1.1436878442764282
1761914846918819800,4.17081982421875,0.3123781383037567,-0.7617189288139343,0.7735822200775146
1761914846928875000,4.180875,0.13462145626544952,-1.0035771131515503,0.35584065318107605
1761914846938930000,4.190929931640625,-0.1532883495092392,-1.1827093362808228,0.10598848760128021
1761914846948984800,4.20098486328125,-0.34286946058273315,-1.0545928478240967,0.1794603019952774
1761914846959040000,4.2110400390625,-0.48450595140457153,-0.7614856362342834,0.4462352693080902
1761914846969095000,4.221094970703125,-0.5340873599052429,-0.4750743806362152,0.7287207841873169
1761914846979150000,4.231150146484375,-0.43190133571624756,-0.19106769561767578,0.810530960559845
1761914846989205000,4.241205078125,-0.24530376493930817,-0.021090371534228325,0.5802777409553528
1761914846999260000,4.251260009765625,-0.07085899263620377,0.03826216608285904,0.18781037628650665
1761914847009315000,4.261315185546875,0.08147355169057846,0.16879327595233917,-0.2245904952287674
1761914847019371000,4.27137109375,0.2100730687379837,0.40239617228507996,-0.6233525276184082
1761914847029426000,4.281426025390625,0.3136972188949585,0.6995759010314941,-1.0013285875320435
1761914847039480800,4.291480712890625,0.360812783241272,0.9367932677268982,-1.3591327667236328
1761914847049536000,4.301535888671875,0.2552408277988434,0.9687424302101135,-1.6937198638916016
1761914847059591200,4.311591064453125,0.12161857634782791,0.7652683854103088,-1.9448298215866089
1761914847069645800,4.321645751953125,0.08533620089292526,0.4516089856624603,-1.9070302248001099
1761914847079701000,4.331700927734375,0.10236045718193054,0.0617389976978302,-1.5999422073364258
1761914847089756000,4.341755859375,0.09501306712627411,-0.3982701599597931,-1.1692638397216797
1761914847099810800,4.351810791015625,0.04513658583164215,-0.7818841338157654,-0.7110559940338135
1761914847109866000,4.361865966796875,-0.016324112191796303,-1.0381808280944824,-0.332154244184494
1761914847119921000,4.3719208984375,-0.07407103478908539,-1.1533607244491577,-0.07652539759874344
1761914847129976000,4.38197607421875,-0.09990076720714569,-1.0337821245193481,0.08228049427270889
1761914847140031000,4.392031005859375,-0.08754902333021164,-0.7139418125152588,0.14289216697216034
1761914847150086000,4.4020859375,-0.0432012677192688,-0.27005064487457275,0.09484848380088806
1761914847160141000,4.41214111328125,0.05988889932632446,0.1616368293762207,-0.0763469710946083
1761914847170196000,4.422196044921875,0.15685433149337769,0.5559870600700378,-0.3485494554042816
1761914847180251000,4.4322509765625,0.14138482511043549,0.8983638286590576,-0.6033143997192383
1761914847190306000,4.44230615234375,0.02527579478919506,1.1616088151931763,-0.7526082396507263
1761914847200361000,4.45236083984375,-0.1012272834777832,1.3196938037872314,-0.7581241726875305
1761914847210415900,4.462415771484375,-0.1683429330587387,1.3989864587783813,-0.6127403378486633
1761914847220470800,4.472470703125,-0.1975511610507965,1.491278886795044,-0.3557967245578766
1761914847230526000,4.48252587890625,-0.16711336374282837,1.5497946739196777,-0.050272759050130844
1761914847240581000,4.4925810546875,-0.04434536024928093,1.486801266670227,0.31487351655960083
1761914847250635800,4.5026357421875,0.10116762667894363,1.2697272300720215,0.6572348475456238
1761914847260686800,4.512686767578125,0.22216542065143585,0.8867064118385315,0.9262756705284119
1761914847270742000,4.522741943359375,0.2856868803501129,0.45454299449920654,1.1141557693481445
1761914847280796700,4.532796630859375,0.3005997836589813,0.13411040604114532,1.2128032445907593
1761914847290851800,4.542851806640625,0.2590334415435791,-0.07579728960990906,1.2153774499893188
1761914847300907000,4.552906982421875,0.1748082935810089,-0.13930755853652954,1.1598761081695557
1761914847310961700,4.562961669921875,0.17478059232234955,-0.01780216582119465,1.0749199390411377
1761914847321016800,4.573016845703125,0.17412225902080536,0.09978491812944412,0.9501397013664246
1761914847331074800,4.58307470703125,0.108760304749012,0.16271620988845825,0.7760134339332581
1761914847341129700,4.593129638671875,0.018131598830223083,0.2880192697048187,0.5828831195831299
1761914847351185000,4.603184814453125,-0.08963613957166672,0.5444140434265137,0.38018596172332764
1761914847361239800,4.61323974609375,-0.14612631499767303,0.8291821479797363,0.19098274409770966
1761914847371294700,4.623294677734375,-0.14730475842952728,0.905121922492981,0.03254995495080948
1761914847381350000,4.633349853515625,-0.14396463334560394,0.8370150327682495,-0.022645391523838043
1761914847391404800,4.64340478515625,-0.0639353096485138,0.6707450747489929,0.03960946202278137
1761914847401460000,4.6534599609375,0.04968792945146561,0.37282469868659973,0.0770588293671608
1761914847411515000,4.663514892578125,0.11995036900043488,-0.003918308764696121,-0.041198570281267166
1761914847421569800,4.67356982421875,0.05921565368771553,-0.32807934284210205,-0.34981605410575867
1761914847431625000,4.683625,-0.11088284105062485,-0.4264530539512634,-0.708175778388977
1761914847441679600,4.6936796875,-0.22923265397548676,-0.44312310218811035,-1.0215380191802979
1761914847451734800,4.70373486328125,-0.30205652117729187,-0.314405620098114,-1.289987325668335
1761914847461790000,4.7137900390625,-0.424171507358551,0.1272713989019394,-1.5322211980819702
1761914847471846000,4.723845947265625,-0.6339237093925476,0.7051845192909241,-1.817335844039917
1761914847481901000,4.733901123046875,-0.9121372103691101,1.1334704160690308,-2.1320207118988037
1761914847491955700,4.743955810546875,-1.1326147317886353,1.3337129354476929,-2.3182170391082764
1761914847502011000,4.754010986328125,-1.1604644060134888,1.2148329019546509,-2.299053192138672
1761914847512065800,4.764065673828125,-1.0281602144241333,0.6466634273529053,-2.105348587036133
1761914847522120700,4.77412060546875,-0.8106265664100647,-0.13458390533924103,-1.7953654527664185
1761914847532176000,4.78417578125,-0.5458239316940308,-0.8398022651672363,-1.4846851825714111
1761914847542230800,4.794230712890625,-0.2841571569442749,-1.2228285074234009,-1.2905633449554443
1761914847552286000,4.804285888671875,-0.09375205636024475,-1.1341066360473633,-1.2345634698867798
1761914847562340900,4.8143408203125,-0.04391499236226082,-0.6681389212608337,-1.2569340467453003
1761914847572395800,4.824395751953125,-0.11977886408567429,-0.3829428553581238,-1.4205306768417358
1761914847582451000,4.834450927734375,-0.15028643608093262,-0.5578606128692627,-1.6993846893310547
1761914847592505900,4.844505859375,-0.01811535470187664,-0.9616972804069519,-1.9175736904144287
1761914847602560800,4.854560791015625,0.1984180212020874,-1.156267523765564,-1.9546401500701904
1761914847612616000,4.864615966796875,0.3284042477607727,-0.9584450125694275,-1.8303536176681519
1761914847622670800,4.8746708984375,0.31910157203674316,-0.6652839779853821,-1.6270638704299927
1761914847632725800,4.884725830078125,0.2642284631729126,-0.5529382824897766,-1.3582710027694702
1761914847642780700,4.89478076171875,0.29624950885772705,-0.5144470930099487,-1.179718255996704
1761914847652835800,4.9048359375,0.36393773555755615,-0.8873319625854492,-1.0189661979675293
1761914847662891000,4.91489111328125,0.46831420063972473,-1.3630354404449463,-0.8808645009994507
1761914847672945700,4.924945556640625,0.5503936409950256,-1.619581699371338,-0.8939893245697021
1761914847683000800,4.935000732421875,0.5766936540603638,-1.4759470224380493,-0.9907606244087219
1761914847693055700,4.9450556640625,0.5101069211959839,-1.1503417491912842,-1.0762499570846558
1761914847703111000,4.95511083984375,0.39527061581611633,-0.7263002395629883,-1.061427116394043
1761914847713165800,4.965165771484375,0.2678476870059967,-0.16300010681152344,-0.9323612451553345
1761914847723220700,4.975220703125,0.08557216078042984,0.10905831307172775,-0.7396722435951233
1761914847733276000,4.98527587890625,-0.007099721115082502,0.09848342835903168,-0.44432446360588074
1761914847743330800,4.995330810546875,-0.07576959580183029,0.03476916626095772,-0.11023543030023575
1761914847753385700,5.0053857421875,-0.18014207482337952,-0.28551697731018066,0.19749975204467773
1761914847763441000,5.01544091796875,-0.26284468173980713,-0.5820695161819458,0.5024183988571167
1761914847773495800,5.025495849609375,-0.2784241735935211,-0.7591534852981567,0.813307523727417
1761914847783550700,5.03555078125,-0.2518748641014099,-0.8737794160842896,1.0679975748062134
1761914847793606000,5.04560595703125,-0.17944805324077606,-0.9565182328224182,1.2661982774734497
1761914847803661800,5.055661865234375,-0.10153461247682571,-1.1292740106582642,1.5249955654144287
1761914847813717000,5.065717041015625,-0.12974414229393005,-1.0045979022979736,1.5500606298446655
1761914847823771600,5.075771728515625,-0.2253444343805313,-0.6981458067893982,1.354720950126648
1761914847833826800,5.085826904296875,-0.3667585551738739,-0.451477974653244,1.0718456506729126
1761914847843881700,5.0958818359375,-0.5082099437713623,-0.2521299719810486,0.7233715653419495
1761914847853937000,5.10593701171875,-0.6255919933319092,-0.1306280493736267,0.44825342297554016
1761914847863991800,5.11599169921875,-0.7139071822166443,0.004353735595941544,0.32068347930908203
1761914847874046700,5.126046630859375,-0.7307649850845337,0.09606155008077621,0.342507541179657
1761914847884102000,5.136101806640625,-0.6329659819602966,0.3021681010723114,0.4373120963573456
1761914847894157000,5.146156982421875,-0.5561561584472656,0.5337472558021545,0.6487055420875549
1761914847904211700,5.156211669921875,-0.5283759236335754,0.6674595475196838,0.9372656941413879
1761914847914267000,5.166266845703125,-0.4944837689399719,0.6951748132705688,1.1580867767333984
1761914847924321800,5.17632177734375,-0.4077746868133545,0.4449172616004944,1.1804866790771484
1761914847934376700,5.186376708984375,-0.28485703468322754,-0.10701300203800201,0.9469694495201111
1761914847944431900,5.196431884765625,-0.20407457649707794,-0.4689509868621826,0.599004328250885
1761914847954486800,5.20648681640625,-0.16034945845603943,-0.37355202436447144,0.28536516427993774
1761914847964542000,5.2165419921875,-0.17317071557044983,-0.021322865039110184,0.014967231079936028
1761914847974596900,5.226596923828125,-0.2724080979824066,0.40288326144218445,-0.25189563632011414
1761914847984651800,5.23665185546875,-0.41294336318969727,0.9809349179267883,-0.4250439703464508
1761914847994707000,5.24670703125,-0.4708860218524933,1.5460115671157837,-0.4545632302761078
1761914848004761900,5.256761962890625,-0.5207193493843079,1.774605631828308,-0.3601430058479309
1761914848014816800,5.266816650390625,-0.5861284732818604,1.5251028537750244,-0.15338769555091858
1761914848024872000,5.276871826171875,-0.5994658470153809,0.9622421860694885,0.10002167522907257
1761914848034926800,5.2869267578125,-0.526232123374939,0.36689651012420654,0.3928162455558777
1761914848044981800,5.296981689453125,-0.3265211284160614,-0.125674307346344,0.6297094821929932
1761914848055036700,5.30703662109375,-0.02942340262234211,-0.5246421694755554,0.7574019432067871
1761914848065091800,5.317091796875,0.22504615783691406,-0.8156402111053467,0.7215861678123474
1761914848075147000,5.32714697265625,0.4107944667339325,-1.0488423109054565,0.5000020861625671
1761914848085201700,5.33720166015625,0.506663978099823,-1.1479520797729492,0.1506028175354004
1761914848095256800,5.3472568359375,0.533189058303833,-1.0946438312530518,-0.21821622550487518
1761914848105311700,5.357311767578125,0.5558986663818359,-0.9138344526290894,-0.5163989067077637
1761914848115367000,5.367366943359375,0.5401979684829712,-0.6605640649795532,-0.7171948552131653
1761914848125421800,5.377421875,0.40214771032333374,-0.6142383813858032,-0.7614651322364807
1761914848135476700,5.387476806640625,0.241095170378685,-0.7685217261314392,-0.6033269166946411
1761914848145532000,5.397531982421875,0.07870440185070038,-0.4406282603740692,-0.13615597784519196
1761914848155586800,5.4075869140625,-0.0823446735739708,0.45231127738952637,0.5730246305465698
1761914848165642800,5.417642822265625,0.01480291411280632,0.80553138256073,1.0648657083511353
1761914848175698000,5.427697998046875,0.2292986959218979,0.3310335874557495,1.19695246219635
1761914848185752800,5.4377529296875,0.19638948142528534,-0.21507155895233154,1.1685585975646973
1761914848195808000,5.44780810546875,-0.06964805722236633,-0.6896346211433411,0.9571843147277832
1761914848205862700,5.457862548828125,-0.325992226600647,-1.2122548818588257,0.5684298872947693
1761914848215917800,5.467917724609375,-0.4910773038864136,-1.5389156341552734,0.10173887759447098
1761914848225973000,5.477972900390625,-0.5700570940971375,-1.2993520498275757,-0.3771539330482483
1761914848236027600,5.488027587890625,-0.5031558275222778,-0.1469111442565918,-0.9146493673324585
1761914848246082800,5.498082763671875,-0.3443206250667572,0.863656759262085,-1.1220203638076782
1761914848256141600,5.5081416015625,-0.1625005006790161,1.8842029571533203,-1.24650239944458
1761914848266196700,5.51819677734375,0.020146280527114868,2.4472155570983887,-1.3943121433258057
1761914848276251600,5.528251708984375,0.19987210631370544,2.289996862411499,-1.5523475408554077
1761914848286306600,5.538306640625,0.38304778933525085,2.2228074073791504,-1.4977543354034424
1761914848296361700,5.54836181640625,0.5416483283042908,2.185025215148926,-1.293895959854126
1761914848306416400,5.55841650390625,0.6202853918075562,1.9821218252182007,-1.0489972829818726
1761914848316471600,5.568471435546875,0.6052286624908447,1.673527717590332,-0.7863691449165344
1761914848326526700,5.578526611328125,0.5379675626754761,1.4317020177841187,-0.46138066053390503
1761914848336581600,5.58858154296875,0.47223758697509766,1.2669538259506226,-0.127020001411438
1761914848346636500,5.598636474609375,0.40295732021331787,1.1300556659698486,0.18417596817016602
1761914848356691700,5.608691650390625,0.3168184161186218,0.9612901210784912,0.459212064743042
1761914848366746600,5.61874658203125,0.2006332278251648,0.7222332954406738,0.6627452373504639
1761914848376801800,5.6288017578125,0.07869374752044678,0.488691121339798,0.7904592156410217
1761914848386856400,5.6388564453125,-0.010001501068472862,0.3860076069831848,0.8600407242774963
1761914848396911600,5.64891162109375,-0.0008024104172363877,0.386663556098938,0.9431923031806946
1761914848406966800,5.658966796875,0.08347518742084503,0.43240708112716675,1.0745197534561157
1761914848417021400,5.669021484375,0.16390344500541687,0.39206230640411377,1.2034657001495361
1761914848427076600,5.67907666015625,0.21740315854549408,0.070253387093544,1.2299164533615112
1761914848437131500,5.689131591796875,0.2329712063074112,-0.48663967847824097,1.1156243085861206
1761914848447186700,5.699186767578125,0.20399360358715057,-0.9966872334480286,0.9270628690719604
1761914848457241600,5.70924169921875,0.153748020529747,-1.1400047540664673,0.7826220989227295
1761914848467296500,5.719296630859375,0.10338418185710907,-0.9346763491630554,0.713324785232544
1761914848477351700,5.7293515625,0.03397767245769501,-0.621278703212738,0.6413626670837402
1761914848487406800,5.73940673828125,-0.0651441141963005,-0.3302767276763916,0.5405548810958862
1761914848497461500,5.74946142578125,-0.20846426486968994,-0.12589721381664276,0.43068400025367737
1761914848507516700,5.7595166015625,-0.38068556785583496,0.1667165458202362,0.3975132703781128
1761914848517572600,5.769572509765625,-0.5519646406173706,0.45543888211250305,0.4628011882305145
1761914848527626500,5.77962646484375,-0.6489620208740234,0.5287285447120667,0.5390200614929199
1761914848537682400,5.789682373046875,-0.6098012924194336,0.3348727822303772,0.6011902093887329
1761914848547737600,5.799737548828125,-0.45728445053100586,-0.06259653717279434,0.6057373285293579
1761914848557792800,5.809792724609375,-0.28476381301879883,-0.49280864000320435,0.5244605541229248
1761914848567847700,5.81984765625,-0.13172820210456848,-0.8859359622001648,0.37228062748908997
1761914848577902600,5.829902587890625,-0.0169073436409235,-1.2736951112747192,0.15618453919887543
1761914848587957500,5.83995751953125,0.012980246916413307,-1.5964233875274658,-0.10860797017812729
1761914848598012700,5.8500126953125,-0.02286403626203537,-1.7795354127883911,-0.42877131700515747
1761914848608067600,5.860067626953125,-0.07888602465391159,-1.833726167678833,-0.8109919428825378
1761914848618122500,5.87012255859375,-0.06519631296396255,-1.7670893669128418,-1.2070056200027466
1761914848628177700,5.880177734375,0.08379077166318893,-1.570549726486206,-1.5253760814666748
1761914848638232800,5.89023291015625,0.2938885986804962,-1.239877462387085,-1.714254379272461
1761914848648287500,5.90028759765625,0.44714581966400146,-0.766664445400238,-1.7540558576583862
1761914848658342700,5.9103427734375,0.4948132038116455,-0.18622979521751404,-1.6467927694320679
1761914848668397600,5.9203974609375,0.4818321466445923,0.2720203399658203,-1.4099602699279785
1761914848678452700,5.93045263671875,0.45478349924087524,0.4854641556739807,-1.0948354005813599
1761914848688507600,5.940507568359375,0.469409316778183,0.37033411860466003,-0.7522782683372498
1761914848698562600,5.9505625,0.5274978876113892,-0.05242272838950157,-0.4257470369338989
1761914848708617700,5.96061767578125,0.5851292610168457,-0.6504749655723572,-0.1460469514131546
1761914848718672600,5.970672607421875,0.572554349899292,-1.1955676078796387,0.06640352308750153
1761914848728727600,5.9807275390625,0.4607798755168915,-1.611190915107727,0.19790109992027283
1761914848738782700,5.99078271484375,0.2582304775714874,-1.9088398218154907,0.27047091722488403
1761914848748837600,6.000837646484375,-0.005447762086987495,-2.0638670921325684,0.37331393361091614
1761914848758892500,6.010892578125,-0.2939962148666382,-2.004403829574585,0.5306753516197205
1761914848768947700,6.02094775390625,-0.5590577125549316,-1.7156909704208374,0.7144904136657715
1761914848779002600,6.031002685546875,-0.7575412392616272,-1.3056650161743164,0.8798426389694214
1761914848789057800,6.041057861328125,-0.8530440330505371,-0.8738158941268921,1.0189073085784912
1761914848799112400,6.051112548828125,-0.8375921249389648,-0.5179129242897034,1.1237777471542358
1761914848809167600,6.061167724609375,-0.731925904750824,-0.30794185400009155,1.1832517385482788
1761914848819222800,6.071222900390625,-0.5638159513473511,-0.21317486464977264,1.1958099603652954
1761914848829277400,6.08127734375,-0.3739408254623413,-0.1943495124578476,1.1610362529754639
1761914848839332600,6.09133251953125,-0.2012377679347992,-0.17813831567764282,1.0908230543136597
1761914848849387500,6.101387451171875,-0.07658585160970688,-0.12013759464025497,0.9795825481414795
1761914848859442700,6.111442626953125,-0.017782725393772125,0.02570323273539543,0.8157185316085815
1761914848869497600,6.12149755859375,-0.010402839630842209,0.24579405784606934,0.6136165261268616
1761914848879552500,6.131552490234375,-0.002071140334010124,0.5095686912536621,0.3889983594417572
1761914848889608700,6.141608642578125,0.00039654469583183527,0.8231303691864014,0.18810705840587616
1761914848899663600,6.15166357421875,-0.01996811479330063,1.1201958656311035,0.03224156051874161
1761914848909718500,6.161718505859375,-0.0529034286737442,1.3593107461929321,-0.06839903444051743
1761914848919773700,6.171773681640625,-0.059962935745716095,1.4955217838287354,-0.10435197502374649
1761914848929828600,6.18182861328125,0.0012812467757612467,1.4924434423446655,-0.1011148989200592
1761914848939883800,6.1918837890625,0.1109108030796051,1.389356255531311,-0.07583404332399368
1761914848949938400,6.2019384765625,0.21616345643997192,1.328761339187622,-0.025833994150161743
1761914848959993600,6.21199365234375,0.30134573578834534,1.2996071577072144,0.02929876558482647
1761914848970048800,6.222048828125,0.35895657539367676,1.0944933891296387,0.044868405908346176
1761914848980103700,6.232103759765625,0.3411426842212677,0.5601857900619507,-0.050750527530908585
1761914848990158600,6.24215869140625,0.1828547716140747,-0.14452415704727173,-0.23235973715782166
1761914849000213500,6.252213623046875,-0.07359166443347931,-0.713845431804657,-0.3623374402523041
1761914849010268700,6.2622685546875,-0.3489087224006653,-0.978950560092926,-0.30603528022766113
1761914849020323600,6.272323486328125,-0.5604779720306396,-0.8763980865478516,-0.020564397796988487
1761914849030378500,6.28237841796875,-0.6438958644866943,-0.4201144576072693,0.46904632449150085
1761914849040433700,6.29243359375,-0.5209811329841614,0.0038045919500291348,0.9895443916320801
1761914849050488800,6.30248876953125,-0.21417461335659027,0.17494304478168488,1.3412598371505737
1761914849060543500,6.31254345703125,0.1711461842060089,0.21962423622608185,1.484938144683838
1761914849070598700,6.3225986328125,0.4850258231163025,0.15359435975551605,1.3959203958511353
1761914849080653600,6.332653564453125,0.6216630339622498,-0.09390439093112946,1.07047700881958
1761914849090708700,6.342708740234375,0.6190632581710815,-0.43399059772491455,0.5539438724517822
1761914849100763600,6.352763671875,0.5609719753265381,-0.7260400056838989,-0.10136257112026215
1761914849110818600,6.362818603515625,0.4765079617500305,-0.8432143330574036,-0.8154867887496948
1761914849120873700,6.372873779296875,0.3645545244216919,-0.749333381652832,-1.4879828691482544
1761914849130928600,6.3829287109375,0.27654823660850525,-0.523251473903656,-2.0183475017547607
1761914849140983600,6.392983642578125,0.30076250433921814,-0.1446237564086914,-2.329784393310547
1761914849151038700,6.403038818359375,0.43456822633743286,0.384945809841156,-2.3770158290863037
1761914849161093600,6.41309375,0.585339367389679,0.9658747315406799,-2.182213068008423
1761914849171148500,6.4231484375,0.6829844117164612,1.400341272354126,-1.8095124959945679
1761914849181203700,6.43320361328125,0.7531251907348633,1.4866098165512085,-1.3559268712997437
1761914849191258600,6.443258544921875,0.83631831407547,1.0598816871643066,-0.9698404669761658
1761914849201313800,6.453313720703125,0.8911442756652832,0.33197689056396484,-0.708474338054657
1761914849211369500,6.463369384765625,0.8927938342094421,-0.41704490780830383,-0.5575969815254211
1761914849221424600,6.473424560546875,0.8168210387229919,-0.9585060477256775,-0.4770720303058624
1761914849231479600,6.4834794921875,0.6588703393936157,-1.1774548292160034,-0.4100269377231598
1761914849241534700,6.49353466796875,0.43780824542045593,-1.0609171390533447,-0.3149283826351166
1761914849251589600,6.503589599609375,0.18678292632102966,-0.6632133722305298,-0.15372590720653534
1761914849261644500,6.51364453125,-0.03423893079161644,-0.10079345852136612,0.08502141386270523
1761914849271699700,6.52369970703125,-0.18279138207435608,0.4923825263977051,0.37486574053764343
1761914849281754600,6.533754638671875,-0.24017824232578278,0.9501527547836304,0.6843951344490051
1761914849291809800,6.543809814453125,-0.2190881371498108,1.1526843309402466,0.957728385925293
1761914849301864700,6.55386474609375,-0.1536063402891159,1.106353521347046,1.1664155721664429
1761914849311919600,6.563919677734375,-0.05068102106451988,0.8961494565010071,1.3122191429138184
1761914849321974800,6.573974853515625,0.07346756011247635,0.6135894060134888,1.3919434547424316
1761914849332029700,6.58402978515625,0.18957126140594482,0.32852888107299805,1.4121224880218506
1761914849342084600,6.594084716796875,0.2727995812892914,0.13091035187244415,1.3745887279510498
1761914849352139800,6.604139892578125,0.2732533812522888,0.06831753998994827,1.2963024377822876
1761914849362194700,6.614194580078125,0.18443268537521362,0.1120104268193245,1.1715503931045532
1761914849372249600,6.62424951171875,0.04067232832312584,0.24112899601459503,1.0259082317352295
1761914849382304800,6.6343046875,-0.14548449218273163,0.44037550687789917,0.8903732895851135
1761914849392359700,6.644359619140625,-0.3304722011089325,0.6650254130363464,0.7504084706306458
1761914849402414800,6.654414794921875,-0.483230322599411,0.8514552116394043,0.6279121041297913
1761914849412469500,6.664469482421875,-0.5927432179450989,0.9318496584892273,0.5296220183372498
1761914849422524700,6.674524658203125,-0.6483138203620911,0.8992512226104736,0.4770602881908417
1761914849432579800,6.684579833984375,-0.642865777015686,0.8643776774406433,0.49999305605888367
1761914849442634500,6.694634521484375,-0.5894622206687927,0.9766666293144226,0.6257554888725281
1761914849452689700,6.704689697265625,-0.4624699056148529,1.2157468795776367,0.8358901143074036
1761914849462744800,6.714744873046875,-0.2865595817565918,1.4318128824234009,1.0524977445602417
1761914849472799700,6.7247998046875,-0.12260554730892181,1.3487759828567505,1.14691960811615
1761914849482854700,6.734854736328125,-0.04605085030198097,0.8155829310417175,1.0092653036117554
1761914849492909600,6.74490966796875,-0.07942638546228409,0.09918756783008575,0.7611767053604126
1761914849502964700,6.75496484375,-0.1476816087961197,-0.35163286328315735,0.6850576996803284
1761914849513020000,6.76502001953125,-0.12459146231412888,-0.547607958316803,0.8351284265518188
1761914849523075600,6.77507568359375,-0.09825040400028229,-0.73820960521698,0.992098867893219
1761914849533130800,6.785130859375,-0.18658000230789185,-0.800299346446991,1.0108171701431274
1761914849543185700,6.795185546875,-0.302903413772583,-0.5586739182472229,0.9417334198951721
1761914849553240800,6.80524072265625,-0.37564098834991455,-0.18873023986816406,0.8224736452102661
1761914849563295500,6.81529541015625,-0.3637390732765198,0.1134519949555397,0.7233116030693054
1761914849573350700,6.8253505859375,-0.24754215776920319,0.2733069062232971,0.5980173349380493
1761914849583405800,6.83540576171875,-0.0331539586186409,0.3731703758239746,0.41981592774391174
1761914849593460700,6.845460693359375,0.24371172487735748,0.2094554901123047,0.14054779708385468
1761914849603515600,6.855515625,0.5278305411338806,-0.05232924968004227,-0.17471428215503693
1761914849613570800,6.86557080078125,0.7451671361923218,-0.12822294235229492,-0.3775579333305359
1761914849623625700,6.875625732421875,0.7895710468292236,-0.014860971830785275,-0.4372508227825165
1761914849633680600,6.8856806640625,0.6983322501182556,0.06992102414369583,-0.36780625581741333
1761914849643735600,6.895735595703125,0.6347226500511169,0.013903831131756306,-0.20381703972816467
1761914849653790700,6.905790771484375,0.6565533876419067,-0.10291200131177902,0.07270935922861099
1761914849663846000,6.915845947265625,0.6697538495063782,-0.17275552451610565,0.4256138801574707
1761914849673900500,6.925900634765625,0.6059184074401855,-0.14073660969734192,0.7172662615776062
1761914849683955700,6.935955810546875,0.5107820630073547,-0.10959280282258987,0.7645661234855652
1761914849694010600,6.9460107421875,0.45780324935913086,-0.11582273989915848,0.48857581615448
1761914849704065800,6.956065673828125,0.4857483208179474,-0.21005070209503174,-0.09331503510475159
1761914849714120700,6.96612060546875,0.6150913834571838,-0.41825902462005615,-0.876134991645813
1761914849724175600,6.976175537109375,0.791178286075592,-0.645029604434967,-1.64618718624115
1761914849734230800,6.986230712890625,0.9077805280685425,-0.7961767911911011,-2.229659080505371
1761914849744285700,6.99628564453125,0.862021267414093,-0.7932784557342529,-2.5670087337493896
1761914849754340600,7.006340576171875,0.6427451372146606,-0.5107035040855408,-2.6360690593719482
1761914849764395800,7.016395751953125,0.2773815393447876,0.05558629706501961,-2.447934627532959
1761914849774450700,7.02645068359375,-0.17458458244800568,0.6722177863121033,-2.090888500213623
1761914849784505600,7.036505615234375,-0.6152067184448242,1.1042994260787964,-1.638863205909729
1761914849794560800,7.046560791015625,-0.9646233320236206,1.2997273206710815,-1.125404953956604
1761914849804615700,7.05661572265625,-1.1873512268066406,1.2979727983474731,-0.596164345741272
1761914849814670800,7.0666708984375,-1.2822459936141968,1.1550939083099365,-0.11965475976467133
1761914849824725500,7.0767255859375,-1.2326067686080933,0.923209547996521,0.2796225845813751
1761914849834780700,7.08678076171875,-1.0570429563522339,0.6274668574333191,0.6026922464370728
1761914849844835800,7.0968359375,-0.7767338156700134,0.2653461694717407,0.8222706913948059
1761914849854891800,7.106891845703125,-0.45505964756011963,-0.08738337457180023,0.9465553760528564
1761914849864946700,7.11694677734375,-0.1527509242296219,-0.3312077522277832,0.9944459199905396
1761914849875001600,7.127001708984375,0.07131892442703247,-0.43491363525390625,0.9934115409851074
1761914849885056800,7.137056884765625,0.18569263815879822,-0.3941646218299866,0.9523807764053345
1761914849895111700,7.147111572265625,0.19369223713874817,-0.2502841353416443,0.876068115234375
1761914849905166600,7.15716650390625,0.12645673751831055,-0.07087310403585434,0.758385181427002
1761914849915221800,7.1672216796875,0.036199815571308136,0.08118486404418945,0.6166344285011292
1761914849925276700,7.177276611328125,-0.05860792100429535,0.17683282494544983,0.47641316056251526
1761914849935331600,7.18733154296875,-0.1619550734758377,0.2284022867679596,0.3580854535102844
1761914849945386800,7.19738671875,-0.24235990643501282,0.2688048183917999,0.2790777087211609
1761914849955441700,7.207441650390625,-0.2521747350692749,0.339743971824646,0.2160382866859436
1761914849965496800,7.217496826171875,-0.16816769540309906,0.36551645398139954,0.13809634745121002
1761914849975551500,7.227551513671875,-0.029708361253142357,0.2561681270599365,0.03456250578165054
1761914849985606700,7.237606689453125,0.11700944602489471,0.09490121155977249,-0.025428393855690956
1761914849995661800,7.247661865234375,0.22705818712711334,0.0894601047039032,0.07883143424987793
1761914850005716700,7.257716796875,0.3523210287094116,-0.15845754742622375,0.1912360042333603
1761914850015771600,7.267771728515625,0.30361926555633545,-0.727594792842865,-0.012740562669932842
1761914850025826800,7.277826904296875,-0.08691225945949554,-0.9953311681747437,-0.39288604259490967
1761914850035881700,7.2878818359375,-0.6046624779701233,-1.159239649772644,-0.8748494982719421
1761914850045936600,7.2979365234375,-0.9054955244064331,-1.4256426095962524,-1.1886705160140991
1761914850055991600,7.307991455078125,-0.9543853402137756,-1.755782961845398,-1.1314072608947754
1761914850066046700,7.318046630859375,-0.8749208450317383,-1.8181406259536743,-0.7638134956359863
1761914850076102000,7.328101806640625,-0.6677618026733398,-1.4596806764602661,-0.3243487775325775
1761914850086156500,7.338156494140625,-0.32490643858909607,-0.8952698111534119,0.002573146251961589
1761914850096211700,7.348211669921875,0.15315254032611847,-0.4571899175643921,0.11888564378023148
1761914850106266600,7.3582666015625,0.6065351963043213,-0.2647365927696228,-0.016862336546182632
1761914850116321800,7.36832177734375,0.9290426969528198,-0.27318254113197327,-0.3697058856487274
1761914850126376700,7.378376708984375,1.119322657585144,-0.4255102872848511,-0.8524424433708191
1761914850136431600,7.388431640625,1.196089267730713,-0.6668794751167297,-1.3881199359893799
1761914850146486800,7.39848681640625,1.1571266651153564,-0.8859764337539673,-1.8648207187652588
1761914850156541700,7.408541748046875,1.0065217018127441,-0.956538200378418,-2.141509771347046
1761914850166596600,7.4185966796875,0.7479549050331116,-0.728415310382843,-2.1046879291534424
1761914850176651800,7.42865185546875,0.49750593304634094,-0.22731651365756989,-1.7458850145339966
1761914850186707700,7.438707763671875,0.42661044001579285,0.2574288845062256,-1.2124011516571045
1761914850196763000,7.448762939453125,0.5453935265541077,0.4983445405960083,-0.6706641316413879
1761914850206817500,7.458817626953125,0.7190263271331787,0.416469931602478,-0.24720312654972076
1761914850216872700,7.468872802734375,0.8540768027305603,0.04592115432024002,-0.0485217310488224
1761914850226927900,7.478927978515625,0.8743892908096313,-0.4938123822212219,-0.13195830583572388
1761914850236982500,7.488982421875,0.7416605353355408,-0.8904907703399658,-0.4211488366127014
1761914850247037700,7.49903759765625,0.4607199430465698,-0.9163370132446289,-0.7542098760604858
1761914850257092600,7.509092529296875,0.09017250686883926,-0.543421745300293,-1.036408543586731
1761914850267144000,7.51914404296875,-0.2768012285232544,0.12429531663656235,-1.1398108005523682
1761914850277199000,7.52919921875,-0.5693204402923584,0.8277330994606018,-1.0544607639312744
1761914850287253800,7.539253662109375,-0.7138632535934448,1.3638532161712646,-0.7860500812530518
1761914850297309000,7.549308837890625,-0.7080346345901489,1.6150391101837158,-0.37471848726272583
1761914850307364000,7.559364013671875,-0.57600337266922,1.5485703945159912,0.1159505695104599
1761914850317419000,7.5694189453125,-0.3655391037464142,1.2253576517105103,0.6168525815010071
1761914850327474000,7.579473876953125,-0.12948529422283173,0.7414658665657043,1.0579795837402344
1761914850337528800,7.58952880859375,0.06414276361465454,0.25622138381004333,1.3764034509658813
1761914850347584000,7.599583984375,0.17105084657669067,-0.0788564682006836,1.544765830039978
1761914850357639000,7.609638916015625,0.19399237632751465,-0.18684764206409454,1.586348056793213
1761914850367693800,7.61969384765625,0.16791869699954987,-0.11632714420557022,1.540234923362732
1761914850377749000,7.6297490234375,0.11207859963178635,0.08158300817012787,1.4260857105255127
1761914850387804000,7.639803955078125,0.05657859146595001,0.31329694390296936,1.2483551502227783
1761914850397858800,7.64985888671875,0.00026525085559114814,0.48518773913383484,1.0054740905761719
1761914850407914000,7.6599140625,-0.056232910603284836,0.5266430377960205,0.7336686253547668
1761914850417969000,7.669968994140625,-0.09604024887084961,0.4268173575401306,0.5257599353790283
1761914850428024000,7.680024169921875,-0.12029605358839035,0.2609442472457886,0.46101289987564087
1761914850438079000,7.690078857421875,-0.09299039095640182,0.1174539253115654,0.5396288633346558
1761914850448134000,7.7001337890625,-0.02250397764146328,0.03855191916227341,0.6918687224388123
1761914850458189000,7.71018896484375,0.06447140127420425,-0.07442975789308548,0.8071258068084717
1761914850468243700,7.72024365234375,0.10528168082237244,-0.24868544936180115,0.8150032162666321
1761914850478299000,7.730298828125,0.013566941022872925,-0.4272594451904297,0.6774535775184631
1761914850488354000,7.74035400390625,-0.1864798665046692,-0.48424577713012695,0.5150169730186462
1761914850498409000,7.750408935546875,-0.33050307631492615,-0.4251672625541687,0.477851003408432
1761914850508463900,7.7604638671875,-0.3236941695213318,-0.5523023009300232,0.4213466942310333
1761914850518519800,7.770519775390625,-0.3639843463897705,-0.8332597017288208,0.17858465015888214
1761914850528574000,7.780573974609375,-0.5835204124450684,-0.7914813756942749,-0.08035795390605927
1761914850538630000,7.7906298828125,-0.8029720783233643,-0.3670421838760376,-0.21627478301525116
1761914850548684800,7.800684814453125,-0.8628609776496887,0.15114131569862366,-0.15032319724559784
1761914850558740000,7.810739990234375,-0.7871363759040833,0.4845815896987915,0.042942941188812256
1761914850568795000,7.820794921875,-0.5956090688705444,0.5883415341377258,0.2588163912296295
1761914850578850000,7.83085009765625,-0.257811576128006,0.4633338451385498,0.40527957677841187
1761914850588905000,7.840905029296875,0.1212334856390953,0.1273409128189087,0.3760111927986145
1761914850598959900,7.8509599609375,0.4323916435241699,-0.17575956881046295,0.2134861797094345
1761914850609015000,7.86101513671875,0.6610863208770752,-0.3014570474624634,-0.024162860587239265
1761914850619070000,7.871070068359375,0.7949884533882141,-0.32398924231529236,-0.3440910577774048
1761914850629124900,7.881124755859375,0.8588276505470276,-0.2991342544555664,-0.6768344044685364
1761914850639180000,7.891179931640625,0.8945065140724182,-0.2891250252723694,-0.9850862622261047
1761914850649235000,7.90123486328125,0.9470328688621521,-0.29516640305519104,-1.166624903678894
1761914850659289900,7.911289794921875,1.0455162525177002,-0.28968027234077454,-1.1699594259262085
1761914850669345000,7.921344970703125,1.2153961658477783,-0.19048020243644714,-0.9689421653747559
1761914850679400000,7.93139990234375,1.4397603273391724,0.04393017292022705,-0.5733242630958557
1761914850689455000,7.941455078125,1.6328988075256348,0.4058564305305481,-0.08616391569375992
1761914850699509800,7.951509765625,1.7160669565200806,0.7699480652809143,0.3178408145904541
1761914850709565000,7.96156494140625,1.6783621311187744,1.001047134399414,0.5818735361099243
1761914850719620000,7.9716201171875,1.5415151119232178,1.1198885440826416,0.7341035604476929
1761914850729675000,7.981675048828125,1.3516333103179932,1.066449522972107,0.7591939568519592
1761914850739730000,7.99172998046875,1.1576910018920898,0.8175422549247742,0.646241307258606
1761914850749783000,8.001782958984375,0.9685195088386536,0.4807538390159607,0.43467769026756287
1761914850759838000,8.011837890625,0.7480603456497192,0.1543152630329132,0.1495218425989151
1761914850769892900,8.021892822265626,0.4713992178440094,-0.009887518361210823,-0.10429098457098007
1761914850779948000,8.031947998046874,0.0889703556895256,0.08542941510677338,-0.21832780539989471
1761914850790003000,8.0420029296875,-0.3124641478061676,0.3668147623538971,-0.18975502252578735
1761914850800057900,8.052057861328125,-0.6704236268997192,0.6620000600814819,-0.04120815545320511
1761914850810113000,8.062113037109375,-0.84647136926651,0.9753928780555725,0.22184237837791443
1761914850820168000,8.07216796875,-0.8250787258148193,1.1385644674301147,0.49472424387931824
1761914850830222800,8.082222900390626,-0.6981505751609802,1.1785396337509155,0.7653712034225464
1761914850840278000,8.092278076171874,-0.5167206525802612,1.1719552278518677,1.0218425989151
1761914850850333000,8.1023330078125,-0.3034091591835022,1.0331461429595947,1.1942684650421143
1761914850860388000,8.11238818359375,-0.08973068743944168,0.7425596117973328,1.286483883857727
1761914850870442800,8.12244287109375,0.08160644769668579,0.4556516706943512,1.3367316722869873
1761914850880498000,8.132497802734376,0.157560333609581,0.1876617819070816,1.339745283126831
1761914850890553000,8.142552978515624,0.1290850192308426,-0.06420828402042389,1.3050423860549927
1761914850900608000,8.15260791015625,0.004323375876992941,-0.2654905319213867,1.2887134552001953
1761914850910663000,8.162662841796875,-0.12887142598628998,-0.41876742243766785,1.3237197399139404
1761914850920718000,8.172718017578125,-0.25893354415893555,-0.5064640045166016,1.3326470851898193
1761914850930773000,8.18277294921875,-0.42455101013183594,-0.498366117477417,1.2851991653442383
1761914850940828000,8.192827880859374,-0.6135656833648682,-0.40271469950675964,1.191146731376648
1761914850950882800,8.2028828125,-0.7868133783340454,-0.31076374650001526,1.1135605573654175
1761914850960938000,8.21293798828125,-0.8934077024459839,-0.23397867381572723,1.0978407859802246
1761914850970993200,8.2229931640625,-0.8764125108718872,-0.08101122826337814,1.1569429636001587
1761914850981047800,8.2330478515625,-0.7421053051948547,0.03136830776929855,1.2549289464950562
1761914850991103000,8.24310302734375,-0.5753213763237,-0.059184495359659195,1.2969392538070679
1761914851001158000,8.253157958984374,-0.5682184100151062,-0.3590628206729889,1.2238035202026367
1761914851011213000,8.263213134765625,-0.6925119161605835,-0.8025720715522766,1.0472995042800903
1761914851021268000,8.27326806640625,-0.7434664368629456,-1.4045740365982056,0.813607931137085
1761914851031323000,8.283322998046875,-0.6084878444671631,-2.0711421966552734,0.5486372709274292
1761914851041378000,8.2933779296875,-0.6061458587646484,-2.3084843158721924,0.31244418025016785
1761914851051433000,8.303432861328124,-0.7861121296882629,-2.198452949523926,0.00541314110159874
1761914851061487900,8.31348779296875,-0.843639075756073,-1.9709570407867432,-0.316466361284256
1761914851071543000,8.32354296875,-0.8468165397644043,-1.5902358293533325,-0.5237822532653809
1761914851081598000,8.333597900390625,-0.8407751321792603,-1.0434329509735107,-0.5292843580245972
1761914851091652900,8.34365283203125,-0.7409420013427734,-0.5980559587478638,-0.42664000391960144
1761914851101708000,8.3537080078125,-0.5902736783027649,-0.5648386478424072,-0.430859237909317
1761914851111764000,8.363763916015625,-0.4613761305809021,-0.8291078209877014,-0.5834032297134399
1761914851121819100,8.373819091796875,-0.38675597310066223,-0.970353364944458,-0.7827208638191223
1761914851131873800,8.383873779296875,-0.3271291255950928,-0.7579843997955322,-0.9696396589279175
1761914851141929000,8.393928955078126,-0.28046149015426636,-0.31118372082710266,-1.126214623451233
1761914851151983900,8.40398388671875,-0.2170359045267105,0.10788492113351822,-1.2655432224273682
1761914851162039000,8.4140390625,-0.13022111356258392,0.32231518626213074,-1.3798460960388184
1761914851172094000,8.424093994140625,-0.054604388773441315,0.32477009296417236,-1.4616039991378784
1761914851182148900,8.43414892578125,-0.013428723439574242,0.1614091396331787,-1.5238929986953735
1761914851192204000,8.4442041015625,0.040595896542072296,-0.11419954150915146,-1.531920075416565
1761914851202259000,8.454259033203124,0.159486323595047,-0.2617541253566742,-1.447069525718689
1761914851212313900,8.46431396484375,0.37292590737342834,-0.0784255638718605,-1.3103466033935547
1761914851222369000,8.474369140625,0.7647669315338135,-0.24469949305057526,-1.1809215545654297
1761914851232424000,8.484423828125,1.0281271934509277,-0.023549001663923264,-0.9476890563964844
1761914851242478800,8.494478759765625,1.163053274154663,0.4846961200237274,-0.6767063140869141
1761914851252534000,8.504533935546876,1.107222318649292,0.8850051760673523,-0.44618040323257446
1761914851262589000,8.5145888671875,0.8421019315719604,1.0512255430221558,-0.3237466514110565
1761914851272643800,8.524643798828125,0.4714854955673218,1.054918885231018,-0.3373686969280243
1761914851282698800,8.53469873046875,0.12931591272354126,0.9634783864021301,-0.4449649453163147
1761914851292753700,8.544753662109375,-0.12913481891155243,0.7448357939720154,-0.5484508872032166
1761914851302808800,8.554808837890626,-0.337458997964859,0.42167267203330994,-0.5882933735847473
1761914851312863700,8.56486376953125,-0.4959133565425873,0.13132180273532867,-0.5616137981414795
1761914851322918700,8.574918701171875,-0.5624542832374573,-0.0005113269435241818,-0.49296069145202637
1761914851332973800,8.584973876953125,-0.5124251842498779,0.027046797797083855,-0.4029679596424103
1761914851343028700,8.59502880859375,-0.4245702028274536,0.0754912942647934,-0.2873130142688751
1761914851353084000,8.605083984375,-0.31842538714408875,0.1225791797041893,-0.13136494159698486
1761914851363138600,8.615138671875,-0.19552475214004517,0.25894901156425476,0.07587878406047821
1761914851373193700,8.62519384765625,-0.07543616741895676,0.45836836099624634,0.3198307454586029
1761914851383249000,8.635248779296875,-0.006414489820599556,0.6183851957321167,0.5705417990684509
1761914851393303600,8.645303466796875,0.04181775450706482,0.6980504393577576,0.8246102929115295
1761914851403358700,8.655358642578125,0.07276049256324768,0.665199339389801,1.0724650621414185
1761914851413414000,8.665413818359376,0.06365114450454712,0.5458260178565979,1.2818870544433594
1761914851423468800,8.67546875,0.040581248700618744,0.380013644695282,1.4420324563980103
1761914851433523700,8.685523681640625,0.00990163255482912,0.22745978832244873,1.5239866971969604
1761914851443578600,8.69557861328125,-0.05885053426027298,0.15727351605892181,1.526633620262146
1761914851453633800,8.7056337890625,-0.1598099023103714,0.18809880316257477,1.4680155515670776
1761914851463689700,8.715689697265624,-0.24360573291778564,0.3697860538959503,1.3472881317138672
1761914851473744600,8.72574462890625,-0.3037782609462738,0.5761290788650513,1.2142099142074585
1761914851483799800,8.7357998046875,-0.34746208786964417,0.6989055871963501,1.0740931034088135
1761914851493854700,8.745854736328125,-0.32719436287879944,0.782134473323822,0.9461167454719543
1761914851503910000,8.755909912109376,-0.17522987723350525,0.8011260032653809,0.8611206412315369
1761914851513964500,8.765964599609376,0.086710125207901,0.7035688161849976,0.8090150952339172
1761914851524019700,8.776019775390624,0.35900822281837463,0.5364311933517456,0.7552836537361145
1761914851534075000,8.786074951171875,0.5779168605804443,0.4824276268482208,0.7141135931015015
1761914851544129800,8.7961298828125,0.8061878681182861,0.47365039587020874,0.6506917476654053
1761914851554184700,8.806184814453125,0.8598950505256653,0.25654682517051697,0.41187089681625366
1761914851564239600,8.816239501953126,0.4962523579597473,0.004514324478805065,0.039862461388111115
1761914851574294800,8.826294677734374,-0.15153412520885468,-0.25842541456222534,-0.4042327105998993
1761914851584349700,8.836349609375,-0.7058293223381042,-0.47809627652168274,-0.7938936352729797
1761914851594404600,8.846404541015625,-0.9129212498664856,-0.5535526871681213,-1.0094208717346191
1761914851604459800,8.856459716796875,-0.7993419170379639,-0.6812102198600769,-1.0802415609359741
1761914851614515000,8.866514892578126,-0.39845630526542664,-0.8061231374740601,-1.0218850374221802
1761914851624569600,8.876569580078124,0.14295342564582825,-0.7440016865730286,-0.8633928298950195
1761914851634624800,8.886624755859375,0.612241268157959,-0.45995694398880005,-0.6982190608978271
1761914851644679700,8.8966796875,0.8648005723953247,-0.0839039534330368,-0.6248026490211487
1761914851654734800,8.90673486328125,0.9244487285614014,0.1916373372077942,-0.7177932858467102
1761914851664789800,8.916789794921876,0.8002463579177856,0.24444623291492462,-0.9644520878791809
1761914851674844700,8.9268447265625,0.5462430715560913,0.07617413252592087,-1.3151123523712158
1761914851684899800,8.93689990234375,0.22520169615745544,-0.2498822659254074,-1.7003470659255981
1761914851694954800,8.946954833984375,-0.027937358245253563,-0.5562757849693298,-2.020490884780884
1761914851705009700,8.957009765625,-0.15149258077144623,-0.8033481240272522,-2.1984660625457764
1761914851715064800,8.96706494140625,-0.1257888227701187,-0.9050385355949402,-2.1752355098724365
1761914851725119700,8.97711962890625,0.028240958228707314,-0.7858375906944275,-1.9403141736984253
1761914851735174700,8.987174560546874,0.23777474462985992,-0.5418861508369446,-1.5501173734664917
1761914851745229800,8.997229736328125,0.41510212421417236,-0.204279363155365,-1.0262550115585327
1761914851755284700,9.00728466796875,0.5382387042045593,0.1042742058634758,-0.42994898557662964
1761914851765340000,9.01733984375,0.5946849584579468,0.22820307314395905,0.07592858374118805
1761914851775395600,9.0273955078125,0.5616633296012878,0.14056377112865448,0.31657102704048157
1761914851785450800,9.03745068359375,0.43668225407600403,-0.04583912715315819,0.2829509973526001
1761914851795505700,9.047505615234375,0.23828314244747162,-0.17529459297657013,-0.02738208882510662
1761914851805560800,9.057560791015625,0.004522846546024084,-0.10533440858125687,-0.4584496021270752
1761914851815615700,9.06761572265625,-0.21511150896549225,0.083253875374794,-0.8569783568382263
1761914851825670700,9.077670654296876,-0.3098641037940979,0.32970574498176575,-1.1152474880218506
1761914851835725800,9.087725830078124,-0.2817475199699402,0.6094308495521545,-1.1684134006500244
1761914851845780700,9.09778076171875,-0.19196464121341705,0.7717622518539429,-0.9959415197372437
1761914851855835600,9.107835693359375,-0.026320820674300194,0.7455812096595764,-0.6161137819290161
1761914851865890800,9.117890869140625,0.20011605322360992,0.6447579264640808,-0.08047965914011002
1761914851875945700,9.12794580078125,0.39392173290252686,0.4836564064025879,0.46090155839920044
1761914851886000600,9.138000732421874,0.5024189352989197,0.31050434708595276,0.9193596839904785
1761914851896055800,9.148055908203125,0.5153394937515259,0.26743489503860474,1.2549781799316406
1761914851906110700,9.15811083984375,0.47160056233406067,0.3734598755836487,1.4267361164093018
1761914851916166000,9.168165771484375,0.3696257174015045,0.5382767915725708,1.4553085565567017
1761914851926220500,9.178220458984375,0.23099327087402344,0.6604916453361511,1.3666218519210815
1761914851936275700,9.188275634765626,0.10496769100427628,0.7182444334030151,1.211549162864685
1761914851946331000,9.198330810546874,0.03056802973151207,0.7498569488525391,1.0386040210723877
1761914851956385800,9.2083857421875,0.008204933255910873,0.7848077416419983,0.8659672737121582
1761914851966440700,9.218440673828125,0.013585050590336323,0.7626616954803467,0.6891009211540222
1761914851976495600,9.22849560546875,0.021820344030857086,0.6237216591835022,0.5273492932319641
1761914851986550800,9.23855078125,0.048595499247312546,0.41712772846221924,0.4071427285671234
1761914851996605700,9.248605712890624,0.12158342450857162,0.2834407687187195,0.3653028607368469
1761914852006660600,9.25866064453125,0.23274590075016022,0.2618768811225891,0.4120109975337982
1761914852016715800,9.2687158203125,0.34274643659591675,0.23191259801387787,0.5115095973014832
1761914852026771000,9.27877099609375,0.41765743494033813,0.18254929780960083,0.6289203763008118
1761914852036825600,9.28882568359375,0.48927995562553406,0.05865558981895447,0.7676807045936584
1761914852046881800,9.2988818359375,0.5350841879844666,-0.3390558362007141,0.6865911483764648
1761914852056936700,9.308936767578125,0.41964149475097656,-0.7926986813545227,0.3846361041069031
1761914852066991900,9.318991943359375,0.002055427758023143,-0.9400319457054138,-0.050346795469522476
1761914852077046500,9.329046630859375,-0.6333574652671814,-0.713403046131134,-0.4587230980396271
1761914852087101700,9.339101806640626,-1.1524555683135986,-0.3610047996044159,-0.6928368210792542
1761914852097156900,9.349156982421874,-1.3437615633010864,-0.15293575823307037,-0.7148957848548889
1761914852107211800,9.359211669921875,-1.236718773841858,-0.2579362094402313,-0.5576699376106262
1761914852117266700,9.3692666015625,-0.9120320081710815,-0.5036740899085999,-0.2804202139377594
1761914852127321600,9.379321533203125,-0.4766120910644531,-0.7654468417167664,-0.11090920865535736
1761914852137376800,9.389376708984376,-0.1172880083322525,-0.7707124352455139,-0.16825105249881744
1761914852147432000,9.399431884765624,0.10060303658246994,-0.5172191858291626,-0.420657217502594
1761914852157486600,9.409486572265624,0.17490842938423157,-0.1502867043018341,-0.8250092267990112
1761914852167541800,9.419541748046875,0.10893793404102325,0.26759523153305054,-1.2340800762176514
1761914852177597000,9.429596923828125,-0.06628474593162537,0.5637491345405579,-1.574692726135254
1761914852187651600,9.439651611328125,-0.23146651685237885,0.6344882845878601,-1.8355382680892944
1761914852197706800,9.449706787109376,-0.33948779106140137,0.4678660035133362,-1.9906913042068481
1761914852207761700,9.45976171875,-0.34726396203041077,0.08557402342557907,-1.982842206954956
1761914852217816800,9.46981689453125,-0.26833105087280273,-0.2863902151584625,-1.7466858625411987
1761914852227871700,9.479871826171875,-0.17055709660053253,-0.46744415163993835,-1.317941665649414
1761914852237926700,9.4899267578125,-0.09916466474533081,-0.43626973032951355,-0.7956044673919678
1761914852247981800,9.49998193359375,-0.10966125130653381,-0.36585575342178345,-0.28033605217933655
1761914852258036700,9.51003662109375,-0.22864782810211182,-0.35182303190231323,0.15816566348075867
1761914852268091400,9.52009130859375,-0.3981098234653473,-0.35016492009162903,0.4782126545906067
1761914852278146600,9.530146484375,-0.5602662563323975,-0.35247522592544556,0.6454793810844421
1761914852288201200,9.540201171875,-0.6602335572242737,-0.4112170934677124,0.6150679588317871
1761914852298256400,9.55025634765625,-0.6597656607627869,-0.4852319359779358,0.38196226954460144
1761914852308311600,9.5603115234375,-0.5589125752449036,-0.4879997670650482,0.001064731739461422
1761914852318366500,9.570366455078124,-0.3901320695877075,-0.3596969246864319,-0.4106173515319824
1761914852328421400,9.58042138671875,-0.2538599669933319,-0.09542185813188553,-0.7577596306800842
1761914852338476500,9.5904765625,-0.2106911987066269,0.2200697809457779,-1.0066397190093994
1761914852348531500,9.600531494140625,-0.23523569107055664,0.49569711089134216,-1.1044692993164062
1761914852358587400,9.61058740234375,-0.27702096104621887,0.6089565753936768,-0.9959766864776611
1761914852368642300,9.620642333984375,-0.3110755980014801,0.5275434255599976,-0.7191570997238159
1761914852378697500,9.630697509765625,-0.35582202672958374,0.3173433244228363,-0.32522204518318176
1761914852388752400,9.64075244140625,-0.36593085527420044,0.07589955627918243,0.13316577672958374
1761914852398807600,9.6508076171875,-0.2748166620731354,-0.08654794096946716,0.6310216188430786
1761914852408862500,9.660862548828124,-0.13274259865283966,-0.2664458155632019,1.0845131874084473
1761914852418917400,9.67091748046875,0.05943403020501137,-0.41578787565231323,1.4372841119766235
1761914852428972500,9.68097265625,0.2249436378479004,-0.37603116035461426,1.6109099388122559
1761914852439027500,9.69102734375,0.3047495186328888,-0.23147982358932495,1.5577540397644043
1761914852449082400,9.701082275390625,0.28743791580200195,-0.12137090414762497,1.3451365232467651
1761914852459137500,9.711137451171876,0.19906383752822876,-0.1445973962545395,1.0121690034866333
1761914852469192400,9.7211923828125,0.11254385858774185,-0.1917252242565155,0.6701328158378601
1761914852479247400,9.731247314453125,0.037223268300294876,-0.27059420943260193,0.37352272868156433
1761914852489302300,9.74130224609375,-0.0139554962515831,-0.33520543575286865,0.21886630356311798
1761914852499357400,9.751357421875,-0.0186621006578207,-0.3651667833328247,0.23595553636550903
1761914852509412600,9.76141259765625,0.024897359311580658,-0.3918953239917755,0.3668150305747986
1761914852519467300,9.77146728515625,0.14213183522224426,-0.3381551504135132,0.6110622882843018
1761914852529522400,9.7815224609375,0.36327701807022095,-0.17567647993564606,0.9555081129074097
1761914852539577600,9.79157763671875,0.5623043775558472,-0.014158429577946663,1.2701339721679688
1761914852549632500,9.801632568359375,0.7205488681793213,0.04326198622584343,1.4349721670150757
1761914852559687400,9.8116875,0.8988882303237915,-0.24109117686748505,1.1967806816101074
1761914852569742300,9.821742431640626,0.7093766331672668,-0.6461380124092102,0.5046895146369934
1761914852579797500,9.831797607421874,0.024523185566067696,-0.9461028575897217,-0.3318317234516144
1761914852589852400,9.841852294921875,-0.6976547241210938,-1.165890097618103,-0.922751784324646
1761914852599907300,9.8519072265625,-1.0473408699035645,-1.0648846626281738,-0.9773558974266052
1761914852609962500,9.86196240234375,-0.9136391878128052,-0.557016909122467,-0.3637755513191223
1761914852620017400,9.872017333984376,-0.6356605887413025,-0.10231625288724899,0.3912431299686432
1761914852630072300,9.882072265625,-0.12591052055358887,0.11980629712343216,1.2279499769210815
1761914852640127500,9.89212744140625,0.4718751311302185,-0.0023406522814184427,1.8117777109146118
1761914852650182400,9.902182373046875,0.8831838369369507,-0.3129512667655945,1.78440260887146
1761914852660237600,9.912237548828125,0.9716090559959412,-0.41599908471107483,1.2081654071807861
1761914852670292500,9.92229248046875,0.7993661761283875,-0.11909150332212448,0.33351007103919983
1761914852680348400,9.932348388671874,0.5569245219230652,0.25795429944992065,-0.6031351685523987
1761914852690403600,9.942403564453125,0.3013278841972351,0.4701440632343292,-1.492245078086853
1761914852700458500,9.95245849609375,0.08771973103284836,0.7013493180274963,-2.0993783473968506
1761914852710513400,9.962513427734375,-0.038423024117946625,0.9161167740821838,-2.300485134124756
1761914852720568300,9.972568359375,-0.10959094017744064,0.8892356157302856,-2.0937585830688477
1761914852730623500,9.98262353515625,-0.10246139019727707,0.5847026109695435,-1.6436524391174316
1761914852740678700,9.9926787109375,-0.024541562423110008,0.0975358784198761,-1.1087373495101929
1761914852750733300,10.0027333984375,0.10818372666835785,-0.3923715054988861,-0.6026182174682617
1761914852760788500,10.01278857421875,0.24108931422233582,-0.6540307998657227,-0.2493581622838974
1761914852770843400,10.022843505859376,0.34915798902511597,-0.5769139528274536,-0.09741044044494629
1761914852780898300,10.032898193359374,0.39822566509246826,-0.2152388095855713,-0.14497290551662445
1761914852790953500,10.042953369140625,0.3537255823612213,0.3479049801826477,-0.3489622473716736
1761914852801008400,10.05300830078125,0.1562625765800476,0.9919263124465942,-0.6156970262527466
1761914852811063600,10.0630634765625,-0.19418199360370636,1.5809954404830933,-0.7857534289360046
1761914852821118500,10.073118408203126,-0.5132465362548828,1.7606102228164673,-0.699424684047699
1761914852831173400,10.08317333984375,-0.6757243871688843,1.3995758295059204,-0.4297811985015869
1761914852841228500,10.093228515625,-0.7184516191482544,0.5592930912971497,-0.23027580976486206
1761914852851283500,10.103283447265625,-0.761959433555603,-0.13859356939792633,-0.16350769996643066
1761914852861338400,10.11333837890625,-0.8792932033538818,-0.16750884056091309,-0.14605174958705902
1761914852871393500,10.1233935546875,-1.0645956993103027,0.25052782893180847,-0.11211162060499191
1761914852881448400,10.133448486328126,-1.1902916431427002,0.778784990310669,-0.05029939115047455
1761914852891503400,10.14350341796875,-1.1541143655776978,0.985517144203186,0.07070878893136978
1761914852901558300,10.153558349609375,-0.9782736301422119,0.4318547248840332,0.219389870762825
1761914852911613400,10.163613525390625,-0.5562408566474915,-0.24204938113689423,0.3087381422519684
1761914852921668600,10.173668701171875,-0.19928088784217834,-0.6325276494026184,0.346544086933136
1761914852931723300,10.18372314453125,-0.06857293844223022,-0.6147484183311462,0.2798798382282257
1761914852941778400,10.1937783203125,-0.07906792312860489,-0.33409595489501953,0.26406705379486084
1761914852951833600,10.20383349609375,-0.058282747864723206,-0.06163353845477104,0.48416775465011597
1761914852961888500,10.213888427734375,0.12971246242523193,-0.06209373101592064,0.8604377508163452
1761914852971943400,10.223943359375,0.3362930715084076,-0.35843589901924133,1.1707417964935303
