time,seconds_elapsed,z,y,x
1761915099232804900,0.081804931640625,-0.2994537353515625,-0.470794677734375,0.0764923095703125
1761915099242859000,0.09185888671875,-0.333770751953125,-0.4709625244140625,0.0887603759765625
1761915099252912600,0.10191259765625,-0.337860107421875,-0.5085601806640625,0.106903076171875
1761915099262966800,0.111966796875,-0.292236328125,-0.5496826171875,0.1047210693359375
1761915099273022000,0.12202197265625,-0.257904052734375,-0.5691986083984375,0.084808349609375
1761915099283075800,0.132075927734375,-0.2621917724609375,-0.5714111328125,0.061248779296875
1761915099293130000,0.1421298828125,-0.3163604736328125,-0.5750274658203125,0.063568115234375
1761915099303184600,0.1521845703125,-0.4384307861328125,-0.607513427734375,0.092437744140625
1761915099313238800,0.16223876953125,-0.532470703125,-0.6661529541015625,0.1212158203125
1761915099323292700,0.172292724609375,-0.576385498046875,-0.748931884765625,0.140899658203125
1761915099333347800,0.182347900390625,-0.6673736572265625,-0.8621368408203125,0.16021728515625
1761915099343402000,0.192402099609375,-0.8657989501953125,-0.99298095703125,0.1884765625
1761915099353455900,0.202455810546875,-1.2083587646484375,-1.146240234375,0.265960693359375
1761915099363512800,0.212512939453125,-1.398040771484375,-1.32318115234375,0.3343658447265625
1761915099373567000,0.22256689453125,-1.3477783203125,-1.43896484375,0.3443603515625
1761915099383620900,0.232620849609375,-1.326416015625,-1.445220947265625,0.321807861328125
1761915099393675800,0.24267578125,-1.2830810546875,-1.4133758544921875,0.309356689453125
1761915099403730000,0.25272998046875,-1.2371673583984375,-1.4010467529296875,0.2891845703125
1761915099413783800,0.26278369140625,-1.26287841796875,-1.4137115478515625,0.249542236328125
1761915099423838000,0.272837890625,-1.328399658203125,-1.453704833984375,0.235137939453125
1761915099433892600,0.282892578125,-1.325775146484375,-1.52294921875,0.2611236572265625
1761915099443946800,0.29294677734375,-1.282745361328125,-1.5921783447265625,0.3023529052734375
1761915099454001000,0.3030009765625,-1.2251129150390625,-1.6434173583984375,0.3440704345703125
1761915099464055800,0.313055908203125,-1.1612396240234375,-1.663330078125,0.376861572265625
1761915099474110000,0.32310986328125,-1.0939178466796875,-1.6427154541015625,0.37786865234375
1761915099484163800,0.333163818359375,-1.037994384765625,-1.5755767822265625,0.3066864013671875
1761915099494218800,0.34321875,-0.9902496337890625,-1.4351959228515625,0.19342041015625
1761915099504273000,0.35327294921875,-0.8847503662109375,-1.239044189453125,0.0814971923828125
1761915099514326800,0.363326904296875,-0.7298431396484375,-1.0358734130859375,0.003173828125
1761915099524383500,0.373383544921875,-0.5562744140625,-0.8247222900390625,-0.0248565673828125
1761915099534438700,0.383438720703125,-0.4085235595703125,-0.6233062744140625,-0.00115966796875
1761915099544492500,0.393492431640625,-0.3770599365234375,-0.5951385498046875,0.026824951171875
1761915099554546700,0.403546630859375,-0.288970947265625,-0.6096649169921875,0.06829833984375
1761915099564601600,0.4136015625,-0.2916259765625,-0.5017242431640625,0.0386810302734375
1761915099574655500,0.423655517578125,-0.355010986328125,-0.3336029052734375,-0.0430450439453125
1761915099584709600,0.433709716796875,-0.38055419921875,-0.2244720458984375,-0.1345062255859375
1761915099594764500,0.4437646484375,-0.301177978515625,-0.1897125244140625,-0.174591064453125
1761915099604818700,0.453818603515625,-0.1798553466796875,-0.1531829833984375,-0.16827392578125
1761915099614872600,0.46387255859375,-0.09075927734375,-0.096405029296875,-0.153564453125
1761915099624926500,0.473926513671875,-0.0522613525390625,-0.06793212890625,-0.1298828125
1761915099634981600,0.483981689453125,-0.0194244384765625,-0.076629638671875,-0.0719451904296875
1761915099645035500,0.494035400390625,-0.001861572265625,-0.110504150390625,-0.0038299560546875
1761915099655089700,0.504089599609375,-0.005767822265625,-0.1450958251953125,0.051788330078125
1761915099665144600,0.51414453125,-0.02545166015625,-0.1499786376953125,0.084075927734375
1761915099675198500,0.524198486328125,-0.0662841796875,-0.131805419921875,0.0950164794921875
1761915099685252600,0.534252685546875,-0.0998687744140625,-0.12725830078125,0.1025543212890625
1761915099695306500,0.544306396484375,-0.0931396484375,-0.1405029296875,0.1072998046875
1761915099705361700,0.554361572265625,-0.0762786865234375,-0.1548004150390625,0.1100921630859375
1761915099715415600,0.56441552734375,-0.06622314453125,-0.1665802001953125,0.113250732421875
1761915099725469700,0.5744697265625,-0.0298004150390625,-0.183685302734375,0.1188812255859375
1761915099735524600,0.584524658203125,-0.02899169921875,-0.197479248046875,0.12310791015625
1761915099745578500,0.59457861328125,-0.0746002197265625,-0.20758056640625,0.12432861328125
1761915099755632600,0.604632568359375,-0.1347503662109375,-0.2196197509765625,0.129547119140625
1761915099765687800,0.614687744140625,-0.16290283203125,-0.263214111328125,0.1480255126953125
1761915099775741700,0.62474169921875,-0.1786956787109375,-0.35931396484375,0.1926727294921875
1761915099785795600,0.634795654296875,-0.1595306396484375,-0.5037078857421875,0.241424560546875
1761915099795849500,0.644849365234375,-0.1920318603515625,-0.6613006591796875,0.27923583984375
1761915099805904600,0.654904541015625,-0.3619232177734375,-0.7831878662109375,0.292724609375
1761915099815958500,0.66495849609375,-0.568939208984375,-0.82342529296875,0.251007080078125
1761915099826012700,0.6750126953125,-0.8437347412109375,-0.84637451171875,0.160736083984375
1761915099836067600,0.685067626953125,-1.040924072265625,-1.0150299072265625,0.1434326171875
1761915099846121500,0.69512158203125,-1.2080078125,-1.246856689453125,0.1557159423828125
1761915099856175600,0.705175537109375,-1.3895721435546875,-1.404937744140625,0.1930084228515625
1761915099866230500,0.71523046875,-1.4644927978515625,-1.532562255859375,0.2232818603515625
1761915099876284700,0.72528466796875,-1.5450592041015625,-1.5641326904296875,0.2556915283203125
1761915099886338600,0.735338623046875,-1.6410064697265625,-1.6663360595703125,0.34759521484375
1761915099896392700,0.745392822265625,-1.71063232421875,-1.78717041015625,0.4197540283203125
1761915099906447600,0.755447509765625,-1.7394561767578125,-1.821807861328125,0.4448394775390625
1761915099916501500,0.76550146484375,-1.6898040771484375,-1.8232574462890625,0.4198150634765625
1761915099926555600,0.7755556640625,-1.6105499267578125,-1.767242431640625,0.346527099609375
1761915099936610800,0.78561083984375,-1.5365142822265625,-1.677520751953125,0.2681884765625
1761915099946664400,0.79566455078125,-1.4802398681640625,-1.607452392578125,0.22479248046875
1761915099956718600,0.805718505859375,-1.3878021240234375,-1.5400848388671875,0.193328857421875
1761915099966773500,0.8157734375,-1.2142333984375,-1.4315032958984375,0.1479034423828125
1761915099976827600,0.82582763671875,-1.000732421875,-1.2476043701171875,0.1041717529296875
1761915099986881500,0.835881591796875,-0.8053436279296875,-1.0431976318359375,0.069366455078125
1761915099996935700,0.845935791015625,-0.5966949462890625,-0.885406494140625,0.05303955078125
1761915100006990600,0.855990478515625,-0.461700439453125,-0.7424774169921875,0.0286712646484375
1761915100017044500,0.86604443359375,-0.3746795654296875,-0.6222991943359375,0.0075531005859375
1761915100027098600,0.8760986328125,-0.31805419921875,-0.5399017333984375,-0.0214080810546875
1761915100037153500,0.886153564453125,-0.2763824462890625,-0.456024169921875,-0.06195068359375
1761915100047207700,0.896207763671875,-0.246795654296875,-0.3688812255859375,-0.09771728515625
1761915100057261800,0.90626171875,-0.2085418701171875,-0.2839202880859375,-0.126068115234375
1761915100067315500,0.9163154296875,-0.1691741943359375,-0.202850341796875,-0.146209716796875
1761915100077370600,0.92637060546875,-0.1459197998046875,-0.1387939453125,-0.1552276611328125
1761915100087424500,0.936424560546875,-0.0941314697265625,-0.11181640625,-0.1378326416015625
1761915100097478700,0.946478759765625,-0.0228729248046875,-0.103363037109375,-0.09814453125
1761915100107533600,0.956533447265625,0.01470947265625,-0.1078643798828125,-0.0581207275390625
1761915100117587500,0.96658740234375,0.02734375,-0.110992431640625,-0.0252685546875
1761915100127641600,0.9766416015625,0.0362396240234375,-0.11407470703125,-0.0003509521484375
1761915100137696500,0.986696533203125,0.0364837646484375,-0.126617431640625,0.017822265625
1761915100147750700,0.996750732421875,0.0442657470703125,-0.155303955078125,0.032623291015625
1761915100157804500,1.006804443359375,0.0549468994140625,-0.1728515625,0.0426025390625
1761915100167858700,1.016858642578125,0.0279693603515625,-0.1742401123046875,0.0481719970703125
1761915100177913600,1.02691357421875,-0.0308990478515625,-0.1912689208984375,0.051239013671875
1761915100187967500,1.036967529296875,-0.0666961669921875,-0.213287353515625,0.0487060546875
1761915100198021600,1.047021728515625,-0.099822998046875,-0.2179718017578125,0.033660888671875
1761915100208076500,1.05707666015625,-0.1282806396484375,-0.2422332763671875,0.0244293212890625
1761915100218130700,1.067130615234375,-0.1759490966796875,-0.2894287109375,0.022735595703125
1761915100228184600,1.0771845703125,-0.2381134033203125,-0.355133056640625,0.0373687744140625
1761915100238239500,1.087239501953125,-0.313140869140625,-0.4607391357421875,0.050872802734375
1761915100248293600,1.097293701171875,-0.400390625,-0.591064453125,0.0804901123046875
1761915100258347500,1.107347412109375,-0.4808197021484375,-0.7540283203125,0.122528076171875
1761915100268401700,1.117401611328125,-0.61895751953125,-0.8708953857421875,0.123565673828125
1761915100278456600,1.12745654296875,-0.919586181640625,-0.9590301513671875,0.1075897216796875
1761915100288510500,1.137510498046875,-1.2757415771484375,-1.0078887939453125,0.0539093017578125
1761915100298564600,1.147564697265625,-1.4426116943359375,-0.99237060546875,-0.004302978515625
1761915100308619500,1.15761962890625,-1.4644927978515625,-1.0628662109375,0.002960205078125
1761915100318673700,1.167673583984375,-1.343475341796875,-1.226043701171875,0.0666046142578125
1761915100328727600,1.1777275390625,-1.2877197265625,-1.3142547607421875,0.122344970703125
1761915100338782500,1.187782470703125,-1.3452301025390625,-1.35491943359375,0.19647216796875
1761915100348836600,1.197836669921875,-1.4864501953125,-1.3924713134765625,0.3019561767578125
1761915100358890500,1.207890380859375,-1.6428375244140625,-1.418609619140625,0.3849029541015625
1761915100368944600,1.217944580078125,-1.7153778076171875,-1.4564666748046875,0.4427337646484375
1761915100378999600,1.22799951171875,-1.6695098876953125,-1.509613037109375,0.466033935546875
1761915100389053700,1.2380537109375,-1.6142120361328125,-1.5331268310546875,0.4356231689453125
1761915100399107600,1.248107666015625,-1.56561279296875,-1.515289306640625,0.3733062744140625
1761915100409162500,1.25816259765625,-1.5037689208984375,-1.47052001953125,0.2882232666015625
1761915100419216600,1.268216552734375,-1.4512481689453125,-1.41357421875,0.20281982421875
1761915100429270500,1.2782705078125,-1.3288116455078125,-1.358734130859375,0.12310791015625
1761915100439324700,1.28832470703125,-1.1466064453125,-1.25506591796875,0.05755615234375
1761915100449379600,1.298379638671875,-0.9469451904296875,-1.1036376953125,0.0293731689453125
1761915100459433500,1.30843359375,-0.757110595703125,-0.9633331298828125,0.0338134765625
1761915100469487600,1.318487548828125,-0.592620849609375,-0.82318115234375,0.04248046875
1761915100479542500,1.32854248046875,-0.460205078125,-0.6783294677734375,0.037750244140625
1761915100489596700,1.3385966796875,-0.4029998779296875,-0.5487213134765625,0.0258941650390625
1761915100499650600,1.348650634765625,-0.4185943603515625,-0.4526519775390625,0.02117919921875
1761915100509705500,1.35870556640625,-0.4246368408203125,-0.3717041015625,0.01220703125
1761915100519759600,1.368759521484375,-0.3799896240234375,-0.2923126220703125,-0.0117340087890625
1761915100529813500,1.3788134765625,-0.32293701171875,-0.2319183349609375,-0.032501220703125
1761915100539867600,1.38886767578125,-0.257232666015625,-0.199249267578125,-0.043731689453125
1761915100549922800,1.3989228515625,-0.17364501953125,-0.185943603515625,-0.032012939453125
1761915100559976700,1.408976806640625,-0.111968994140625,-0.1796112060546875,-0.010284423828125
1761915100570030600,1.419030517578125,-0.0712738037109375,-0.1725921630859375,0.018402099609375
1761915100580085500,1.42908544921875,-0.0451812744140625,-0.153778076171875,0.0396881103515625
1761915100590139600,1.4391396484375,-0.0292816162109375,-0.135986328125,0.0512237548828125
1761915100600193500,1.449193603515625,-0.009490966796875,-0.1380157470703125,0.0709991455078125
1761915100610247700,1.45924755859375,0.0043487548828125,-0.1462249755859375,0.091461181640625
1761915100620302600,1.469302490234375,0.0119171142578125,-0.1521453857421875,0.1056060791015625
1761915100630356500,1.4793564453125,0.0060272216796875,-0.1699066162109375,0.1194305419921875
1761915100640410600,1.48941064453125,-0.0320281982421875,-0.1986846923828125,0.13525390625
1761915100650465500,1.499465576171875,-0.0642852783203125,-0.219390869140625,0.1461181640625
1761915100660519700,1.509519775390625,-0.0666351318359375,-0.2272186279296875,0.14166259765625
1761915100670573600,1.519573486328125,-0.0689697265625,-0.2346038818359375,0.1305084228515625
1761915100680628500,1.52962841796875,-0.0758209228515625,-0.2532501220703125,0.1244964599609375
1761915100690682600,1.5396826171875,-0.130828857421875,-0.271392822265625,0.110198974609375
1761915100700736500,1.549736572265625,-0.2389373779296875,-0.3265228271484375,0.104461669921875
1761915100710790700,1.559790771484375,-0.3364410400390625,-0.4507904052734375,0.1226806640625
1761915100720845800,1.569845703125,-0.45806884765625,-0.58575439453125,0.147064208984375
1761915100730899500,1.5798994140625,-0.5948486328125,-0.658599853515625,0.12823486328125
1761915100740953600,1.58995361328125,-0.7688140869140625,-0.7288360595703125,0.0760955810546875
1761915100751008500,1.600008544921875,-1.048828125,-0.816650390625,-0.00811767578125
1761915100761062700,1.610062744140625,-1.4036865234375,-0.8867645263671875,-0.08416748046875
1761915100771116500,1.620116455078125,-1.65789794921875,-0.968963623046875,-0.083221435546875
1761915100781170700,1.630170654296875,-1.6804351806640625,-0.99737548828125,-0.04010009765625
1761915100791225600,1.6402255859375,-1.57421875,-1.01031494140625,0.0457916259765625
1761915100801279500,1.650279541015625,-1.4995880126953125,-1.11834716796875,0.1864471435546875
1761915100811333600,1.660333740234375,-1.626800537109375,-1.242218017578125,0.3387298583984375
1761915100821388500,1.670388427734375,-1.8015899658203125,-1.340667724609375,0.481719970703125
1761915100831442700,1.680442626953125,-1.78302001953125,-1.412200927734375,0.5714111328125
1761915100841496800,1.690496826171875,-1.62542724609375,-1.4422607421875,0.56744384765625
1761915100851550500,1.700550537109375,-1.437042236328125,-1.44915771484375,0.5158233642578125
1761915100861605600,1.710605712890625,-1.2978057861328125,-1.4695281982421875,0.5195770263671875
1761915100871659500,1.720659423828125,-1.1746673583984375,-1.5176849365234375,0.5722808837890625
1761915100881713700,1.730713623046875,-1.0269317626953125,-1.56048583984375,0.598724365234375
1761915100891768600,1.7407685546875,-0.931854248046875,-1.5973663330078125,0.5820770263671875
1761915100901822500,1.750822509765625,-0.890472412109375,-1.615386962890625,0.539154052734375
1761915100911876600,1.760876708984375,-0.8602752685546875,-1.570587158203125,0.47528076171875
1761915100921931500,1.770931640625,-0.8041839599609375,-1.4848480224609375,0.397491455078125
1761915100931985700,1.780985595703125,-0.716644287109375,-1.3727569580078125,0.33917236328125
1761915100942039600,1.79103955078125,-0.6277923583984375,-1.235321044921875,0.28973388671875
1761915100952093700,1.80109375,-0.5357666015625,-1.1035003662109375,0.243499755859375
1761915100962148600,1.811148681640625,-0.449798583984375,-0.9950714111328125,0.1890869140625
1761915100972202500,1.821202392578125,-0.3631439208984375,-0.8824462890625,0.1207122802734375
1761915100982256600,1.831256591796875,-0.30096435546875,-0.724273681640625,0.0540771484375
1761915100992311600,1.8413115234375,-0.2643280029296875,-0.560546875,0.0032196044921875
1761915101002365700,1.85136572265625,-0.238525390625,-0.4256439208984375,-0.023651123046875
1761915101012419600,1.861419677734375,-0.22113037109375,-0.319671630859375,-0.032196044921875
1761915101022473500,1.871473388671875,-0.193328857421875,-0.2274322509765625,-0.0303497314453125
1761915101032528600,1.881528564453125,-0.1497039794921875,-0.150665283203125,-0.01873779296875
1761915101042582500,1.89158251953125,-0.1223907470703125,-0.0991668701171875,0.01446533203125
1761915101052636700,1.90163671875,-0.1084747314453125,-0.0579986572265625,0.061859130859375
1761915101062691600,1.911691650390625,-0.085845947265625,-0.043212890625,0.1130828857421875
1761915101072745500,1.921745361328125,-0.05596923828125,-0.061614990234375,0.1679534912109375
1761915101082799600,1.931799560546875,-0.045135498046875,-0.08160400390625,0.206695556640625
1761915101092853500,1.941853515625,-0.04608154296875,-0.08514404296875,0.2237701416015625
1761915101102908700,1.95190869140625,-0.0394134521484375,-0.11456298828125,0.2411041259765625
1761915101112962600,1.961962646484375,-0.027557373046875,-0.1580963134765625,0.25018310546875
1761915101123016700,1.9720166015625,-0.02294921875,-0.1785430908203125,0.24053955078125
1761915101133071600,1.982071533203125,-0.0156097412109375,-0.1913909912109375,0.2165679931640625
1761915101143125500,1.99212548828125,-0.0290374755859375,-0.2093353271484375,0.1767578125
1761915101153179600,2.0021796875,-0.0349578857421875,-0.21612548828125,0.1290283203125
1761915101163234600,2.012234619140625,-0.0522613525390625,-0.2144012451171875,0.0948638916015625
1761915101173288700,2.022288818359375,-0.094146728515625,-0.2178497314453125,0.0848541259765625
1761915101183342600,2.032342529296875,-0.1253509521484375,-0.232421875,0.096221923828125
1761915101193396500,2.042396484375,-0.1188812255859375,-0.2461090087890625,0.1144256591796875
1761915101203451600,2.05245166015625,-0.1183929443359375,-0.274749755859375,0.14495849609375
1761915101213505500,2.062505615234375,-0.1674652099609375,-0.345184326171875,0.1797637939453125
1761915101223559700,2.0725595703125,-0.2415618896484375,-0.4214630126953125,0.2147979736328125
1761915101233614600,2.082614501953125,-0.3534088134765625,-0.477813720703125,0.24517822265625
1761915101243668500,2.09266845703125,-0.5557403564453125,-0.54364013671875,0.2550201416015625
1761915101253722600,2.10272265625,-0.729888916015625,-0.686279296875,0.2696685791015625
1761915101263776500,2.112776611328125,-0.8782501220703125,-0.868682861328125,0.2620849609375
1761915101273831700,2.122831787109375,-1.088226318359375,-0.9781494140625,0.1995086669921875
1761915101283885600,2.132885498046875,-1.2139739990234375,-1.0411376953125,0.143951416015625
1761915101293939700,2.142939697265625,-1.16204833984375,-1.2085113525390625,0.1764984130859375
1761915101303994600,2.15299462890625,-1.1362152099609375,-1.38775634765625,0.2526092529296875
1761915101314048500,2.163048583984375,-1.16461181640625,-1.4952545166015625,0.362762451171875
1761915101324102700,2.1731025390625,-1.2310943603515625,-1.56146240234375,0.4698638916015625
1761915101334156500,2.183156494140625,-1.3517608642578125,-1.62628173828125,0.558685302734375
1761915101344211500,2.19321142578125,-1.4105682373046875,-1.673797607421875,0.643768310546875
1761915101354265600,2.203265625,-1.43707275390625,-1.6971435546875,0.7235870361328125
1761915101364319500,2.213319580078125,-1.478271484375,-1.749481201171875,0.80999755859375
1761915101374374700,2.223374755859375,-1.5114898681640625,-1.7991180419921875,0.8784942626953125
1761915101384428500,2.233428466796875,-1.55426025390625,-1.77978515625,0.8848419189453125
1761915101394482700,2.243482666015625,-1.61553955078125,-1.7134857177734375,0.847930908203125
1761915101404537600,2.25353759765625,-1.62939453125,-1.611236572265625,0.784149169921875
1761915101414591500,2.263591552734375,-1.5769195556640625,-1.494598388671875,0.7161407470703125
1761915101424645600,2.273645751953125,-1.4579010009765625,-1.3882598876953125,0.646820068359375
1761915101434699500,2.283699462890625,-1.29022216796875,-1.2491912841796875,0.565887451171875
1761915101444754700,2.293754638671875,-1.112518310546875,-1.0750732421875,0.4787750244140625
1761915101454808600,2.30380859375,-0.94879150390625,-0.9268646240234375,0.39349365234375
1761915101464862500,2.313862548828125,-0.821380615234375,-0.7965087890625,0.293731689453125
1761915101474917600,2.323917724609375,-0.7323150634765625,-0.6550140380859375,0.189453125
1761915101484971500,2.333971435546875,-0.633941650390625,-0.529266357421875,0.0951080322265625
1761915101495025700,2.344025634765625,-0.531402587890625,-0.425628662109375,0.0261077880859375
1761915101505079600,2.35407958984375,-0.4629974365234375,-0.336700439453125,-0.018524169921875
1761915101515134500,2.364134521484375,-0.39056396484375,-0.2418975830078125,-0.0505218505859375
1761915101525185500,2.374185546875,-0.31317138671875,-0.1367645263671875,-0.0807037353515625
1761915101535239400,2.384239501953125,-0.2422332763671875,-0.051605224609375,-0.0964508056640625
1761915101545294600,2.394294677734375,-0.1759796142578125,-0.02423095703125,-0.0778656005859375
1761915101555348500,2.404348388671875,-0.124542236328125,-0.0592193603515625,-0.0296478271484375
1761915101565402600,2.414402587890625,-0.0973663330078125,-0.1013946533203125,0.0206298828125
1761915101575456500,2.42445654296875,-0.0779571533203125,-0.094146728515625,0.0416412353515625
1761915101585511400,2.434511474609375,-0.0411834716796875,-0.1091461181640625,0.0648193359375
1761915101595565600,2.444565673828125,-0.0113067626953125,-0.151641845703125,0.1019744873046875
1761915101605619500,2.454619384765625,-0.0032501220703125,-0.1932525634765625,0.131195068359375
1761915101615674400,2.46467431640625,0.0001220703125,-0.2097320556640625,0.1471099853515625
1761915101625728500,2.474728515625,0.0140533447265625,-0.2116546630859375,0.151275634765625
1761915101635782400,2.484782470703125,0.0427398681640625,-0.2177734375,0.15777587890625
1761915101645836500,2.49483642578125,0.04779052734375,-0.203399658203125,0.162506103515625
1761915101655891500,2.504891357421875,0.052337646484375,-0.18023681640625,0.1661529541015625
1761915101665945600,2.514945556640625,0.0576324462890625,-0.151092529296875,0.1734466552734375
1761915101675999500,2.52499951171875,0.0673370361328125,-0.119171142578125,0.1850128173828125
1761915101686054400,2.535054443359375,0.057098388671875,-0.104736328125,0.2055206298828125
1761915101696108500,2.545108642578125,0.02618408203125,-0.08758544921875,0.228790283203125
1761915101706162400,2.555162353515625,0.00299072265625,-0.0799713134765625,0.2521514892578125
1761915101716216600,2.565216552734375,-0.0003814697265625,-0.1578216552734375,0.302734375
1761915101726271500,2.575271484375,-0.029876708984375,-0.2935333251953125,0.35760498046875
1761915101736325400,2.585325439453125,-0.0987396240234375,-0.4157257080078125,0.3882598876953125
1761915101746379500,2.595379638671875,-0.161285400390625,-0.5052947998046875,0.36444091796875
1761915101756434400,2.605434326171875,-0.2210693359375,-0.5848846435546875,0.3280487060546875
1761915101766488600,2.615488525390625,-0.3282470703125,-0.6891937255859375,0.2996673583984375
1761915101776542500,2.62554248046875,-0.4704132080078125,-0.8910980224609375,0.3251800537109375
1761915101786597400,2.635597412109375,-0.657196044921875,-1.1098480224609375,0.3921966552734375
1761915101796651500,2.645651611328125,-0.848876953125,-1.1667327880859375,0.4388580322265625
1761915101806705400,2.655705322265625,-0.9534759521484375,-1.197479248046875,0.5115509033203125
1761915101816759600,2.665759521484375,-0.9933929443359375,-1.3507537841796875,0.5966644287109375
1761915101826814500,2.675814453125,-1.032958984375,-1.504913330078125,0.6178741455078125
1761915101836868600,2.68586865234375,-1.1200714111328125,-1.600830078125,0.584228515625
1761915101846922500,2.695922607421875,-1.24176025390625,-1.7047271728515625,0.51806640625
1761915101856977400,2.705977294921875,-1.3491363525390625,-1.789764404296875,0.447113037109375
1761915101867031600,2.716031494140625,-1.440338134765625,-1.8665313720703125,0.4171600341796875
1761915101877085400,2.72608544921875,-1.442474365234375,-1.9197235107421875,0.4366302490234375
1761915101887139600,2.7361396484375,-1.37237548828125,-1.9404144287109375,0.4716033935546875
1761915101897194500,2.746194580078125,-1.31341552734375,-1.960174560546875,0.490631103515625
1761915101907248400,2.756248291015625,-1.251495361328125,-1.9347991943359375,0.486480712890625
1761915101917302500,2.766302490234375,-1.1455841064453125,-1.861541748046875,0.462493896484375
1761915101927357400,2.776357421875,-0.9997100830078125,-1.7820892333984375,0.43505859375
1761915101937411600,2.78641162109375,-0.853302001953125,-1.664947509765625,0.4197235107421875
1761915101947465500,2.796465576171875,-0.7225494384765625,-1.5009307861328125,0.39886474609375
1761915101957519600,2.80651953125,-0.629913330078125,-1.3224029541015625,0.3381805419921875
1761915101967574500,2.816574462890625,-0.58447265625,-1.1810302734375,0.27099609375
1761915101977628400,2.82662841796875,-0.572021484375,-1.0514678955078125,0.2031097412109375
1761915101987682600,2.8366826171875,-0.5600433349609375,-0.903564453125,0.1173248291015625
1761915101997737500,2.846737548828125,-0.528106689453125,-0.7497406005859375,0.047454833984375
1761915102007791600,2.85679150390625,-0.495025634765625,-0.5920257568359375,-0.004364013671875
1761915102017845500,2.866845458984375,-0.49517822265625,-0.443634033203125,-0.0354766845703125
1761915102027899400,2.8768994140625,-0.4852447509765625,-0.3135223388671875,-0.042205810546875
1761915102037954600,2.88695458984375,-0.4233551025390625,-0.2016754150390625,-0.0458984375
1761915102048008400,2.897008544921875,-0.3386077880859375,-0.1345672607421875,-0.023162841796875
1761915102058062600,2.9070625,-0.243621826171875,-0.097320556640625,0.015899658203125
1761915102068117500,2.917117431640625,-0.1673736572265625,-0.0667572021484375,0.068145751953125
1761915102078171400,2.92717138671875,-0.1066131591796875,-0.0454254150390625,0.1263885498046875
1761915102088225500,2.9372255859375,-0.0686798095703125,-0.0486297607421875,0.1743011474609375
1761915102098280400,2.947280517578125,-0.0572052001953125,-0.0578155517578125,0.217193603515625
1761915102108334600,2.95733447265625,-0.06951904296875,-0.0746307373046875,0.25250244140625
1761915102118388500,2.967388427734375,-0.0801849365234375,-0.0955047607421875,0.270172119140625
1761915102128442600,2.977442626953125,-0.086029052734375,-0.10516357421875,0.257965087890625
1761915102138497500,2.98749755859375,-0.0875244140625,-0.1146697998046875,0.2347412109375
1761915102148551400,2.997551513671875,-0.0849761962890625,-0.1268768310546875,0.2054443359375
1761915102158605600,3.00760546875,-0.0895538330078125,-0.1291961669921875,0.1739044189453125
1761915102168660500,3.017660400390625,-0.0924835205078125,-0.142120361328125,0.1561279296875
1761915102178714600,3.027714599609375,-0.093048095703125,-0.159454345703125,0.152618408203125
1761915102188768500,3.0377685546875,-0.1143951416015625,-0.1635894775390625,0.153594970703125
1761915102198822400,3.047822509765625,-0.1407470703125,-0.1720733642578125,0.157073974609375
1761915102208877600,3.057877685546875,-0.1722412109375,-0.187408447265625,0.152099609375
1761915102218931500,3.067931396484375,-0.1983795166015625,-0.2212982177734375,0.1596527099609375
1761915102228985600,3.077985595703125,-0.2357635498046875,-0.2898406982421875,0.1770172119140625
1761915102239040500,3.08804052734375,-0.305694580078125,-0.3977508544921875,0.1993408203125
1761915102249094400,3.098094482421875,-0.4254302978515625,-0.5277557373046875,0.2276153564453125
1761915102259148500,3.1081484375,-0.5321807861328125,-0.64617919921875,0.2348480224609375
1761915102269202400,3.118202392578125,-0.637908935546875,-0.7313385009765625,0.1947174072265625
1761915102279257600,3.128257568359375,-0.7514801025390625,-0.830169677734375,0.1441650390625
1761915102289311500,3.1383115234375,-0.852752685546875,-0.991302490234375,0.1212310791015625
1761915102299365600,3.14836572265625,-1.0326995849609375,-1.11163330078125,0.0949554443359375
1761915102309420500,3.158420654296875,-1.226898193359375,-1.1575775146484375,0.097137451171875
1761915102319474400,3.168474365234375,-1.324615478515625,-1.291107177734375,0.1971893310546875
1761915102329528600,3.178528564453125,-1.3368682861328125,-1.4152984619140625,0.3064422607421875
1761915102339582500,3.18858251953125,-1.27978515625,-1.439208984375,0.350372314453125
1761915102349637600,3.1986376953125,-1.292724609375,-1.45611572265625,0.3516998291015625
1761915102359691500,3.20869140625,-1.342803955078125,-1.5630950927734375,0.3631439208984375
1761915102369745400,3.218745361328125,-1.406951904296875,-1.6731719970703125,0.3741912841796875
1761915102379800600,3.228800537109375,-1.443084716796875,-1.7391204833984375,0.36492919921875
1761915102389854500,3.2388544921875,-1.4491424560546875,-1.781982421875,0.323211669921875
1761915102399908600,3.24890869140625,-1.4343414306640625,-1.7958984375,0.24017333984375
1761915102409963500,3.258963623046875,-1.4189605712890625,-1.740570068359375,0.1219940185546875
1761915102420017400,3.269017333984375,-1.37591552734375,-1.66839599609375,0.0142364501953125
1761915102430071600,3.279071533203125,-1.2946624755859375,-1.566497802734375,-0.06024169921875
1761915102440125400,3.28912548828125,-1.1434173583984375,-1.4368743896484375,-0.0775909423828125
1761915102450180600,3.2991806640625,-0.9564208984375,-1.303924560546875,-0.0400238037109375
1761915102460234500,3.309234375,-0.79437255859375,-1.1727752685546875,0.019805908203125
1761915102470288600,3.31928857421875,-0.64849853515625,-1.046630859375,0.049224853515625
1761915102480343600,3.329343505859375,-0.532379150390625,-0.9146728515625,0.03106689453125
1761915102490397400,3.3393974609375,-0.456939697265625,-0.772064208984375,-0.0232696533203125
1761915102500451600,3.34945166015625,-0.410980224609375,-0.63006591796875,-0.0934600830078125
1761915102510505500,3.35950537109375,-0.371612548828125,-0.5264739990234375,-0.137359619140625
1761915102520559600,3.3695595703125,-0.3637237548828125,-0.428955078125,-0.1622772216796875
1761915102530613800,3.37961376953125,-0.3621063232421875,-0.3230438232421875,-0.1591033935546875
1761915102540667600,3.389667724609375,-0.3111114501953125,-0.2325592041015625,-0.1380767822265625
1761915102550722600,3.39972265625,-0.220184326171875,-0.153228759765625,-0.1092529296875
1761915102560776700,3.409776611328125,-0.15478515625,-0.0978546142578125,-0.0579986572265625
1761915102570830600,3.41983056640625,-0.133453369140625,-0.071014404296875,0.018524169921875
1761915102580885800,3.4298857421875,-0.125244140625,-0.0475311279296875,0.0956573486328125
1761915102590939600,3.439939697265625,-0.1090545654296875,-0.0386199951171875,0.1456756591796875
1761915102600993500,3.44999365234375,-0.0858001708984375,-0.054443359375,0.154022216796875
1761915102611047700,3.460047607421875,-0.0313720703125,-0.078369140625,0.13836669921875
1761915102621102600,3.4701025390625,0.0084381103515625,-0.1194000244140625,0.1328582763671875
1761915102631156700,3.48015673828125,0.0185699462890625,-0.1702117919921875,0.1302490234375
1761915102641210600,3.490210693359375,0.0035858154296875,-0.216705322265625,0.1246490478515625
1761915102651265500,3.500265625,0.0008544921875,-0.2482147216796875,0.1109771728515625
1761915102661319700,3.510319580078125,0.0053558349609375,-0.248016357421875,0.086517333984375
1761915102671373600,3.52037353515625,-0.0014190673828125,-0.246368408203125,0.0645294189453125
1761915102681427700,3.530427734375,-0.0215606689453125,-0.26123046875,0.0643768310546875
1761915102691482600,3.540482666015625,-0.046112060546875,-0.2878875732421875,0.071197509765625
1761915102701536800,3.550536865234375,-0.063873291015625,-0.30694580078125,0.0787353515625
1761915102711590700,3.560590576171875,-0.0721588134765625,-0.3524322509765625,0.0930938720703125
1761915102721645600,3.5706455078125,-0.1139678955078125,-0.4478302001953125,0.1239013671875
1761915102731699700,3.58069970703125,-0.214813232421875,-0.564178466796875,0.1581268310546875
1761915102741753600,3.590753662109375,-0.381591796875,-0.6696624755859375,0.17596435546875
1761915102751807700,3.600807861328125,-0.582672119140625,-0.712066650390625,0.1469268798828125
1761915102761862400,3.6108623046875,-0.7511444091796875,-0.740997314453125,0.117889404296875
1761915102771916500,3.62091650390625,-0.9150848388671875,-0.837371826171875,0.1147308349609375
1761915102781970700,3.630970703125,-1.1466217041015625,-0.9362030029296875,0.1043548583984375
1761915102792025600,3.641025634765625,-1.3648681640625,-0.994415283203125,0.1158599853515625
1761915102802079700,3.651079833984375,-1.5050811767578125,-1.0675811767578125,0.1784210205078125
1761915102812133600,3.661133544921875,-1.4946746826171875,-1.2132110595703125,0.28448486328125
1761915102822188500,3.6711884765625,-1.5205841064453125,-1.253692626953125,0.3433074951171875
1761915102832242700,3.68124267578125,-1.63922119140625,-1.2960968017578125,0.4025421142578125
1761915102842296600,3.691296630859375,-1.769927978515625,-1.38690185546875,0.4452667236328125
1761915102852350700,3.701350830078125,-1.8494873046875,-1.430511474609375,0.4566650390625
1761915102862405600,3.711405517578125,-1.8325958251953125,-1.4773406982421875,0.4612579345703125
1761915102872459800,3.721459716796875,-1.7647705078125,-1.516021728515625,0.440399169921875
1761915102882513400,3.731513427734375,-1.7046966552734375,-1.489013671875,0.37322998046875
1761915102892568600,3.741568603515625,-1.6700592041015625,-1.4086456298828125,0.282745361328125
1761915102902622700,3.751622802734375,-1.62152099609375,-1.319549560546875,0.1921844482421875
1761915102912676600,3.761676513671875,-1.5196990966796875,-1.2388763427734375,0.1153717041015625
1761915102922730800,3.771730712890625,-1.340728759765625,-1.142181396484375,0.0748138427734375
1761915102932785700,3.78178564453125,-1.1370697021484375,-1.04388427734375,0.0821685791015625
1761915102942839600,3.791839599609375,-0.9246368408203125,-0.96063232421875,0.114166259765625
1761915102952893700,3.801893798828125,-0.7474212646484375,-0.8830108642578125,0.1244354248046875
1761915102962948600,3.811948486328125,-0.60052490234375,-0.7921600341796875,0.0949859619140625
1761915102973002800,3.822002685546875,-0.4772491455078125,-0.703033447265625,0.0390472412109375
1761915102983056600,3.832056640625,-0.3886260986328125,-0.6091461181640625,-0.031707763671875
1761915102993111600,3.842111572265625,-0.3277740478515625,-0.506561279296875,-0.085357666015625
1761915103003165700,3.852165771484375,-0.295440673828125,-0.401702880859375,-0.125701904296875
1761915103013219600,3.862219482421875,-0.31488037109375,-0.3076934814453125,-0.140411376953125
1761915103023273700,3.872273681640625,-0.3293304443359375,-0.2203216552734375,-0.1374053955078125
1761915103033328600,3.88232861328125,-0.29412841796875,-0.14990234375,-0.1195220947265625
1761915103043382500,3.892382568359375,-0.256072998046875,-0.11248779296875,-0.08050537109375
1761915103053436400,3.9024365234375,-0.2261810302734375,-0.08709716796875,-0.0291290283203125
1761915103063491600,3.91249169921875,-0.2058258056640625,-0.0818023681640625,0.0276641845703125
1761915103073545700,3.922545654296875,-0.1830596923828125,-0.069122314453125,0.0620574951171875
1761915103083599600,3.932599609375,-0.1558074951171875,-0.0614013671875,0.07476806640625
1761915103093654500,3.942654541015625,-0.111328125,-0.08343505859375,0.0843658447265625
1761915103103708700,3.952708740234375,-0.0807342529296875,-0.1236572265625,0.0895843505859375
1761915103113762600,3.962762451171875,-0.0782928466796875,-0.1689300537109375,0.0904693603515625
1761915103123816700,3.972816650390625,-0.0767669677734375,-0.20587158203125,0.0933380126953125
1761915103133871600,3.98287158203125,-0.076995849609375,-0.24359130859375,0.1000518798828125
1761915103143925800,3.99292578125,-0.1003875732421875,-0.2638397216796875,0.1019439697265625
1761915103153979600,4.002979736328125,-0.145660400390625,-0.263885498046875,0.0983734130859375
1761915103164031700,4.01303173828125,-0.2000732421875,-0.260162353515625,0.0872955322265625
1761915103174086700,4.023086669921875,-0.25555419921875,-0.255767822265625,0.0753631591796875
1761915103184140800,4.033140869140625,-0.309844970703125,-0.266021728515625,0.081787109375
1761915103194194400,4.0431943359375,-0.3969879150390625,-0.312408447265625,0.1119384765625
1761915103204248600,4.05324853515625,-0.494476318359375,-0.377777099609375,0.148834228515625
1761915103214303700,4.0633037109375,-0.6083831787109375,-0.4522705078125,0.1668701171875
1761915103224357600,4.073357666015625,-0.7385711669921875,-0.5386505126953125,0.1656646728515625
1761915103234411800,4.083411865234375,-0.9007568359375,-0.5895233154296875,0.1529083251953125
1761915103244466400,4.093466552734375,-1.05816650390625,-0.7222900390625,0.182373046875
1761915103254520600,4.1035205078125,-1.1329345703125,-1.010589599609375,0.2850341796875
1761915103264574500,4.113574462890625,-1.29901123046875,-1.2103118896484375,0.3189544677734375
1761915103274628600,4.123628662109375,-1.53271484375,-1.1515960693359375,0.229248046875
1761915103284683800,4.133683837890625,-1.546234130859375,-1.144683837890625,0.1751251220703125
1761915103294737700,4.143737548828125,-1.456268310546875,-1.334930419921875,0.2777252197265625
1761915103304791800,4.153791748046875,-1.4072113037109375,-1.4874114990234375,0.4249420166015625
1761915103314846500,4.163846435546875,-1.4391021728515625,-1.4827423095703125,0.4746246337890625
1761915103324900600,4.173900634765625,-1.4749908447265625,-1.3982391357421875,0.42626953125
1761915103334954800,4.183954833984375,-1.496337890625,-1.347137451171875,0.3572235107421875
1761915103345009700,4.194009765625,-1.552825927734375,-1.36676025390625,0.3255767822265625
1761915103355063600,4.2040634765625,-1.5654449462890625,-1.4293670654296875,0.3305511474609375
1761915103365117400,4.214117431640625,-1.47027587890625,-1.436492919921875,0.3078765869140625
1761915103375171600,4.224171630859375,-1.389923095703125,-1.400299072265625,0.2654571533203125
1761915103385226800,4.234226806640625,-1.315155029296875,-1.367156982421875,0.2256927490234375
1761915103395280600,4.24428076171875,-1.23431396484375,-1.30511474609375,0.1763916015625
1761915103405334800,4.254334716796875,-1.137664794921875,-1.2158355712890625,0.1334991455078125
1761915103415389400,4.264389404296875,-1.01287841796875,-1.0713653564453125,0.10736083984375
1761915103425443600,4.274443603515625,-0.83477783203125,-0.9214935302734375,0.0956268310546875
1761915103435497500,4.28449755859375,-0.651885986328125,-0.8209686279296875,0.0805206298828125
1761915103445552600,4.294552734375,-0.49298095703125,-0.7197113037109375,0.051788330078125
1761915103455606800,4.304606689453125,-0.3755035400390625,-0.6076202392578125,0.0284423828125
1761915103465660700,4.31466064453125,-0.2888641357421875,-0.5131072998046875,0.011749267578125
1761915103475714600,4.324714599609375,-0.22686767578125,-0.432403564453125,0.0013275146484375
1761915103485769700,4.334769775390625,-0.183441162109375,-0.3596038818359375,0.0070648193359375
1761915103495823600,4.34482373046875,-0.1594390869140625,-0.3016204833984375,0.0303802490234375
1761915103505877800,4.354877685546875,-0.1313018798828125,-0.24346923828125,0.05865478515625
1761915103515932700,4.3649326171875,-0.1148681640625,-0.1820220947265625,0.0925750732421875
1761915103525987600,4.374987548828125,-0.0887603759765625,-0.126678466796875,0.1327667236328125
1761915103536041500,4.38504150390625,-0.0662994384765625,-0.0819549560546875,0.1708984375
1761915103546096600,4.3950966796875,-0.0455474853515625,-0.0560455322265625,0.2126312255859375
1761915103556150800,4.40515087890625,-0.0194244384765625,-0.0447235107421875,0.2447357177734375
1761915103566204700,4.41520458984375,0.007293701171875,-0.0476226806640625,0.259185791015625
1761915103576258600,4.425258544921875,0.0201873779296875,-0.0702667236328125,0.264495849609375
1761915103586313500,4.4353134765625,0.0279998779296875,-0.0830078125,0.25848388671875
1761915103596367600,4.44536767578125,0.0454864501953125,-0.0950164794921875,0.241455078125
1761915103606421800,4.455421875,0.047027587890625,-0.129302978515625,0.237701416015625
1761915103616476400,4.465476318359375,-0.00091552734375,-0.1903839111328125,0.240631103515625
1761915103626530600,4.475530517578125,-0.073974609375,-0.220733642578125,0.1985015869140625
1761915103636584400,4.48558447265625,-0.1546783447265625,-0.190673828125,0.1439971923828125
1761915103646639600,4.4956396484375,-0.2342681884765625,-0.169677734375,0.1161956787109375
1761915103656693800,4.50569384765625,-0.308990478515625,-0.2102813720703125,0.11810302734375
1761915103666747600,4.51574755859375,-0.3567047119140625,-0.3088531494140625,0.1468963623046875
1761915103676801800,4.5258017578125,-0.4232330322265625,-0.4522705078125,0.1982879638671875
1761915103686856400,4.5358564453125,-0.5731201171875,-0.5881195068359375,0.2564697265625
1761915103696910600,4.54591064453125,-0.812713623046875,-0.67572021484375,0.2631988525390625
1761915103706964500,4.555964599609375,-0.961151123046875,-0.757232666015625,0.234893798828125
1761915103717019600,4.56601953125,-1.0908660888671875,-0.8119964599609375,0.1524505615234375
1761915103727073800,4.57607373046875,-1.302734375,-0.7951202392578125,0.0260467529296875
1761915103737127400,4.58612744140625,-1.4354705810546875,-0.7914886474609375,-0.005584716796875
1761915103747181600,4.596181640625,-1.5147857666015625,-0.8578033447265625,0.091583251953125
1761915103757236500,4.606236572265625,-1.586029052734375,-0.9626312255859375,0.2544097900390625
1761915103767290600,4.61629052734375,-1.61767578125,-1.07843017578125,0.417327880859375
1761915103777344800,4.6263447265625,-1.6724090576171875,-1.18084716796875,0.5189666748046875
1761915103787399400,4.6363994140625,-1.7863922119140625,-1.174713134765625,0.50274658203125
1761915103797453600,4.64645361328125,-1.832275390625,-1.1314544677734375,0.4294891357421875
1761915103807507500,4.656507568359375,-1.7876739501953125,-1.15850830078125,0.3534393310546875
1761915103817562600,4.666562744140625,-1.7072906494140625,-1.1775360107421875,0.3163909912109375
1761915103827616800,4.67661669921875,-1.5752716064453125,-1.1845703125,0.3294677734375
1761915103837670700,4.686670654296875,-1.4169921875,-1.19000244140625,0.3603973388671875
1761915103847724800,4.696724853515625,-1.287872314453125,-1.1916961669921875,0.3749237060546875
1761915103857779500,4.706779541015625,-1.171417236328125,-1.1692962646484375,0.3746185302734375
1761915103867833600,4.71683349609375,-1.0337066650390625,-1.114959716796875,0.361907958984375
1761915103877887500,4.726887451171875,-0.8715362548828125,-1.0444488525390625,0.35089111328125
1761915103887942700,4.736942626953125,-0.7152252197265625,-0.9565582275390625,0.338836669921875
1761915103897996500,4.74699658203125,-0.57940673828125,-0.8360137939453125,0.3011322021484375
1761915103908050400,4.757050537109375,-0.5261383056640625,-0.67864990234375,0.20977783203125
1761915103918105600,4.767105712890625,-0.570953369140625,-0.5311126708984375,0.0903167724609375
1761915103928159500,4.777159423828125,-0.64892578125,-0.44830322265625,0.0124359130859375
1761915103938213600,4.787213623046875,-0.68853759765625,-0.395294189453125,-0.0113067626953125
1761915103948268500,4.7972685546875,-0.655792236328125,-0.31488037109375,-0.0328369140625
1761915103958322400,4.807322509765625,-0.5903778076171875,-0.2550811767578125,-0.0399932861328125
1761915103968376600,4.81737646484375,-0.48858642578125,-0.2214202880859375,-0.021240234375
1761915103978430500,4.827430419921875,-0.4346771240234375,-0.18536376953125,0.0081329345703125
1761915103988485600,4.837485595703125,-0.410400390625,-0.186492919921875,0.068572998046875
1761915103998539800,4.847539794921875,-0.4091796875,-0.202728271484375,0.1364898681640625
1761915104008593700,4.85759375,-0.3551483154296875,-0.19183349609375,0.1711273193359375
1761915104018648600,4.867648681640625,-0.27069091796875,-0.17236328125,0.173187255859375
1761915104028702500,4.877702392578125,-0.2245025634765625,-0.157470703125,0.1523284912109375
1761915104038756600,4.887756591796875,-0.203521728515625,-0.1845855712890625,0.145538330078125
1761915104048811800,4.897811767578125,-0.1816253662109375,-0.2191619873046875,0.135833740234375
1761915104058865700,4.90786572265625,-0.1417236328125,-0.22265625,0.1088409423828125
1761915104068919600,4.91791943359375,-0.0977783203125,-0.2301025390625,0.0848388671875
1761915104078973400,4.927973388671875,-0.0745086669921875,-0.2355194091796875,0.0575408935546875
1761915104089028600,4.938028564453125,-0.08447265625,-0.222412109375,0.0428466796875
1761915104099082800,4.948082763671875,-0.1513824462890625,-0.22894287109375,0.0565185546875
1761915104109136600,4.95813671875,-0.24591064453125,-0.2363739013671875,0.077117919921875
1761915104119191600,4.968191650390625,-0.3157196044921875,-0.2523345947265625,0.1119232177734375
1761915104129245400,4.978245361328125,-0.3591766357421875,-0.3073883056640625,0.160797119140625
1761915104139299600,4.988299560546875,-0.41644287109375,-0.41082763671875,0.235443115234375
1761915104149354800,4.998354736328125,-0.5486907958984375,-0.4945068359375,0.305023193359375
1761915104159408600,5.00840869140625,-0.7164764404296875,-0.5575714111328125,0.3560333251953125
1761915104169462800,5.018462890625,-0.8989715576171875,-0.616546630859375,0.35687255859375
1761915104179516700,5.0285166015625,-1.1163482666015625,-0.6872100830078125,0.300933837890625
1761915104189571600,5.038571533203125,-1.3462371826171875,-0.722503662109375,0.215301513671875
1761915104199625500,5.04862548828125,-1.5341796875,-0.7236328125,0.131683349609375
1761915104209679600,5.0586796875,-1.55426025390625,-0.7989959716796875,0.141265869140625
1761915104219734800,5.06873486328125,-1.51177978515625,-0.9273223876953125,0.2297515869140625
1761915104229788400,5.078788330078125,-1.54083251953125,-1.014556884765625,0.3423004150390625
1761915104239842600,5.088842529296875,-1.6241912841796875,-1.0927734375,0.4406585693359375
1761915104249897500,5.0988974609375,-1.74371337890625,-1.12969970703125,0.4820709228515625
1761915104259951600,5.10895166015625,-1.844024658203125,-1.1368255615234375,0.4710540771484375
1761915104270005800,5.119005859375,-1.9182586669921875,-1.14825439453125,0.4337921142578125
1761915104280060400,5.129060302734375,-1.93646240234375,-1.1226043701171875,0.3534088134765625
1761915104290114600,5.139114501953125,-1.9081268310546875,-1.054443359375,0.243377685546875
1761915104300168400,5.14916845703125,-1.8162689208984375,-0.9629669189453125,0.1476287841796875
1761915104310222600,5.15922265625,-1.7366790771484375,-0.8881072998046875,0.063629150390625
1761915104320277800,5.16927783203125,-1.6241912841796875,-0.81756591796875,0.012542724609375
1761915104330331600,5.17933154296875,-1.453125,-0.721923828125,0.0086212158203125
1761915104340385800,5.1893857421875,-1.2418060302734375,-0.6377410888671875,0.0488739013671875
1761915104350440400,5.1994404296875,-0.9988861083984375,-0.6236419677734375,0.1339111328125
1761915104360494600,5.20949462890625,-0.7947235107421875,-0.609161376953125,0.2160797119140625
1761915104370548500,5.219548583984375,-0.6541290283203125,-0.544525146484375,0.2330322265625
1761915104380603600,5.229603759765625,-0.5391693115234375,-0.477996826171875,0.2036590576171875
1761915104390657500,5.239657470703125,-0.4244232177734375,-0.4099273681640625,0.1381378173828125
1761915104400711400,5.24971142578125,-0.304779052734375,-0.3372650146484375,0.0683441162109375
1761915104410765600,5.259765625,-0.2348480224609375,-0.2665252685546875,0.020233154296875
1761915104420820500,5.269820556640625,-0.1745147705078125,-0.2175140380859375,-0.0071258544921875
1761915104430874600,5.27987451171875,-0.111053466796875,-0.197357177734375,-0.0211639404296875
1761915104440928800,5.2899287109375,-0.067535400390625,-0.215850830078125,-0.0019378662109375
1761915104450983400,5.2999833984375,-0.054962158203125,-0.2400970458984375,0.049530029296875
1761915104461037600,5.31003759765625,-0.0757904052734375,-0.254119873046875,0.10107421875
1761915104471091500,5.320091552734375,-0.085479736328125,-0.2595062255859375,0.1278533935546875
1761915104481146600,5.330146728515625,-0.0865631103515625,-0.2535552978515625,0.1261444091796875
1761915104491200800,5.34020068359375,-0.08514404296875,-0.2329254150390625,0.12542724609375
1761915104501254700,5.350254638671875,-0.0831451416015625,-0.2422943115234375,0.13519287109375
1761915104511309600,5.3603095703125,-0.079132080078125,-0.2610015869140625,0.141510009765625
1761915104521363500,5.370363525390625,-0.0787811279296875,-0.2617645263671875,0.1348876953125
1761915104531417900,5.38041796875,-0.0850677490234375,-0.27001953125,0.1337738037109375
1761915104541472000,5.390471923828125,-0.102508544921875,-0.301025390625,0.1395416259765625
1761915104551527000,5.40052685546875,-0.1171112060546875,-0.3025360107421875,0.1356353759765625
1761915104561580800,5.410580810546875,-0.143798828125,-0.294952392578125,0.1390228271484375
1761915104571634700,5.420634765625,-0.2096405029296875,-0.312255859375,0.16943359375
1761915104581689900,5.43068994140625,-0.2417144775390625,-0.372650146484375,0.2300262451171875
1761915104591744000,5.440743896484375,-0.2861785888671875,-0.453399658203125,0.3050689697265625
1761915104601798000,5.4507978515625,-0.3644561767578125,-0.5364837646484375,0.3552703857421875
1761915104611852800,5.460852783203125,-0.503082275390625,-0.6058349609375,0.349334716796875
1761915104621906700,5.47090673828125,-0.712615966796875,-0.6848297119140625,0.3354034423828125
1761915104631960800,5.4809609375,-0.9340362548828125,-0.7977752685546875,0.322723388671875
1761915104642014700,5.4910146484375,-1.2336578369140625,-0.8712158203125,0.2665863037109375
1761915104652070000,5.50106982421875,-1.5117034912109375,-0.8536376953125,0.173858642578125
1761915104662124000,5.5111240234375,-1.5556488037109375,-0.865478515625,0.1302947998046875
1761915104672177700,5.521177734375,-1.5334014892578125,-1.0123138427734375,0.17437744140625
1761915104682232800,5.53123291015625,-1.584197998046875,-1.1711578369140625,0.2608795166015625
1761915104692286700,5.54128662109375,-1.6521148681640625,-1.2384490966796875,0.3366241455078125
1761915104702340900,5.5513408203125,-1.681488037109375,-1.2251129150390625,0.3367156982421875
1761915104712396000,5.56139599609375,-1.68743896484375,-1.1526336669921875,0.2638092041015625
1761915104722449700,5.57144970703125,-1.6631317138671875,-1.053955078125,0.15704345703125
1761915104732503800,5.58150390625,-1.614532470703125,-1.0287322998046875,0.0933685302734375
1761915104742559000,5.59155908203125,-1.562347412109375,-1.0266265869140625,0.073272705078125
1761915104752612900,5.60161279296875,-1.4971771240234375,-1.0086517333984375,0.0718231201171875
1761915104762667000,5.6116669921875,-1.4147491455078125,-1.01361083984375,0.0895538330078125
1761915104772721000,5.621720947265625,-1.313140869140625,-1.0152130126953125,0.095245361328125
1761915104782775800,5.63177587890625,-1.200164794921875,-0.97711181640625,0.059783935546875
1761915104792829700,5.64182958984375,-1.07550048828125,-0.8939208984375,0.008758544921875
1761915104802883800,5.6518837890625,-0.940277099609375,-0.780792236328125,-0.029815673828125
1761915104812939000,5.66193896484375,-0.8041839599609375,-0.6689300537109375,-0.04168701171875
1761915104822993000,5.671992919921875,-0.682403564453125,-0.5630340576171875,-0.0307159423828125
1761915104833047000,5.682047119140625,-0.5892333984375,-0.46905517578125,-0.0075836181640625
1761915104843101700,5.692101806640625,-0.516845703125,-0.3944854736328125,0.02001953125
1761915104853155800,5.70215576171875,-0.4468536376953125,-0.3481597900390625,0.04864501953125
1761915104863209700,5.712209716796875,-0.3804779052734375,-0.314544677734375,0.0742950439453125
1761915104873263900,5.722263916015625,-0.3477325439453125,-0.27178955078125,0.0851593017578125
1761915104883318800,5.73231884765625,-0.3388824462890625,-0.2392120361328125,0.09515380859375
1761915104893372700,5.74237255859375,-0.30743408203125,-0.2267608642578125,0.104827880859375
1761915104903426800,5.7524267578125,-0.261810302734375,-0.2227630615234375,0.12109375
1761915104913482000,5.76248193359375,-0.21490478515625,-0.22760009765625,0.1500396728515625
1761915104923536000,5.772535888671875,-0.19525146484375,-0.223602294921875,0.17608642578125
1761915104933590000,5.782590087890625,-0.2082061767578125,-0.2149505615234375,0.1966705322265625
1761915104943644700,5.792644775390625,-0.21051025390625,-0.1949310302734375,0.2006683349609375
1761915104953698800,5.80269873046875,-0.192596435546875,-0.1830596923828125,0.189361572265625
1761915104963752700,5.812752685546875,-0.1692047119140625,-0.18133544921875,0.174835205078125
1761915104973807900,5.822807861328125,-0.1631622314453125,-0.180267333984375,0.15838623046875
1761915104983862000,5.832862060546875,-0.173492431640625,-0.195281982421875,0.1455078125
1761915104993916000,5.842916015625,-0.1741943359375,-0.209747314453125,0.146942138671875
1761915105003969800,5.8529697265625,-0.1725921630859375,-0.20159912109375,0.14703369140625
1761915105014024700,5.863024658203125,-0.1964569091796875,-0.19451904296875,0.1338043212890625
1761915105024078800,5.873078857421875,-0.229248046875,-0.2419281005859375,0.1501617431640625
1761915105034133000,5.883133056640625,-0.32550048828125,-0.3459930419921875,0.2047271728515625
1761915105044188000,5.89318798828125,-0.4215240478515625,-0.4685821533203125,0.2480621337890625
1761915105054241800,5.90324169921875,-0.5681610107421875,-0.58087158203125,0.298614501953125
1761915105064295700,5.913295654296875,-0.7255096435546875,-0.6828155517578125,0.33306884765625
1761915105074350800,5.923350830078125,-0.938812255859375,-0.7748260498046875,0.3154144287109375
1761915105084405000,5.933405029296875,-1.25238037109375,-0.847900390625,0.231903076171875
1761915105094459000,5.943458984375,-1.6028594970703125,-0.832977294921875,0.10723876953125
1761915105104513000,5.953512939453125,-1.840911865234375,-0.8677978515625,0.04443359375
1761915105114567700,5.963567626953125,-1.8369140625,-0.937164306640625,0.0604095458984375
1761915105124621800,5.973621826171875,-1.6680145263671875,-0.9329986572265625,0.09295654296875
1761915105134675700,5.98367578125,-1.5858306884765625,-0.9955596923828125,0.1423492431640625
1761915105144731000,5.99373095703125,-1.697235107421875,-1.095184326171875,0.1772003173828125
1761915105154785000,6.003784912109375,-1.828277587890625,-1.1816558837890625,0.21612548828125
1761915105164839000,6.0138388671875,-1.8851470947265625,-1.2463531494140625,0.2218170166015625
1761915105174893800,6.023893798828125,-1.7959747314453125,-1.3375091552734375,0.2354888916015625
1761915105184947700,6.03394775390625,-1.66058349609375,-1.4461517333984375,0.243499755859375
1761915105195001900,6.044001953125,-1.5670928955078125,-1.46759033203125,0.2159271240234375
1761915105205057000,6.05405712890625,-1.4516754150390625,-1.431182861328125,0.168670654296875
1761915105215110700,6.064110595703125,-1.3455810546875,-1.3710479736328125,0.11822509765625
1761915105225164800,6.074164794921875,-1.2613067626953125,-1.248870849609375,0.0728759765625
1761915105235218700,6.08421875,-1.0834808349609375,-1.104278564453125,0.0282745361328125
1761915105245273900,6.09427392578125,-0.81256103515625,-0.9348602294921875,0.00018310546875
1761915105255328000,6.104327880859375,-0.5508270263671875,-0.735504150390625,-0.01611328125
1761915105265382000,6.1143818359375,-0.3939208984375,-0.5508575439453125,0.0022125244140625
1761915105275436800,6.124436767578125,-0.3446044921875,-0.414306640625,0.0308685302734375
1761915105285490700,6.13449072265625,-0.3516998291015625,-0.30499267578125,0.0601806640625
1761915105295544800,6.144544921875,-0.348663330078125,-0.2023773193359375,0.080657958984375
1761915105305600000,6.15460009765625,-0.287261962890625,-0.1386871337890625,0.088775634765625
1761915105315654000,6.16465380859375,-0.2152252197265625,-0.0934600830078125,0.0801849365234375
1761915105325708000,6.1747080078125,-0.1710205078125,-0.0532684326171875,0.0755615234375
1761915105335762700,6.1847626953125,-0.142181396484375,-0.0117034912109375,0.0796966552734375
1761915105345816800,6.19481689453125,-0.1444091796875,0.0298614501953125,0.09246826171875
1761915105355870700,6.20487060546875,-0.1529541015625,0.03253173828125,0.1258544921875
1761915105365924900,6.2149248046875,-0.1458740234375,0.0106201171875,0.158660888671875
1761915105375979800,6.224979736328125,-0.1280364990234375,-0.003387451171875,0.184783935546875
1761915105386033700,6.23503369140625,-0.081298828125,-0.0147247314453125,0.2100982666015625
1761915105396087800,6.245087890625,-0.0376739501953125,-0.0272064208984375,0.2248077392578125
1761915105406143000,6.25514306640625,-0.0345458984375,-0.0457000732421875,0.205413818359375
1761915105416196900,6.26519677734375,-0.0305633544921875,-0.0795440673828125,0.1703338623046875
1761915105426251000,6.2752509765625,-0.037353515625,-0.1214141845703125,0.1482086181640625
1761915105436305700,6.2853056640625,-0.08563232421875,-0.1662750244140625,0.1319732666015625
1761915105446359800,6.29535986328125,-0.1103057861328125,-0.2315521240234375,0.1250762939453125
1761915105456413700,6.30541357421875,-0.128662109375,-0.2976531982421875,0.113494873046875
1761915105466468900,6.31546875,-0.1660003662109375,-0.3476715087890625,0.1016693115234375
1761915105476523000,6.32552294921875,-0.223052978515625,-0.39154052734375,0.0746917724609375
1761915105486577000,6.335576904296875,-0.310394287109375,-0.4315643310546875,0.03448486328125
1761915105496630800,6.345630859375,-0.371124267578125,-0.5099945068359375,0.0120391845703125
1761915105506685700,6.355685791015625,-0.449493408203125,-0.616943359375,0.0200042724609375
1761915105516739800,6.36573974609375,-0.57373046875,-0.7465972900390625,0.0745849609375
1761915105526794000,6.3757939453125,-0.716461181640625,-0.8590240478515625,0.1201324462890625
1761915105536848400,6.385848388671875,-0.8737945556640625,-0.957611083984375,0.1420135498046875
1761915105546902500,6.395902587890625,-1.1055755615234375,-1.0255889892578125,0.092529296875
1761915105556956400,6.405956298828125,-1.3857879638671875,-1.032379150390625,-0.000244140625
1761915105567011300,6.41601123046875,-1.582672119140625,-1.0648956298828125,-0.029449462890625
1761915105577065500,6.4260654296875,-1.6157073974609375,-1.1922760009765625,0.053741455078125
1761915105587119400,6.436119384765625,-1.528167724609375,-1.3199005126953125,0.1628875732421875
1761915105597173500,6.446173583984375,-1.535888671875,-1.3244781494140625,0.2300567626953125
1761915105607228200,6.456228271484375,-1.6422882080078125,-1.342803955078125,0.299652099609375
1761915105617282300,6.4662822265625,-1.6783599853515625,-1.3836517333984375,0.33721923828125
1761915105627336200,6.476336181640625,-1.7048492431640625,-1.3323211669921875,0.2901153564453125
1761915105637391400,6.486391357421875,-1.706756591796875,-1.288330078125,0.2420806884765625
1761915105647445500,6.496445556640625,-1.6331787109375,-1.29266357421875,0.240142822265625
1761915105657499400,6.50649951171875,-1.560211181640625,-1.2728118896484375,0.2469329833984375
1761915105667554300,6.51655419921875,-1.4907989501953125,-1.2269439697265625,0.2504425048828125
1761915105677608400,6.5266083984375,-1.404815673828125,-1.17791748046875,0.2425384521484375
1761915105687662300,6.536662353515625,-1.2845458984375,-1.1378631591796875,0.207489013671875
1761915105697716500,6.546716552734375,-1.1230010986328125,-1.1099395751953125,0.1604461669921875
1761915105707771400,6.556771484375,-0.891998291015625,-1.03045654296875,0.099761962890625
1761915105717825500,6.566825439453125,-0.60760498046875,-0.92584228515625,0.02783203125
1761915105727879200,6.576879150390625,-0.4103240966796875,-0.8233642578125,-0.039031982421875
1761915105737934300,6.586934326171875,-0.3908233642578125,-0.7088165283203125,-0.075653076171875
1761915105747988500,6.596988525390625,-0.4284210205078125,-0.623687744140625,-0.079559326171875
1761915105758042400,6.60704248046875,-0.439910888671875,-0.5474090576171875,-0.0908050537109375
1761915105768097300,6.61709716796875,-0.4357757568359375,-0.4781646728515625,-0.0872650146484375
1761915105778151200,6.627151123046875,-0.4650115966796875,-0.414398193359375,-0.0791473388671875
1761915105788205300,6.637205322265625,-0.5117950439453125,-0.37127685546875,-0.0685882568359375
1761915105798260500,6.647260498046875,-0.5015106201171875,-0.304473876953125,-0.066802978515625
1761915105808314400,6.657314453125,-0.4473419189453125,-0.23077392578125,-0.0644378662109375
1761915105818368500,6.667368408203125,-0.3730621337890625,-0.175384521484375,-0.0518951416015625
1761915105828422400,6.67742236328125,-0.31134033203125,-0.14324951171875,-0.0287017822265625
1761915105838477300,6.687477294921875,-0.2414703369140625,-0.141815185546875,0.016357421875
1761915105848531500,6.697531494140625,-0.19482421875,-0.16015625,0.0616455078125
1761915105858585300,6.70758544921875,-0.17010498046875,-0.1831512451171875,0.09930419921875
1761915105868640500,6.717640625,-0.146881103515625,-0.17730712890625,0.1218414306640625
1761915105878694400,6.7276943359375,-0.1300048828125,-0.1843414306640625,0.119781494140625
1761915105888748300,6.737748291015625,-0.1261138916015625,-0.2041015625,0.1227874755859375
1761915105898803500,6.747803466796875,-0.1477508544921875,-0.2330322265625,0.132476806640625
1761915105908857300,6.757857421875,-0.180389404296875,-0.263458251953125,0.1430206298828125
1761915105918911500,6.767911376953125,-0.1658172607421875,-0.284576416015625,0.1562347412109375
1761915105928966400,6.77796630859375,-0.1422271728515625,-0.2918548583984375,0.17657470703125
1761915105939020300,6.788020263671875,-0.147857666015625,-0.317291259765625,0.196624755859375
1761915105949074200,6.79807421875,-0.17742919921875,-0.3543548583984375,0.204345703125
1761915105959128300,6.80812841796875,-0.199005126953125,-0.394378662109375,0.206085205078125
1761915105969183500,6.81818359375,-0.23089599609375,-0.414306640625,0.185394287109375
1761915105979237400,6.8282373046875,-0.2917938232421875,-0.4521484375,0.1505279541015625
1761915105989291500,6.83829150390625,-0.3314056396484375,-0.5594329833984375,0.15948486328125
1761915105999346400,6.848346435546875,-0.3847808837890625,-0.636322021484375,0.175079345703125
1761915106009400300,6.858400390625,-0.4407501220703125,-0.6902313232421875,0.1986541748046875
1761915106019454500,6.868454345703125,-0.6819305419921875,-0.7052001953125,0.1786956787109375
1761915106029509400,6.87850927734375,-1.14874267578125,-0.703399658203125,0.1623992919921875
1761915106039563500,6.8885634765625,-1.590087890625,-0.7176666259765625,0.1862945556640625
1761915106049617400,6.898617431640625,-1.7201080322265625,-0.8657073974609375,0.28021240234375
1761915106059672300,6.90867236328125,-1.6173095703125,-1.0859375,0.3814697265625
1761915106069726500,6.9187265625,-1.5542755126953125,-1.1993408203125,0.461334228515625
1761915106079780400,6.9287802734375,-1.7450408935546875,-1.1937408447265625,0.4795379638671875
1761915106089834500,6.93883447265625,-1.9652099609375,-1.1798248291015625,0.4660491943359375
1761915106099889200,6.94888916015625,-1.989959716796875,-1.1588287353515625,0.408660888671875
1761915106109943300,6.958943359375,-1.9656524658203125,-1.1414794921875,0.33184814453125
1761915106119997200,6.9689970703125,-1.962432861328125,-1.1689453125,0.297271728515625
1761915106130052400,6.97905224609375,-1.88616943359375,-1.212890625,0.2627716064453125
1761915106140106500,6.9891064453125,-1.7664642333984375,-1.2131500244140625,0.2307281494140625
1761915106150160400,6.999160400390625,-1.678924560546875,-1.1916046142578125,0.198883056640625
1761915106160215300,7.00921533203125,-1.577178955078125,-1.150848388671875,0.1630401611328125
1761915106170269400,7.01926953125,-1.4550323486328125,-1.1089935302734375,0.1234130859375
1761915106180323300,7.0293232421875,-1.3258209228515625,-1.047027587890625,0.09295654296875
1761915106190377500,7.03937744140625,-1.1757354736328125,-0.9642181396484375,0.072052001953125
1761915106200432400,7.049432373046875,-0.99761962890625,-0.855804443359375,0.074462890625
1761915106210486500,7.059486572265625,-0.8397979736328125,-0.7407684326171875,0.084808349609375
1761915106220540200,7.0695400390625,-0.717193603515625,-0.6393585205078125,0.101043701171875
1761915106230595300,7.07959521484375,-0.599273681640625,-0.5538177490234375,0.1054534912109375
1761915106240649500,7.0896494140625,-0.4792022705078125,-0.4644622802734375,0.0856170654296875
1761915106250703400,7.099703369140625,-0.3831939697265625,-0.378570556640625,0.052886962890625
1761915106260758300,7.10975830078125,-0.314422607421875,-0.308135986328125,0.016357421875
1761915106270812200,7.119812255859375,-0.265472412109375,-0.2462310791015625,-0.02093505859375
1761915106280866300,7.1298662109375,-0.2191619873046875,-0.189544677734375,-0.0561370849609375
1761915106290921500,7.13992138671875,-0.15765380859375,-0.1432647705078125,-0.0792694091796875
1761915106300975400,7.149975341796875,-0.1090087890625,-0.117431640625,-0.07989501953125
1761915106311029500,7.160029541015625,-0.0759124755859375,-0.10357666015625,-0.060943603515625
1761915106321083400,7.17008349609375,-0.0450286865234375,-0.10302734375,-0.033843994140625
1761915106331138300,7.18013818359375,-0.026031494140625,-0.1041259765625,-0.0125732421875
1761915106341192400,7.1901923828125,-0.0206146240234375,-0.0954132080078125,0.0010223388671875
1761915106351246300,7.200246337890625,-0.017059326171875,-0.1001739501953125,0.0202789306640625
1761915106361301500,7.210301513671875,-0.009674072265625,-0.132415771484375,0.052703857421875
1761915106371355400,7.22035546875,-0.0122528076171875,-0.16888427734375,0.080047607421875
1761915106381409300,7.2304091796875,-0.0490264892578125,-0.184173583984375,0.0909576416015625
1761915106391464400,7.24046435546875,-0.1056060791015625,-0.189910888671875,0.0785369873046875
1761915106401518300,7.250518310546875,-0.1425323486328125,-0.1923980712890625,0.058837890625
1761915106411572500,7.260572509765625,-0.1603851318359375,-0.1973419189453125,0.033538818359375
1761915106421627400,7.27062744140625,-0.196807861328125,-0.21649169921875,0.02740478515625
1761915106431681300,7.280681396484375,-0.21795654296875,-0.262969970703125,0.0385894775390625
1761915106441735200,7.290735107421875,-0.2296905517578125,-0.3275604248046875,0.064361572265625
1761915106451790300,7.300790283203125,-0.260162353515625,-0.4277801513671875,0.1186065673828125
1761915106461844500,7.310844482421875,-0.391387939453125,-0.511962890625,0.16461181640625
1761915106471898400,7.3208984375,-0.59625244140625,-0.5911407470703125,0.2042083740234375
1761915106481952500,7.330952392578125,-0.7957611083984375,-0.683074951171875,0.2184295654296875
1761915106492007400,7.34100732421875,-1.0258636474609375,-0.729400634765625,0.1522674560546875
1761915106502061300,7.351061279296875,-1.2555694580078125,-0.705169677734375,0.0400238037109375
1761915106512115500,7.361115478515625,-1.36602783203125,-0.7271728515625,0.0166778564453125
1761915106522170400,7.37117041015625,-1.40155029296875,-0.900726318359375,0.1156463623046875
1761915106532228400,7.381228271484375,-1.498260498046875,-1.0216064453125,0.2200775146484375
1761915106542282000,7.391281982421875,-1.6503143310546875,-1.05963134765625,0.314666748046875
1761915106552337200,7.401337158203125,-1.726409912109375,-1.087799072265625,0.386749267578125
1761915106562391300,7.411391357421875,-1.776702880859375,-1.105743408203125,0.4166259765625
1761915106572445200,7.421445068359375,-1.840576171875,-1.113128662109375,0.438201904296875
1761915106582500000,7.4315,-1.8697357177734375,-1.135406494140625,0.455230712890625
1761915106592554200,7.44155419921875,-1.8751220703125,-1.173553466796875,0.4430694580078125
1761915106602608000,7.451608154296875,-1.8475341796875,-1.1364593505859375,0.38739013671875
1761915106612662300,7.461662353515625,-1.8478546142578125,-1.0492401123046875,0.3277740478515625
1761915106622717200,7.47171728515625,-1.81939697265625,-0.988922119140625,0.266204833984375
1761915106632771300,7.481771240234375,-1.702667236328125,-0.9256439208984375,0.1743316650390625
1761915106642825200,7.4918251953125,-1.5513916015625,-0.8579864501953125,0.1196441650390625
1761915106652880100,7.501880126953125,-1.4071197509765625,-0.8017730712890625,0.1327972412109375
1761915106662934300,7.511934326171875,-1.2155303955078125,-0.74639892578125,0.1708526611328125
1761915106672988200,7.52198828125,-1.0016937255859375,-0.6549530029296875,0.1823577880859375
1761915106683043300,7.532043212890625,-0.859893798828125,-0.5332183837890625,0.144805908203125
1761915106693097200,7.54209716796875,-0.8196563720703125,-0.382659912109375,0.0775909423828125
1761915106703151000,7.552151123046875,-0.7924041748046875,-0.317626953125,0.0423431396484375
1761915106713206300,7.562206298828125,-0.745330810546875,-0.283203125,0.0154571533203125
1761915106723260200,7.57226025390625,-0.676788330078125,-0.2363433837890625,-0.012420654296875
1761915106733314300,7.582314208984375,-0.566802978515625,-0.209564208984375,-0.0311737060546875
1761915106743368200,7.5923681640625,-0.44342041015625,-0.1949615478515625,-0.036376953125
1761915106753423000,7.602423095703125,-0.32513427734375,-0.1974029541015625,-0.0198974609375
1761915106763477200,7.612477294921875,-0.2322235107421875,-0.19873046875,0.0118865966796875
1761915106773531100,7.62253125,-0.2039642333984375,-0.1920166015625,0.0634002685546875
1761915106783586300,7.63258642578125,-0.1996612548828125,-0.1722564697265625,0.1132659912109375
1761915106793640200,7.64264013671875,-0.176300048828125,-0.164825439453125,0.1459808349609375
1761915106803694300,7.6526943359375,-0.1367950439453125,-0.1568603515625,0.1721343994140625
1761915106813749200,7.662749267578125,-0.0959320068359375,-0.1565704345703125,0.2015838623046875
1761915106823803100,7.67280322265625,-0.0589141845703125,-0.1634368896484375,0.2243499755859375
1761915106833857300,7.682857177734375,-0.029571533203125,-0.1736907958984375,0.238250732421875
1761915106843912200,7.692912109375,-0.007476806640625,-0.174591064453125,0.2369537353515625
1761915106853966300,7.70296630859375,-0.006988525390625,-0.17108154296875,0.233154296875
1761915106864020200,7.713020263671875,-0.0218505859375,-0.1617889404296875,0.21197509765625
1761915106874075100,7.7230751953125,-0.0646514892578125,-0.1411590576171875,0.1763458251953125
1761915106884129300,7.73312939453125,-0.12786865234375,-0.1508026123046875,0.15777587890625
1761915106894183200,7.74318310546875,-0.1718902587890625,-0.1762847900390625,0.1471099853515625
1761915106904238300,7.75323828125,-0.2130279541015625,-0.20330810546875,0.1465301513671875
1761915106914292200,7.763292236328125,-0.239837646484375,-0.2664031982421875,0.1729583740234375
1761915106924346000,7.77334619140625,-0.309051513671875,-0.3754119873046875,0.2086334228515625
1761915106934400300,7.783400146484375,-0.5002288818359375,-0.4654693603515625,0.2116546630859375
1761915106944455200,7.793455078125,-0.6807861328125,-0.5793914794921875,0.2262115478515625
1761915106954509300,7.80350927734375,-0.825347900390625,-0.7389068603515625,0.2202606201171875
1761915106964563200,7.813563232421875,-1.0035552978515625,-0.85205078125,0.1627349853515625
1761915106974618000,7.8236181640625,-1.228424072265625,-0.8639984130859375,0.0503692626953125
1761915106984672300,7.83367236328125,-1.31280517578125,-0.9557037353515625,0.015380859375
1761915106994726100,7.84372607421875,-1.3105010986328125,-1.1799468994140625,0.1006317138671875
1761915107004781300,7.85378125,-1.3073883056640625,-1.275604248046875,0.2041473388671875
1761915107014835200,7.863835205078125,-1.3243560791015625,-1.262847900390625,0.29217529296875
1761915107024889300,7.873889404296875,-1.448760986328125,-1.2127227783203125,0.3360595703125
1761915107034944300,7.8839443359375,-1.587921142578125,-1.14300537109375,0.31890869140625
1761915107044998100,7.893998046875,-1.7095184326171875,-1.0634002685546875,0.244110107421875
1761915107055052300,7.90405224609375,-1.7318267822265625,-1.055023193359375,0.2168426513671875
1761915107065106200,7.914106201171875,-1.683929443359375,-1.1119232177734375,0.2265777587890625
1761915107075161300,7.924161376953125,-1.67315673828125,-1.07952880859375,0.1762542724609375
1761915107085215200,7.93421533203125,-1.6863250732421875,-1.0164947509765625,0.0937957763671875
1761915107095269000,7.94426904296875,-1.6197052001953125,-0.995330810546875,-0.0032806396484375
1761915107105324300,7.95432421875,-1.4343414306640625,-0.96722412109375,-0.08233642578125
1761915107115378200,7.964378173828125,-1.194671630859375,-0.901458740234375,-0.1282958984375
1761915107125432300,7.974432373046875,-0.9870147705078125,-0.8095245361328125,-0.1539764404296875
1761915107135487200,7.9844873046875,-0.8287811279296875,-0.74969482421875,-0.1802215576171875
1761915107145541000,7.994541015625,-0.7037811279296875,-0.666839599609375,-0.2342987060546875
1761915107155595300,8.00459521484375,-0.6627960205078125,-0.55267333984375,-0.31085205078125
1761915107165650200,8.014650146484374,-0.761627197265625,-0.4821929931640625,-0.313507080078125
1761915107175704300,8.024704345703125,-0.819671630859375,-0.45526123046875,-0.26708984375
1761915107185758200,8.03475830078125,-0.7611083984375,-0.3982086181640625,-0.2208404541015625
1761915107195813000,8.044813232421875,-0.6815185546875,-0.3441619873046875,-0.1804962158203125
1761915107205867300,8.0548671875,-0.60028076171875,-0.29327392578125,-0.1392364501953125
1761915107215921200,8.064921142578125,-0.5307769775390625,-0.2527313232421875,-0.083984375
1761915107225976300,8.074976318359376,-0.4693603515625,-0.213043212890625,-0.023773193359375
1761915107236030200,8.0850302734375,-0.4148406982421875,-0.1717987060546875,0.0302886962890625
1761915107246084000,8.095083984375,-0.356658935546875,-0.1390838623046875,0.076995849609375
1761915107256138200,8.10513818359375,-0.2952117919921875,-0.12432861328125,0.1109466552734375
1761915107266193200,8.115193115234375,-0.2430267333984375,-0.130706787109375,0.136505126953125
1761915107276247300,8.125247314453125,-0.186767578125,-0.145599365234375,0.1595458984375
1761915107286301200,8.13530126953125,-0.131622314453125,-0.1556396484375,0.1741943359375
1761915107296356000,8.145356201171875,-0.0880889892578125,-0.171142578125,0.173309326171875
1761915107306410200,8.15541015625,-0.07861328125,-0.1863861083984375,0.1631927490234375
1761915107316464000,8.165464111328125,-0.09521484375,-0.1877288818359375,0.1561126708984375
1761915107326519300,8.175519287109376,-0.1143798828125,-0.200775146484375,0.167083740234375
1761915107336573200,8.1855732421875,-0.1152496337890625,-0.2228240966796875,0.1875
1761915107346627300,8.19562744140625,-0.080963134765625,-0.2689666748046875,0.2251739501953125
1761915107356682200,8.20568212890625,-0.0660400390625,-0.334808349609375,0.269561767578125
1761915107366736100,8.215736083984375,-0.114288330078125,-0.404876708984375,0.311065673828125
1761915107376790300,8.225790283203125,-0.206298828125,-0.5091094970703125,0.3612213134765625
1761915107386845200,8.23584521484375,-0.3504791259765625,-0.6270904541015625,0.3963775634765625
1761915107396899300,8.2458994140625,-0.54241943359375,-0.75225830078125,0.3869781494140625
1761915107406953200,8.255953125,-0.7825927734375,-0.849884033203125,0.3520355224609375
1761915107417008000,8.266008056640626,-1.0194244384765625,-0.9079132080078125,0.3386077880859375
1761915107427062300,8.276062255859374,-1.2033233642578125,-1.043365478515625,0.3644561767578125
1761915107437116200,8.2861162109375,-1.3980712890625,-1.2156982421875,0.3947601318359375
1761915107447171300,8.29617138671875,-1.5730743408203125,-1.3192138671875,0.408966064453125
1761915107457225200,8.30622509765625,-1.6148223876953125,-1.362396240234375,0.4117431640625
1761915107467279000,8.316279052734375,-1.5301513671875,-1.363433837890625,0.3816070556640625
1761915107477333200,8.326333251953125,-1.4589996337890625,-1.2928619384765625,0.344146728515625
1761915107487388200,8.33638818359375,-1.5467529296875,-1.192626953125,0.3155670166015625
1761915107497442300,8.3464423828125,-1.6540679931640625,-1.1323699951171875,0.309112548828125
1761915107507496200,8.35649609375,-1.6525115966796875,-1.1155242919921875,0.3112030029296875
1761915107517551000,8.366551025390624,-1.5788421630859375,-1.1003570556640625,0.3334503173828125
1761915107527605200,8.376605224609374,-1.4995574951171875,-1.0686798095703125,0.3618011474609375
1761915107537654300,8.386654296875,-1.4305877685546875,-1.0609283447265625,0.3645782470703125
1761915107547709200,8.396709228515626,-1.33245849609375,-1.0292510986328125,0.3520050048828125
1761915107557763300,8.406763427734376,-1.21014404296875,-1.0015716552734375,0.3402252197265625
1761915107567817500,8.4168173828125,-1.0797119140625,-0.9891204833984375,0.3331298828125
1761915107577872400,8.426872314453124,-0.9453582763671875,-0.9451904296875,0.3043212890625
1761915107587926300,8.43692626953125,-0.7958221435546875,-0.865814208984375,0.2574920654296875
1761915107597980200,8.446980224609375,-0.64532470703125,-0.7820587158203125,0.22113037109375
1761915107608035300,8.457035400390625,-0.549285888671875,-0.6890411376953125,0.2026824951171875
1761915107618089500,8.46708935546875,-0.526519775390625,-0.59124755859375,0.2028656005859375
1761915107628143400,8.477143310546875,-0.4774169921875,-0.4599761962890625,0.1606903076171875
1761915107638198300,8.4871982421875,-0.381744384765625,-0.3216094970703125,0.0744171142578125
1761915107648252200,8.497252197265626,-0.3031768798828125,-0.2422637939453125,-0.0128326416015625
1761915107658306300,8.507306396484376,-0.261016845703125,-0.1935272216796875,-0.08502197265625
1761915107668361500,8.517361572265624,-0.23040771484375,-0.1498870849609375,-0.138946533203125
1761915107678415400,8.527415283203124,-0.223419189453125,-0.1005859375,-0.170379638671875
1761915107688469500,8.537469482421875,-0.2219085693359375,-0.0681915283203125,-0.172760009765625
1761915107698524200,8.547524169921875,-0.2130889892578125,-0.0496673583984375,-0.163726806640625
1761915107708578300,8.557578369140625,-0.1840667724609375,-0.023040771484375,-0.1477203369140625
1761915107718632200,8.567632080078125,-0.1559295654296875,0.0154876708984375,-0.11370849609375
1761915107728687400,8.577687255859376,-0.158538818359375,0.0391998291015625,-0.062225341796875
1761915107738741500,8.587741455078126,-0.15435791015625,0.04296875,-0.0105438232421875
1761915107748795400,8.59779541015625,-0.1575469970703125,0.02996826171875,0.0218963623046875
1761915107758850300,8.607850341796874,-0.1966400146484375,0.0041656494140625,0.0287933349609375
1761915107768905500,8.617905517578125,-0.2690277099609375,-0.034576416015625,0.023193359375
1761915107778959400,8.62795947265625,-0.3591766357421875,-0.07183837890625,0.0108642578125
1761915107789013500,8.638013427734375,-0.4745941162109375,-0.1672821044921875,0.010284423828125
1761915107799068400,8.648068359375,-0.597808837890625,-0.2642059326171875,0.0066070556640625
1761915107809122300,8.658122314453125,-0.66278076171875,-0.3384552001953125,-0.02374267578125
1761915107819176400,8.668176513671876,-0.6876220703125,-0.465728759765625,-0.040557861328125
1761915107829231400,8.6782314453125,-0.816436767578125,-0.6945037841796875,0.0030517578125
1761915107839285200,8.68828515625,-1.018096923828125,-0.964263916015625,0.0700531005859375
1761915107849339100,8.698339111328124,-1.2965240478515625,-1.0798492431640625,0.0433502197265625
1761915107859394300,8.708394287109375,-1.4593963623046875,-1.05804443359375,-0.0602264404296875
1761915107869448400,8.718448486328125,-1.4542083740234375,-1.1399993896484375,-0.1516876220703125
1761915107879502300,8.72850244140625,-1.4711761474609375,-1.27215576171875,-0.19647216796875
1761915107889557200,8.73855712890625,-1.535430908203125,-1.25897216796875,-0.2018280029296875
1761915107899611100,8.748611083984375,-1.61700439453125,-1.1458740234375,-0.2009735107421875
1761915107909665300,8.758665283203126,-1.6813507080078125,-1.063140869140625,-0.1553802490234375
1761915107919720400,8.768720458984374,-1.6219940185546875,-1.1723175048828125,0.0088653564453125
1761915107929774300,8.7787744140625,-1.6920623779296875,-1.2603302001953125,0.1241455078125
1761915107939828500,8.788828369140624,-1.734161376953125,-1.2213592529296875,0.1588134765625
1761915107949883100,8.798883056640625,-1.5698089599609375,-1.300079345703125,0.2176666259765625
1761915107959937300,8.808937255859375,-1.4171905517578125,-1.4214935302734375,0.2785491943359375
1761915107969991400,8.818991455078125,-1.3307342529296875,-1.45074462890625,0.2957611083984375
1761915107980046300,8.82904638671875,-1.26202392578125,-1.3961029052734375,0.2639007568359375
1761915107990100500,8.8391005859375,-1.1367034912109375,-1.291473388671875,0.1954498291015625
1761915108000154400,8.849154296875,-0.949188232421875,-1.172943115234375,0.10821533203125
1761915108010208300,8.859208251953126,-0.72393798828125,-1.0363311767578125,0.0601043701171875
1761915108020263400,8.869263427734374,-0.494598388671875,-0.858673095703125,0.0549774169921875
1761915108030317300,8.8793173828125,-0.324493408203125,-0.6970672607421875,0.089324951171875
1761915108040371500,8.889371337890625,-0.2296905517578125,-0.569793701171875,0.1413726806640625
1761915108050426400,8.89942626953125,-0.1917877197265625,-0.4554443359375,0.1748199462890625
1761915108060480300,8.909480224609375,-0.2077484130859375,-0.346343994140625,0.17791748046875
1761915108070534100,8.9195341796875,-0.2579498291015625,-0.2511444091796875,0.170013427734375
1761915108080589300,8.92958935546875,-0.254241943359375,-0.2057647705078125,0.1657257080078125
1761915108090643500,8.9396435546875,-0.2147674560546875,-0.1913909912109375,0.1584014892578125
1761915108100697300,8.949697265625,-0.1883087158203125,-0.1748809814453125,0.156494140625
1761915108110752300,8.959752197265624,-0.157928466796875,-0.162322998046875,0.1643218994140625
1761915108120806400,8.969806396484374,-0.1286468505859375,-0.1407012939453125,0.1620025634765625
1761915108130860300,8.9798603515625,-0.1032867431640625,-0.110107421875,0.1496734619140625
1761915108140915500,8.98991552734375,-0.0727691650390625,-0.0971527099609375,0.1402130126953125
1761915108150969300,8.99996923828125,-0.03021240234375,-0.0955810546875,0.1266021728515625
1761915108161023500,9.0100234375,-0.0095672607421875,-0.094085693359375,0.1121673583984375
1761915108171078400,9.020078369140625,0.002899169921875,-0.1115875244140625,0.1123809814453125
1761915108181132300,9.03013232421875,0.01947021484375,-0.13177490234375,0.1005859375
1761915108191186400,9.0401865234375,0.014190673828125,-0.14459228515625,0.07647705078125
1761915108201241300,9.050241455078124,-0.0173492431640625,-0.17572021484375,0.06732177734375
1761915108211295500,9.06029541015625,-0.0614166259765625,-0.2213287353515625,0.0728302001953125
1761915108221349000,9.07034912109375,-0.116058349609375,-0.25408935546875,0.0670013427734375
1761915108231404300,9.080404296875,-0.190826416015625,-0.290069580078125,0.060089111328125
1761915108241458400,9.09045849609375,-0.27154541015625,-0.3149566650390625,0.0462799072265625
1761915108251512300,9.10051220703125,-0.3678131103515625,-0.3703155517578125,0.0496063232421875
1761915108261567200,9.110567138671875,-0.5145416259765625,-0.4988250732421875,0.099822998046875
1761915108271621000,9.12062109375,-0.7014312744140625,-0.6239471435546875,0.143341064453125
1761915108281675300,9.13067529296875,-0.9693145751953125,-0.673797607421875,0.123321533203125
1761915108291730400,9.14073046875,-1.1918487548828125,-0.7353973388671875,0.0928802490234375
1761915108301784300,9.150784423828124,-1.3042755126953125,-0.8598785400390625,0.0701751708984375
1761915108311838500,9.16083837890625,-1.3667144775390625,-0.9886474609375,0.043121337890625
1761915108321893400,9.170893310546875,-1.44024658203125,-1.074432373046875,0.0047607421875
1761915108331947300,9.180947265625,-1.6156158447265625,-1.028472900390625,-0.047088623046875
1761915108342001400,9.19100146484375,-1.761932373046875,-0.9696807861328125,-0.03125
1761915108352056300,9.201056396484375,-1.7384796142578125,-0.984893798828125,0.0771636962890625
1761915108362110500,9.2111103515625,-1.70263671875,-1.034912109375,0.187713623046875
1761915108372164400,9.221164306640626,-1.7210540771484375,-1.073944091796875,0.258880615234375
1761915108382219300,9.23121923828125,-1.7042388916015625,-1.0576171875,0.266571044921875
1761915108392273400,9.2412734375,-1.6159820556640625,-1.0843048095703125,0.239959716796875
1761915108402327300,9.251327392578125,-1.541778564453125,-1.1747589111328125,0.201141357421875
1761915108412382500,9.261382568359375,-1.490264892578125,-1.121002197265625,0.2020263671875
1761915108422436400,9.271436279296875,-1.4614105224609375,-1.2564849853515625,0.170745849609375
1761915108432490200,9.281490234375,-1.322540283203125,-1.3893280029296875,0.157135009765625
1761915108442545400,9.29154541015625,-1.1615447998046875,-1.2289581298828125,0.1459808349609375
1761915108452599300,9.301599365234376,-1.09869384765625,-1.0816650390625,0.0738067626953125
1761915108462653400,9.3116533203125,-0.9205322265625,-0.9324493408203125,0.022705078125
1761915108472708400,9.321708251953124,-0.7276763916015625,-0.74700927734375,0.0110321044921875
1761915108482762200,9.33176220703125,-0.636077880859375,-0.551971435546875,0.0060577392578125
1761915108492816400,9.34181640625,-0.5740509033203125,-0.3817596435546875,0.0119171142578125
1761915108502871300,9.351871337890625,-0.5105438232421875,-0.263946533203125,0.020050048828125
1761915108512925400,9.361925537109375,-0.480194091796875,-0.213043212890625,0.0361328125
1761915108522979300,9.371979248046875,-0.4993133544921875,-0.198455810546875,0.0597686767578125
1761915108533034500,9.382034423828125,-0.520538330078125,-0.1792449951171875,0.07208251953125
1761915108543088600,9.392088623046876,-0.4994964599609375,-0.132659912109375,0.075714111328125
1761915108553142500,9.402142578125,-0.435821533203125,-0.0875701904296875,0.07745361328125
1761915108563197700,9.41219775390625,-0.338409423828125,-0.0701141357421875,0.091217041015625
1761915108573251600,9.42225146484375,-0.2595672607421875,-0.0887603759765625,0.108184814453125
1761915108583305500,9.432305419921875,-0.25299072265625,-0.12335205078125,0.123382568359375
1761915108593360600,9.442360595703125,-0.306396484375,-0.1613616943359375,0.1446990966796875
1761915108603414500,9.45241455078125,-0.35406494140625,-0.2108917236328125,0.15850830078125
1761915108613468700,9.46246875,-0.3531036376953125,-0.24615478515625,0.1607513427734375
1761915108623523600,9.472523681640626,-0.3040008544921875,-0.2396392822265625,0.151611328125
1761915108633577500,9.482577392578126,-0.258026123046875,-0.2264251708984375,0.119964599609375
1761915108643631600,9.492631591796876,-0.228363037109375,-0.243865966796875,0.079254150390625
1761915108653686500,9.5026865234375,-0.2415008544921875,-0.283233642578125,0.0544281005859375
1761915108663740700,9.51274072265625,-0.2944183349609375,-0.319671630859375,0.0466461181640625
1761915108673794600,9.522794677734375,-0.4032745361328125,-0.3456268310546875,0.0538787841796875
1761915108683849500,9.532849365234375,-0.5012054443359375,-0.3535003662109375,0.057708740234375
1761915108693903600,9.542903564453125,-0.5038909912109375,-0.3641357421875,0.047515869140625
1761915108703958500,9.55295849609375,-0.4629974365234375,-0.43280029296875,0.023681640625
1761915108714012700,9.5630126953125,-0.4840087890625,-0.557403564453125,0.0109710693359375
1761915108724066600,9.573066650390626,-0.6345672607421875,-0.7019805908203125,0.0046844482421875
1761915108734121500,9.58312158203125,-0.90264892578125,-0.837860107421875,0.022613525390625
1761915108744175600,9.593175537109374,-1.1419219970703125,-0.9419403076171875,0.0715789794921875
1761915108754229500,9.6032294921875,-1.2633209228515625,-1.0349273681640625,0.111541748046875
1761915108764284700,9.61328466796875,-1.348968505859375,-1.0950469970703125,0.0956573486328125
1761915108774338600,9.623338623046875,-1.4595184326171875,-1.0673828125,0.0718994140625
1761915108784392700,9.633392822265625,-1.4823455810546875,-1.046722412109375,0.094451904296875
1761915108794447600,9.643447509765625,-1.439666748046875,-1.0955963134765625,0.171112060546875
1761915108804501500,9.65350146484375,-1.5060882568359375,-1.1585540771484375,0.2855224609375
1761915108814555600,9.6635556640625,-1.6069488525390625,-1.206756591796875,0.39239501953125
1761915108824610600,9.673610595703124,-1.633575439453125,-1.2364959716796875,0.456207275390625
1761915108834664700,9.683664794921874,-1.5963134765625,-1.2460784912109375,0.48785400390625
1761915108844718600,9.693718505859374,-1.5797119140625,-1.2510223388671875,0.4838409423828125
1761915108854773500,9.7037734375,-1.543487548828125,-1.205474853515625,0.4366302490234375
1761915108864827600,9.71382763671875,-1.442779541015625,-1.11767578125,0.338958740234375
1761915108874881500,9.723881591796875,-1.325927734375,-1.037841796875,0.246978759765625
1761915108884936400,9.7339365234375,-1.18994140625,-0.9441070556640625,0.1784515380859375
1761915108894990600,9.743990478515625,-1.039031982421875,-0.8081207275390625,0.1239013671875
1761915108905044500,9.75404443359375,-0.87652587890625,-0.6460113525390625,0.078338623046875
1761915108915099600,9.764099609375,-0.674285888671875,-0.4868011474609375,0.0513153076171875
1761915108925153500,9.774153564453124,-0.5141143798828125,-0.3838043212890625,0.06622314453125
1761915108935207700,9.784207763671875,-0.4738006591796875,-0.35113525390625,0.1125946044921875
1761915108945262600,9.7942626953125,-0.4960174560546875,-0.362518310546875,0.163787841796875
1761915108955316500,9.80431640625,-0.523040771484375,-0.3801727294921875,0.2077178955078125
1761915108965370600,9.81437060546875,-0.5138702392578125,-0.3536529541015625,0.202117919921875
1761915108975425500,9.824425537109375,-0.4622650146484375,-0.26202392578125,0.1513214111328125
1761915108985479700,9.834479736328126,-0.412994384765625,-0.156219482421875,0.09075927734375
1761915108995533800,9.844533935546876,-0.3572998046875,-0.076690673828125,0.045257568359375
1761915109005588500,9.85458837890625,-0.27618408203125,-0.0418243408203125,0.021881103515625
1761915109015642600,9.864642578125,-0.200592041015625,-0.0359649658203125,0.010498046875
1761915109025696500,9.874696533203124,-0.180511474609375,-0.053924560546875,0.002227783203125
1761915109035751700,9.884751708984375,-0.1966400146484375,-0.0908203125,-0.00482177734375
1761915109045805600,9.8948056640625,-0.2266693115234375,-0.1290740966796875,0.0139007568359375
1761915109055859500,9.904859375,-0.2669677734375,-0.1735992431640625,0.0477294921875
1761915109065914600,9.91491455078125,-0.270782470703125,-0.2224578857421875,0.0744781494140625
1761915109075968500,9.924968505859376,-0.2588043212890625,-0.2670745849609375,0.093902587890625
1761915109086023700,9.935023681640626,-0.260894775390625,-0.3106231689453125,0.0962066650390625
1761915109096077600,9.94507763671875,-0.282012939453125,-0.3432769775390625,0.087005615234375
1761915109106131500,9.95513134765625,-0.3162384033203125,-0.3579864501953125,0.07196044921875
1761915109116186600,9.9651865234375,-0.3682403564453125,-0.371978759765625,0.072357177734375
1761915109126240500,9.975240478515625,-0.4083251953125,-0.4220123291015625,0.1025543212890625
1761915109136294700,9.985294677734375,-0.4083099365234375,-0.53314208984375,0.1637115478515625
1761915109146349600,9.995349609375,-0.4419097900390625,-0.6822052001953125,0.236419677734375
1761915109156403500,10.005403564453125,-0.6133270263671875,-0.8271636962890625,0.2542724609375
1761915109166457600,10.01545751953125,-0.8325042724609375,-0.8702239990234375,0.1933135986328125
1761915109176512500,10.025512451171876,-0.9293060302734375,-0.7918853759765625,0.0980072021484375
1761915109186566700,10.035566650390624,-0.9718780517578125,-0.7415924072265625,0.0595855712890625
1761915109196620800,10.045620849609374,-1.0336151123046875,-0.8183441162109375,0.0873565673828125
1761915109206675500,10.055675537109375,-1.1428070068359375,-0.8885345458984375,0.100555419921875
1761915109216729600,10.0657294921875,-1.2301177978515625,-0.8302459716796875,0.09112548828125
1761915109226783500,10.075783447265625,-1.1572265625,-0.8023529052734375,0.146697998046875
1761915109236838700,10.085838623046875,-1.120758056640625,-0.8885040283203125,0.2778472900390625
1761915109246892800,10.095892822265625,-1.223388671875,-1.0055999755859375,0.395965576171875
1761915109256946700,10.10594677734375,-1.3384246826171875,-1.1076507568359375,0.4284515380859375
1761915109267001600,10.116001708984374,-1.3651885986328125,-1.2126617431640625,0.4044189453125
1761915109277055500,10.126055419921874,-1.3224945068359375,-1.323272705078125,0.3556060791015625
1761915109287109600,10.136109619140624,-1.3023529052734375,-1.3742523193359375,0.27978515625
1761915109297164800,10.146164794921875,-1.2694854736328125,-1.3217315673828125,0.1608734130859375
1761915109307218400,10.156218505859375,-1.20074462890625,-1.21759033203125,0.024566650390625
1761915109317272600,10.1662724609375,-1.0655517578125,-1.13226318359375,-0.091339111328125
1761915109327327500,10.176327392578125,-0.9404144287109375,-1.052825927734375,-0.1588592529296875
1761915109337381600,10.186381591796875,-0.8469085693359375,-0.9478607177734375,-0.1688385009765625
1761915109347436500,10.1964365234375,-0.7504730224609375,-0.8140716552734375,-0.1549530029296875
1761915109357490400,10.206490478515626,-0.7017822265625,-0.66717529296875,-0.115386962890625
1761915109367544600,10.216544677734374,-0.7073974609375,-0.5530242919921875,-0.055908203125
1761915109377599500,10.226599609375,-0.7374267578125,-0.4746551513671875,0.0092620849609375
1761915109387653600,10.236653564453125,-0.7720489501953125,-0.4316253662109375,0.0879364013671875
1761915109397707800,10.246707763671875,-0.7913055419921875,-0.42144775390625,0.152252197265625
1761915109407762400,10.256762451171875,-0.7239837646484375,-0.38275146484375,0.1540374755859375
1761915109417816600,10.266816650390625,-0.618743896484375,-0.30462646484375,0.112396240234375
1761915109427870500,10.276870361328125,-0.5636444091796875,-0.254547119140625,0.06256103515625
1761915109437925600,10.286925537109376,-0.50262451171875,-0.24530029296875,0.048736572265625
1761915109447979800,10.296979736328124,-0.4526214599609375,-0.2684783935546875,0.075286865234375
1761915109458033700,10.30703369140625,-0.49639892578125,-0.3082122802734375,0.1053314208984375
1761915109468088600,10.317088623046875,-0.5557098388671875,-0.3402557373046875,0.1279296875
1761915109478142500,10.327142578125,-0.53155517578125,-0.35357666015625,0.1416778564453125
1761915109488196600,10.337196533203125,-0.47845458984375,-0.3618621826171875,0.150421142578125
1761915109498251800,10.347251708984375,-0.4492645263671875,-0.386444091796875,0.158172607421875
1761915109508305700,10.3573056640625,-0.427642822265625,-0.4275360107421875,0.1691131591796875
1761915109518359600,10.367359619140625,-0.419647216796875,-0.486541748046875,0.1804046630859375
1761915109528414500,10.37741455078125,-0.407989501953125,-0.5524444580078125,0.1579742431640625
1761915109538469400,10.387469482421874,-0.3747406005859375,-0.57452392578125,0.159942626953125
1761915109548524300,10.397524169921875,-0.2984619140625,-0.514739990234375,0.2359619140625
1761915109558578200,10.407578125,-0.564422607421875,-0.62249755859375,0.29376220703125
1761915109568632300,10.41763232421875,-0.498870849609375,-0.7614288330078125,0.2811126708984375
1761915109578687500,10.4276875,-0.425689697265625,-0.821746826171875,0.2546844482421875
1761915109588741400,10.437741455078125,-0.5671844482421875,-0.793487548828125,0.1974639892578125
1761915109598795500,10.44779541015625,-0.6346435546875,-0.7440643310546875,0.12591552734375
1761915109608850200,10.45785009765625,-0.5359344482421875,-0.7306976318359375,0.043060302734375
