time,seconds_elapsed,z,y,x
1761915099276791800,0.125791748046875,3.1113124036461115,2.2776766369253396,-0.8364949555441736
1761915099286846000,0.135845947265625,3.0076158823281527,2.263988887834549,-0.9957545202605426
1761915099296900900,0.14590087890625,2.3235037375986574,2.1575030280590055,-0.8578311735615134
1761915099306954800,0.155954833984375,1.143095683646202,1.7184096000045537,-0.5411489041671157
1761915099317008600,0.166008544921875,0.44828854190111156,1.0579477954536676,-0.2771564608223736
1761915099327063800,0.176063720703125,0.04064005342423915,0.1345364807397127,-0.11774272845759987
1761915099337118000,0.186117919921875,-1.0569862569451332,-1.064700192323327,0.05066884161606431
1761915099347171800,0.196171875,-3.325536753606796,-2.4031676414221526,0.3893259191922843
1761915099357226800,0.206226806640625,-6.70165510893762,-4.022652172294259,1.2582590631350874
1761915099367280600,0.21628076171875,-7.707014054498076,-5.721917511367797,1.8260552973397075
1761915099377334800,0.226334716796875,-7.145036005052924,-6.572851618891954,1.8724362325035036
1761915099387389000,0.236388916015625,-6.9963394815355535,-6.4327890682071445,1.7127721786394714
1761915099397443800,0.24644384765625,-6.523052107456326,-6.098864572110772,1.636293042331934
1761915099407498000,0.256498046875,-6.2831310061812395,-5.984670622175932,1.384937669981271
1761915099417552000,0.2665517578125,-6.796241856604814,-6.12156506421864,0.9856040053851902
1761915099427605800,0.276605712890625,-7.399544434607028,-6.541293866589665,0.9390911144047975
1761915099437661000,0.286660888671875,-7.265422964408994,-7.224305356600881,1.2492135868921874
1761915099447714800,0.29671484375,-6.832513777947425,-7.837676908674836,1.6864635790370404
1761915099457769000,0.30676904296875,-6.248886206752061,-8.273713871768116,2.130368352895975
1761915099467823600,0.31682373046875,-5.602566324800253,-8.35427560121417,2.494749946576357
1761915099477877800,0.326877685546875,-4.932448803153634,-8.06135706924498,2.453463704203069
1761915099487931600,0.336931640625,-4.4082022262096405,-7.236277533945441,1.7245666613295674
1761915099497986800,0.34698681640625,-3.8256834930390116,-5.695045286533237,0.7102654807049781
1761915099508041000,0.357041015625,-2.598230779317021,-3.714836515444517,-0.21829006502963602
1761915099518094800,0.3670947265625,-1.0265846889406443,-1.7524498167723417,-0.809388337431848
1761915099528151600,0.377151611328125,0.7745581393301486,0.4239280076265335,-0.8867491519447416
1761915099538206500,0.38720654296875,1.8024591715663671,2.0259920326203105,-0.6711297674290836
1761915099548260600,0.397260498046875,2.2753362112790345,1.9937281778752802,-0.31609058711156246
1761915099558314500,0.407314453125,3.00504690862298,2.0673416956186292,-0.06421002184301615
1761915099568369700,0.41736962890625,2.8097897094607354,3.373853917530179,-0.48165860432237384
1761915099578423600,0.427423583984375,2.223487950620055,4.9185821903645985,-1.3104013383045792
1761915099588477700,0.437477783203125,2.310617952540517,5.71780949152708,-2.0376954760260877
1761915099598532600,0.44753271484375,3.360710942840576,5.922094046753645,-2.207769864745438
1761915099608586500,0.45758642578125,4.624460712346434,6.290376739525795,-2.0447975631162523
1761915099618640600,0.467640625,5.438249622824788,6.743700937506556,-1.9035764900460839
1761915099628694500,0.477694580078125,5.854162081778049,6.852503257530927,-1.6434988820575176
1761915099638749700,0.487749755859375,6.242575708431005,6.624163872978091,-1.1097303704652934
1761915099648803600,0.497803466796875,6.408937067976594,6.192828219443559,-0.5841011069912463
1761915099658857500,0.507857421875,6.392472839909791,5.84645749875009,-0.22677125845327972
1761915099668912600,0.51791259765625,6.181260531246662,5.8281923587411635,-0.11318901067599653
1761915099678966500,0.527966552734375,5.79884468370378,5.954340950363874,-0.15855777312256394
1761915099689020700,0.538020751953125,5.568190007945895,5.905749061152338,-0.1906653413273394
1761915099699074600,0.548074462890625,5.716665582188964,5.73841797979176,-0.2479566698230803
1761915099709129500,0.55812939453125,5.835774776694178,5.605588887491822,-0.2885774340249598
1761915099719183600,0.56818359375,5.959638472250104,5.491856709849834,-0.33149726894944903
1761915099729237500,0.578237548828125,6.254706291207671,5.357187542641163,-0.3270068256624043
1761915099739292700,0.588292724609375,6.053432023712992,5.2823348384916775,-0.3664883567012846
1761915099749346600,0.5983466796875,5.459160308906435,5.244401121416687,-0.3859241479247808
1761915099759400700,0.608400634765625,4.840453241023421,5.143372358003258,-0.3484992571547627
1761915099769455600,0.61845556640625,4.550635597679019,4.6576013499259945,-0.11118658481240272
1761915099779509500,0.628509521484375,4.374380036106706,3.6381554268240928,0.3664065236367285
1761915099789563600,0.638563720703125,4.528792599183321,2.215826622211933,0.8450742755800486
1761915099799617500,0.648617431640625,3.7658150075316428,0.7671709516882896,1.1880208670437336
1761915099809672700,0.658672607421875,1.9004566044598816,-0.2030512140393257,1.294943510801345
1761915099819726600,0.6687265625,-0.30669863551855087,-0.38685236868560313,0.7664658721588552
1761915099829780500,0.678780517578125,-2.981083849233389,-0.8346551728963851,0.08943141073063016
1761915099839835600,0.688835693359375,-4.625757181897759,-2.8536627534568306,0.20521584472730756
1761915099849889500,0.6988896484375,-6.37679245569706,-4.9622033054262396,0.45356619004309173
1761915099859943700,0.708943603515625,-7.891514881846308,-6.473495757126808,0.9303916020553559
1761915099869998600,0.71899853515625,-8.508256202614307,-7.482780936220288,1.1603479202855378
1761915099880052500,0.729052490234375,-9.42201004666686,-7.782264233532548,1.556588952628523
1761915099890106600,0.739106689453125,-10.323762487280367,-9.00680661276579,2.4128568223960696
1761915099900160500,0.749160400390625,-11.013797592318058,-9.955263521409034,2.89448020927459
1761915099910215700,0.759215576171875,-11.080447116267681,-10.18721934289336,2.967640722553432
1761915099920269600,0.76926953125,-10.50550554035306,-10.10245548558235,2.539113988959789
1761915099930323700,0.77932373046875,-9.662637834906578,-9.430770860749483,1.7401470922991633
1761915099940378600,0.789378662109375,-8.964053512710333,-8.607910170543194,1.0540838135018944
1761915099950432500,0.7994326171875,-8.328730241069197,-7.9896824106097215,0.757730484778434
1761915099960486700,0.809486572265625,-7.190722235950827,-7.301772042641043,0.5064917245447635
1761915099970541600,0.81954150390625,-5.274067360883951,-6.071901746383309,0.17123137673474847
1761915099980595700,0.829595703125,-3.219645352593064,-4.120653696841002,-0.14664974705539643
1761915099990649600,0.839649658203125,-1.2530951045006513,-2.2017501660645005,-0.32976489219889044
1761915100000703500,0.849703369140625,0.6561907031029462,-0.7036018580973148,-0.43526678243838246
1761915100010758700,0.859758544921875,1.8089841894209384,0.6931348246186971,-0.6167292650040239
1761915100020812500,0.8698125,2.561240480571985,1.7784966966986655,-0.7845677113648504
1761915100030866700,0.87986669921875,3.0935832702100274,2.542045950758457,-1.041482690604031
1761915100040921600,0.889921630859375,3.4888019007027147,3.3777380654871463,-1.3736794861249624
1761915100050975500,0.8999755859375,3.834592191159725,4.187527092674374,-1.6237211455285547
1761915100061029600,0.910029541015625,4.285768271195888,4.9801013656884425,-1.81553638754338
1761915100071083500,0.92008349609375,4.698627772319316,5.7026095843076705,-1.9414178526625037
1761915100081138700,0.930138671875,4.998313314205408,6.198032217827439,-1.9493157663054763
1761915100091192600,0.940192626953125,5.665269741472602,6.345037134996057,-1.7162834016308188
1761915100101246700,0.950246826171875,6.351882470846176,6.358916022744775,-1.3556984237544238
1761915100111301600,0.960301513671875,6.663669369414448,6.268576411128044,-1.058511420685798
1761915100121355500,0.97035546875,6.8032537811934946,6.212234930703044,-0.8568688313353806
1761915100131409700,0.98040966796875,6.892243147245049,6.134516315728425,-0.7511647695872932
1761915100141464600,0.990464599609375,6.928494610321521,5.926274547308683,-0.7026619468986988
1761915100151518500,1.0005185546875,7.056012736731767,5.598250215166807,-0.6846519506946206
1761915100161572600,1.010572509765625,7.1625137940764425,5.431924511456489,-0.7092921056281775
1761915100171626500,1.02062646484375,6.7783087250292295,5.366439355111122,-0.7653428594782948
1761915100181681700,1.030681640625,6.284605754908919,5.1031613436460495,-0.8150827496811747
1761915100191735600,1.040735595703125,5.984792202728986,4.899640758529305,-0.9326393079169094
1761915100201789700,1.050789794921875,5.684471870070696,4.816085107964277,-1.1294957589693366
1761915100211844600,1.0608447265625,5.423482846325635,4.473579246005416,-1.2107342186331749
1761915100221898500,1.0708984375,4.86531704864502,3.9920056896179914,-1.215999737945944
1761915100231952600,1.08095263671875,4.275521017947793,3.240730226197839,-1.0392381265476345
1761915100242007600,1.091007568359375,3.441200776094198,2.170695687109232,-0.9069637455210089
1761915100252061700,1.101061767578125,2.6191560784459114,0.8009288443833589,-0.5079898541480302
1761915100262115600,1.111115478515625,1.7530869456321,-0.7356471016556024,-0.14143909973502158
1761915100272169500,1.12116943359375,0.11319967820048332,-1.7571119633644818,-0.13899506758376956
1761915100282224600,1.131224609375,-3.2015333573192355,-2.6074972048342224,-0.24686617117263376
1761915100292278500,1.141278564453125,-6.2765270778715605,-2.91465001386106,-0.7121642269983888
1761915100302332700,1.151332763671875,-7.444065128856897,-2.8294688079208132,-1.0129493276242165
1761915100312387600,1.1613876953125,-7.22561117850244,-3.9132518863767385,-0.6565014495525509
1761915100322441500,1.17144140625,-6.020040041720867,-5.412980741533636,0.00550751137509942
1761915100332495600,1.18149560546875,-5.766456910318136,-6.076267540377378,0.4700565754644572
1761915100342550500,1.191550537109375,-6.68134648040235,-6.416952032127976,1.1540654059499502
1761915100352604700,1.201604736328125,-8.195183355888723,-6.727166566812992,2.02308885852471
1761915100362658600,1.211658447265625,-9.753374336886406,-6.911062998527288,2.6175404599428176
1761915100372712700,1.221712646484375,-10.16038628102541,-7.309612819269299,3.0665687142953275
1761915100382767600,1.231767578125,-9.63777344276309,-7.7688500406861305,3.1322944013983007
1761915100392821500,1.241821533203125,-9.13934987386167,-7.881299777302146,2.774037720339
1761915100402875600,1.251875732421875,-8.58165461630225,-7.657461795821786,2.169214947032183
1761915100412930600,1.2619306640625,-7.930677263933419,-7.208039281454682,1.428313139718771
1761915100422984700,1.271984619140625,-7.247656421571969,-6.72260028181076,0.743645845324546
1761915100433038600,1.28203857421875,-5.770152842226624,-6.1684361209869385,0.11805427862480282
1761915100443092500,1.292092529296875,-3.866505917292833,-5.027938052618503,-0.34485995080433784
1761915100453147600,1.302147705078125,-1.8808114082694052,-3.548244854274392,-0.46098925271593033
1761915100463201500,1.312201416015625,-0.07449205414354801,-2.2118816839784383,-0.37629524577073753
1761915100473255700,1.322255615234375,1.4757546898514031,-0.8158943583250046,-0.355703197184205
1761915100483310600,1.332310546875,2.657584885561466,0.5658879163652658,-0.4913889210242778
1761915100493364500,1.342364501953125,3.014363018500805,1.7315771246135234,-0.6541261717885732
1761915100503418600,1.352418701171875,2.853524806290865,2.5517466760396954,-0.7154054739419371
1761915100513473500,1.3624736328125,2.9811031384557483,3.2895062398046253,-0.8390361644595861
1761915100523527700,1.372527587890625,3.5438907507181168,3.9829280646711585,-1.0587964481722563
1761915100533581600,1.38258154296875,4.1257209171026945,4.484727247485518,-1.2124812084309755
1761915100543635700,1.3926357421875,4.848693246102333,4.730002569270134,-1.2531959345266221
1761915100553690600,1.402690673828125,5.6264498892128465,4.856866615685821,-1.094744105996564
1761915100563744500,1.41274462890625,6.129079093110561,4.94560346828103,-0.8913244239710271
1761915100573798700,1.422798583984375,6.438705598774552,5.090449746111035,-0.6520519958630204
1761915100583853600,1.432853515625,6.594930764231085,5.355166850468516,-0.5368932925492524
1761915100593907700,1.44290771484375,6.690276805832982,5.540741444528103,-0.4749340453077107
1761915100603961600,1.452961669921875,6.823929489475488,5.532785517087579,-0.3241268863119185
1761915100614015500,1.463015380859375,6.896060075184702,5.505361503589153,-0.19191767947599292
1761915100624070700,1.473070556640625,6.915595381259918,5.450836717197299,-0.10402100403197109
1761915100634124500,1.48312451171875,6.764853031128644,5.261415969103575,0.0014210457790642976
1761915100644178700,1.4931787109375,6.32526217494607,4.99228513995707,0.13153335340097547
1761915100654233600,1.503233642578125,6.091030809745192,4.828112230366468,0.17847177631706
1761915100664287500,1.51328759765625,6.060170976579189,4.792697218114137,0.08335062951222062
1761915100674341600,1.523341552734375,6.0234326067686075,4.693717203924059,-0.05213818351626396
1761915100684396500,1.533396484375,5.854526823437213,4.539166109159589,-0.14808438296839593
1761915100694450700,1.54345068359375,5.134741892302036,4.320557260504365,-0.33758813317045566
1761915100704504600,1.553504638671875,4.0572997073054315,3.621078619816899,-0.3628165363207459
1761915100714558700,1.563558837890625,3.081318247398734,2.2916981480151413,-0.14742621132060885
1761915100724613600,1.573613525390625,1.8238059109777212,1.0876122813552618,0.01730988511070609
1761915100734667500,1.58366748046875,0.4480699307143688,0.4722054240614176,-0.2754956880033016
1761915100744721700,1.5937216796875,-1.44584587379992,-0.3219201700478792,-0.8422636020734906
1761915100754776600,1.603776611328125,-4.439624953955412,-1.1687076792865991,-1.7086518838390707
1761915100764830500,1.61383056640625,-7.789983429607749,-1.9076403784841298,-2.238963752171397
1761915100774884600,1.623884521484375,-9.745701902562379,-2.6881968814462422,-2.0460681675739587
1761915100784938500,1.6339384765625,-9.57141734880209,-2.7463842819988726,-1.5748440096348524
1761915100794993700,1.64399365234375,-8.496843997240067,-2.996922638878226,-0.6623164925068616
1761915100805047600,1.654047607421875,-8.434893444761633,-4.0472868473351,0.6019869653590023
1761915100815101700,1.664101806640625,-10.211583384299278,-5.0855204730153085,1.9192413844287395
1761915100825156600,1.674156494140625,-11.802170321989058,-5.867548802095651,3.0854893956035374
1761915100835210500,1.68421044921875,-11.219629961508511,-6.434318177470565,3.655506959119439
1761915100845264600,1.6942646484375,-9.616723640471696,-6.582349515077471,3.350096609845757
1761915100855318500,1.704318603515625,-7.864158672887086,-6.651097472611069,2.841599975219369
1761915100865373700,1.714373779296875,-6.637810121014714,-6.914748993563651,3.0270056424528358
1761915100875427600,1.724427490234375,-5.365724484840035,-7.4143807692110535,3.4974440568417307
1761915100885481500,1.7344814453125,-3.9653684425830837,-7.803830168652534,3.6385783284112807
1761915100895536600,1.74453662109375,-3.1850615304678676,-8.17719411021173,3.3964731610953804
1761915100905590500,1.754590576171875,-2.8043396273612973,-8.238251513242721,2.967250554192066
1761915100915644700,1.764644775390625,-2.4098446349680422,-7.696815901088714,2.322681461430341
1761915100925699600,1.774699462890625,-1.698044857367873,-6.843131618073582,1.6413091169282794
1761915100935753500,1.78475341796875,-0.7396241885930299,-5.70598636726439,1.164372426561266
1761915100945807600,1.7948076171875,0.21395956154465673,-4.401443984121084,0.7311002520062029
1761915100955861500,1.804861572265625,1.1964175239890813,-3.21836583417654,0.3165355544000864
1761915100965916700,1.814916748046875,2.1264438729286192,-2.2667677048981187,-0.22859438222721218
1761915100975970600,1.824970458984375,3.0493326250731942,-1.141615089699626,-0.8858642588689922
1761915100986024700,1.835024658203125,3.669718439823389,0.3899544263541698,-1.517723069269955
1761915100996079600,1.84507958984375,4.104289422017335,1.8365280299067497,-1.974814949221164
1761915101006133500,1.855133544921875,4.420415226572752,2.9858032789707183,-2.226917340546846
1761915101016187600,1.865187744140625,4.681244091320037,3.869408068475127,-2.3193762824051083
1761915101026241500,1.875241455078125,5.084895034593344,4.66637560801208,-2.3376994362115857
1761915101036296700,1.885296630859375,5.559591106426716,5.264199462342262,-2.245559351044148
1761915101046350600,1.8953505859375,5.8141667559981345,5.671416573664546,-1.9338715289361774
1761915101056404500,1.905404541015625,5.983960428079962,5.977547638428211,-1.5360492918163537
1761915101066459600,1.915459716796875,6.249695185047388,5.999621523070335,-1.0920077398352324
1761915101076513500,1.925513427734375,6.506121430921554,5.755344564673305,-0.6378197646319865
1761915101086567700,1.935567626953125,6.548305791178345,5.616024941310286,-0.3759636026635766
1761915101096621600,1.94562158203125,6.518173103243112,5.564761787062883,-0.2617646842926741
1761915101106676500,1.955676513671875,6.576817015391588,5.228404510861635,-0.10851882690787315
1761915101116730600,1.965730712890625,6.646935092234611,4.880894557005167,-0.05785948377251625
1761915101126784500,1.975784423828125,6.644943626156449,4.7873207857728,-0.17297697829306125
1761915101136839700,1.985839599609375,6.631341217261553,4.701767823910713,-0.4124731321543455
1761915101146893600,1.9958935546875,6.435900478225946,4.612276938077807,-0.8010954331219196
1761915101156947700,2.00594775390625,6.334448520964384,4.636249934339523,-1.222499329098314
1761915101167002600,2.016002685546875,6.042607847359776,4.715561371463537,-1.4786961501307785
1761915101177056500,2.026056396484375,5.571502493494749,4.700378999900818,-1.5001557022668421
1761915101187110700,2.036110595703125,5.302645220592618,4.5927012999922034,-1.3685276563197373
1761915101197164500,2.04616455078125,5.3762090539753435,4.493764540421963,-1.1884477141536771
1761915101207219700,2.0562197265625,5.220865347528457,4.14240200279057,-0.8975226940892637
1761915101217273600,2.066273681640625,4.595930783432721,3.4236481682687994,-0.5980759293951093
1761915101227327500,2.076327392578125,3.780434484514594,2.747960737535357,-0.28926439337581394
1761915101237382700,2.086382568359375,2.450230421370268,2.242817504990101,-0.053765200196206564
1761915101247436500,2.0964365234375,0.349587929174304,1.4848165327072143,0.04566664941459894
1761915101257490700,2.10649072265625,-1.137209548217058,-0.11028642110228538,0.23829832237884402
1761915101267544600,2.116544677734375,-2.744967985460162,-1.7906652733981607,0.10503259222730994
1761915101277599500,2.126599609375,-4.767788402307033,-2.6316806289762256,-0.5181237101495265
1761915101287653600,2.136653564453125,-5.515967068755626,-3.3983664274960756,-0.8151720353998243
1761915101297707500,2.14670751953125,-4.884680505284667,-5.216413044294715,-0.3268275235727429
1761915101307762700,2.1567626953125,-4.947424838489294,-6.732295746394992,0.4377994427211582
1761915101317816600,2.166816650390625,-5.354346766257286,-7.605929761505126,1.4465019996210933
1761915101327870700,2.17687060546875,-6.317929347839951,-8.171220881021023,2.290465683610737
1761915101337924600,2.186924560546875,-7.506904739129543,-8.79749400024414,3.016387510065734
1761915101347979500,2.1969794921875,-7.93578656977117,-9.201632434773444,3.7202795832812785
1761915101358033700,2.20703369140625,-8.19548964535892,-9.517354334703088,4.430551712922751
1761915101368087600,2.217087646484375,-8.525835698446631,-10.190032062226534,5.23333787561059
1761915101378142700,2.227142822265625,-8.738454951298236,-10.616161379289627,5.7526896662503475
1761915101388196600,2.237196533203125,-9.124072225230933,-10.378602330970763,5.685420549097657
1761915101398250500,2.24725048828125,-9.574040098521113,-9.723240479907393,5.257660415962338
1761915101408305700,2.2573056640625,-9.441493330293893,-8.723690512886643,4.631614383493363
1761915101418359600,2.267359619140625,-8.697505101272464,-7.675830396205186,3.983965883286297
1761915101428413700,2.27741357421875,-7.3272326471120115,-6.639678837496042,3.296448606288433
1761915101438467600,2.287467529296875,-5.6127083641082045,-5.177418419989944,2.4651006582438946
1761915101448522500,2.2975224609375,-3.8890065029144285,-3.4854899996757505,1.599563148088753
1761915101458576600,2.30757666015625,-2.3627660729289053,-2.110800898116827,0.7306359954953193
1761915101468630500,2.317630615234375,-1.2395125693500042,-0.7955418906480074,-0.27951544503867626
1761915101478685700,2.327685791015625,-0.3776981713712215,0.5812450599730015,-1.2651347941234707
1761915101488739600,2.337739501953125,0.6622633010149002,1.746751897391677,-2.102296104621887
1761915101498793700,2.347793701171875,1.6349901430398224,2.6948931642144918,-2.6653017435491084
1761915101508847400,2.357847412109375,2.29986917951107,3.54526437715888,-3.0169252702042457
1761915101518902500,2.367902587890625,3.08389949606359,4.495005480393767,-3.2850387390017506
1761915101528953600,2.37795361328125,3.819508019274473,5.516535224032402,-3.5537986890092492
1761915101539007500,2.388007568359375,4.500031199601293,6.24653876684308,-3.6456571807563303
1761915101549062400,2.3980625,5.078024564301967,6.38162236007154,-3.3985245406672355
1761915101559116500,2.408116455078125,5.481752664464712,5.977095803007483,-2.9251471502169966
1761915101569170400,2.41817041015625,5.62877511729002,5.741460416227579,-2.519593003670871
1761915101579224600,2.428224609375,5.773007647135853,5.894978076291084,-2.3837530391171575
1761915101589279500,2.438279541015625,6.0576557788878675,5.723705563828349,-2.130913127297163
1761915101599333600,2.448333740234375,6.189696351158618,5.377672696787118,-1.7908374150946735
1761915101609387500,2.458387451171875,6.141648651826381,5.098882058891654,-1.5376362687468528
1761915101619442400,2.4684423828125,6.062801909604668,5.097929288211464,-1.42259856146425
1761915101629496600,2.47849658203125,6.151521226543188,5.165956530255079,-1.3820724898084997
1761915101639550500,2.488550537109375,6.263142695641517,5.22912288826406,-1.3101730825066566
1761915101649604600,2.4986044921875,6.172249541795253,5.514174924641847,-1.26797089433223
1761915101659659500,2.508659423828125,6.094505792379379,5.8321653540253635,-1.2270333192661405
1761915101669713400,2.51871337890625,6.048447221037745,6.223645382511616,-1.1475383422687648
1761915101679767600,2.528767578125,6.022842824181914,6.574284282043576,-1.0307380092278122
1761915101689822500,2.538822509765625,5.758882091149688,6.75107877279818,-0.8199997478172183
1761915101699876600,2.548876708984375,5.368894931569695,6.99119978055954,-0.6261076995283364
1761915101709930500,2.558930419921875,5.138854588317871,6.952460007798671,-0.3607587270081043
1761915101719984600,2.568984619140625,5.032715934544801,5.993990239185094,0.1693292694404721
1761915101730039600,2.57903955078125,4.5873681222707035,4.687597259739041,0.6808212864905595
1761915101740093400,2.589093505859375,3.8340971011191605,3.5944384501725435,0.8572674021989106
1761915101750147600,2.599147705078125,3.2353818509072063,2.81688638972342,0.5728340822413563
1761915101760202500,2.609202392578125,2.513177583670616,2.040095376774669,0.25680560058057306
1761915101770256600,2.619256591796875,1.3359504978418348,0.884120922333002,0.09419190313071012
1761915101780310300,2.629310302734375,-0.15739683958441017,-1.3119506135731935,0.5596072286605834
1761915101790365400,2.639365478515625,-2.096428966154158,-3.118179951328039,1.224404432067275
1761915101800419600,2.649419677734375,-3.8074984325289725,-3.3741432558655737,1.7107704834282398
1761915101810473500,2.659473388671875,-4.645815927325189,-3.9403386307448147,2.5100343172088264
1761915101820527600,2.669527587890625,-4.990860075590014,-5.616227770406008,3.211428436128795
1761915101830582500,2.67958251953125,-5.493900198376179,-6.929352103933692,3.2118522144988177
1761915101840636400,2.689636474609375,-6.444288367342948,-7.889241676217317,2.775479443579912
1761915101850690600,2.699690673828125,-7.604117743647098,-8.913132888290285,2.0569465583324433
1761915101860745500,2.709745361328125,-8.582339675956964,-9.738208916458486,1.4122431716665624
1761915101870799600,2.719799560546875,-9.270124956241249,-10.52040617236495,1.2412763641521334
1761915101880853500,2.729853515625,-8.979591858103872,-10.969185712653397,1.4784744702041148
1761915101890907600,2.73990771484375,-8.248319902792572,-11.193886448442935,1.7888363044053315
1761915101900962600,2.749962646484375,-7.638736052563786,-11.37028814048767,1.9189035307765006
1761915101911016400,2.760016357421875,-6.926962578448653,-10.979784263557194,1.8526476823195814
1761915101921070600,2.770070556640625,-5.6652486986845725,-10.259680183470248,1.6414771669715642
1761915101931125500,2.78012548828125,-4.189769318643212,-9.438381335753203,1.448561270238459
1761915101941179400,2.790179443359375,-2.693191620993614,-8.182422073993086,1.3701599336966872
1761915101951233500,2.800233642578125,-1.4757470910668373,-6.510780070382356,1.108024370265007
1761915101961287400,2.810287353515625,-0.595287613850832,-4.848911272767186,0.4647486783146858
1761915101971342600,2.820342529296875,-0.19736615414023398,-3.6002024205267427,-0.1319493868559599
1761915101981396500,2.830396484375,0.01635141534209251,-2.3358663755655287,-0.8084519333645701
1761915101991450600,2.84045068359375,0.28555180259346963,-0.9359247593283653,-1.5620388885974883
1761915102001505500,2.850505615234375,0.7815151188611984,0.5168196418136358,-2.0910374823741615
1761915102011559400,2.860559326171875,1.1749860289037226,1.976734957498312,-2.461613400650024
1761915102021613600,2.870613525390625,1.2662556148469448,3.309779797026515,-2.572038937962055
1761915102031667500,2.88066748046875,1.60358787356019,4.481461523687839,-2.5340856394037603
1761915102041722600,2.89072265625,2.378831072545051,5.439156216275691,-2.446959144614637
1761915102051776500,2.900776611328125,3.290409326124191,5.959819089514017,-2.124660642773658
1761915102061830400,2.910830322265625,4.213631255745888,6.295902809470892,-1.710365409758687
1761915102071885600,2.920885498046875,4.888468791651725,6.591894757536053,-1.1932518995650112
1761915102081939500,2.930939453125,5.398025748986005,6.776614196071028,-0.6795793236054479
1761915102091993600,2.94099365234375,5.66820111874938,6.7296525384098285,-0.2772176894903183
1761915102102048500,2.951048583984375,5.662392724731564,6.6676277516514055,0.11466142131611703
1761915102112102400,2.961102294921875,5.493084205818176,6.49743718920648,0.40846769590526816
1761915102122156500,2.971156494140625,5.393320932295918,6.3310781677484504,0.5297406443156302
1761915102132210400,2.98121044921875,5.31545384876132,6.278816065591573,0.38051819722801444
1761915102142265600,2.991265625,5.3087558124274015,6.195052909755707,0.181157362139225
1761915102152319500,3.001319580078125,5.278434908443689,6.126849142101407,-0.0916372502118349
1761915102162373600,3.01137353515625,5.2115603435665365,6.143663498780131,-0.33786534267663954
1761915102172428500,3.021428466796875,5.1524225104212755,6.013074294361472,-0.43036943885087964
1761915102182482400,3.031482421875,5.088279416334629,5.908956917282938,-0.42508623775094745
1761915102192536600,3.04153662109375,4.806577859428525,5.910285535538196,-0.3779562377855181
1761915102202590500,3.051590576171875,4.513821824544668,5.825902201977372,-0.361190104162693
1761915102212645600,3.061645751953125,4.175512829753757,5.681396115887165,-0.4063211853958666
1761915102222699500,3.071699462890625,3.88421050080955,5.285772411724925,-0.29948928866162894
1761915102232753400,3.08175341796875,3.456212467265129,4.5329573176473374,-0.1266933660238981
1761915102242808600,3.09180859375,2.6147698261857033,3.404993736681342,0.11180559349358081
1761915102252862500,3.101862548828125,1.4245990876317023,2.1220342397928236,0.40427784299999475
1761915102262916600,3.11191650390625,0.4122866696715355,1.0602519807428121,0.37752237641289826
1761915102272970500,3.121970458984375,-0.6771756234645843,0.2678144858509302,-0.05320800470486283
1761915102283025400,3.132025390625,-1.7460884650468824,-0.8273731991946697,-0.45911680990755555
1761915102293079600,3.14207958984375,-2.8410850114345547,-2.4574375762701033,-0.5975742634832859
1761915102303133400,3.152133544921875,-4.75968049917519,-3.3647640176236626,-0.8038178438231348
1761915102313188600,3.162188720703125,-6.396403749617934,-3.9649353118628263,-0.4882430972792208
1761915102323242500,3.172242431640625,-7.10886169886589,-5.444029959791898,0.6918503377661108
1761915102333296600,3.182296630859375,-6.997759869727492,-6.40954029456675,1.6495020679950714
1761915102343350500,3.1923505859375,-6.536569760677218,-6.453686310285329,1.9101947391420602
1761915102353405400,3.202405517578125,-6.953584627914428,-6.766567433831096,1.8845777750656008
1761915102363459600,3.21245947265625,-7.518588162660598,-7.88300716574192,1.9884188194207846
1761915102373513500,3.222513427734375,-8.170800609782338,-8.830978921216726,2.0685925724625585
1761915102383568600,3.232568603515625,-8.424695291352272,-9.392866954290866,1.9341328102208672
1761915102393622300,3.242622314453125,-8.357063186106085,-9.819892927932738,1.5002091860197484
1761915102403676400,3.252676513671875,-8.14289728833437,-9.824491946160792,0.6299502003006636
1761915102413731600,3.262731689453125,-7.877265407219529,-9.228032950443028,-0.45973932572007176
1761915102423785500,3.272785400390625,-7.316640525949001,-8.53184399895072,-1.4033230753690003
1761915102433839600,3.282839599609375,-6.3406146423786875,-7.446487387567758,-1.9746746639676391
1761915102443893500,3.2928935546875,-4.6733103757113215,-6.176968387010693,-2.0012578427277505
1761915102453948400,3.302948486328125,-2.899409190109372,-4.8714895998001095,-1.5774441091306506
1761915102464002600,3.31300244140625,-1.3698989446729422,-3.5882512859702107,-1.0835643211387098
1761915102474056400,3.323056396484375,-0.024058920979499816,-2.3524375711381436,-0.9751916247032583
1761915102484111600,3.333111572265625,1.0315075322955847,-1.0341530783683062,-1.285372257118672
1761915102494165500,3.34316552734375,1.6905319975197315,0.36357261538505553,-1.8993994966223835
1761915102504219600,3.3532197265625,2.191809202286601,1.6390110691189765,-2.516450906252861
1761915102514273300,3.363273193359375,2.600926009750366,2.5316800395667554,-2.853845708808303
1761915102524327400,3.373327392578125,2.6961463791459797,3.457337087380886,-2.9954969899892805
1761915102534381600,3.383381591796875,2.9019933613836764,4.398979639834165,-2.8721324761271476
1761915102544435700,3.393435791015625,3.5975358316659927,5.18333728864491,-2.6497867790311576
1761915102554490600,3.40349072265625,4.551328256118297,5.875848428407311,-2.3664622970983387
1761915102564544800,3.413544677734375,5.090836115080118,6.290449804762005,-1.8501399372823535
1761915102574598700,3.4235986328125,5.263253121402859,6.497138498520851,-1.15206078812927
1761915102584653600,3.433653564453125,5.354969866591691,6.699582394316792,-0.5056256092347204
1761915102594707700,3.443707763671875,5.538105250805616,6.699632078677415,-0.15958572793081402
1761915102604761600,3.45376171875,5.819688734290003,6.510035974016785,-0.2021782305970788
1761915102614815700,3.463815673828125,6.3923348927438255,6.240714590734243,-0.34826997844353313
1761915102624870700,3.47387060546875,6.690258101132511,5.794585857215523,-0.38422844992280003
1761915102634924500,3.483924560546875,6.726878397521376,5.304833086025715,-0.3877566240489483
1761915102644978400,3.493978515625,6.574584141772985,4.870739073693752,-0.43589930818825956
1761915102655033600,3.50403369140625,6.5825692953079935,4.650964688390493,-0.5707118293903768
1761915102665087700,3.514087646484375,6.6023430863142005,4.703983746394515,-0.8055937674544751
1761915102675141600,3.5241416015625,6.486510137000679,4.702130812004208,-0.9681962128579616
1761915102685195800,3.53419580078125,6.245537480846047,4.522720001271367,-0.9228696090526878
1761915102695250700,3.544250732421875,6.019439737740159,4.284036332836747,-0.862444950967282
1761915102705304600,3.5543046875,5.847586795040964,4.090726176089048,-0.7785505699671804
1761915102715358700,3.564358642578125,5.761265186893939,3.511912727177143,-0.6087998602442443
1761915102725413600,3.57441357421875,5.192240141546726,2.4848247648894786,-0.27836583661213515
1761915102735467800,3.5844677734375,4.09822033123672,1.31518360414505,0.03674538407325744
1761915102745521700,3.594521728515625,2.3439047205924988,0.357864759132266,0.13952318311110137
1761915102755575600,3.604575439453125,0.4640168569087982,0.044214989301562306,-0.19376622995212672
1761915102765630700,3.614630615234375,-1.0426876824796198,-0.4343967946708202,-0.34758813365921376
1761915102775684600,3.6246845703125,-2.7203362330287693,-1.5324375310599803,-0.3382788919135928
1761915102785738800,3.63473876953125,-4.964108262264729,-2.4885411550641057,-0.35066301105991005
1761915102795793400,3.64479345703125,-6.892870339232683,-3.057857876834273,-0.08763444431126118
1761915102805847600,3.65484765625,-7.859982848507165,-4.078136743628979,0.6945552128106355
1761915102815901400,3.6649013671875,-7.569111896717548,-5.410227643433213,1.630315429227054
1761915102825956600,3.67495654296875,-8.179851931244134,-5.589985660168528,2.0326707797318697
1761915102836010800,3.6850107421875,-9.439212525880336,-6.211339443168043,2.5106559562385082
1761915102846064600,3.695064697265625,-10.740766248601675,-6.982679204973578,2.737619960784912
1761915102856118800,3.705118896484375,-11.272694027698039,-7.365401341986656,2.7732275729998945
1761915102866173700,3.715173583984375,-10.910839906668663,-7.887280605277419,2.7896532226219772
1761915102876227600,3.7252275390625,-10.161849923837185,-8.180555695599317,2.5015929443389178
1761915102886281700,3.73528173828125,-9.585562778532504,-7.810639848667383,1.8048292616985737
1761915102896336600,3.745336669921875,-9.151794929414987,-7.037997187569737,0.966737976873666
1761915102906390800,3.755390869140625,-8.523694010242819,-6.270011412367224,0.14560294141620397
1761915102916444400,3.7654443359375,-7.2364260025054215,-5.531804689356685,-0.49530017618387934
1761915102926498600,3.77549853515625,-5.328854597604274,-4.601214276793599,-0.7618202383100986
1761915102936553700,3.7855537109375,-3.271641497290134,-3.7053169919490814,-0.6079679394647479
1761915102946607600,3.795607666015625,-1.2275620193153618,-2.9419115302741528,-0.3462780739739537
1761915102956661800,3.805661865234375,0.41970483697354793,-2.1679823364973068,-0.38435061499774453
1761915102966716400,3.81571630859375,1.8269646672695874,-1.293379768615961,-0.775162681094557
1761915102976770600,3.8257705078125,2.9931828678280112,-0.4710065696656704,-1.3882459177464246
1761915102986824400,3.835824462890625,3.8479467627733945,0.40718613166213036,-2.0520498723320664
1761915102996879600,3.845879638671875,4.4590667365282775,1.331425713893771,-2.519686527173221
1761915103006933800,3.855933837890625,4.748624267631769,2.249527816283703,-2.850572093965113
1761915103016987600,3.865987548828125,4.561006769567728,3.0314509314239024,-2.9120570747584105
1761915103027041800,3.876041748046875,4.633953932356834,3.7857168088316917,-2.8490567209661006
1761915103037096700,3.8860966796875,5.064018250781297,4.319455436742306,-2.616131762188673
1761915103047150600,3.896150634765625,5.445567836883664,4.6090392713308335,-2.2134920417845247
1761915103057204700,3.906204833984375,5.698080708706379,4.817885435384512,-1.7092492652103304
1761915103067259600,3.916259765625,5.877869120579958,4.888209263932705,-1.1985934067234396
1761915103077313500,3.9263134765625,6.05362257784903,5.093548881170153,-0.9533071251533924
1761915103087367400,3.936367431640625,6.309624460831285,5.176605934563279,-0.8492344639994204
1761915103097422600,3.946422607421875,6.698025228002667,4.968695590054988,-0.7612906614780426
1761915103107476700,3.956476806640625,6.8528919645875686,4.628390453010797,-0.7127803130701184
1761915103117530600,3.966530517578125,6.821191588944196,4.253738225206733,-0.6919733796238898
1761915103127584800,3.976584716796875,6.797838185885548,3.9605917297005653,-0.6346864350423217
1761915103137639400,3.986639404296875,6.728259622746705,3.642638125196099,-0.5617242208145559
1761915103147693600,3.996693603515625,6.399941860616207,3.5505320884287355,-0.5487381902523338
1761915103157747700,4.006747802734375,5.91148965063095,3.5893601239949464,-0.5908626370154321
1761915103167802600,4.016802734375,5.340763646584749,3.6559500267118215,-0.7132409163191914
1761915103177856800,4.026856689453125,4.806272154480219,3.7045349016606806,-0.8072323284417391
1761915103187910700,4.03691064453125,4.178557604277134,3.5500264769941565,-0.6887262143962085
1761915103197964500,4.046964599609375,3.253161253225803,3.054771601256728,-0.35454759740829467
1761915103208019700,4.057019775390625,2.2177286564409733,2.461589435252547,-0.025281156250834463
1761915103218073600,4.067073486328125,1.019303884282708,1.7233154922246932,0.12698986475244164
1761915103228127700,4.077127685546875,-0.383551573574543,1.0377677617341279,0.10045476291775703
1761915103238182700,4.0871826171875,-2.1123890440911053,0.5867576859146356,0.059518649156391615
1761915103248236500,4.097236572265625,-3.54856575679183,-1.036031147199869,0.6256473885402083
1761915103258290400,4.10729052734375,-4.35480848967433,-3.860069746765494,1.6869072311513125
1761915103268345600,4.117345703125,-6.4819152104258535,-5.055063959953189,1.7527803639009594
1761915103278399700,4.127399658203125,-8.473657767441868,-4.128626575416327,0.8249446568734944
1761915103288453600,4.13745361328125,-8.167367712724209,-4.585904479458928,0.7063734417024999
1761915103298507800,4.1475078125,-7.418092483210563,-6.497245466026663,1.9610209632769227
1761915103308562400,4.1575625,-7.193324527403711,-7.583322792899608,3.2079964158535
1761915103318616600,4.167616455078125,-7.732278844135999,-7.121698384085297,3.3211031550735233
1761915103328670700,4.177670654296875,-8.075219005858898,-6.24252836215794,2.658638194006681
1761915103338725600,4.1877255859375,-8.432554772680998,-5.855863040477037,1.9954687379322944
1761915103348779800,4.19777978515625,-9.013255058252811,-6.189898011210561,1.8122640878744423
1761915103358833700,4.207833740234375,-8.828427483168245,-6.7680614717811345,1.8844278452008962
1761915103368887600,4.217887451171875,-7.823897389647364,-6.655848466530442,1.5851029533207415
1761915103378942700,4.227942626953125,-7.068565928834676,-6.339011883357167,1.2040469959542155
1761915103388996600,4.23799658203125,-6.302460560551285,-5.9654082878232,0.781228703135252
1761915103399050800,4.24805078125,-5.470425214764475,-5.3244724369972944,0.27099735367074607
1761915103409105700,4.258105712890625,-4.4503386556714775,-4.355315854674577,-0.16018252478018402
1761915103419159600,4.26815966796875,-3.0686148331701752,-2.8839269588172436,-0.4431598007105291
1761915103429213400,4.27821337890625,-1.2237445068538189,-1.575159651455283,-0.6315988442905247
1761915103439268600,4.2882685546875,0.5709399390578269,-0.705239103910327,-0.9214734785191714
1761915103449322800,4.29832275390625,2.0783727927207947,0.2746802799671888,-1.3040810492418706
1761915103459376600,4.308376708984375,3.2028578839212654,1.26316875474751,-1.6073326130464671
1761915103469430800,4.3184306640625,4.052887736082077,2.055948779466748,-1.842937312427163
1761915103479485700,4.328485595703125,4.690903315547108,2.735911403301358,-1.9887379683725535
1761915103489539600,4.33853955078125,5.131538127824664,3.3228023602068424,-1.9489866804815827
1761915103499593700,4.34859375,5.429957010775804,3.785171449908614,-1.7591225725345312
1761915103509648600,4.358648681640625,5.750453870022296,4.2895483742564915,-1.5354444577910005
1761915103519702800,4.368702880859375,5.95192453687191,4.8184565132707355,-1.2437269721746445
1761915103529757400,4.37875732421875,6.268665258455276,5.274318705296516,-0.9082553927667438
1761915103539812600,4.3888125,6.480217174336314,5.630618699330091,-0.583591184707731
1761915103549866800,4.39886669921875,6.726290368500352,5.797714802891016,-0.22034823966845868
1761915103559920600,4.408920654296875,7.002211003917456,5.862514315059781,0.015678046125173567
1761915103569974800,4.418974853515625,7.255980013281106,5.75330107614696,0.11886530274674295
1761915103580029400,4.429029541015625,7.357965639027952,5.5165749715209005,0.15071604664623736
1761915103590083600,4.43908349609375,7.472607917252183,5.417157734957337,0.07207257191166282
1761915103600137500,4.449137451171875,7.647240261536836,5.249992657813429,-0.07121990060508251
1761915103610192600,4.459192626953125,7.564756039595603,4.848984922525286,-0.04310922001674771
1761915103620246500,4.46924658203125,6.995594800648093,4.239218116945028,-0.07246990066617727
1761915103630300400,4.479300537109375,6.278499254727363,4.114600388151407,-0.5573210174195468
1761915103640355600,4.48935546875,5.471259327501058,4.4582682796269655,-1.017741165010631
1761915103650409700,4.49940966796875,4.7413697664588685,4.521918037238716,-1.1735196096129714
1761915103660463600,4.509463623046875,4.053066015258431,3.97296664262712,-1.0538523428335784
1761915103670517800,4.519517822265625,3.659308104968071,2.8596108482062816,-0.6502196658693253
1761915103680572400,4.529572509765625,2.8358430191278456,1.4159651147991419,-0.055107993107289074
1761915103690626600,4.53962646484375,1.1563351044476031,0.18110417064726353,0.517196804562956
1761915103700680400,4.549680419921875,-1.1529787797570228,-0.6191477973878383,0.5462514880031347
1761915103710735600,4.559735595703125,-2.260532609900832,-1.4468892453730104,0.2854080102086067
1761915103720790500,4.56979052734375,-3.809841780784726,-1.8052029173165558,-0.6237488614425063
1761915103730844400,4.579844482421875,-5.73582679425478,-1.597243472969532,-1.6851999888420104
1761915103740898600,4.589898681640625,-6.819485369548201,-1.746328119021654,-1.6116192043244837
1761915103750953700,4.59995361328125,-7.574013697284459,-2.5266934833258388,-0.45026159553974865
1761915103761007600,4.610007568359375,-8.204910969176888,-3.6020828274458645,1.1597368757151068
1761915103771061800,4.620061767578125,-8.539336400532722,-4.7002165028154845,2.5948981277629732
1761915103781116400,4.630116455078125,-9.282985022336245,-5.501729284566641,3.250464853748679
1761915103791170600,4.640170654296875,-10.426045634669064,-5.140522229269147,2.8177786623880268
1761915103801224700,4.650224609375,-10.581963341611623,-4.900277302867174,2.0486169752739367
1761915103811278600,4.660278564453125,-10.044873065185547,-5.224826067852973,1.342921798159182
1761915103821333800,4.670333740234375,-9.097062637752295,-5.413955139523744,1.105408780939132
1761915103831387400,4.680387451171875,-7.663143348589539,-5.526083389100432,1.2600769262120126
1761915103841441500,4.690441650390625,-6.112393331247568,-5.642212106490135,1.4690981545716524
1761915103851496700,4.70049658203125,-4.892891868790984,-5.693478183346986,1.4711441273160277
1761915103861550600,4.710550537109375,-3.6883150037437673,-5.457461688295006,1.336966250755638
1761915103871604700,4.720604736328125,-2.2378286106616256,-4.957499657779931,1.1095578634425998
1761915103881659400,4.730659423828125,-0.5913666410148143,-4.311828010603786,0.9207081932350992
1761915103891713500,4.740713623046875,0.9394330597102641,-3.480620932334661,0.6961977193206548
1761915103901767400,4.750767333984375,2.205779859972,-2.295762328714132,0.13561696945279836
1761915103911821600,4.760821533203125,2.512838560974598,-0.8323498185634612,-0.9062441990748047
1761915103921876700,4.770876708984375,2.0592004747390744,0.32159576039910315,-2.026665109576285
1761915103931930600,4.7809306640625,1.4403320788145064,0.8027437848508358,-2.5574407960280774
1761915103941984800,4.79098486328125,1.4213468078374862,1.170477903829515,-2.669659354236722
1761915103952039400,4.801039306640625,1.9477736514300106,1.783330108204484,-2.8082641073286534
1761915103962093600,4.811093505859375,2.83059401255846,2.090833922626078,-2.762663216626644
1761915103972147700,4.821147705078125,3.8130022906422614,2.3244041935697197,-2.575807935106754
1761915103982202600,4.83120263671875,4.265273180177807,2.5540569988086816,-2.2912805071249602
1761915103992256800,4.8412568359375,4.397082866302132,2.4292642057091,-1.7063716639474034
1761915104002310400,4.851310302734375,4.446690654557943,2.357270982643962,-1.1809639342695475
1761915104012365600,4.861365478515625,5.074580561327934,2.5523867275089023,-0.9656181790634989
1761915104022419700,4.871419677734375,5.808662897884846,2.8324180131152272,-1.0508511151909827
1761915104032473600,4.8814736328125,6.115481360390782,2.986236701951921,-1.2258268660858274
1761915104042527700,4.89152783203125,6.271883051458,2.731676542210579,-1.220787995135784
1761915104052582400,4.90158251953125,6.488213433787227,2.5693489682257176,-1.2942130045697093
1761915104062636500,4.911636474609375,6.8753615705490105,2.6643767376586793,-1.4969047376468776
1761915104072690400,4.9216904296875,7.229283145013452,2.65923674442172,-1.6584345853827893
1761915104082745600,4.93174560546875,7.351250067037344,2.7698388073444367,-1.8991165880277752
1761915104092799700,4.9417998046875,7.072146709930896,2.9556548089444634,-1.9338528242357074
1761915104102853600,4.951853515625,6.2465492882370945,2.9391490798234936,-1.759808655102551
1761915104112908500,4.961908447265625,5.324311693477631,2.928646390509605,-1.5276615488298237
1761915104122962400,4.97196240234375,4.6591140925765036,2.77074656983912,-1.14742640632689
1761915104133016600,4.9820166015625,4.242950873732567,2.133872561624646,-0.5953951658785342
1761915104143070700,4.99207080078125,3.487646300926804,1.1729998235225676,0.1687690052092075
1761915104153125600,5.002125732421875,2.00864868363142,0.4764478839367628,0.8611004044905305
1761915104163179500,5.012179443359375,0.33769115515351295,-0.060413259908556935,1.3479615458920597
1761915104173233400,5.0222333984375,-1.540282399341464,-0.6322036783158779,1.3152107844129204
1761915104183288600,5.03228857421875,-3.6880858711630102,-1.269015142688155,0.832498433253914
1761915104193342700,5.0423427734375,-5.945381398838758,-1.4487433488070964,0.11981018238142133
1761915104203396600,5.052396728515625,-7.395930920284986,-1.5109107589066029,-0.3891657601945102
1761915104213451500,5.062451416015625,-7.299690560191869,-2.443935120618343,0.0627852497369051
1761915104223505400,5.07250537109375,-7.056988303765654,-3.533305643817782,1.0254127225518226
1761915104233559600,5.0825595703125,-7.6034373601675025,-4.23378732406795,2.1002778966672717
1761915104243613400,5.092613525390625,-8.628066238865255,-4.835015433883667,2.89856367919594
1761915104253668600,5.102668701171875,-9.88921254787445,-4.9787832688272,3.1246301503807303
1761915104263722800,5.11272265625,-10.818407122164965,-5.016739782255888,3.0012124450266358
1761915104273776600,5.122776611328125,-11.446416271400452,-5.072130245566368,2.6447552146047353
1761915104283831600,5.13283154296875,-11.424936260998248,-4.735699904128909,1.87515630511716
1761915104293885700,5.1428857421875,-10.929051270663738,-4.048093487542867,0.950168388736248
1761915104303939600,5.152939697265625,-9.911478155696392,-3.226437496951222,0.15151085028573869
1761915104313994800,5.162994873046875,-9.079934392818808,-2.620299403262138,-0.527076831933856
1761915104324048600,5.173048583984375,-7.731242486825585,-1.9451380422294138,-0.8755987393118441
1761915104334102500,5.1831025390625,-5.938834753674269,-1.0242881024360657,-0.7987647982172668
1761915104344156400,5.193156494140625,-3.7130747664690014,-0.38675124639868735,-0.3364871131259948
1761915104354211600,5.203211669921875,-1.3718266978651283,-0.3789063781172037,0.4927797177955508
1761915104364265700,5.213265625,0.4862754504680633,-0.10891396370530128,1.0975193428635597
1761915104374319600,5.223319580078125,1.743259963622689,0.549184618845582,1.0689509085703641
1761915104384374500,5.23337451171875,2.897327707660198,1.1570447140216826,0.694897085050866
1761915104394428400,5.243428466796875,4.092675556591153,1.7777935168653725,0.029706717608124017
1761915104404482600,5.253482666015625,5.2633238485515115,2.4084195706009863,-0.544989359112829
1761915104414537700,5.263537841796875,5.936337091639637,2.9491011495172974,-0.9088897451475262
1761915104424591600,5.273591552734375,6.65113371296823,3.2357857555329796,-1.1162347839232534
1761915104434645800,5.283645751953125,7.321950322794914,3.2083500515967605,-1.228303339201957
1761915104444700400,5.293700439453125,7.739927897584438,2.850107691323757,-1.018408615943417
1761915104454754600,5.303754638671875,7.813596360385417,2.5390257261544464,-0.6219773217253387
1761915104464808700,5.31380859375,7.609288424283266,2.3486145057186483,-0.3188074448548257
1761915104474862600,5.323862548828125,7.560813439449667,2.2490262965023518,-0.3186820649094879
1761915104484917800,5.333917724609375,7.5414698565542695,2.3318109626948833,-0.5386448123916984
1761915104494971400,5.343971435546875,7.5225658341199155,2.477449852207303,-0.6860137405671178
1761915104505025500,5.354025634765625,7.5211179733991615,2.3302716242983936,-0.7084459371276199
1761915104515080700,5.364080810546875,7.507679230633378,2.210897933638096,-0.7871116236940026
1761915104525134800,5.374134765625,7.46202047226429,2.2732491758719084,-0.9207495481587946
1761915104535189000,5.38418896484375,7.326945062342285,2.161105436465144,-0.9282935337975621
1761915104545243600,5.39424365234375,7.108941778364777,1.9614614005208015,-0.8982673749767244
1761915104555297800,5.4042978515625,6.9402604514390225,2.08140236967504,-0.9264840001575648
1761915104565351700,5.4143515625,6.512095244634151,2.2037030536979434,-0.8362095627315342
1761915104575405800,5.42440576171875,5.84733369706273,2.0059195509284735,-0.4268567545548081
1761915104585461000,5.4344609375,5.533391081765294,1.4419173021793366,0.24883462170138954
1761915104595515000,5.444514892578125,4.946580788880587,0.7155734509199857,1.019591469052434
1761915104605568800,5.45456884765625,4.034872771441936,0.01717149955332279,1.4411201604522763
1761915104615624000,5.4646240234375,2.4575585723012683,-0.5801286231637001,1.3950642194591463
1761915104625677800,5.474677734375,0.3275800955057144,-1.4002028975218535,1.427106102016568
1761915104635732000,5.48473193359375,-1.9200918637782334,-2.4788842689245936,1.3829966189160943
1761915104645787000,5.494786865234375,-5.0403433606833214,-2.9461937376379965,0.8801208929114043
1761915104655840800,5.5048408203125,-7.212095863369107,-2.6615993818998334,0.18158844703286886
1761915104665894700,5.514894775390625,-7.269897479474544,-3.070744830936193,0.09033668900728226
1761915104675949800,5.52494970703125,-7.219796939265728,-4.647299151620269,0.7325292618960142
1761915104686004000,5.53500390625,-7.896679717263579,-5.9363201405048365,1.6105153347358108
1761915104696057900,5.545057861328125,-8.581294550818205,-6.27223902528882,2.1740102184846997
1761915104706112000,5.555112060546875,-8.847671697342395,-5.9102796903193,1.947898885244876
1761915104716166700,5.565166748046875,-8.911476937776804,-4.984857035782933,1.074465215012431
1761915104726220800,5.575220703125,-8.620950269380211,-4.102399078226089,0.08460179861709476
1761915104736275000,5.58527490234375,-8.108704511353373,-4.017629960218072,-0.3599612199548632
1761915104746329900,5.595329833984375,-7.559233476781845,-3.9618940444707866,-0.45659262519218025
1761915104756384000,5.605384033203125,-6.803214033704996,-3.8827825138330456,-0.34340383371189237
1761915104766438000,5.61543798828125,-5.912949201789498,-4.0283319714963435,-0.07334273797795177
1761915104776492800,5.625492919921875,-4.797756839591265,-4.0294221048206085,-0.039091143481805916
1761915104786547000,5.635546875,-3.639491643863916,-3.601367372652888,-0.393390757478401
1761915104796600800,5.645600830078125,-2.318492046916485,-2.743841611778736,-0.8493321522202342
1761915104806655000,5.655655029296875,-0.9579325929969549,-1.668710626333952,-1.1685539500296116
1761915104816709600,5.665709716796875,0.4048211560964584,-0.6429407609075307,-1.2434957937672733
1761915104826763800,5.675763671875,1.5667343529373405,0.3184171303629875,-1.1369287585143
1761915104836817700,5.685817626953125,2.4595219813287255,1.1328729803174733,-0.9359783161465078
1761915104846872800,5.695872802734375,3.2011095789492128,1.7119950567871332,-0.6899917773526162
1761915104856927000,5.705927001953125,3.9650317579746246,2.0128905589848753,-0.4070131862480193
1761915104866980900,5.71598095703125,4.624305229523777,2.2420383373111483,-0.1960742146335542
1761915104877035800,5.726035888671875,4.934667063724994,2.5438392639160154,-0.09095226362235843
1761915104887089700,5.736089599609375,5.110459099438787,2.680072611701488,0.007900617056712508
1761915104897143800,5.746143798828125,5.549024704226851,2.6804528431907295,0.07978818779028951
1761915104907199000,5.756198974609375,6.034930736860632,2.6047707024797795,0.22692747192829846
1761915104917252900,5.7662529296875,6.482981962874532,2.5247803431808946,0.4358291655614972
1761915104927307000,5.77630712890625,6.56618280865252,2.574542152954638,0.5769544501069933
1761915104937360600,5.786360595703125,6.395311278206109,2.6974223904311656,0.6521930117689073
1761915104947415800,5.796415771484375,6.400255164349079,2.95499868312329,0.5543259272567927
1761915104957470000,5.806469970703125,6.538683976352214,3.0966207382097837,0.35584026756733655
1761915104967523800,5.81652392578125,6.701468061932921,3.1992730111718175,0.15776932615861294
1761915104977578800,5.826578857421875,6.6353451922059055,3.270502848649025,-0.027749446060508488
1761915104987632600,5.836632568359375,6.480851380586624,3.184420894476771,-0.14759104649350047
1761915104997686800,5.846686767578125,6.447731785795092,3.182815212845802,-0.11770151966437696
1761915105007742000,5.856741943359375,6.343880366176366,3.3951901355475185,-0.17583821294307708
1761915105017795800,5.8667958984375,6.031230128777027,3.4543671316593882,-0.29939094285368917
1761915105027850000,5.87685009765625,5.534978643217682,2.903691397473216,-0.0423057946793735
1761915105037904600,5.886904541015625,4.4757039830744265,1.8466525335580108,0.4894650402896106
1761915105047958800,5.896958740234375,3.454641856947541,0.730625474101305,0.8817901412978768
1761915105058012700,5.9070126953125,1.8719740218192338,-0.32178982166647907,1.3970892955459653
1761915105068066800,5.91706689453125,0.2898568063110113,-1.2367682390779255,1.6364640149846672
1761915105078122000,5.9271220703125,-2.075441999965906,-2.13343650829494,1.3831690528735519
1761915105088175900,5.93717578125,-5.302825837856531,-2.6587884161323307,0.5230873239062727
1761915105098229800,5.947229736328125,-8.553546712192892,-2.4668892952263355,-0.45004751439765095
1761915105108285000,5.957284912109375,-10.358333449923991,-3.0827707842946053,-0.6151775785826146
1761915105118338800,5.9673388671875,-9.755856216830015,-3.4707477730959653,-0.2513936585344374
1761915105128393000,5.97739306640625,-8.146855086049436,-3.3745202724844217,0.15781645323596893
1761915105138448000,5.98744775390625,-8.047454800620674,-3.950015390628576,0.5512170745212585
1761915105148501800,5.997501708984375,-9.521344865643977,-4.71066950776875,0.8026878899451345
1761915105158555600,6.0075556640625,-10.865600250494479,-5.300487165775895,1.089168132495135
1761915105168609800,6.01760986328125,-11.237691687899828,-5.794248003563284,1.1062274769108742
1761915105178665000,6.0276650390625,-10.166095890843868,-6.710431705111265,1.3404951555341482
1761915105188718800,6.03771875,-8.981407967615127,-7.5799910181283945,1.4208701302364468
1761915105198773000,6.04777294921875,-8.073445566445589,-7.557072499355673,1.1700621626354752
1761915105208827600,6.05782763671875,-6.865561476546525,-7.170575519979,0.7823842298459261
1761915105218881800,6.0678818359375,-5.9079965478181835,-6.466271066570282,0.3651256900459528
1761915105228936000,6.07793603515625,-4.904850602132082,-5.209069695794582,-0.029019173735380172
1761915105238990800,6.087990966796875,-2.8312907626509665,-3.8078357016593216,-0.4258933894153684
1761915105249045000,6.098044921875,-0.04657645773589611,-2.1011223846673963,-0.7447837633132934
1761915105259099000,6.108098876953125,2.3592694629848,-0.18280571386814115,-0.9410638757824897
1761915105269153800,6.11815380859375,3.6557144643902775,1.4399801966369152,-0.8690617387585341
1761915105279208000,6.1282080078125,4.005861781013012,2.5806150431275365,-0.7298479138575494
1761915105289261800,6.13826171875,3.9988422576397653,3.510080835574865,-0.5729641383618116
1761915105299316000,6.14831591796875,4.236778322577476,4.315233435133099,-0.47768356321156025
1761915105309371000,6.158370849609375,5.054686943334341,4.71204839490652,-0.4924478554926812
1761915105319424800,6.1684248046875,5.753153776630759,5.0482536954164505,-0.6429311162963509
1761915105329478700,6.178478759765625,6.206642809784412,5.333202855941653,-0.7044898929782212
1761915105339533800,6.188533935546875,6.463633119282126,5.714094270396232,-0.7104964399166405
1761915105349588000,6.198587890625,6.380867742311954,6.029112405970692,-0.5852880517534911
1761915105359641900,6.208641845703125,6.337547656023502,5.953880931636691,-0.28842867320403454
1761915105369696800,6.21869677734375,6.383307536679506,5.779941830313206,-0.029824937160313127
1761915105379750700,6.228750732421875,6.580960106545686,5.7112511559247965,0.17298910712227225
1761915105389804800,6.2388046875,7.00656569199562,5.682174699044228,0.38211072711646554
1761915105399860000,6.24885986328125,7.260852003231644,5.6388288937926285,0.41090135279297824
1761915105409913900,6.258913818359375,7.177769230875373,5.523460054859519,0.1349063369654119
1761915105419968000,6.268968017578125,7.170735094454884,5.23048248617947,-0.1945417443692684
1761915105430022000,6.27902197265625,6.954556103295087,4.88213900410831,-0.3503190199278295
1761915105440076800,6.289076904296875,6.4333034474700685,4.445363789868354,-0.4600939843766391
1761915105450131000,6.299130859375,6.282267082828283,3.8012668446630236,-0.4581250223912298
1761915105460184800,6.309184814453125,6.011496669781208,3.210898567035794,-0.5505905401207506
1761915105470240000,6.319239990234375,5.635682412460446,2.7492677284806963,-0.6367296313077211
1761915105480293600,6.329293701171875,4.964528533503413,2.3594033184975385,-0.9423262969337404
1761915105490347800,6.33934765625,4.156187367036939,1.8938304643183945,-1.2809985720790922
1761915105500403000,6.34940283203125,3.576561432698369,1.0405869108080863,-1.4509502112016082
1761915105510456800,6.359456787109375,2.7066367935001847,-0.08210252914726733,-1.2351333313524722
1761915105520511000,6.369510986328125,1.401058053046465,-1.3570108215272425,-0.6890946093171835
1761915105530564400,6.379564453125,0.0015419687449932098,-2.3992840779870748,-0.2837109970323741
1761915105540619300,6.389619384765625,-1.6513965034395455,-3.351180313429236,-0.16255714495703577
1761915105550673400,6.39967333984375,-4.115258559799194,-3.8751293687313795,-0.7749825022220611
1761915105560727300,6.409727294921875,-6.711565677577257,-3.9261780034452674,-1.5238430134549736
1761915105570782500,6.419782470703125,-8.243004845249652,-4.507437676465511,-1.4026245717108248
1761915105580836400,6.42983642578125,-8.12465552920103,-5.9289177552938455,-0.3338454395107925
1761915105590890500,6.439890380859375,-7.316299165165424,-6.875315977841615,0.6716334061022847
1761915105600945400,6.4499453125,-7.860373309129476,-6.691047205683589,1.2440630722612143
1761915105610999300,6.459999267578125,-8.87875364882648,-6.974429847544431,1.8886086380168794
1761915105621053400,6.470053466796875,-9.228703397050499,-7.069314116853475,2.0171014546781776
1761915105631108400,6.4801083984375,-9.546904838836193,-6.386550464123487,1.4510694536671043
1761915105641162500,6.49016259765625,-9.416528984907268,-6.070455639228224,1.180050911077857
1761915105651216400,6.50021630859375,-8.619617559471726,-6.085676004713774,1.2985139166340232
1761915105661270300,6.510270263671875,-7.954737353956699,-5.78187192159295,1.4750160003133117
1761915105671325400,6.520325439453125,-7.2275628970921035,-5.301130724376439,1.6218433689579366
1761915105681379300,6.53037939453125,-6.3339177750885485,-4.799885083791613,1.622622975028306
1761915105691433500,6.54043359375,-5.055579508259892,-4.446142957547306,1.371347974437475
1761915105701488400,6.55048828125,-3.370332173144817,-4.05633115453422,1.0088111318409443
1761915105711542300,6.560542236328125,-0.9406886127293109,-3.1178602178543806,0.4395092057811096
1761915105721596400,6.570596435546875,1.765920123720169,-2.0688801572322846,-0.2700759279768914
1761915105731651300,6.5806513671875,3.2242472934305666,-1.0022890365958212,-0.9346042513143271
1761915105741705500,6.59070556640625,3.1365579040616747,0.0778249979585409,-1.252209846098721
1761915105751759400,6.60075927734375,2.85375744600296,0.792177967172861,-1.337722914341837
1761915105761814300,6.610814208984375,2.912807016342878,1.4404226797074078,-1.4490619132369755
1761915105771868400,6.620868408203125,3.0387790823549032,1.9300047705054282,-1.3499401524886487
1761915105781922300,6.63092236328125,2.8374861101597544,2.368376314026117,-1.2300396614752709
1761915105791976400,6.6409765625,2.606249250599742,2.5696049888134,-1.0621000928275286
1761915105802031400,6.65103125,2.9821430028975007,3.1455121948897835,-1.0361097653940319
1761915105812085500,6.66108544921875,3.7175147947430607,3.6552889324545856,-0.960714917191863
1761915105822139100,6.67113916015625,4.5059950764417644,4.039459514710307,-0.8656823254533111
1761915105832194300,6.6811943359375,5.172229034653306,4.178515518701076,-0.6558673894327134
1761915105842248400,6.69124853515625,5.893515018001199,4.081787082830071,-0.2990401931872591
1761915105852302300,6.70130224609375,6.257848680886626,3.810675308999419,-0.012370017555728554
1761915105862357500,6.711357421875,6.525481964951753,3.631575463911891,0.21116467012912032
1761915105872411400,6.721411376953125,6.71898326035738,3.67874287327826,0.23146723424978552
1761915105882465300,6.73146533203125,6.878934168338775,3.5431694507062432,0.09285254428572952
1761915105892519400,6.74151953125,6.851997061574458,3.3084336431145664,0.060461409899219866
1761915105902574300,6.75157421875,6.582711334127187,2.9963012921094894,0.09454071656838059
1761915105912628500,6.76162841796875,6.339405266588926,2.687917479982972,0.15092267513424157
1761915105922682400,6.771682373046875,6.569879909604787,2.5340385853916407,0.25766981619447465
1761915105932737300,6.7817373046875,6.714027683776616,2.460489949578047,0.42404710396155715
1761915105942791400,6.79179150390625,6.557247222524881,2.1973510543227195,0.5536230396844446
1761915105952845300,6.80184521484375,6.210069277101755,1.8789269096970558,0.5597514594368637
1761915105962900500,6.811900390625,5.984435644376277,1.567642115432024,0.5210211851567029
1761915105972954400,6.821954345703125,5.493558837592602,1.501956468078494,0.19729557312205434
1761915105983008500,6.832008544921875,4.896375619253516,1.0045283399552107,-0.07273878073543309
1761915105993063400,6.8420634765625,4.386391376417875,0.04470657221078873,0.03274491626024246
1761915106003117300,6.852117431640625,3.843958569920063,-0.5295370845675468,0.18565496581941843
1761915106013171500,6.86217138671875,2.950430352294445,-0.9022983840584754,0.29787030915766954
1761915106023225300,6.872225341796875,-0.10916004742085933,-0.9124211341440677,0.013718290359526871
1761915106033280300,6.8822802734375,-4.9287937877774235,-0.8770031992822885,-0.01312149351015687
1761915106043334400,6.89233447265625,-8.625047183305025,-1.2486118216067552,0.5078120133630931
1761915106053388300,6.90238818359375,-9.066323216095567,-3.0947026296287774,1.6216260729454457
1761915106063443500,6.912443359375,-7.8618088948905465,-5.127873760098218,2.6621716288298365
1761915106073497300,6.922497314453125,-7.803892127972841,-5.843944054624438,3.2777462439060208
1761915106083551500,6.932551513671875,-10.167522124254702,-5.655820945125818,3.2723081445053217
1761915106093606400,6.9426064453125,-11.92755260541439,-5.475968235844373,2.994531944349408
1761915106103660300,6.952660400390625,-11.887792257434128,-5.216512413015962,2.247778196137398
1761915106113714400,6.96271435546875,-11.777370227253437,-5.107323139500617,1.5578884909197688
1761915106123768300,6.972768310546875,-11.625892548584938,-5.502203916341066,1.2497738511234522
1761915106133823500,6.982823486328125,-10.651798509860038,-5.8664802960813045,0.8922574670374392
1761915106143877400,6.99287744140625,-9.528545590803027,-5.833486958017945,0.5759878700971603
1761915106153931300,7.00293115234375,-8.651012230166792,-5.603299899771809,0.2339472875624895
1761915106163986400,7.012986328125,-7.572227398389577,-5.22927018778026,-0.1776211508370936
1761915106174040300,7.023040283203125,-6.328401642015576,-4.825095512893796,-0.5854528869263828
1761915106184094500,7.033094482421875,-5.03437948384285,-4.190567191022634,-0.927031989429146
1761915106194149400,7.0431494140625,-3.4579145950078964,-3.345673532706499,-1.1280081507600843
1761915106204203300,7.053203369140625,-1.717515866035223,-2.267627536597848,-1.1383845833458006
1761915106214257400,7.06325732421875,-0.25121581774950025,-1.1839286292940379,-1.0854894439823926
1761915106224312300,7.073312255859375,0.9076374069988727,-0.2791518724232912,-0.9805204185105859
1761915106234366500,7.083366455078125,2.1416046171814203,0.4978951611131429,-1.030706737306714
1761915106244420400,7.09342041015625,3.303850406977534,1.3108949670404195,-1.2942477836221455
1761915106254474500,7.103474609375,4.253105188000202,2.030429722806811,-1.6451782134465873
1761915106264529400,7.113529296875,4.920888713741302,2.591716867378354,-2.029190390270203
1761915106274583300,7.123583251953125,5.430341041657329,3.0879023019641636,-2.437665538829565
1761915106284637400,7.133637451171875,5.96488630977571,3.531166878223419,-2.836640306985378
1761915106294692400,7.1436923828125,6.601044278675317,3.852030232694745,-3.120626759958267
1761915106304746500,7.15374658203125,7.020472636795043,3.9904461852163076,-3.2030221345722674
1761915106314800400,7.16380029296875,7.344651983946561,4.03177129829526,-3.1414412921890613
1761915106324855300,7.173855224609375,7.599484238627553,3.9640602825939655,-3.035108577148616
1761915106334909400,7.183909423828125,7.716098693707585,3.932515974295139,-3.0011051852598785
1761915106344963300,7.19396337890625,7.725790651160478,3.9931367394745347,-3.0036788351401684
1761915106355018500,7.2040185546875,7.735055323112011,3.8677375049144027,-2.8765324646517634
1761915106365072400,7.214072265625,7.7767083529710765,3.508217964312434,-2.6198753326311706
1761915106375126300,7.224126220703125,7.653191863417625,3.223203921857476,-2.40348912846148
1761915106385180400,7.234180419921875,7.202882044821977,3.1526959689140317,-2.330349073448777
1761915106395235300,7.2442353515625,6.658882719659805,3.160731391331553,-2.4080934073865414
1761915106405289500,7.25428955078125,6.36899551821053,3.2037036870956417,-2.501293961392343
1761915106415343400,7.26434326171875,6.171705936437845,3.2094168040454387,-2.5956755418762563
1761915106425398300,7.274398193359375,5.818927102267742,3.036526334992051,-2.4376494644775986
1761915106435452400,7.284452392578125,5.6253445583194495,2.635426829767227,-2.175921020542085
1761915106445506300,7.29450634765625,5.508385819846391,2.0001082343012095,-1.7039476516708731
1761915106455561500,7.3045615234375,4.996990541169047,1.0814385611563921,-1.0489204393893479
1761915106465615400,7.314615478515625,3.449755838471651,0.3791507082670927,-0.4913580144293606
1761915106475669500,7.32466943359375,1.4364058452814816,-0.43452129783332344,0.02011529792025685
1761915106485724400,7.334724365234375,-0.4588309787034988,-1.3066443238586187,0.19008724917843936
1761915106495778300,7.3447783203125,-2.778032635194063,-1.622241720625758,-0.47703752039298414
1761915106505832400,7.35483251953125,-4.6730403265982865,-1.3869126233160496,-1.282972210239619
1761915106515886300,7.36488623046875,-5.431174569872021,-2.084690305304527,-1.0092267269045114
1761915106525941200,7.374941162109375,-5.738067851179838,-3.9164761091202496,0.1523405791081488
1761915106535999200,7.384999267578125,-6.92127985663712,-4.853217445528507,1.1324527090787886
1761915106546053000,7.39505322265625,-8.299753152909874,-5.1712920460641385,1.992287331417203
1761915106556108300,7.4051083984375,-8.899586008974909,-5.42472320177555,2.51179898879379
1761915106566162200,7.415162109375,-9.475027351105213,-5.555899850693344,2.686944251036644
1761915106576216300,7.42521630859375,-10.041059644377231,-5.629449655550718,2.870219920504093
1761915106586271200,7.435271240234375,-10.24917749415636,-5.951409573087096,3.0146675544053316
1761915106596325000,7.4453251953125,-10.169069938218593,-6.268091257959604,2.856262414561212
1761915106606379300,7.455379150390625,-9.854742122995853,-5.742125602138042,2.3512188429981467
1761915106616434200,7.46543408203125,-9.843251591688395,-5.008210438841581,1.9282094115212558
1761915106626488300,7.47548828125,-9.276002323842048,-4.517935105082392,1.3651356757938862
1761915106636542200,7.485542236328125,-7.926330174639821,-3.9362639286518095,0.5694893749233335
1761915106646597000,7.49559716796875,-6.438477050715685,-3.3251702583819625,0.26711313264854253
1761915106656651300,7.5056513671875,-4.950146372407675,-2.8241017279297114,0.5292265573136509
1761915106666705200,7.515705078125,-2.963927547249198,-2.1729916890919205,0.8466125910632312
1761915106676759300,7.52575927734375,-0.9864578457355498,-1.1690969708651304,0.835847305290401
1761915106686814200,7.535814208984375,0.08512567636072635,0.20562778652906416,0.30985797633230683
1761915106696868000,7.5458681640625,0.3450654833137989,1.5919249082952738,-0.2595411630243063
1761915106706922200,7.555922119140625,0.6639560764074325,2.0565543441444634,-0.47704446159042413
1761915106716977200,7.56597705078125,1.1929419568330049,2.424774493074417,-0.6119203303523362
1761915106727031300,7.57603125,1.9748627338856457,2.8182173460662363,-0.7472124517649412
1761915106737085200,7.586085205078125,3.1604473136931657,3.019155513474345,-0.7867017277188598
1761915106747140000,7.59614013671875,4.3591193386107685,3.1075784778147932,-0.7436465759769082
1761915106757194200,7.6061943359375,5.491883597856759,3.0861651029080153,-0.5570026356527581
1761915106767248100,7.616248046875,6.2199424363404505,3.1291175249278544,-0.2877146797157824
1761915106777303300,7.62630322265625,6.34601796272695,3.2978590576082465,0.1357826814085245
1761915106787357400,7.636357421875,6.346550462168454,3.5420185271054505,0.45077948193401096
1761915106797411300,7.646411376953125,6.592876754310727,3.6717239344269035,0.6307634894449263
1761915106807466200,7.65646630859375,6.915428207999468,3.828751063916087,0.7912273153845221
1761915106817520000,7.66652001953125,7.277332013389468,3.850007786956429,0.9966658629518002
1761915106827574300,7.67657421875,7.561446476656198,3.84616455553174,1.1346173397667705
1761915106837628200,7.686628173828125,7.810136575320363,3.7792671943008895,1.1807608859781176
1761915106847683000,7.69668310546875,7.951252434450388,3.8457805246502157,1.107437583352998
1761915106857737200,7.7067373046875,7.871585608017444,3.8991304220438003,1.0051983481712639
1761915106867791000,7.716791015625,7.674251018059254,4.064822504025697,0.6976775826148688
1761915106877846300,7.72684619140625,7.119384846445918,4.256023121273517,0.32825697185397146
1761915106887900200,7.736900146484375,6.537400366282463,4.095145161575079,0.16754443185031412
1761915106897954300,7.746954345703125,6.089326343914866,3.8877626403331753,0.0376524159155786
1761915106908009200,7.75700927734375,5.687529504075646,3.603464052671194,0.0763518566660583
1761915106918063000,7.76706298828125,5.398488105800747,2.8738410336107014,0.39429420912414787
1761915106928117200,7.7771171875,4.395113612055778,1.8389473660081623,0.6844174112863838
1761915106938172200,7.787172119140625,2.3860487488389013,1.0097224014669657,0.7475007671870291
1761915106948226300,7.797226318359375,0.7561410236299038,-0.23922902735769747,0.9946845529414713
1761915106958280400,7.807280517578125,-0.66817573992908,-1.7603297563672065,0.9386277346767484
1761915106968335000,7.817335205078125,-2.615772865748405,-2.6020009455054995,0.3277650966838002
1761915106978389200,7.82738916015625,-4.601989352819324,-2.67100550814867,-0.6219141202960163
1761915106988443100,7.837443115234375,-5.046451614430547,-4.0639726091980934,-0.540197375595942
1761915106998497300,7.847497314453125,-5.0191713933169835,-6.139969904959202,0.41167306781783697
1761915107008552200,7.85755224609375,-4.965526312369108,-6.689321697065234,1.3165752046339214
1761915107018606000,7.867606201171875,-5.439288902744651,-6.418211092278361,1.9331069743044673
1761915107028660200,7.87766015625,-6.7977183588981624,-5.861667342841625,2.0876408256731924
1761915107038715100,7.887715087890625,-8.168039912897347,-5.139821387523412,1.6126481089808047
1761915107048769300,7.897769287109375,-9.153132900020479,-4.499879223909974,0.8691917948789895
1761915107058823200,7.9078232421875,-9.02176043626964,-4.781963642653823,0.815778769121319
1761915107068878000,7.917878173828125,-8.470264033350348,-5.346958994093537,0.8943727056257427
1761915107078932200,7.92793212890625,-8.386269991368055,-4.943983758124709,0.38683439463749525
1761915107088986000,7.937986083984375,-8.311038517034053,-4.56719334924817,-0.3250081991910934
1761915107099041300,7.948041259765625,-7.280289694151282,-4.483004076954722,-1.1413131841436028
1761915107109095200,7.95809521484375,-5.18613364136517,-4.214322160619497,-1.7249622365184127
1761915107119149300,7.9681494140625,-2.821647905036807,-3.485260282573104,-2.0812933563426137
1761915107129204200,7.978204345703125,-0.9178361449301242,-2.671122997048497,-2.3372158904783427
1761915107139258000,7.988258056640625,0.553724015840888,-2.1035417207688094,-2.7119582807838913
1761915107149312300,7.998312255859375,1.6813491586327551,-1.2242974645614624,-3.4392636705517767
1761915107159366100,8.0083662109375,1.7311890020787715,-0.19420330619513987,-4.180571866708994
1761915107169420300,8.018420166015625,0.6996680257797241,0.22045944495797157,-4.060944785809516
1761915107179474200,8.02847412109375,0.5507458768129349,0.4046072210848331,-3.5893516484275456
1761915107189529000,8.038529052734376,1.29028589425385,0.8827338518887757,-3.15144070815593
1761915107199583200,8.048583251953126,2.1432839485704895,1.2982128878608346,-2.7616832656785846
1761915107209637000,8.05863720703125,2.9391923344433306,1.7277578585863111,-2.35693356738314
1761915107219692300,8.0686923828125,3.595602233254909,2.0923551408439875,-1.845650955300033
1761915107229746200,8.07874609375,4.149161998444796,2.5330796772316098,-1.3596370783776044
1761915107239800300,8.08880029296875,4.6196150258809325,2.994188537739217,-0.9485239825300872
1761915107249855200,8.098855224609375,5.142867331090569,3.3917212903931735,-0.6284346811711787
1761915107259909000,8.1089091796875,5.622392722776532,3.6099589676484465,-0.42451282177716493
1761915107269963300,8.11896337890625,6.0453685442447656,3.6537738517165184,-0.24978768464252352
1761915107280017200,8.12901708984375,6.495844951578975,3.6594337771743533,-0.08654387259557843
1761915107290072300,8.139072265625,6.933612683987617,3.6997178567677733,0.001234217970073223
1761915107300126200,8.149126220703126,7.2039791924089185,3.664427347677946,-0.04369330351501703
1761915107310180000,8.15918017578125,7.133020573088526,3.6766128755122423,-0.13757584843561052
1761915107320235300,8.1692353515625,6.8682947009027,3.7625902002662417,-0.13838701868802308
1761915107330289200,8.1792890625,6.638347296631336,3.7108074060589074,0.03432254084050655
1761915107340343300,8.18934326171875,6.653413348338008,3.55531698461771,0.29826135430186984
1761915107350398200,8.199398193359375,6.9483835521399975,3.1226123808175323,0.7336223178297281
1761915107360452000,8.2094521484375,6.87778675186932,2.5698990033239126,1.1718016997791827
1761915107370506200,8.21950634765625,6.222095814982056,1.8947317970722912,1.6302344729453324
1761915107380561200,8.22956103515625,5.152212667062878,0.8875783693104982,2.1600474518448114
1761915107390615300,8.239615234375,3.5677947733968494,-0.21245558672249315,2.5002841998279095
1761915107400669200,8.249669189453124,1.5179986713409424,-1.3452204304903745,2.3930798165194687
1761915107410724000,8.25972412109375,-0.9655401453912258,-2.074733559435606,2.236317037054896
1761915107420778200,8.2697783203125,-3.189176564571261,-2.6463474522322414,2.363980709415674
1761915107430832000,8.27983203125,-4.995680627614259,-4.1274756518155336,2.900304677644372
1761915107440887300,8.28988720703125,-6.970735084679722,-5.645299551111459,3.3708594118893145
1761915107450941400,8.29994140625,-8.46045107986629,-6.457648784175515,3.6935669329226015
1761915107460995000,8.3099951171875,-8.526918232986331,-6.730776574003696,3.7984903656870124
1761915107471050200,8.32005029296875,-7.582750545969605,-6.572966769704222,3.496099071973562
1761915107481104100,8.330104248046876,-7.259101360172033,-5.670293707114458,3.102299368368089
1761915107491158300,8.340158203125,-8.406634149482846,-4.745584753805399,2.790900592334568
1761915107501212200,8.350212158203124,-9.218883429303764,-4.268776804384589,2.655425369440019
1761915107511267000,8.36026708984375,-8.931882596945762,-4.215578298160434,2.6161940137699244
1761915107521321200,8.3703212890625,-8.101663360670209,-4.036659654858708,2.783112714937329
1761915107531370500,8.38037060546875,-7.324224697467685,-3.8478210905671117,2.916015456995368
1761915107541425200,8.390425048828124,-6.5634285415083164,-3.8029999520659445,2.794956005205214
1761915107551479300,8.400479248046874,-5.505557902944088,-3.48355172508955,2.5776699295863508
1761915107561533400,8.410533447265625,-4.265972852879762,-3.291573109206557,2.4169283096186813
1761915107571588400,8.42058837890625,-2.986393061557412,-3.1333436181902883,2.2653172138288618
1761915107581642500,8.430642578125,-1.6526374434113502,-2.5854806033372877,1.878885700903833
1761915107591696400,8.4406962890625,-0.16026771884560584,-1.772770135745406,1.3881111854508519
1761915107601751300,8.450751220703125,1.2505261307954787,-0.9565291559398174,1.0539818874973803
1761915107611805400,8.460805419921876,2.0009470232129094,-0.04811433482766151,0.9012015287324786
1761915107621859300,8.470859375,2.229602049586177,0.8900655099511146,0.8568523916572331
1761915107631914500,8.48091455078125,2.924937014597654,2.211813294917345,0.27200521553903817
1761915107641968000,8.490968017578124,3.923901290684938,3.382104444003105,-0.6377733682069927
1761915107652022300,8.501022216796875,4.637102751776576,3.9816859556555744,-1.5051210695892572
1761915107662077400,8.511077392578125,5.037289818331599,4.386703511106968,-2.213432128290832
1761915107672131300,8.52113134765625,5.3177410829156635,4.789232172352075,-2.751492418792844
1761915107682185500,8.531185546875,5.364588758808374,5.225757795745134,-3.0278362480580805
1761915107692240100,8.541240234375,5.406910481709241,5.455803399693965,-3.0590263360917564
1761915107702294300,8.551294189453126,5.545077427905798,5.615192582139373,-3.0028356623142956
1761915107712348200,8.56134814453125,5.891486727043986,5.878063766369223,-2.8659949962854383
1761915107722403300,8.5714033203125,6.085729196205735,6.222612532332539,-2.550415719696879
1761915107732457500,8.58145751953125,6.0726885128468275,6.361503116628527,-2.0905312864176926
1761915107742511400,8.591511474609375,6.125808693137764,6.327140828299522,-1.691579168485105
1761915107752567300,8.6015673828125,6.045038873898982,6.134754800659418,-1.4924623712852596
1761915107762621400,8.611621337890625,5.573744719463586,5.8066574032813305,-1.4992869566082954
1761915107772676400,8.62167626953125,4.8163808760404585,5.44031532318294,-1.5957409594520926
1761915107782730200,8.631730224609376,3.894895560953021,4.9652901655256745,-1.686799971384555
1761915107792784400,8.641784423828126,2.6732933268249033,3.9735587633013725,-1.6375276986934244
1761915107802839300,8.65183935546875,1.526225816938281,3.1580098574131727,-1.6899062668368219
1761915107812893400,8.6618935546875,1.0199375060111284,2.4705016405045983,-1.9560705012626944
1761915107822947300,8.671947265625,0.5650701702415942,1.0653542723178864,-1.9446686711519956
1761915107833002200,8.682002197265625,-0.9939771353244781,-1.3076853573441505,-1.3151817044489085
1761915107843056400,8.692056396484375,-3.1863527393221855,-3.7091841887712476,-0.7121928685709834
1761915107853110300,8.7021103515625,-5.90761310145855,-4.303756347829103,-1.158979335346073
1761915107863165400,8.71216552734375,-6.937488648638129,-4.152851500612497,-2.123086525324732
1761915107873219300,8.72221923828125,-6.8053346791207785,-5.291379145690798,-2.9005121829152105
1761915107883273500,8.7322734375,-7.132962120899558,-6.328736573058366,-3.2440526486188173
1761915107893328400,8.742328369140624,-7.81146460905373,-5.851165822571516,-3.354498644196987
1761915107903382300,8.75238232421875,-8.713294791078567,-4.655438034412264,-3.4505665703326462
1761915107913436400,8.7624365234375,-9.088815618410706,-4.1958267189860345,-2.8679999063670634
1761915107923491300,8.7724912109375,-8.649325299993157,-5.516515350288152,-1.305177027785033
1761915107933545500,8.78254541015625,-9.740332484483718,-5.837849244880676,-0.5613885591194033
1761915107943599000,8.79259912109375,-9.64978361403048,-5.504616822701692,-0.22901786833629012
1761915107953654300,8.802654296875,-7.951575675055384,-6.480655565753579,0.4251391369819641
1761915107963708400,8.81270849609375,-6.689993897238374,-7.42542881744802,1.0285913525879382
1761915107973762300,8.82276220703125,-5.9739943298608065,-7.407454184818268,1.1727436568044125
1761915107983817200,8.832817138671874,-5.241052395510673,-6.68544982406795,0.8970727583646774
1761915107993871400,8.842871337890625,-3.809697403877973,-5.561412476634979,0.27416984622702
1761915108003925200,8.85292529296875,-1.8591876054823397,-4.398842277190089,-0.42607451813593505
1761915108013980400,8.86298046875,0.43182139122486113,-2.9452877287089825,-0.7378453423522412
1761915108024034300,8.873034423828125,2.6055934170395134,-1.2076935357630252,-0.6996832233488559
1761915108034088400,8.88308837890625,4.092031413468718,0.250846984437108,-0.3514398406513035
1761915108044143400,8.893143310546876,4.897600192612409,1.3997645061045885,0.043108489364385605
1761915108054197200,8.903197265625,5.19702620677948,2.437359833881259,0.22137758271619676
1761915108064251400,8.91325146484375,4.965944830042123,3.4027228691399096,0.13313874277099966
1761915108074306300,8.923306396484374,4.636327091228962,4.139316896256804,0.05599719703197479
1761915108084360400,8.9333603515625,4.916207862448692,4.357824622625112,0.013101912026852368
1761915108094414300,8.943414306640625,5.3596062942206855,4.413047328153253,-0.032727526734024286
1761915108104469200,8.95346923828125,5.675781198614835,4.496176862260699,-0.009176993668079376
1761915108114523400,8.9635234375,6.019638475182652,4.585091409510373,0.07934680069833994
1761915108124577300,8.973577392578125,6.311530586713552,4.814119360849261,0.018495587763935326
1761915108134632400,8.983632568359376,6.5655322357892985,5.082791340312362,-0.10153978167548774
1761915108144686300,8.993686279296876,6.8966048495858905,5.163554145288467,-0.20751769192889333
1761915108154740200,9.003740234375,7.285060561814904,5.191174558141827,-0.3661946344517171
1761915108164795400,9.01379541015625,7.418558347156644,5.181850849479437,-0.4911049164511263
1761915108174849300,9.023849365234375,7.561793098136782,4.978608496782184,-0.49154549982547757
1761915108184903400,9.0339033203125,7.681316134139895,4.819463644486666,-0.6776432409763335
1761915108194958300,9.043958251953125,7.571174674466252,4.656802308502793,-0.8924116346858442
1761915108205012200,9.05401220703125,7.208044542151689,4.297340635567903,-0.9349646821245551
1761915108215066400,9.06406640625,6.784651372054219,3.8496126501590013,-0.8882457471780478
1761915108225121300,9.074121337890626,6.195764272895455,3.540128183314204,-0.9562294423408806
1761915108235175400,9.084175537109376,5.4445683044523,3.1849592391371724,-1.0016020772449672
1761915108245229300,9.094229248046876,4.65384287417531,2.948486817011237,-1.100969921708852
1761915108255284200,9.1042841796875,3.585242167282104,2.2279279788941144,-0.8984851093806326
1761915108265338400,9.11433837890625,2.0845085189968344,0.8817489325046539,-0.2672575826205313
1761915108275392300,9.124392333984375,0.04317103320658207,-0.14201076214313507,0.10820625382736325
1761915108285447400,9.134447509765625,-2.6265409280002117,-0.5228542458027601,-0.03500248592868447
1761915108295501300,9.144501220703125,-4.526542774429917,-1.267238196143508,-0.1429818721976131
1761915108305555500,9.154555419921875,-5.441447542083263,-2.528526543971896,-0.21979959280975161
1761915108315610400,9.1646103515625,-6.017919396305084,-3.7219676824986934,-0.38370522976629434
1761915108325664300,9.174664306640626,-6.921331879085302,-4.307908206811547,-0.7585535646643489
1761915108335718400,9.184718505859376,-8.808315838509797,-3.6268273926019665,-1.1854097346972674
1761915108345773600,9.194773681640624,-9.78579718158543,-3.283061301448941,-0.7932637165829539
1761915108355827500,9.204827392578125,-9.384583694592118,-3.5169413689941167,0.26008973681777714
1761915108365881300,9.21488134765625,-9.220510153722763,-4.0255724436551334,1.1803411992613226
1761915108375936300,9.224936279296875,-9.48483972006738,-4.190543225625157,1.6152702741779386
1761915108385990400,9.234990478515625,-9.190009216997026,-3.9595501116931437,1.5081889327272773
1761915108396044300,9.245044189453125,-8.316197507232427,-4.3586406151831145,1.1490658440969883
1761915108406099200,9.25509912109375,-7.772147328665852,-5.152033218842744,0.8316043339584023
1761915108416153300,9.2651533203125,-7.2445602091223,-4.356465024709701,0.9287806597273797
1761915108426207200,9.275207275390626,-6.894357947441935,-6.489796903586387,0.6136909932866692
1761915108436262400,9.285262451171874,-5.133265390008687,-6.877697320020198,0.7311166916843503
1761915108446316300,9.29531640625,-3.8472868375599383,-5.243639489394426,0.5473570380922407
1761915108456370400,9.305370361328125,-3.003176438575983,-3.9422354042768477,-0.07862864249162375
1761915108466425300,9.31542529296875,-0.9304057036459445,-2.486114804700017,-0.3981084701826796
1761915108476479200,9.325479248046875,0.8045148861765861,-0.7152654078841209,-0.4633599273700267
1761915108486533400,9.335533447265625,1.6426386119663714,1.0447229876995086,-0.5105540786128491
1761915108496588300,9.34558837890625,2.3642004896461963,2.4767098474949596,-0.489092626780644
1761915108506642400,9.355642333984376,3.047488458511233,3.3093875828385353,-0.46163807201348245
1761915108516696600,9.365696533203124,3.3346161321192977,3.51510713930428,-0.33655703655704855
1761915108526751200,9.375751220703124,3.1828000152766704,3.45551980882585,-0.18247078282535076
1761915108536805600,9.3858056640625,3.175290078037977,3.542881281414628,-0.1446681447841227
1761915108546859500,9.395859619140625,3.5715929966360327,3.8672716409683225,-0.19678265516385435
1761915108556914700,9.405914794921875,4.368929369485378,4.133512009370326,-0.23554493201747534
1761915108566968600,9.415968505859375,5.381753244099021,4.1181498973265285,-0.19343560975827276
1761915108577022500,9.4260224609375,6.02476999285221,3.815224350605905,-0.16124474718421697
1761915108587077600,9.43607763671875,5.889325165095925,3.4517508116811513,-0.12954334862753747
1761915108597131500,9.446131591796876,5.295253941297531,3.058829644475877,-0.028335721515864134
1761915108607185700,9.456185546875,4.88476818356812,2.6087244085416197,0.003319061420112848
1761915108617240600,9.466240478515624,5.002229610866308,2.423888942411542,-0.031151801849901673
1761915108627294500,9.47629443359375,5.45794099624455,2.6436674193680285,-0.17136092139855028
1761915108637348600,9.4863486328125,5.821406644123792,2.8190783468097447,-0.5288327356904745
1761915108647403500,9.496403564453125,5.948695053431392,2.6909920651227233,-0.876735488256812
1761915108657457700,9.506457763671875,5.649920781171321,2.4139281048893926,-1.0645502624586225
1761915108667511800,9.51651171875,4.923248428609967,2.2128233487427234,-1.077129611916095
1761915108677566500,9.52656640625,3.689490477263927,2.1127023478239773,-0.9737481478966772
1761915108687620600,9.53662060546875,2.8542706562221047,2.2016338462084533,-0.9419980878926814
1761915108697674500,9.546674560546874,2.9357904170453546,2.108859700921178,-1.076232370815426
1761915108707729700,9.556729736328125,3.188333684006333,1.3839514354228972,-1.3315399879232048
1761915108717783800,9.56678369140625,2.607598911643028,0.19573650711178778,-1.464942642327398
1761915108727837400,9.57683740234375,0.7065665531218052,-1.1387918489724398,-1.5421391331240535
1761915108737892600,9.586892578125,-2.0772966879218817,-2.3335633593201637,-1.275608987995237
1761915108747946500,9.596946533203125,-4.155734947094321,-3.267578485634923,-0.7263206165142357
1761915108758000600,9.607000732421875,-5.137503173708915,-4.144705603557825,-0.3862459272250533
1761915108768055600,9.6170556640625,-6.050485448867082,-4.529937093043327,-0.5591626997634768
1761915108778109400,9.627109375,-7.023130457827448,-4.147563331076503,-0.6482344834014773
1761915108788163600,9.63716357421875,-6.951711819779873,-4.122759729209542,-0.2918389200389385
1761915108798218500,9.647218505859374,-6.714217068868875,-4.68938940385282,0.506322067066282
1761915108808272600,9.657272705078125,-7.639839045369625,-5.261579050710797,1.5375640802934765
1761915108818326500,9.667326416015625,-8.531405607533454,-5.688113441443443,2.3634017404839396
1761915108828381400,9.67738134765625,-8.620963128861785,-5.904091357073187,2.787894688516855
1761915108838435600,9.687435546875,-8.258834282544255,-5.9863160512953995,2.9509163822457194
1761915108848489500,9.697489501953125,-8.140592518523334,-5.976067629003524,2.81457402112782
1761915108858544600,9.707544677734376,-7.560389661079645,-5.402601970860362,2.267238391149789
1761915108868598800,9.717598876953126,-6.439990377888083,-4.590788159847259,1.3640994646139442
1761915108878652700,9.727652587890624,-5.173454777055978,-3.879779240363836,0.6559693154372275
1761915108888707600,9.73770751953125,-3.707844464600086,-2.9390415277957915,0.13961480691730976
1761915108898761500,9.747761474609375,-2.148313174909353,-1.5874404563575981,-0.27579496321082114
1761915108908816600,9.757816650390625,-0.39723932266533374,-0.039250644892454147,-0.6590639204517007
1761915108918870800,9.767870849609375,1.6452631152510642,1.3628332440704107,-0.8716682679951191
1761915108928924700,9.777924560546875,2.980505172562599,2.1098615714401006,-0.7030006773337721
1761915108938979600,9.7879794921875,3.186100225865841,2.205030502909422,-0.33408494735509153
1761915108949033500,9.798033447265626,2.9814643729835746,1.935663526919484,0.0921570363022387
1761915108959087600,9.808087646484376,2.8218928197085855,1.7189134578734635,0.39534927113503215
1761915108969142800,9.818142822265624,3.1220471481502052,2.0415981825530527,0.19818828417807816
1761915108979196700,9.82819677734375,3.7123791854202746,2.946719222816825,-0.3317975670702755
1761915108989250600,9.83825048828125,4.241747343161702,3.8621488911271094,-0.8755733126096427
1761915108999305500,9.848305419921875,4.890321141520142,4.48276559202373,-1.239004765958339
1761915109009359600,9.858359619140625,5.744378349500894,4.693632448250055,-1.425029003481567
1761915109019413500,9.86841357421875,6.378837697789073,4.689980355483293,-1.5373787868544457
1761915109029468400,9.878468505859376,6.43083910318315,4.458937557190656,-1.6735010754808783
1761915109039522600,9.8885224609375,6.210453892505169,4.1209138090819115,-1.7484734604872763
1761915109049576400,9.898576416015626,5.826933883112669,3.784522630611062,-1.5603699324719607
1761915109059631600,9.908631591796874,5.441983548656106,3.3793706351250408,-1.2765430539749563
1761915109069685800,9.918685791015625,5.440573681858182,2.9799311720669266,-1.0493201062314212
1761915109079739600,9.92873974609375,5.49184560393393,2.614736508437991,-0.8928918194182217
1761915109089794600,9.938794677734375,5.371504237285256,2.279742337283492,-0.878560511726886
1761915109099848400,9.948848388671875,5.0873313218295575,2.0845348224818707,-0.9531659631170332
1761915109109902600,9.958902587890625,4.664221644848585,2.0372201135993,-1.0451308378480375
1761915109119957800,9.968957763671876,4.096082734686136,1.9289912095487116,-0.9415442066453397
1761915109130011600,9.97901171875,3.75235463745594,1.3583803563147783,-0.5609646346189081
1761915109140065800,9.989065673828126,3.7282764272540807,0.2249929967343807,0.1234143443532288
1761915109150120400,9.999120361328124,3.057746233153343,-1.2022539750576018,0.7777220101885497
1761915109160174600,10.009174560546874,1.0467302358686923,-2.4198031344026325,0.8008294756621122
1761915109170228500,10.019228515625,-0.9058733199357986,-2.4343945543348786,0.14936623947247862
1761915109180283600,10.02928369140625,-1.5841507671624422,-1.550176016846299,-0.6117433663502335
1761915109190337500,10.039337646484375,-2.0203999117016793,-1.3424305075109004,-0.6535252832859754
1761915109200391400,10.049391357421875,-2.684420285516977,-2.2718822714328764,-0.21662812316678462
1761915109210446600,10.059446533203126,-3.867871360427141,-2.635040460798144,-0.08730696592256426
1761915109220500700,10.069500732421876,-4.3604093784213065,-1.9054647880107163,-0.01055588080585003
1761915109230555600,10.0795556640625,-3.505423949679732,-1.8873171369016168,0.7752629996638745
1761915109240609500,10.089609619140624,-3.6196290055304763,-2.8128929361730814,2.1163516641117632
1761915109250663400,10.099663330078124,-4.849740124806761,-3.827848562118411,3.0651553403660654
1761915109260718600,10.109718505859375,-5.946082825106382,-4.697982460153103,3.222726367473602
1761915109270772700,10.119772705078125,-6.001081074228883,-5.674573576390743,2.96590030862689
1761915109280826600,10.12982666015625,-5.676753258517384,-6.606532939219474,2.5417469678118825
1761915109290881500,10.139881591796875,-5.500892249220609,-6.82586659501791,1.8148849378973244
1761915109300935400,10.149935302734375,-5.118888489609956,-6.09054974822998,0.701449721564725
1761915109310989600,10.159989501953126,-4.248855713862181,-5.11405215549469,-0.4924268127046525
1761915109321044700,10.170044677734374,-2.7946377330362795,-4.3799768332004545,-1.4643423383466898
1761915109331098600,10.1800986328125,-1.6400082634627817,-3.6149177590996024,-1.9282494512706994
1761915109341152800,10.19015283203125,-0.6594552578568458,-2.5665175441920756,-1.9758369857452809
1761915109351207400,10.20020751953125,0.25813129622638226,-1.243912265613675,-1.8803310774065554
1761915109361261600,10.210261474609375,0.6088204646408557,0.109130821326375,-1.5358999464735388
1761915109371315500,10.2203154296875,0.5009937116503715,1.0907067402392625,-1.058421038988605
1761915109381370600,10.23037060546875,0.1914753425359726,1.7436913407772778,-0.4617253849707544
1761915109391424800,10.2404248046875,-0.12125380531847477,2.0504425832659003,0.2813142380889505
1761915109401478700,10.250478759765626,-0.16610884608924387,2.139545931085944,0.7948296507254242
1761915109411533600,10.260533447265624,0.7070996370851993,2.6732576709896323,0.6783573075298219
1761915109421587700,10.270587646484374,1.6018799005985258,3.450440313604474,0.2259467172626406
1761915109431641600,10.2806416015625,2.0599118378788233,3.8798172342866657,-0.2417160949330777
1761915109441696800,10.29069677734375,2.6397645667105913,3.9433302137762305,-0.3071607000723481
1761915109451750400,10.30075048828125,2.870678770187497,3.7363404912441966,-0.09345277520120143
1761915109461805600,10.3108056640625,2.1655735217899084,3.4329105021327733,0.0789901692803949
1761915109471859700,10.320859619140625,1.655010017761588,3.268249516764283,0.189659452220425
1761915109481913600,10.33091357421875,1.9219436291247605,3.2759283808290958,0.18906236311011015
1761915109491968500,10.340968505859376,2.264969131043553,3.288638224798441,0.18139950033202767
1761915109502022400,10.3510224609375,2.392256371307373,3.1027064878642556,0.16179259032532572
1761915109512076500,10.36107666015625,2.4593343498021363,2.7655659523308276,0.21824249956086278
1761915109522131700,10.371131591796875,2.3941993220686912,2.235968662008643,0.20655717633366583
1761915109532186400,10.381186279296875,2.4866326910942793,1.704263001230359,-0.10483487769812345
1761915109542240300,10.391240234375,2.8541783017635343,1.7718319781124592,0.019822452453523872
1761915109552295400,10.40129541015625,2.954255463540554,2.2313702283024788,0.7943639329098164
1761915109562349300,10.411349365234376,0.3769932379722595,0.8995172289073466,1.138896624521166
1761915109572403500,10.421403564453126,1.704486873114109,-0.29701018519699574,0.9259865720294416
1761915109582458400,10.431458251953124,1.717237633615732,-0.6099111824870109,0.6258848505578934
1761915109592512300,10.44151220703125,0.27805589388012886,-0.20199849011600016,0.049319034442305565
1761915109602566100,10.451566162109375,0.05251870726644992,0.1532329979032278,-0.6859868525601923
1761915109612621300,10.461621337890625,1.1857254495829344,0.5540940181970596,-1.1761806455157697
