time,seconds_elapsed,z,y,x
1761914791457501000,0.0265009765625,-0.794036865234375,-0.5979156494140625,0.122589111328125
1761914791467555800,0.036555908203125,-0.7939910888671875,-0.596405029296875,0.120513916015625
1761914791477611800,0.04661181640625,-0.8062591552734375,-0.5952301025390625,0.1264190673828125
1761914791487667000,0.0566669921875,-0.818023681640625,-0.59503173828125,0.1313323974609375
1761914791497721900,0.066721923828125,-0.808197021484375,-0.5972137451171875,0.1308441162109375
1761914791507777000,0.076777099609375,-0.8006591796875,-0.5988006591796875,0.132415771484375
1761914791517831700,0.086831787109375,-0.80633544921875,-0.601806640625,0.133209228515625
1761914791527888000,0.096887939453125,-0.798095703125,-0.6043701171875,0.1328887939453125
1761914791537942800,0.10694287109375,-0.7835845947265625,-0.6021728515625,0.132476806640625
1761914791547998000,0.116998046875,-0.782806396484375,-0.6036834716796875,0.1345977783203125
1761914791558052900,0.127052978515625,-0.7861175537109375,-0.607574462890625,0.1378021240234375
1761914791568108800,0.13710888671875,-0.781982421875,-0.606781005859375,0.139007568359375
1761914791578164000,0.1471640625,-0.78125,-0.597900390625,0.1426849365234375
1761914791588219000,0.157218994140625,-0.78521728515625,-0.5955657958984375,0.145111083984375
1761914791598273800,0.167273681640625,-0.790802001953125,-0.6012115478515625,0.14581298828125
1761914791608328700,0.17732861328125,-0.7971343994140625,-0.60528564453125,0.1482086181640625
1761914791618385000,0.187385009765625,-0.804840087890625,-0.609375,0.14990234375
1761914791628439800,0.197439697265625,-0.798309326171875,-0.6122589111328125,0.14898681640625
1761914791638495000,0.207494873046875,-0.7913818359375,-0.603546142578125,0.1470489501953125
1761914791648550000,0.2175498046875,-0.8018646240234375,-0.5918121337890625,0.14453125
1761914791658605800,0.227605712890625,-0.8151702880859375,-0.5883331298828125,0.1428985595703125
1761914791668661000,0.237660888671875,-0.8157196044921875,-0.588226318359375,0.14569091796875
1761914791678716000,0.2477158203125,-0.8152008056640625,-0.5817413330078125,0.14483642578125
1761914791688770800,0.257770751953125,-0.81500244140625,-0.5714111328125,0.1428985595703125
1761914791698825700,0.26782568359375,-0.8116455078125,-0.5695648193359375,0.1433868408203125
1761914791708882000,0.2778818359375,-0.811309814453125,-0.5711517333984375,0.14642333984375
1761914791718936800,0.287936767578125,-0.8171844482421875,-0.5676727294921875,0.150146484375
1761914791728992000,0.297991943359375,-0.823974609375,-0.5569915771484375,0.15423583984375
1761914791739047000,0.308046875,-0.81817626953125,-0.5503692626953125,0.1562042236328125
1761914791749101800,0.318101806640625,-0.81439208984375,-0.5517425537109375,0.153289794921875
1761914791759158000,0.328157958984375,-0.816680908203125,-0.5562744140625,0.146575927734375
1761914791769213000,0.338212890625,-0.809783935546875,-0.5554962158203125,0.13751220703125
1761914791779267800,0.348267822265625,-0.799896240234375,-0.5483245849609375,0.1298370361328125
1761914791789322800,0.35832275390625,-0.7971649169921875,-0.534515380859375,0.1236114501953125
1761914791799379000,0.36837890625,-0.8002166748046875,-0.524322509765625,0.11700439453125
1761914791809433900,0.378433837890625,-0.79742431640625,-0.521942138671875,0.1136932373046875
1761914791819488800,0.38848876953125,-0.7963104248046875,-0.526580810546875,0.1135101318359375
1761914791829544000,0.3985439453125,-0.790863037109375,-0.5347747802734375,0.1129150390625
1761914791839598800,0.408598876953125,-0.7853240966796875,-0.5405731201171875,0.109710693359375
1761914791849655000,0.418655029296875,-0.7918243408203125,-0.5502471923828125,0.1078033447265625
1761914791859710000,0.4287099609375,-0.7991790771484375,-0.56402587890625,0.1111602783203125
1761914791869764900,0.438764892578125,-0.80633544921875,-0.5769195556640625,0.1139373779296875
1761914791879819800,0.44881982421875,-0.8062286376953125,-0.5860443115234375,0.117462158203125
1761914791889876000,0.4588759765625,-0.8037261962890625,-0.593109130859375,0.118804931640625
1761914791899931000,0.468930908203125,-0.818023681640625,-0.5990447998046875,0.1158294677734375
1761914791909985800,0.47898583984375,-0.8292999267578125,-0.6037139892578125,0.1067047119140625
1761914791920041000,0.489041015625,-0.8215484619140625,-0.607757568359375,0.0954437255859375
1761914791930095900,0.499095947265625,-0.8114166259765625,-0.60699462890625,0.08319091796875
1761914791940151800,0.50915185546875,-0.80792236328125,-0.602996826171875,0.0738372802734375
1761914791950206700,0.519206787109375,-0.8031158447265625,-0.5972900390625,0.0667572021484375
1761914791960262000,0.529261962890625,-0.7962646484375,-0.5936737060546875,0.06353759765625
1761914791970316800,0.53931689453125,-0.797637939453125,-0.592010498046875,0.060760498046875
1761914791980372000,0.5493720703125,-0.8029327392578125,-0.593048095703125,0.060638427734375
1761914791990428000,0.559427978515625,-0.798492431640625,-0.5968170166015625,0.0653839111328125
1761914792000482800,0.56948291015625,-0.7900238037109375,-0.5993194580078125,0.0693359375
1761914792010538000,0.5795380859375,-0.780487060546875,-0.5951690673828125,0.0702056884765625
1761914792020593000,0.589593017578125,-0.7609405517578125,-0.59112548828125,0.0708465576171875
1761914792030648800,0.59964892578125,-0.7449798583984375,-0.5965118408203125,0.0755157470703125
1761914792040703700,0.609703857421875,-0.7367095947265625,-0.6051177978515625,0.0836181640625
1761914792050759000,0.619759033203125,-0.731842041015625,-0.6064453125,0.0890655517578125
1761914792060813800,0.629813720703125,-0.7274932861328125,-0.5997467041015625,0.08966064453125
1761914792070869000,0.639868896484375,-0.7244873046875,-0.592987060546875,0.0883636474609375
1761914792080924700,0.649924560546875,-0.7255096435546875,-0.5828704833984375,0.0872955322265625
1761914792090979800,0.659979736328125,-0.7264251708984375,-0.5700531005859375,0.0832061767578125
1761914792101034800,0.67003466796875,-0.71600341796875,-0.553009033203125,0.0791168212890625
1761914792111090000,0.68008984375,-0.69921875,-0.5371246337890625,0.07403564453125
1761914792121144800,0.690144775390625,-0.6820220947265625,-0.523101806640625,0.0682525634765625
1761914792131200800,0.70020068359375,-0.6639862060546875,-0.5094451904296875,0.0588836669921875
1761914792141256000,0.710255859375,-0.64666748046875,-0.4958343505859375,0.0428009033203125
1761914792151310800,0.720310791015625,-0.628021240234375,-0.4843597412109375,0.0284271240234375
1761914792161365800,0.73036572265625,-0.606201171875,-0.464599609375,0.016387939453125
1761914792171421700,0.740421630859375,-0.57684326171875,-0.4395751953125,-0.0011444091796875
1761914792181476900,0.750476806640625,-0.5663299560546875,-0.4217681884765625,-0.0175018310546875
1761914792191531800,0.76053173828125,-0.5697174072265625,-0.4070892333984375,-0.03094482421875
1761914792201582800,0.770582763671875,-0.57373046875,-0.3940582275390625,-0.04974365234375
1761914792211638000,0.780637939453125,-0.5706024169921875,-0.4035186767578125,-0.064971923828125
1761914792221693700,0.790693603515625,-0.55078125,-0.4268798828125,-0.062255859375
1761914792231748900,0.800748779296875,-0.567291259765625,-0.4670257568359375,-0.0476531982421875
1761914792241803800,0.8108037109375,-0.6278228759765625,-0.53851318359375,-0.012603759765625
1761914792251859000,0.82085888671875,-0.906707763671875,-0.6725616455078125,0.063446044921875
1761914792261913900,0.830913818359375,-1.1171722412109375,-0.881011962890625,0.17333984375
1761914792271969800,0.8409697265625,-1.225799560546875,-1.0326080322265625,0.2244415283203125
1761914792282025000,0.85102490234375,-1.341888427734375,-1.054290771484375,0.171234130859375
1761914792292079900,0.861079833984375,-1.4722137451171875,-1.0780792236328125,0.108978271484375
1761914792302134800,0.871134765625,-1.4075927734375,-1.3216705322265625,0.1531829833984375
1761914792312190700,0.881190673828125,-1.35870361328125,-1.572509765625,0.2516632080078125
1761914792322246000,0.891245849609375,-1.4720306396484375,-1.5492706298828125,0.2964324951171875
1761914792332300800,0.90130078125,-1.528564453125,-1.42156982421875,0.296142578125
1761914792342356000,0.91135595703125,-1.4679107666015625,-1.4170379638671875,0.297027587890625
1761914792352411000,0.921410888671875,-1.4146728515625,-1.380157470703125,0.276123046875
1761914792362466800,0.931466796875,-1.3206024169921875,-1.308868408203125,0.264251708984375
1761914792372522000,0.94152197265625,-1.2019805908203125,-1.2711181640625,0.264984130859375
1761914792382577000,0.951576904296875,-1.09442138671875,-1.2634429931640625,0.2752838134765625
1761914792392631800,0.9616318359375,-0.954864501953125,-1.290435791015625,0.28302001953125
1761914792402686700,0.971686767578125,-0.79052734375,-1.331146240234375,0.2611083984375
1761914792412743000,0.981742919921875,-0.617950439453125,-1.3614654541015625,0.2309112548828125
1761914792422797800,0.9917978515625,-0.476318359375,-1.3417816162109375,0.18780517578125
1761914792432853000,1.00185302734375,-0.386810302734375,-1.2396087646484375,0.1268463134765625
1761914792442908000,1.011907958984375,-0.3207550048828125,-1.093048095703125,0.072479248046875
1761914792452962800,1.021962890625,-0.312774658203125,-0.904083251953125,0.0286712646484375
1761914792463019000,1.03201904296875,-0.3344879150390625,-0.6892547607421875,0.00775146484375
1761914792473074000,1.042073974609375,-0.3604583740234375,-0.474639892578125,0.015655517578125
1761914792483128800,1.05212890625,-0.39007568359375,-0.3292083740234375,0.0331878662109375
1761914792493183700,1.062183837890625,-0.390472412109375,-0.24359130859375,0.0279388427734375
1761914792503239000,1.072239013671875,-0.33154296875,-0.1735992431640625,-0.0018310546875
1761914792513294800,1.082294921875,-0.2465972900390625,-0.1410980224609375,-0.0277099609375
1761914792523349800,1.092349853515625,-0.1951446533203125,-0.128082275390625,-0.02044677734375
1761914792533405000,1.102405029296875,-0.171142578125,-0.1321563720703125,0.0153045654296875
1761914792543459800,1.1124599609375,-0.1551361083984375,-0.1463775634765625,0.038970947265625
1761914792553516000,1.12251611328125,-0.1314544677734375,-0.1511688232421875,0.048309326171875
1761914792563571000,1.132571044921875,-0.099456787109375,-0.1533050537109375,0.050567626953125
1761914792573625900,1.1426259765625,-0.077850341796875,-0.151641845703125,0.048248291015625
1761914792583680800,1.1526806640625,-0.0625457763671875,-0.1652069091796875,0.0469818115234375
1761914792593736000,1.16273583984375,-0.0800323486328125,-0.1641693115234375,0.0094757080078125
1761914792603792000,1.1727919921875,-0.0832977294921875,-0.16064453125,-0.01397705078125
1761914792613846800,1.1828466796875,-0.077056884765625,-0.1713714599609375,-0.0094757080078125
1761914792623902000,1.19290185546875,-0.0822601318359375,-0.1691436767578125,0.0087890625
1761914792633956900,1.202956787109375,-0.068634033203125,-0.18450927734375,0.0359039306640625
1761914792644012000,1.213011962890625,-0.06365966796875,-0.18896484375,0.054656982421875
1761914792654067700,1.223067626953125,-0.07122802734375,-0.1773529052734375,0.0605621337890625
1761914792664123000,1.233122802734375,-0.0806121826171875,-0.1590118408203125,0.0540924072265625
1761914792674177800,1.243177734375,-0.0986175537109375,-0.135589599609375,0.046295166015625
1761914792684233000,1.25323291015625,-0.119476318359375,-0.133087158203125,0.042510986328125
1761914792694288000,1.263287841796875,-0.12274169921875,-0.1355133056640625,0.046600341796875
1761914792704343800,1.27334375,-0.1011505126953125,-0.13226318359375,0.0548248291015625
1761914792714399000,1.28339892578125,-0.104248046875,-0.1537933349609375,0.0758209228515625
1761914792724454000,1.293453857421875,-0.1704254150390625,-0.2189178466796875,0.090179443359375
1761914792734508800,1.3035087890625,-0.26470947265625,-0.3206024169921875,0.1287689208984375
1761914792744563700,1.313563720703125,-0.2587127685546875,-0.500823974609375,0.2197265625
1761914792754620000,1.323619873046875,-0.2271881103515625,-0.664276123046875,0.27911376953125
1761914792764674800,1.3336748046875,-0.32177734375,-0.70037841796875,0.2643280029296875
1761914792774730000,1.34372998046875,-0.487640380859375,-0.7427825927734375,0.2195892333984375
1761914792784785000,1.353784912109375,-0.7417144775390625,-0.8851318359375,0.178375244140625
1761914792794840800,1.3638408203125,-1.0031585693359375,-1.0513458251953125,0.1690216064453125
1761914792804896000,1.37389599609375,-1.1813812255859375,-1.2029266357421875,0.1551055908203125
1761914792814951000,1.383950927734375,-1.168212890625,-1.2953033447265625,0.1336669921875
1761914792825005800,1.394005859375,-1.075225830078125,-1.388671875,0.1476898193359375
1761914792835060700,1.404060791015625,-1.13653564453125,-1.4886627197265625,0.157958984375
1761914792845117000,1.414116943359375,-1.3777618408203125,-1.53466796875,0.2071990966796875
1761914792855171800,1.424171875,-1.5943603515625,-1.6121368408203125,0.2923126220703125
1761914792865227000,1.43422705078125,-1.6736297607421875,-1.7410888671875,0.383636474609375
1761914792875282000,1.444281982421875,-1.710693359375,-1.812469482421875,0.4284210205078125
1761914792885336800,1.4543369140625,-1.6843109130859375,-1.86651611328125,0.4255523681640625
1761914792895392800,1.464392822265625,-1.5803070068359375,-1.886383056640625,0.352386474609375
1761914792905448000,1.474447998046875,-1.4827728271484375,-1.879791259765625,0.2747650146484375
1761914792915502800,1.4845029296875,-1.413299560546875,-1.868927001953125,0.2257080078125
1761914792925557800,1.494557861328125,-1.3212127685546875,-1.8388824462890625,0.1441192626953125
1761914792935613000,1.504613037109375,-1.1659393310546875,-1.776947021484375,0.0435943603515625
1761914792945668900,1.5146689453125,-1.02288818359375,-1.6768035888671875,-0.05023193359375
1761914792955723800,1.524723876953125,-0.8850250244140625,-1.512176513671875,-0.1298065185546875
1761914792965779000,1.534779052734375,-0.804412841796875,-1.325408935546875,-0.146392822265625
1761914792975833900,1.544833740234375,-0.7941436767578125,-1.1392669677734375,-0.0960845947265625
1761914792985889000,1.554888916015625,-0.7783203125,-0.9630279541015625,-0.0499114990234375
1761914792995945000,1.564945068359375,-0.7385711669921875,-0.770782470703125,-0.036834716796875
1761914793005999900,1.574999755859375,-0.68280029296875,-0.583282470703125,-0.0399322509765625
1761914793016054800,1.5850546875,-0.643035888671875,-0.4326934814453125,-0.0560302734375
1761914793026110000,1.59510986328125,-0.6087646484375,-0.2985076904296875,-0.0609588623046875
1761914793036164900,1.605164794921875,-0.58477783203125,-0.1994171142578125,-0.0540618896484375
1761914793046220800,1.615220703125,-0.54278564453125,-0.158599853515625,-0.0284881591796875
1761914793056276000,1.62527587890625,-0.45635986328125,-0.160614013671875,0.0177001953125
1761914793066331000,1.635330810546875,-0.3648223876953125,-0.1829986572265625,0.0547943115234375
1761914793076386000,1.645385986328125,-0.2757110595703125,-0.1907806396484375,0.0718994140625
1761914793086440700,1.655440673828125,-0.2031707763671875,-0.2017974853515625,0.06903076171875
1761914793096497000,1.665496826171875,-0.1197662353515625,-0.2090911865234375,0.0531158447265625
1761914793106551800,1.6755517578125,-0.05377197265625,-0.2068023681640625,0.03240966796875
1761914793116607000,1.68560693359375,-0.0331878662109375,-0.1940460205078125,0.0106048583984375
1761914793126662000,1.695661865234375,-0.0444183349609375,-0.18670654296875,0.0066680908203125
1761914793136716800,1.705716796875,-0.0738372802734375,-0.18914794921875,0.0054779052734375
1761914793146772700,1.715772705078125,-0.1046142578125,-0.18701171875,-0.0075836181640625
1761914793156828000,1.725827880859375,-0.1226654052734375,-0.182159423828125,-0.012725830078125
1761914793166882800,1.7358828125,-0.14453125,-0.1989288330078125,-0.0006866455078125
1761914793176937700,1.745937744140625,-0.145599365234375,-0.2152252197265625,0.0192108154296875
1761914793186993000,1.755992919921875,-0.1308441162109375,-0.211456298828125,0.037353515625
1761914793197048800,1.766048828125,-0.1365203857421875,-0.203704833984375,0.0552520751953125
1761914793207108400,1.7761083984375,-0.17364501953125,-0.1943206787109375,0.0625762939453125
1761914793217163300,1.786163330078125,-0.2138671875,-0.170257568359375,0.0550079345703125
1761914793227218200,1.79621826171875,-0.2490386962890625,-0.1428985595703125,0.0435638427734375
1761914793237273300,1.8062734375,-0.2731170654296875,-0.1318817138671875,0.0453948974609375
1761914793247329300,1.816329345703125,-0.309234619140625,-0.1289825439453125,0.04949951171875
1761914793257384200,1.82638427734375,-0.3740386962890625,-0.1296539306640625,0.0597686767578125
1761914793267439000,1.836439208984375,-0.4330291748046875,-0.165496826171875,0.081939697265625
1761914793277494300,1.846494384765625,-0.422576904296875,-0.2927703857421875,0.1418304443359375
1761914793287549200,1.856549072265625,-0.30419921875,-0.5180511474609375,0.2287139892578125
1761914793297605400,1.86660546875,-0.3040618896484375,-0.6600494384765625,0.261962890625
1761914793307660300,1.876660400390625,-0.5222930908203125,-0.6399688720703125,0.206512451171875
1761914793317715200,1.886715087890625,-0.864227294921875,-0.643157958984375,0.1040802001953125
1761914793327770000,1.89677001953125,-1.196044921875,-0.740203857421875,-0.0012359619140625
1761914793337825300,1.9068251953125,-1.3343048095703125,-0.97064208984375,-0.0276031494140625
1761914793347881200,1.916881103515625,-1.369049072265625,-1.173370361328125,-0.008026123046875
1761914793357936000,1.92693603515625,-1.3023529052734375,-1.262664794921875,0.0348663330078125
1761914793367991300,1.9369912109375,-1.3608856201171875,-1.3065185546875,0.0715789794921875
1761914793378046200,1.947046142578125,-1.58502197265625,-1.2640380859375,0.0859375
1761914793388101400,1.957101318359375,-1.74615478515625,-1.3321533203125,0.1323699951171875
1761914793398157300,1.9671572265625,-1.8793487548828125,-1.4514312744140625,0.213714599609375
1761914793408212200,1.977212158203125,-2.032501220703125,-1.5893402099609375,0.2952880859375
1761914793418267100,1.98726708984375,-2.080596923828125,-1.685333251953125,0.3438262939453125
1761914793428322300,1.997322265625,-2.0167694091796875,-1.7406768798828125,0.3344573974609375
1761914793438377200,2.007377197265625,-1.94427490234375,-1.779754638671875,0.2930145263671875
1761914793448433200,2.01743310546875,-1.8618316650390625,-1.7632293701171875,0.2480926513671875
1761914793458488300,2.02748828125,-1.769744873046875,-1.73516845703125,0.2266845703125
1761914793468543200,2.037543212890625,-1.67889404296875,-1.7126007080078125,0.2193145751953125
1761914793478598400,2.047598388671875,-1.52899169921875,-1.64337158203125,0.203155517578125
1761914793488653000,2.057653076171875,-1.3268890380859375,-1.560638427734375,0.1769866943359375
1761914793498709200,2.067709228515625,-1.1190338134765625,-1.4596099853515625,0.1464996337890625
1761914793508764200,2.07776416015625,-0.94293212890625,-1.307220458984375,0.1131134033203125
1761914793518819300,2.0878193359375,-0.7703857421875,-1.1154022216796875,0.094696044921875
1761914793528874200,2.097874267578125,-0.644500732421875,-0.9109954833984375,0.0876312255859375
1761914793538929200,2.10792919921875,-0.5994415283203125,-0.7128753662109375,0.080047607421875
1761914793548985300,2.1179853515625,-0.5702972412109375,-0.530426025390625,0.050750732421875
1761914793559040300,2.128040283203125,-0.5061492919921875,-0.3763427734375,0.0023345947265625
1761914793569095200,2.13809521484375,-0.4228057861328125,-0.2548370361328125,-0.0445709228515625
1761914793579150000,2.148150146484375,-0.38409423828125,-0.1689605712890625,-0.067596435546875
1761914793589205200,2.158205322265625,-0.3556060791015625,-0.06378173828125,-0.0848388671875
1761914793599261200,2.16826123046875,-0.313232421875,0.002044677734375,-0.0796661376953125
1761914793609316400,2.17831640625,-0.2695159912109375,0.017181396484375,-0.053466796875
1761914793619371300,2.188371337890625,-0.2133941650390625,0.0005645751953125,-0.0111083984375
1761914793629426200,2.19842626953125,-0.170623779296875,-0.0249176025390625,0.041595458984375
1761914793639481300,2.2084814453125,-0.1297607421875,-0.049652099609375,0.09222412109375
1761914793649537300,2.218537353515625,-0.1024169921875,-0.0674591064453125,0.1201171875
1761914793659592200,2.22859228515625,-0.0766754150390625,-0.0888214111328125,0.1282196044921875
1761914793669647000,2.238647216796875,-0.051788330078125,-0.133087158203125,0.12530517578125
1761914793679702300,2.248702392578125,-0.0403900146484375,-0.1672821044921875,0.1033935546875
1761914793689757400,2.25875732421875,-0.0383148193359375,-0.184783935546875,0.0690460205078125
1761914793699813000,2.268813232421875,-0.0438079833984375,-0.187896728515625,0.03948974609375
1761914793709868300,2.278868408203125,-0.0523529052734375,-0.19134521484375,0.0186767578125
1761914793719923200,2.288923095703125,-0.0643463134765625,-0.19256591796875,0.0002593994140625
1761914793729978400,2.298978271484375,-0.06402587890625,-0.19903564453125,-0.0043182373046875
1761914793740033000,2.309032958984375,-0.07574462890625,-0.2083740234375,-0.0024871826171875
1761914793750089200,2.319089111328125,-0.095062255859375,-0.2169647216796875,0.001312255859375
1761914793760144100,2.32914404296875,-0.1109619140625,-0.210296630859375,0.00732421875
1761914793770199300,2.33919921875,-0.1340484619140625,-0.1883697509765625,0.0109710693359375
1761914793780254200,2.349254150390625,-0.16455078125,-0.1709442138671875,0.0054473876953125
1761914793790309000,2.35930908203125,-0.202667236328125,-0.15185546875,0.0015106201171875
1761914793800365300,2.369365234375,-0.2501373291015625,-0.166046142578125,0.019317626953125
1761914793810420200,2.379420166015625,-0.294891357421875,-0.2016143798828125,0.0524139404296875
1761914793820475400,2.389475341796875,-0.31903076171875,-0.24298095703125,0.0806121826171875
1761914793830530000,2.399530029296875,-0.2690582275390625,-0.35260009765625,0.1251373291015625
1761914793840585200,2.409585205078125,-0.2058868408203125,-0.5855560302734375,0.20611572265625
1761914793850641200,2.41964111328125,-0.25384521484375,-0.8387908935546875,0.2859954833984375
1761914793860696300,2.4296962890625,-0.4493560791015625,-0.918670654296875,0.28436279296875
1761914793870751200,2.439751220703125,-0.638031005859375,-0.854705810546875,0.194244384765625
1761914793880806100,2.44980615234375,-0.7899017333984375,-0.8252410888671875,0.0577545166015625
1761914793890861300,2.459861328125,-0.92303466796875,-0.92852783203125,-0.04498291015625
1761914793900917200,2.469917236328125,-1.050018310546875,-1.100067138671875,-0.0562744140625
1761914793910972400,2.479972412109375,-1.23565673828125,-1.220184326171875,0.02447509765625
1761914793921027000,2.490027099609375,-1.3870697021484375,-1.335540771484375,0.17950439453125
1761914793931082200,2.500082275390625,-1.547607421875,-1.4132537841796875,0.291015625
1761914793941137400,2.510137451171875,-1.596038818359375,-1.44586181640625,0.3455657958984375
1761914793951193300,2.520193359375,-1.4857635498046875,-1.484222412109375,0.3406829833984375
1761914793961248300,2.530248291015625,-1.3694610595703125,-1.5684356689453125,0.3126678466796875
1761914793971303200,2.54030322265625,-1.3117523193359375,-1.6388092041015625,0.3061370849609375
1761914793981358300,2.5503583984375,-1.2954864501953125,-1.680938720703125,0.28515625
1761914793991413200,2.560413330078125,-1.257537841796875,-1.735107421875,0.273529052734375
1761914794001469200,2.57046923828125,-1.2437896728515625,-1.7589263916015625,0.2586212158203125
1761914794011524000,2.580524169921875,-1.185455322265625,-1.7326812744140625,0.23663330078125
1761914794021579300,2.590579345703125,-1.107818603515625,-1.698974609375,0.2309417724609375
1761914794031634400,2.600634521484375,-1.055511474609375,-1.7122344970703125,0.26141357421875
1761914794041689000,2.610689208984375,-1.029205322265625,-1.714202880859375,0.2799835205078125
1761914794051745300,2.620745361328125,-0.979888916015625,-1.5931396484375,0.230194091796875
1761914794061800200,2.63080029296875,-0.87701416015625,-1.3885650634765625,0.151123046875
1761914794071855400,2.64085546875,-0.8047332763671875,-1.19439697265625,0.10430908203125
1761914794081910000,2.650909912109375,-0.72772216796875,-1.02325439453125,0.0900726318359375
1761914794091965200,2.660965087890625,-0.63671875,-0.89276123046875,0.0862884521484375
1761914794102021000,2.671021240234375,-0.5610809326171875,-0.7922515869140625,0.0807647705078125
1761914794112076300,2.681076171875,-0.5364837646484375,-0.6462860107421875,0.036407470703125
1761914794122131500,2.69113134765625,-0.5248870849609375,-0.5517730712890625,-0.0064544677734375
1761914794132186000,2.70118603515625,-0.5123748779296875,-0.4893035888671875,-0.0259552001953125
1761914794142241300,2.7112412109375,-0.5488739013671875,-0.3870391845703125,-0.0342559814453125
1761914794152297200,2.721297119140625,-0.6015472412109375,-0.265960693359375,-0.0306396484375
1761914794162352400,2.731352294921875,-0.6053924560546875,-0.18017578125,-0.0089263916015625
1761914794172407000,2.741406982421875,-0.5488128662109375,-0.1889190673828125,0.04150390625
1761914794182462200,2.751462158203125,-0.476348876953125,-0.1839599609375,0.0961456298828125
1761914794192517400,2.761517333984375,-0.36138916015625,-0.18463134765625,0.14208984375
1761914794202570200,2.7715703125,-0.2847900390625,-0.24212646484375,0.1968231201171875
1761914794212625200,2.781625244140625,-0.2574615478515625,-0.2117156982421875,0.1995391845703125
1761914794222680000,2.79168017578125,-0.199554443359375,-0.15216064453125,0.167694091796875
1761914794232735200,2.8017353515625,-0.1420135498046875,-0.13360595703125,0.128082275390625
1761914794242790100,2.8117900390625,-0.0942840576171875,-0.1341552734375,0.094818115234375
1761914794252846300,2.821846435546875,-0.077484130859375,-0.14434814453125,0.042877197265625
1761914794262901000,2.83190087890625,-0.0402984619140625,-0.1533203125,0.018829345703125
1761914794272956200,2.8419560546875,-0.0047760009765625,-0.153289794921875,0.0100555419921875
1761914794283011000,2.852010986328125,-0.0049896240234375,-0.172637939453125,0.0228118896484375
1761914794293066200,2.862066162109375,-0.017791748046875,-0.1876068115234375,0.034149169921875
1761914794303122000,2.872121826171875,-0.035858154296875,-0.1777191162109375,0.0474090576171875
1761914794313177000,2.882177001953125,-0.0627593994140625,-0.1618804931640625,0.055206298828125
1761914794323232300,2.892232177734375,-0.0888824462890625,-0.1405487060546875,0.0497589111328125
1761914794333287200,2.902287109375,-0.1069183349609375,-0.1198272705078125,0.0422210693359375
1761914794343342000,2.912342041015625,-0.0991058349609375,-0.1117401123046875,0.0353546142578125
1761914794353398000,2.92239794921875,-0.0802154541015625,-0.10308837890625,0.0299530029296875
1761914794363453200,2.932453125,-0.079742431640625,-0.1204376220703125,0.040618896484375
1761914794373508000,2.942508056640625,-0.0922393798828125,-0.1633453369140625,0.066070556640625
1761914794383563000,2.95256298828125,-0.0819091796875,-0.250885009765625,0.11175537109375
1761914794393618200,2.9626181640625,-0.020355224609375,-0.4525909423828125,0.19696044921875
1761914794403674000,2.972674072265625,0.0147857666015625,-0.70477294921875,0.2834625244140625
1761914794413729300,2.982729248046875,-0.0332794189453125,-0.8617095947265625,0.3431243896484375
1761914794423784200,2.9927841796875,-0.155853271484375,-0.9332427978515625,0.3343505859375
1761914794433839000,3.002839111328125,-0.36810302734375,-0.9890899658203125,0.256103515625
1761914794443894300,3.012894287109375,-0.5349578857421875,-1.11663818359375,0.1520843505859375
1761914794453950200,3.0229501953125,-0.67041015625,-1.3338470458984375,0.0863494873046875
1761914794464005000,3.033005126953125,-0.8275299072265625,-1.6046142578125,0.10394287109375
1761914794474060000,3.04306005859375,-1.0247650146484375,-1.846923828125,0.2007598876953125
1761914794484115200,3.053115234375,-1.3679656982421875,-1.9505615234375,0.28277587890625
1761914794494170000,3.063170166015625,-1.5716705322265625,-1.96356201171875,0.28912353515625
1761914794504226300,3.073226318359375,-1.568634033203125,-1.923004150390625,0.260589599609375
1761914794514281200,3.08328125,-1.6295013427734375,-1.89288330078125,0.308441162109375
1761914794524336000,3.093336181640625,-1.707672119140625,-1.900726318359375,0.4074249267578125
1761914794534391000,3.10339111328125,-1.6808624267578125,-1.8805084228515625,0.4441986083984375
1761914794544446200,3.1134462890625,-1.5854339599609375,-1.877593994140625,0.44354248046875
1761914794554502100,3.123502197265625,-1.5295867919921875,-1.8610687255859375,0.414825439453125
1761914794564557000,3.13355712890625,-1.481414794921875,-1.8186798095703125,0.371063232421875
1761914794574612200,3.1436123046875,-1.398101806640625,-1.7398834228515625,0.3257904052734375
1761914794584667100,3.153667236328125,-1.3239593505859375,-1.641357421875,0.272064208984375
1761914794594722300,3.163722412109375,-1.2532806396484375,-1.5267333984375,0.219482421875
1761914794604778000,3.173778076171875,-1.1905517578125,-1.397125244140625,0.1862945556640625
1761914794614833200,3.183833251953125,-1.11456298828125,-1.227783203125,0.166656494140625
1761914794624888000,3.19388818359375,-0.9965667724609375,-1.023651123046875,0.142791748046875
1761914794634943200,3.203943115234375,-0.8478851318359375,-0.839813232421875,0.1181488037109375
1761914794644998100,3.213998046875,-0.70257568359375,-0.6868438720703125,0.085113525390625
1761914794655054000,3.22405419921875,-0.58782958984375,-0.5635986328125,0.0422821044921875
1761914794665109200,3.234109130859375,-0.483917236328125,-0.4276885986328125,-0.0063018798828125
1761914794675164200,3.2441640625,-0.3881988525390625,-0.293060302734375,-0.054107666015625
1761914794685219000,3.254218994140625,-0.329193115234375,-0.17596435546875,-0.0877227783203125
1761914794695274200,3.264274169921875,-0.2912750244140625,-0.079864501953125,-0.1071014404296875
1761914794705330200,3.274330078125,-0.272705078125,-0.0341796875,-0.092620849609375
1761914794715385000,3.284385009765625,-0.2638092041015625,-0.054290771484375,-0.0370025634765625
1761914794725440300,3.294440185546875,-0.219024658203125,-0.0859832763671875,0.0353546142578125
1761914794735495200,3.3044951171875,-0.1740264892578125,-0.103759765625,0.096923828125
1761914794745551000,3.314551025390625,-0.1290435791015625,-0.1314239501953125,0.14453125
1761914794755606300,3.324606201171875,-0.09564208984375,-0.1400299072265625,0.155670166015625
1761914794765661200,3.3346611328125,-0.062469482421875,-0.13934326171875,0.1402740478515625
1761914794775716000,3.344716064453125,-0.042755126953125,-0.1446380615234375,0.1071319580078125
1761914794785771000,3.35477099609375,-0.026275634765625,-0.1441650390625,0.0629425048828125
1761914794795827200,3.3648271484375,-0.0146026611328125,-0.135955810546875,0.018157958984375
1761914794805882000,3.374882080078125,-0.019622802734375,-0.1342315673828125,-0.0112762451171875
1761914794815937000,3.38493701171875,-0.024688720703125,-0.1434478759765625,-0.024505615234375
1761914794825992200,3.3949921875,-0.0394134521484375,-0.1551971435546875,-0.020294189453125
1761914794836047000,3.405047119140625,-0.06732177734375,-0.1797943115234375,-0.000579833984375
1761914794846103300,3.415103271484375,-0.0933380126953125,-0.1958160400390625,0.02081298828125
1761914794856158200,3.425158203125,-0.097747802734375,-0.193359375,0.0330963134765625
1761914794866213000,3.435213134765625,-0.109222412109375,-0.181884765625,0.02899169921875
1761914794876268000,3.44526806640625,-0.129669189453125,-0.1746368408203125,0.0179290771484375
1761914794886323200,3.4553232421875,-0.149749755859375,-0.1776885986328125,0.0098419189453125
1761914794896379100,3.465379150390625,-0.2032928466796875,-0.1675567626953125,0.0141143798828125
1761914794906434000,3.47543408203125,-0.264923095703125,-0.1533050537109375,0.032196044921875
1761914794916489200,3.4854892578125,-0.318756103515625,-0.15216064453125,0.0495758056640625
1761914794926544100,3.495544189453125,-0.295501708984375,-0.2724151611328125,0.119354248046875
1761914794936599300,3.505599365234375,-0.1951446533203125,-0.5195159912109375,0.236663818359375
1761914794946655200,3.5156552734375,-0.18328857421875,-0.74212646484375,0.3372344970703125
1761914794956710100,3.525710205078125,-0.2590179443359375,-0.84271240234375,0.3626861572265625
1761914794966765000,3.53576513671875,-0.440765380859375,-0.81744384765625,0.271240234375
1761914794976820200,3.5458203125,-0.7007904052734375,-0.7576751708984375,0.100311279296875
1761914794986875100,3.555875244140625,-0.9016876220703125,-0.849945068359375,0.0011749267578125
1761914794996931000,3.56593115234375,-1.0586395263671875,-1.1211700439453125,0.1012420654296875
1761914795006986200,3.575986328125,-1.1633758544921875,-1.3581085205078125,0.298858642578125
1761914795017041200,3.586041259765625,-1.1716461181640625,-1.497802734375,0.4583740234375
1761914795027096300,3.596096435546875,-1.3053436279296875,-1.5863037109375,0.5479736328125
1761914795037151000,3.60615087890625,-1.4363861083984375,-1.6772613525390625,0.575286865234375
1761914795047207200,3.616207275390625,-1.4693145751953125,-1.734710693359375,0.5376129150390625
1761914795057262000,3.626261962890625,-1.51129150390625,-1.7398223876953125,0.4376220703125
1761914795067317200,3.636317138671875,-1.57562255859375,-1.7357025146484375,0.32318115234375
1761914795077372200,3.6463720703125,-1.5418243408203125,-1.779876708984375,0.2518157958984375
1761914795087428000,3.656427978515625,-1.4624176025390625,-1.8431549072265625,0.2190704345703125
1761914795097483300,3.666483154296875,-1.4322357177734375,-1.9222259521484375,0.244293212890625
1761914795107538200,3.6765380859375,-1.4342803955078125,-1.9761199951171875,0.271026611328125
1761914795117593000,3.686593017578125,-1.4601593017578125,-1.978759765625,0.263824462890625
1761914795127648000,3.69664794921875,-1.4703369140625,-1.9712066650390625,0.2531890869140625
1761914795137704200,3.7067041015625,-1.43218994140625,-1.9110260009765625,0.2048187255859375
1761914795147759000,3.716759033203125,-1.3716583251953125,-1.7855987548828125,0.1454620361328125
1761914795157814300,3.726814208984375,-1.3160858154296875,-1.6161651611328125,0.1168212890625
1761914795167869200,3.736869140625,-1.188568115234375,-1.3709564208984375,0.0962371826171875
1761914795177924000,3.746924072265625,-1.023834228515625,-1.170196533203125,0.1012115478515625
1761914795187980300,3.756980224609375,-0.833709716796875,-1.027618408203125,0.1239776611328125
1761914795198035200,3.76703515625,-0.618743896484375,-0.891815185546875,0.121612548828125
1761914795208093200,3.77709326171875,-0.4284820556640625,-0.814056396484375,0.0912628173828125
1761914795218148400,3.7871484375,-0.3086090087890625,-0.774688720703125,0.044830322265625
1761914795228203300,3.797203369140625,-0.271575927734375,-0.694610595703125,-0.005157470703125
1761914795238259200,3.80725927734375,-0.2683258056640625,-0.5815582275390625,-0.0482940673828125
1761914795248314000,3.817314208984375,-0.272735595703125,-0.4509429931640625,-0.07904052734375
1761914795258369300,3.827369384765625,-0.278076171875,-0.3199005126953125,-0.0811614990234375
1761914795268424200,3.837424072265625,-0.2626495361328125,-0.2108306884765625,-0.0457916259765625
1761914795278479400,3.847479248046875,-0.233917236328125,-0.154144287109375,0.0150146484375
1761914795288535300,3.857535400390625,-0.1745758056640625,-0.116729736328125,0.0783843994140625
1761914795298590200,3.867590087890625,-0.086700439453125,-0.1084747314453125,0.139495849609375
1761914795308645400,3.877645263671875,-0.0031585693359375,-0.13128662109375,0.194671630859375
1761914795318700300,3.8877001953125,0.0554962158203125,-0.1337890625,0.2145233154296875
1761914795328756200,3.897756103515625,0.121002197265625,-0.097381591796875,0.1973419189453125
1761914795338811100,3.90781103515625,0.1603546142578125,-0.08001708984375,0.164794921875
1761914795348866300,3.9178662109375,0.152801513671875,-0.0934906005859375,0.141021728515625
1761914795358918100,3.927918212890625,0.119415283203125,-0.1022186279296875,0.1173858642578125
1761914795368974300,3.937974365234375,0.07171630859375,-0.111907958984375,0.091705322265625
1761914795379029200,3.948029296875,0.029449462890625,-0.13067626953125,0.075347900390625
1761914795389084400,3.95808447265625,-0.005645751953125,-0.141876220703125,0.0671539306640625
1761914795399139000,3.96813916015625,-0.0312652587890625,-0.1522369384765625,0.0594329833984375
1761914795409195300,3.9781953125,-0.0406494140625,-0.1508941650390625,0.054595947265625
1761914795419250200,3.988250244140625,-0.0533294677734375,-0.150146484375,0.049072265625
1761914795429305300,3.998305419921875,-0.076080322265625,-0.15142822265625,0.0434417724609375
1761914795439360300,4.0083603515625,-0.0998687744140625,-0.126129150390625,0.0392608642578125
1761914795449415200,4.018415283203125,-0.1056671142578125,-0.092559814453125,0.0361328125
1761914795459471000,4.02847119140625,-0.1059112548828125,-0.0483856201171875,0.015106201171875
1761914795469526300,4.0385263671875,-0.131927490234375,-0.03277587890625,0.0009765625
1761914795479581400,4.04858154296875,-0.19061279296875,-0.0565185546875,0.0140838623046875
1761914795489636000,4.058635986328125,-0.2513427734375,-0.1542205810546875,0.0768585205078125
1761914795499691300,4.068691162109375,-0.2027587890625,-0.3560028076171875,0.182342529296875
1761914795509747200,4.078747314453125,-0.1386260986328125,-0.546539306640625,0.27325439453125
1761914795519802400,4.08880224609375,-0.13079833984375,-0.634033203125,0.30438232421875
1761914795529857300,4.098857177734375,-0.1906585693359375,-0.6558837890625,0.248870849609375
1761914795539912200,4.108912109375,-0.38421630859375,-0.6715545654296875,0.1290283203125
1761914795549968100,4.118968017578125,-0.6214447021484375,-0.707305908203125,0.016357421875
1761914795560023300,4.129023193359375,-0.777801513671875,-0.9285736083984375,0.0348052978515625
1761914795570078200,4.139078125,-0.9185638427734375,-1.2559967041015625,0.189605712890625
1761914795580133000,4.149133056640625,-0.998046875,-1.4308929443359375,0.3441619873046875
1761914795590188300,4.159188232421875,-1.017578125,-1.49920654296875,0.4107818603515625
1761914795600244200,4.169244140625,-1.051055908203125,-1.6063995361328125,0.444732666015625
1761914795610299400,4.17929931640625,-1.0248870849609375,-1.7872314453125,0.5349884033203125
1761914795620354000,4.18935400390625,-1.1209564208984375,-1.9294586181640625,0.618408203125
1761914795630409200,4.1994091796875,-1.2058563232421875,-1.9543914794921875,0.6435546875
1761914795640464400,4.20946435546875,-1.1855926513671875,-1.9863433837890625,0.6090240478515625
1761914795650520300,4.219520263671875,-1.169525146484375,-2.070556640625,0.5705413818359375
1761914795660575200,4.2295751953125,-1.1522064208984375,-2.170135498046875,0.5516204833984375
1761914795670630100,4.239630126953125,-1.1648406982421875,-2.26959228515625,0.5199432373046875
1761914795680685300,4.249685302734375,-1.2326202392578125,-2.3304595947265625,0.434417724609375
1761914795690740200,4.259740234375,-1.3011474609375,-2.34564208984375,0.3161163330078125
1761914795700796200,4.269796142578125,-1.3428802490234375,-2.28955078125,0.1866607666015625
1761914795710851000,4.27985107421875,-1.331390380859375,-2.14752197265625,0.076934814453125
1761914795720906200,4.28990625,-1.2783050537109375,-1.9559326171875,0.011627197265625
1761914795730961400,4.29996142578125,-1.1847991943359375,-1.72894287109375,0.0047454833984375
1761914795741017300,4.310017333984375,-1.0823516845703125,-1.5262451171875,0.0686492919921875
1761914795751072300,4.320072265625,-0.94097900390625,-1.34283447265625,0.15631103515625
1761914795761127200,4.330127197265625,-0.74591064453125,-1.1477203369140625,0.2138671875
1761914795771182300,4.340182373046875,-0.555023193359375,-0.9960479736328125,0.2374725341796875
1761914795781237200,4.3502373046875,-0.3454742431640625,-0.829986572265625,0.1988525390625
1761914795791293200,4.360293212890625,-0.1857757568359375,-0.6628570556640625,0.114715576171875
1761914795801348000,4.37034814453125,-0.125579833984375,-0.5001983642578125,0.041412353515625
1761914795811403300,4.3804033203125,-0.1314239501953125,-0.341217041015625,-0.0075531005859375
1761914795821458400,4.39045849609375,-0.145843505859375,-0.20196533203125,-0.0268707275390625
1761914795831513000,4.40051318359375,-0.1677093505859375,-0.1204071044921875,-0.0044403076171875
1761914795841569300,4.4105693359375,-0.166748046875,-0.0670318603515625,0.027801513671875
1761914795851624200,4.420624267578125,-0.15948486328125,-0.0394744873046875,0.068267822265625
1761914795861679400,4.430679443359375,-0.109344482421875,-0.02783203125,0.1095733642578125
1761914795871734000,4.440734130859375,-0.0275421142578125,-0.0359344482421875,0.1477813720703125
1761914795881790200,4.450790283203125,0.0566253662109375,-0.0443572998046875,0.1725006103515625
1761914795891845000,4.46084521484375,0.138580322265625,-0.0251007080078125,0.1631622314453125
1761914795901900300,4.470900390625,0.2024383544921875,-0.022918701171875,0.1343536376953125
1761914795911956200,4.480956298828125,0.223724365234375,-0.0465545654296875,0.10345458984375
1761914795922011100,4.49101123046875,0.1977386474609375,-0.0561065673828125,0.0677947998046875
1761914795932067000,4.501067138671875,0.1380767822265625,-0.062652587890625,0.0279693603515625
1761914795942122200,4.511122314453125,0.0758056640625,-0.0886077880859375,0.0088043212890625
1761914795952177400,4.521177490234375,0.0294036865234375,-0.1215667724609375,0.01141357421875
1761914795962232300,4.531232421875,-0.011505126953125,-0.1559600830078125,0.0208587646484375
1761914795972287200,4.541287353515625,-0.0441436767578125,-0.1861724853515625,0.0303802490234375
1761914795982343200,4.55134326171875,-0.076446533203125,-0.2129058837890625,0.041900634765625
1761914795992398300,4.5613984375,-0.1040496826171875,-0.223846435546875,0.0565185546875
1761914796002453200,4.571453369140625,-0.12347412109375,-0.2044525146484375,0.0635986328125
1761914796012508200,4.581508056640625,-0.149871826171875,-0.1779327392578125,0.0605926513671875
1761914796022564000,4.591564208984375,-0.1791229248046875,-0.1634979248046875,0.0614166259765625
1761914796032619300,4.601619384765625,-0.21484375,-0.17449951171875,0.078704833984375
1761914796042674200,4.611674072265625,-0.2656707763671875,-0.2162628173828125,0.1150360107421875
1761914796052729000,4.62172900390625,-0.3325347900390625,-0.2694091796875,0.1527252197265625
1761914796062784300,4.6317841796875,-0.40228271484375,-0.33709716796875,0.1921844482421875
1761914796072840200,4.641840087890625,-0.4019622802734375,-0.4933624267578125,0.2661895751953125
1761914796082895400,4.651895263671875,-0.375762939453125,-0.7003631591796875,0.33721923828125
1761914796092950300,4.6619501953125,-0.4137420654296875,-0.8620452880859375,0.3690185546875
1761914796103005200,4.672005126953125,-0.520172119140625,-0.935394287109375,0.3213653564453125
1761914796113061000,4.68206103515625,-0.700164794921875,-0.998382568359375,0.220703125
1761914796123116300,4.6921162109375,-0.8855438232421875,-1.1016845703125,0.138946533203125
1761914796133171200,4.702171142578125,-1.0133209228515625,-1.2798614501953125,0.1466217041015625
1761914796143226000,4.71222607421875,-1.134735107421875,-1.44091796875,0.201263427734375
1761914796153281300,4.72228125,-1.1900482177734375,-1.5794219970703125,0.2809600830078125
1761914796163337200,4.732337158203125,-1.2041778564453125,-1.7187957763671875,0.349884033203125
1761914796173392400,4.742392333984375,-1.1854095458984375,-1.8111724853515625,0.3955078125
1761914796183447000,4.752447021484375,-1.149169921875,-1.84857177734375,0.4138031005859375
1761914796193502200,4.762502197265625,-1.1605377197265625,-1.8475799560546875,0.3980712890625
1761914796203557400,4.772557373046875,-1.188507080078125,-1.8624114990234375,0.379913330078125
1761914796213609700,4.782609619140625,-1.2235870361328125,-1.8946533203125,0.37200927734375
1761914796223664600,4.79266455078125,-1.265350341796875,-1.9559478759765625,0.3747100830078125
1761914796233719800,4.8027197265625,-1.321868896484375,-2.033966064453125,0.4079437255859375
1761914796243774700,4.812774658203125,-1.3716278076171875,-2.09283447265625,0.4379425048828125
1761914796253830700,4.82283056640625,-1.4146270751953125,-2.115997314453125,0.420074462890625
1761914796263885800,4.8328857421875,-1.4408416748046875,-2.055389404296875,0.3448638916015625
1761914796273940700,4.842940673828125,-1.4212799072265625,-1.9364166259765625,0.2352294921875
1761914796283995600,4.85299560546875,-1.3266143798828125,-1.7779083251953125,0.1172943115234375
1761914796294050800,4.86305078125,-1.1674957275390625,-1.57659912109375,0.016571044921875
1761914796304106800,4.873106689453125,-1.011474609375,-1.361328125,-0.03594970703125
1761914796314161700,4.88316162109375,-0.8536834716796875,-1.1743011474609375,-0.0113983154296875
1761914796324216800,4.893216796875,-0.681060791015625,-0.996826171875,0.041168212890625
1761914796334271700,4.903271728515625,-0.5259857177734375,-0.8038787841796875,0.0884246826171875
1761914796344327700,4.91332763671875,-0.3576507568359375,-0.6090545654296875,0.0980987548828125
1761914796354382800,4.9233828125,-0.231048583984375,-0.4521636962890625,0.06396484375
1761914796364437800,4.933437744140625,-0.17333984375,-0.2994537353515625,0.018096923828125
1761914796374492700,4.94349267578125,-0.1822967529296875,-0.151336669921875,-0.015045166015625
1761914796384547600,4.953547607421875,-0.2070465087890625,-0.0509185791015625,-0.020965576171875
1761914796394603800,4.963603759765625,-0.2138671875,0.00018310546875,0.016845703125
1761914796404658700,4.97365869140625,-0.2147064208984375,-0.005859375,0.0948486328125
1761914796414713900,4.9837138671875,-0.198150634765625,-0.0430908203125,0.1855316162109375
1761914796424768800,4.993768798828125,-0.1288299560546875,-0.0665283203125,0.2515106201171875
1761914796434824700,5.00382470703125,-0.04229736328125,-0.0726318359375,0.2753448486328125
1761914796444880000,5.0138798828125,0.020660400390625,-0.082550048828125,0.266448974609375
1761914796454934800,5.023934814453125,0.0528717041015625,-0.080902099609375,0.2255401611328125
1761914796464989700,5.03398974609375,0.07073974609375,-0.090423583984375,0.176177978515625
1761914796475044600,5.044044677734375,0.07177734375,-0.1162872314453125,0.128082275390625
1761914796485100800,5.054100830078125,0.0546112060546875,-0.12841796875,0.0767059326171875
1761914796495155700,5.06415576171875,0.0369415283203125,-0.1382293701171875,0.0352020263671875
1761914796505210600,5.074210693359375,0.0101318359375,-0.146148681640625,0.013275146484375
1761914796515265800,5.084265869140625,-0.02301025390625,-0.172393798828125,0.01715087890625
1761914796525321700,5.09432177734375,-0.0592193603515625,-0.1945953369140625,0.0386199951171875
1761914796535377000,5.104376953125,-0.08514404296875,-0.206268310546875,0.0546875
1761914796545431800,5.114431884765625,-0.1049041748046875,-0.2145233154296875,0.04779052734375
1761914796555486700,5.12448681640625,-0.121337890625,-0.207733154296875,0.0269927978515625
1761914796565542700,5.134542724609375,-0.1198883056640625,-0.1771087646484375,0.0086822509765625
1761914796575597800,5.144597900390625,-0.13641357421875,-0.1548614501953125,0.0041046142578125
1761914796585652700,5.15465283203125,-0.1680755615234375,-0.15777587890625,0.0249786376953125
1761914796595707600,5.164707763671875,-0.206939697265625,-0.17620849609375,0.0579833984375
1761914796605762800,5.1747626953125,-0.25311279296875,-0.2118988037109375,0.08941650390625
1761914796615818800,5.18481884765625,-0.263702392578125,-0.3145294189453125,0.143646240234375
1761914796625874000,5.1948740234375,-0.2064666748046875,-0.50408935546875,0.233489990234375
1761914796635928600,5.204928466796875,-0.180419921875,-0.7030029296875,0.309906005859375
1761914796645983700,5.214983642578125,-0.209747314453125,-0.83880615234375,0.3285980224609375
1761914796656039700,5.225039794921875,-0.3114776611328125,-0.9115142822265625,0.2607421875
1761914796666094800,5.2350947265625,-0.47845458984375,-1.01123046875,0.1347808837890625
1761914796676149800,5.245149658203125,-0.6673126220703125,-1.1804656982421875,0.024261474609375
1761914796686204700,5.25520458984375,-0.8783721923828125,-1.350860595703125,-0.0183868408203125
1761914796696259800,5.265259765625,-1.120208740234375,-1.3584442138671875,-0.0231170654296875
1761914796706315800,5.275315673828125,-1.2325897216796875,-1.4052581787109375,0.068634033203125
1761914796716371000,5.285370849609375,-1.268035888671875,-1.5890350341796875,0.2108612060546875
1761914796726425600,5.295425537109375,-1.317718505859375,-1.6920166015625,0.3081512451171875
1761914796736480800,5.305480712890625,-1.28851318359375,-1.7133636474609375,0.3325042724609375
1761914796746536700,5.31553662109375,-1.232147216796875,-1.7198028564453125,0.2906646728515625
1761914796756591900,5.325591796875,-1.201202392578125,-1.708709716796875,0.2206573486328125
1761914796766646500,5.335646484375,-1.222930908203125,-1.7084808349609375,0.1573638916015625
1761914796776701700,5.34570166015625,-1.2832794189453125,-1.7261962890625,0.1082611083984375
1761914796786756900,5.3557568359375,-1.3615570068359375,-1.7761383056640625,0.1024169921875
1761914796796812800,5.365812744140625,-1.41015625,-1.8015594482421875,0.1246490478515625
1761914796806867700,5.37586767578125,-1.4462890625,-1.795135498046875,0.1486358642578125
1761914796816922600,5.385922607421875,-1.4478759765625,-1.774810791015625,0.1541900634765625
1761914796826977800,5.395977783203125,-1.396026611328125,-1.7397613525390625,0.1217498779296875
1761914796837033700,5.40603369140625,-1.2735748291015625,-1.652740478515625,0.06103515625
1761914796847089000,5.4160888671875,-1.082275390625,-1.4774322509765625,0.002716064453125
1761914796857143600,5.4261435546875,-0.8803863525390625,-1.24822998046875,-0.02581787109375
1761914796867198700,5.43619873046875,-0.7028961181640625,-1.06976318359375,0.0014495849609375
1761914796877254000,5.44625390625,-0.5827178955078125,-0.9188385009765625,0.054779052734375
1761914796887309800,5.456309814453125,-0.518646240234375,-0.7651519775390625,0.0926361083984375
1761914796897364700,5.46636474609375,-0.4750213623046875,-0.6192626953125,0.07806396484375
1761914796907419600,5.476419677734375,-0.402801513671875,-0.4889678955078125,0.0125732421875
1761914796917474800,5.486474853515625,-0.342041015625,-0.366302490234375,-0.070709228515625
1761914796927530800,5.49653076171875,-0.333038330078125,-0.2564697265625,-0.122772216796875
1761914796937586000,5.5065859375,-0.371826171875,-0.1869964599609375,-0.1277618408203125
1761914796947640600,5.516640625,-0.4406585693359375,-0.1538848876953125,-0.0972747802734375
1761914796957695700,5.52669580078125,-0.492095947265625,-0.142333984375,-0.045989990234375
1761914796967751000,5.5367509765625,-0.4813079833984375,-0.157470703125,0.0146026611328125
1761914796977806800,5.546806884765625,-0.4107513427734375,-0.18438720703125,0.0682525634765625
1761914796987861800,5.55686181640625,-0.34735107421875,-0.203155517578125,0.115020751953125
1761914796997916700,5.566916748046875,-0.3361968994140625,-0.2186279296875,0.1683197021484375
1761914797007971800,5.576971923828125,-0.32666015625,-0.2336273193359375,0.1997833251953125
1761914797018027800,5.58702783203125,-0.2853240966796875,-0.23126220703125,0.192840576171875
1761914797028083000,5.5970830078125,-0.2206268310546875,-0.22381591796875,0.165130615234375
1761914797038137600,5.6071376953125,-0.1733551025390625,-0.2183837890625,0.1228179931640625
1761914797048192800,5.61719287109375,-0.148101806640625,-0.2058258056640625,0.077423095703125
1761914797058248700,5.627248779296875,-0.13409423828125,-0.2058868408203125,0.053985595703125
1761914797068304000,5.637303955078125,-0.1387176513671875,-0.2157440185546875,0.0420989990234375
1761914797078358500,5.647358642578125,-0.15447998046875,-0.232330322265625,0.0332794189453125
1761914797088413700,5.65741357421875,-0.1696319580078125,-0.2549591064453125,0.0385894775390625
1761914797098468900,5.66746875,-0.1903076171875,-0.2718505859375,0.04888916015625
1761914797108524800,5.67752490234375,-0.207916259765625,-0.277587890625,0.0590972900390625
1761914797118579700,5.687579833984375,-0.227508544921875,-0.2643890380859375,0.0537872314453125
1761914797128634600,5.697634521484375,-0.2721710205078125,-0.2330780029296875,0.0351409912109375
1761914797138689800,5.707689697265625,-0.332244873046875,-0.22137451171875,0.0303497314453125
1761914797148745700,5.717745849609375,-0.3808135986328125,-0.2342376708984375,0.047027587890625
1761914797158801000,5.72780078125,-0.4031219482421875,-0.257965087890625,0.0909271240234375
1761914797168855600,5.73785546875,-0.3811798095703125,-0.31817626953125,0.1531829833984375
1761914797178910700,5.74791064453125,-0.2929840087890625,-0.479400634765625,0.24053955078125
1761914797188966000,5.7579658203125,-0.271759033203125,-0.65380859375,0.302978515625
1761914797199021800,5.768021728515625,-0.3468475341796875,-0.7791900634765625,0.317169189453125
1761914797209076000,5.778075927734375,-0.4987640380859375,-0.818878173828125,0.2445068359375
1761914797219131000,5.788130859375,-0.653961181640625,-0.8908233642578125,0.154693603515625
1761914797229185800,5.798185791015625,-0.8748626708984375,-0.9834442138671875,0.09136962890625
1761914797239241700,5.80824169921875,-1.0361175537109375,-1.1059417724609375,0.0816192626953125
1761914797249297000,5.818296875,-1.13531494140625,-1.2322998046875,0.0995635986328125
1761914797259352000,5.82835205078125,-1.1604461669921875,-1.37078857421875,0.171356201171875
1761914797269406700,5.83840673828125,-1.1697845458984375,-1.49676513671875,0.2684478759765625
1761914797279463000,5.848462890625,-1.28076171875,-1.535919189453125,0.3267669677734375
1761914797289517800,5.858517822265625,-1.344696044921875,-1.624114990234375,0.3832855224609375
1761914797299573000,5.868572998046875,-1.34564208984375,-1.7508697509765625,0.4139251708984375
1761914797309627600,5.878627685546875,-1.401397705078125,-1.78369140625,0.382904052734375
1761914797319682800,5.888682861328125,-1.443939208984375,-1.801239013671875,0.3333282470703125
1761914797329738800,5.89873876953125,-1.3818206787109375,-1.8444061279296875,0.284881591796875
1761914797339794000,5.9087939453125,-1.2984466552734375,-1.8838958740234375,0.2563934326171875
1761914797349848800,5.918848876953125,-1.2518157958984375,-1.912811279296875,0.2519683837890625
1761914797359903700,5.92890380859375,-1.23541259765625,-1.901580810546875,0.24285888671875
1761914797369960000,5.9389599609375,-1.1916961669921875,-1.8732452392578125,0.246124267578125
1761914797380014800,5.949014892578125,-1.118743896484375,-1.8191680908203125,0.2320556640625
1761914797390070000,5.959070068359375,-1.0486602783203125,-1.76025390625,0.2232818603515625
1761914797400124700,5.969124755859375,-0.9850006103515625,-1.6811981201171875,0.23223876953125
1761914797410179800,5.979179931640625,-0.9016265869140625,-1.5330963134765625,0.234710693359375
1761914797420235800,5.98923583984375,-0.769744873046875,-1.3171234130859375,0.2236328125
1761914797430291000,5.999291015625,-0.6204071044921875,-1.1092529296875,0.2196197509765625
1761914797440345900,6.009345947265625,-0.4979400634765625,-0.934661865234375,0.2289581298828125
1761914797450400800,6.01940087890625,-0.3954620361328125,-0.783111572265625,0.20404052734375
1761914797460457000,6.02945703125,-0.27606201171875,-0.6520233154296875,0.096038818359375
1761914797470511900,6.039511962890625,-0.18243408203125,-0.560577392578125,-0.0126800537109375
1761914797480567000,6.049567138671875,-0.155792236328125,-0.47589111328125,-0.0721588134765625
1761914797490621700,6.05962158203125,-0.2068023681640625,-0.4027557373046875,-0.107269287109375
1761914797500676900,6.0696767578125,-0.2492218017578125,-0.287017822265625,-0.1236724853515625
1761914797510732800,6.07973291015625,-0.237823486328125,-0.1720123291015625,-0.1061553955078125
1761914797520788000,6.0897880859375,-0.2215423583984375,-0.1275787353515625,-0.03399658203125
1761914797530843000,6.0998427734375,-0.166046142578125,-0.0958099365234375,0.046234130859375
1761914797540897800,6.109897705078125,-0.09918212890625,-0.096954345703125,0.126312255859375
1761914797550954000,6.1199541015625,-0.02685546875,-0.1081695556640625,0.202178955078125
1761914797561009000,6.1300087890625,0.0327606201171875,-0.1019287109375,0.24371337890625
1761914797571063800,6.140063720703125,0.0852813720703125,-0.0958404541015625,0.24462890625
1761914797581118700,6.15011865234375,0.1037750244140625,-0.0831756591796875,0.2046661376953125
1761914797591175000,6.1601748046875,0.09674072265625,-0.0769195556640625,0.1432342529296875
1761914797601229800,6.170229736328125,0.0945892333984375,-0.08612060546875,0.082763671875
1761914797611285000,6.180284912109375,0.079254150390625,-0.0964508056640625,0.0278167724609375
1761914797621340000,6.19033984375,0.048858642578125,-0.11749267578125,-0.0039520263671875
1761914797631394800,6.200394775390625,0.0039825439453125,-0.150726318359375,-0.0123291015625
1761914797641451000,6.210450927734375,-0.0473785400390625,-0.176361083984375,-0.01220703125
1761914797651506000,6.220505859375,-0.087188720703125,-0.19671630859375,-0.002960205078125
1761914797661560800,6.230560791015625,-0.1048126220703125,-0.21490478515625,0.012298583984375
1761914797671615700,6.24061572265625,-0.1352081298828125,-0.2351226806640625,0.0310821533203125
1761914797681672000,6.250671875,-0.1480865478515625,-0.2330169677734375,0.0358123779296875
1761914797691726800,6.260726806640625,-0.131622314453125,-0.225921630859375,0.0247955322265625
1761914797701781800,6.27078173828125,-0.1309051513671875,-0.2305145263671875,0.01776123046875
1761914797711837000,6.2808369140625,-0.1475372314453125,-0.2586822509765625,0.026947021484375
1761914797721891800,6.290891845703125,-0.161956787109375,-0.2991180419921875,0.044036865234375
1761914797731947800,6.30094775390625,-0.1585693359375,-0.4302520751953125,0.09661865234375
1761914797742003000,6.3110029296875,-0.162078857421875,-0.59820556640625,0.1490631103515625
1761914797752057900,6.321057861328125,-0.188720703125,-0.707305908203125,0.153533935546875
1761914797762112800,6.33111279296875,-0.2499847412109375,-0.7793426513671875,0.1249237060546875
1761914797772169000,6.3411689453125,-0.347320556640625,-0.8721160888671875,0.08355712890625
1761914797782224000,6.351223876953125,-0.4914093017578125,-0.9533233642578125,0.0262451171875
1761914797792278800,6.36127880859375,-0.6381378173828125,-1.012115478515625,-0.0208892822265625
1761914797802334000,6.371333984375,-0.7373046875,-1.152008056640625,-0.0051727294921875
1761914797812390000,6.381389892578125,-0.7962188720703125,-1.315673828125,0.0530242919921875
1761914797822444800,6.39144482421875,-0.8333740234375,-1.4071502685546875,0.1048583984375
1761914797832500000,6.4015,-0.953765869140625,-1.4418487548828125,0.162353515625
1761914797842555000,6.411554931640625,-1.0699462890625,-1.4870147705078125,0.2319793701171875
1761914797852609800,6.42160986328125,-1.17352294921875,-1.547210693359375,0.29791259765625
1761914797862666000,6.431666015625,-1.2343292236328125,-1.6123809814453125,0.347900390625
1761914797872721000,6.441720947265625,-1.231048583984375,-1.636016845703125,0.33819580078125
1761914797882775800,6.45177587890625,-1.1840972900390625,-1.684783935546875,0.2964935302734375
1761914797892831000,6.4618310546875,-1.1090850830078125,-1.7757415771484375,0.2647552490234375
1761914797902887000,6.471886962890625,-1.0693817138671875,-1.8521575927734375,0.251495361328125
1761914797912941800,6.48194189453125,-1.0540771484375,-1.8949127197265625,0.24127197265625
1761914797922996700,6.491996826171875,-1.0509033203125,-1.89691162109375,0.2135772705078125
1761914797933052000,6.502052001953125,-1.090118408203125,-1.9214630126953125,0.2154693603515625
1761914797943106800,6.51210693359375,-1.1119537353515625,-1.953826904296875,0.2354278564453125
1761914797953163000,6.5221630859375,-1.069091796875,-1.9362030029296875,0.2174072265625
1761914797963218000,6.532218017578125,-1.0229034423828125,-1.894622802734375,0.183013916015625
1761914797973272800,6.54227294921875,-0.972503662109375,-1.8043365478515625,0.14093017578125
1761914797983327700,6.55232763671875,-0.8798980712890625,-1.6374053955078125,0.073974609375
1761914797993384000,6.562384033203125,-0.74298095703125,-1.4354248046875,0.008453369140625
1761914798003438800,6.57243896484375,-0.6019439697265625,-1.2650909423828125,-0.0066986083984375
1761914798013493800,6.58249365234375,-0.4835662841796875,-1.1268310546875,0.0095977783203125
1761914798023549000,6.592548828125,-0.3863677978515625,-1.0164337158203125,0.0290069580078125
1761914798033604900,6.60260498046875,-0.300384521484375,-0.909759521484375,0.041778564453125
1761914798043660000,6.612659912109375,-0.231719970703125,-0.820648193359375,0.060638427734375
1761914798053714700,6.622714599609375,-0.204437255859375,-0.7103424072265625,0.0725250244140625
1761914798063769900,6.632769775390625,-0.2114410400390625,-0.57373046875,0.0757904052734375
1761914798073824800,6.64282470703125,-0.2119598388671875,-0.4436798095703125,0.0718841552734375
1761914798083881000,6.652880859375,-0.2133941650390625,-0.32623291015625,0.06884765625
1761914798093935900,6.662935791015625,-0.2244720458984375,-0.2228851318359375,0.076446533203125
1761914798103990800,6.67299072265625,-0.2291717529296875,-0.1375579833984375,0.0913238525390625
1761914798114046000,6.6830458984375,-0.2226104736328125,-0.087432861328125,0.107025146484375
1761914798124102000,6.693101806640625,-0.2188873291015625,-0.072357177734375,0.14520263671875
1761914798134157000,6.703156982421875,-0.18994140625,-0.07379150390625,0.188262939453125
1761914798144211700,6.713211669921875,-0.1340484619140625,-0.1029510498046875,0.22686767578125
1761914798154267000,6.723266845703125,-0.0789642333984375,-0.120147705078125,0.2412109375
1761914798164322800,6.73332275390625,-0.023712158203125,-0.12677001953125,0.22491455078125
1761914798174378000,6.7433779296875,0.018280029296875,-0.1390228271484375,0.1838836669921875
1761914798184433000,6.753432861328125,0.035003662109375,-0.1572113037109375,0.132476806640625
1761914798194487800,6.76348779296875,0.0328521728515625,-0.1890411376953125,0.0841217041015625
1761914798204543000,6.77354296875,0.015228271484375,-0.2070159912109375,0.03411865234375
1761914798214599400,6.783599365234375,-0.0076446533203125,-0.2079010009765625,-0.0121002197265625
1761914798224654300,6.793654296875,-0.040191650390625,-0.2175750732421875,-0.0338287353515625
1761914798234709500,6.80370947265625,-0.072479248046875,-0.2242431640625,-0.0360565185546875
1761914798244764400,6.813764404296875,-0.102691650390625,-0.2362213134765625,-0.0284271240234375
1761914798254820400,6.8238203125,-0.118316650390625,-0.25238037109375,-0.01239013671875
1761914798264875500,6.83387548828125,-0.1268157958984375,-0.2717437744140625,0.0016937255859375
1761914798274930400,6.843930419921875,-0.13128662109375,-0.313262939453125,0.0149383544921875
1761914798284985300,6.8539853515625,-0.1416473388671875,-0.3592987060546875,0.0274658203125
1761914798295040300,6.864040283203125,-0.1538543701171875,-0.39935302734375,0.0359344482421875
1761914798305096400,6.874096435546875,-0.1626434326171875,-0.42205810546875,0.0318450927734375
1761914798315151400,6.8841513671875,-0.1391754150390625,-0.505645751953125,0.0469970703125
1761914798325206500,6.89420654296875,-0.1276702880859375,-0.6848602294921875,0.1099395751953125
1761914798335261400,6.904261474609375,-0.1652984619140625,-0.8821258544921875,0.197113037109375
1761914798345317400,6.9143173828125,-0.2518768310546875,-0.9926910400390625,0.2283782958984375
1761914798355372500,6.92437255859375,-0.376800537109375,-1.0379638671875,0.1716766357421875
1761914798365427500,6.934427490234375,-0.5133056640625,-1.0164947509765625,0.02996826171875
1761914798375482400,6.944482421875,-0.5942230224609375,-1.0857391357421875,-0.0771636962890625
1761914798385538300,6.954538330078125,-0.706878662109375,-1.3004150390625,-0.0648651123046875
1761914798395593500,6.964593505859375,-0.8927154541015625,-1.5295867919921875,0.0649566650390625
1761914798405648400,6.9746484375,-1.0731048583984375,-1.68511962890625,0.213531494140625
1761914798415703300,6.984703369140625,-1.1992034912109375,-1.81036376953125,0.318756103515625
1761914798425758500,6.994758544921875,-1.1544647216796875,-2.00030517578125,0.371917724609375
1761914798435814400,7.004814453125,-1.079925537109375,-2.1196746826171875,0.35791015625
1761914798445869600,7.01486962890625,-1.04736328125,-2.131134033203125,0.3047943115234375
1761914798455924500,7.024924560546875,-1.0023345947265625,-2.1151885986328125,0.2519683837890625
1761914798465979400,7.0349794921875,-0.955291748046875,-2.146270751953125,0.2231292724609375
1761914798476035300,7.045035400390625,-0.9820098876953125,-2.1950531005859375,0.22491455078125
1761914798486090500,7.055090576171875,-1.0391387939453125,-2.197967529296875,0.2160491943359375
1761914798496145400,7.0651455078125,-1.0814361572265625,-2.1097564697265625,0.16156005859375
1761914798506200300,7.075200439453125,-1.02313232421875,-1.9645233154296875,0.0807037353515625
1761914798516255500,7.08525537109375,-0.9659576416015625,-1.784149169921875,0.020263671875
1761914798526311400,7.0953115234375,-0.9051971435546875,-1.6055755615234375,0.0181732177734375
1761914798536366300,7.105366455078125,-0.8153839111328125,-1.39825439453125,0.040771484375
1761914798546421200,7.115421142578125,-0.7260589599609375,-1.223297119140625,0.0710296630859375
1761914798556476400,7.125476318359375,-0.6496429443359375,-1.0502166748046875,0.0810089111328125
1761914798566532400,7.135532470703125,-0.586212158203125,-0.870758056640625,0.0554351806640625
1761914798576587500,7.14558740234375,-0.5377197265625,-0.7012481689453125,0.00921630859375
1761914798586642400,7.155642333984375,-0.5182342529296875,-0.5267486572265625,-0.0286712646484375
1761914798596697300,7.165697265625,-0.5083770751953125,-0.365142822265625,-0.0499267578125
1761914798606753300,7.175753173828125,-0.4811859130859375,-0.237213134765625,-0.0503692626953125
1761914798616808400,7.185808349609375,-0.4261322021484375,-0.1549835205078125,-0.0282745361328125
1761914798626863400,7.19586328125,-0.3498382568359375,-0.1224212646484375,0.0193023681640625
1761914798636918300,7.205918212890625,-0.268463134765625,-0.1212005615234375,0.08685302734375
1761914798646973400,7.215973388671875,-0.1985931396484375,-0.127838134765625,0.151153564453125
1761914798657029400,7.226029296875,-0.160980224609375,-0.1394805908203125,0.2051849365234375
1761914798667084500,7.23608447265625,-0.11834716796875,-0.12408447265625,0.2208404541015625
1761914798677139500,7.246139404296875,-0.0704345703125,-0.1045684814453125,0.205718994140625
1761914798687194400,7.2561943359375,-0.04071044921875,-0.1145477294921875,0.190032958984375
1761914798697250300,7.266250244140625,-0.030731201171875,-0.1204071044921875,0.1594390869140625
1761914798707305500,7.276305419921875,-0.013458251953125,-0.121307373046875,0.112091064453125
1761914798717360400,7.2863603515625,-0.0013427734375,-0.1362762451171875,0.0702056884765625
1761914798727415300,7.296415283203125,0.001251220703125,-0.149200439453125,0.0361328125
1761914798737471200,7.30647119140625,-0.0024566650390625,-0.152099609375,0.007904052734375
1761914798747526400,7.3165263671875,-0.025115966796875,-0.173065185546875,0.002349853515625
1761914798757581600,7.32658154296875,-0.0545806884765625,-0.1997222900390625,0.0132598876953125
1761914798767636200,7.33663623046875,-0.0827484130859375,-0.208770751953125,0.0218353271484375
1761914798777691400,7.34669140625,-0.123565673828125,-0.2041015625,0.0218353271484375
1761914798787747300,7.356747314453125,-0.1546783447265625,-0.1826171875,0.0057525634765625
1761914798797802500,7.366802490234375,-0.163177490234375,-0.18017578125,-0.0063934326171875
1761914798807857400,7.376857421875,-0.16448974609375,-0.22052001953125,0.017181396484375
1761914798817912300,7.386912353515625,-0.1378173828125,-0.3446197509765625,0.0875091552734375
1761914798827968300,7.39696826171875,-0.09991455078125,-0.5323638916015625,0.1845550537109375
1761914798838023400,7.4070234375,-0.09002685546875,-0.6772308349609375,0.257843017578125
1761914798848078600,7.41707861328125,-0.135223388671875,-0.7291259765625,0.2473602294921875
1761914798858133200,7.42713330078125,-0.233917236328125,-0.7494354248046875,0.1568603515625
1761914798868189400,7.437189453125,-0.34539794921875,-0.7989654541015625,0.0435638427734375
1761914798878244400,7.447244384765625,-0.4761199951171875,-0.9778594970703125,0.002288818359375
1761914798888299500,7.457299560546875,-0.6842041015625,-1.225555419921875,0.0471649169921875
1761914798898354200,7.467354248046875,-0.84893798828125,-1.3333740234375,0.097320556640625
1761914798908409300,7.477409423828125,-0.8478546142578125,-1.3599853515625,0.127227783203125
1761914798918465300,7.48746533203125,-0.7886505126953125,-1.3997650146484375,0.1524810791015625
1761914798928520400,7.4975205078125,-0.735107421875,-1.48651123046875,0.2223358154296875
1761914798938575600,7.50757568359375,-0.6946868896484375,-1.6120758056640625,0.340850830078125
1761914798948630300,7.51763037109375,-0.714019775390625,-1.713623046875,0.4187164306640625
1761914798958686500,7.5276865234375,-0.7488555908203125,-1.7431793212890625,0.4211578369140625
1761914798968741400,7.537741455078125,-0.773590087890625,-1.810546875,0.3739166259765625
1761914798978796500,7.547796630859375,-0.80889892578125,-1.8863983154296875,0.314056396484375
1761914798988851200,7.557851318359375,-0.9060211181640625,-1.9756927490234375,0.2818450927734375
1761914798998907400,7.567907470703125,-0.9818878173828125,-2.0523529052734375,0.2605438232421875
1761914799008962300,7.57796240234375,-1.0118408203125,-2.086944580078125,0.224761962890625
1761914799019017500,7.588017578125,-1.0402374267578125,-2.100677490234375,0.1926422119140625
1761914799029072600,7.59807275390625,-1.081878662109375,-2.0722198486328125,0.1618499755859375
1761914799039127300,7.608127197265625,-1.123138427734375,-1.999786376953125,0.1328125
1761914799049183500,7.61818359375,-1.109100341796875,-1.8838043212890625,0.095916748046875
1761914799059238400,7.62823828125,-1.075439453125,-1.7393646240234375,0.0611724853515625
1761914799069293600,7.63829345703125,-1.0096893310546875,-1.57574462890625,0.049224853515625
1761914799079348200,7.64834814453125,-0.89166259765625,-1.395721435546875,0.0593414306640625
1761914799089404400,7.658404296875,-0.7418212890625,-1.2345123291015625,0.0824432373046875
1761914799099459300,7.668459228515625,-0.5503387451171875,-1.0908966064453125,0.0996856689453125
1761914799109514500,7.678514404296875,-0.3607025146484375,-0.976959228515625,0.1114654541015625
1761914799119569400,7.6885693359375,-0.2241363525390625,-0.8692779541015625,0.1057586669921875
1761914799129624300,7.698624267578125,-0.13873291015625,-0.7682037353515625,0.08197021484375
1761914799139680500,7.708680419921875,-0.1170196533203125,-0.664398193359375,0.0577545166015625
1761914799149735400,7.7187353515625,-0.158172607421875,-0.54742431640625,0.0443878173828125
1761914799159790600,7.72879052734375,-0.203582763671875,-0.4275360107421875,0.0455474853515625
1761914799169845200,7.73884521484375,-0.2516632080078125,-0.326507568359375,0.0594024658203125
1761914799179901400,7.7489013671875,-0.28875732421875,-0.2225341796875,0.078460693359375
1761914799189956400,7.758956298828125,-0.282684326171875,-0.12451171875,0.10015869140625
1761914799200011500,7.769011474609375,-0.2482147216796875,-0.068450927734375,0.1355133056640625
1761914799210070000,7.779070068359375,-0.2012939453125,-0.050323486328125,0.185516357421875
1761914799220125200,7.789125244140625,-0.140869140625,-0.0457611083984375,0.2346954345703125
1761914799230181000,7.79918115234375,-0.0733489990234375,-0.03912353515625,0.26220703125
1761914799240236000,7.809236083984375,-0.0130615234375,-0.0388031005859375,0.27508544921875
1761914799250291200,7.819291259765625,0.0410003662109375,-0.0576171875,0.2727203369140625
1761914799260346000,7.82934619140625,0.0721435546875,-0.0633697509765625,0.2472381591796875
1761914799270402300,7.83940234375,0.08978271484375,-0.0524139404296875,0.205718994140625
1761914799280457000,7.84945703125,0.0895538330078125,-0.0581207275390625,0.165313720703125
1761914799290512100,7.85951220703125,0.07000732421875,-0.073150634765625,0.1318817138671875
1761914799300567000,7.869567138671875,0.0287322998046875,-0.086029052734375,0.101959228515625
1761914799310623200,7.879623291015625,-0.0252685546875,-0.1110382080078125,0.0830078125
1761914799320678100,7.88967822265625,-0.06829833984375,-0.1519012451171875,0.082916259765625
1761914799330733000,7.899733154296875,-0.0966949462890625,-0.1941986083984375,0.0927886962890625
1761914799340788200,7.909788330078125,-0.1077423095703125,-0.2279205322265625,0.1000518798828125
1761914799350844200,7.91984423828125,-0.1067047119140625,-0.260528564453125,0.0982513427734375
1761914799360899300,7.9298994140625,-0.090972900390625,-0.286590576171875,0.0813446044921875
1761914799370953000,7.939952880859375,-0.086578369140625,-0.3227996826171875,0.0622100830078125
1761914799381008100,7.950008056640625,-0.120697021484375,-0.4135589599609375,0.0747222900390625
1761914799391064000,7.96006396484375,-0.1539154052734375,-0.5504150390625,0.111541748046875
1761914799401119200,7.970119140625,-0.1714019775390625,-0.698211669921875,0.1481781005859375
1761914799411174100,7.980174072265625,-0.211395263671875,-0.7823333740234375,0.144073486328125
1761914799421229000,7.99022900390625,-0.243377685546875,-0.851226806640625,0.1009521484375
1761914799431284200,8.0002841796875,-0.3074493408203125,-1.00433349609375,0.0457611083984375
1761914799441340200,8.010340087890626,-0.458526611328125,-1.141937255859375,-0.0209197998046875
1761914799451395000,8.02039501953125,-0.6478424072265625,-1.1758575439453125,-0.0833892822265625
1761914799461450000,8.030449951171875,-0.7557525634765625,-1.235076904296875,-0.0616455078125
1761914799471505200,8.040505126953125,-0.8097991943359375,-1.398590087890625,0.058197021484375
1761914799481561000,8.05056103515625,-0.842864990234375,-1.543853759765625,0.186004638671875
1761914799491616000,8.060615966796876,-0.845977783203125,-1.6290283203125,0.2736358642578125
1761914799501671200,8.070671142578124,-0.8115997314453125,-1.7073974609375,0.3146209716796875
1761914799511726000,8.08072607421875,-0.7518157958984375,-1.8249969482421875,0.3257904052734375
1761914799521782300,8.0907822265625,-0.7817840576171875,-1.9378662109375,0.3160858154296875
1761914799531837200,8.100837158203126,-0.8442535400390625,-1.9796905517578125,0.2531585693359375
1761914799541892000,8.11089208984375,-0.870513916015625,-2.02728271484375,0.1562652587890625
1761914799551947000,8.120947021484374,-0.9002685546875,-2.0724334716796875,0.0875396728515625
1761914799562002200,8.131002197265625,-0.967864990234375,-2.097747802734375,0.0517730712890625
1761914799572058000,8.14105810546875,-1.0570220947265625,-2.1136016845703125,0.032135009765625
1761914799582113000,8.151113037109376,-1.1406402587890625,-2.122528076171875,0.020721435546875
1761914799592168200,8.161168212890624,-1.220428466796875,-2.0762481689453125,-0.012420654296875
1761914799602223000,8.17122314453125,-1.2534637451171875,-2.013885498046875,-0.0560455322265625
1761914799612279300,8.181279296875,-1.266693115234375,-1.9268341064453125,-0.1194915771484375
1761914799622334000,8.191333984375,-1.249053955078125,-1.7998504638671875,-0.199066162109375
1761914799632389000,8.20138916015625,-1.1852874755859375,-1.611114501953125,-0.2654571533203125
1761914799642444000,8.211444091796874,-1.10150146484375,-1.3952178955078125,-0.2820281982421875
1761914799652500200,8.221500244140625,-1.0053253173828125,-1.1661834716796875,-0.2467498779296875
1761914799662555100,8.23155517578125,-0.8267669677734375,-0.946075439453125,-0.1925506591796875
1761914799672610000,8.241610107421875,-0.6352996826171875,-0.7689361572265625,-0.1179656982421875
1761914799682665200,8.251665283203126,-0.4637603759765625,-0.6204833984375,-0.0317230224609375
1761914799692720000,8.26172021484375,-0.3222808837890625,-0.49176025390625,0.0274505615234375
1761914799702776300,8.2717763671875,-0.220977783203125,-0.3818817138671875,0.0543060302734375
1761914799712831000,8.2818310546875,-0.1693878173828125,-0.2972564697265625,0.0673980712890625
1761914799722886100,8.29188623046875,-0.162933349609375,-0.2279205322265625,0.080718994140625
1761914799732941000,8.301941162109374,-0.1566009521484375,-0.17529296875,0.0955047607421875
1761914799742997200,8.311997314453125,-0.1445159912109375,-0.1450958251953125,0.111114501953125
1761914799753052200,8.32205224609375,-0.1264495849609375,-0.13140869140625,0.1417999267578125
1761914799763107000,8.332107177734375,-0.1080322265625,-0.132781982421875,0.1896820068359375
1761914799773162200,8.342162353515626,-0.08514404296875,-0.128662109375,0.23101806640625
1761914799783218200,8.35221826171875,-0.0297393798828125,-0.1254730224609375,0.2569732666015625
1761914799793273000,8.362273193359375,0.0270538330078125,-0.1263580322265625,0.261138916015625
1761914799803328000,8.372327880859375,0.058685302734375,-0.1370697021484375,0.2496490478515625
1761914799813383200,8.382383056640625,0.0780029296875,-0.141845703125,0.220977783203125
1761914799823439000,8.392439208984374,0.0813140869140625,-0.136260986328125,0.171875
1761914799833494300,8.402494384765625,0.0764007568359375,-0.13525390625,0.1168212890625
1761914799843549000,8.412548828125,0.06304931640625,-0.138153076171875,0.066375732421875
1761914799853604000,8.42260400390625,0.0404815673828125,-0.1367645263671875,0.0320892333984375
1761914799863659300,8.4326591796875,0.013092041015625,-0.13958740234375,0.0224456787109375
1761914799873715200,8.442715087890624,-0.01116943359375,-0.1488037109375,0.0311431884765625
1761914799883770000,8.45277001953125,-0.019805908203125,-0.1712188720703125,0.05816650390625
1761914799893826000,8.462825927734375,-0.0334930419921875,-0.18798828125,0.0855865478515625
1761914799903881000,8.472880859375,-0.0736236572265625,-0.186614990234375,0.0943145751953125
1761914799913936100,8.48293603515625,-0.088775634765625,-0.185211181640625,0.089508056640625
1761914799923992000,8.492991943359375,-0.10888671875,-0.1915130615234375,0.084320068359375
1761914799934047200,8.503047119140625,-0.1309661865234375,-0.2469940185546875,0.1009368896484375
1761914799944102100,8.51310205078125,-0.1085357666015625,-0.3781585693359375,0.1613311767578125
1761914799954157000,8.523156982421876,-0.0728302001953125,-0.5509185791015625,0.2237396240234375
1761914799964213200,8.533213134765624,-0.0819091796875,-0.6973419189453125,0.2526397705078125
1761914799974268200,8.54326806640625,-0.1178741455078125,-0.78021240234375,0.2265167236328125
1761914799984323000,8.553322998046875,-0.1559295654296875,-0.914642333984375,0.18902587890625
1761914799994378000,8.5633779296875,-0.224517822265625,-1.154205322265625,0.1957550048828125
1761914800004434200,8.57343408203125,-0.3209075927734375,-1.356231689453125,0.2162322998046875
1761914800014489000,8.583489013671874,-0.4727325439453125,-1.4071044921875,0.1782684326171875
1761914800024544000,8.5935439453125,-0.56597900390625,-1.4256591796875,0.1355133056640625
1761914800034599200,8.60359912109375,-0.5340423583984375,-1.645751953125,0.20751953125
1761914800044654000,8.613654052734375,-0.62567138671875,-1.8605194091796875,0.3304595947265625
1761914800054710300,8.623710205078124,-0.7550506591796875,-1.9427490234375,0.400970458984375
1761914800064765200,8.63376513671875,-0.7973480224609375,-1.9863739013671875,0.4144744873046875
1761914800074820000,8.643820068359375,-0.8038177490234375,-2.0377655029296875,0.405303955078125
1761914800084875000,8.653875,-0.8498992919921875,-2.069610595703125,0.37847900390625
1761914800094931200,8.66393115234375,-0.90753173828125,-2.075592041015625,0.320526123046875
1761914800104986000,8.673986083984374,-0.9288177490234375,-2.080047607421875,0.23321533203125
1761914800115041000,8.684041015625,-0.95135498046875,-2.077545166015625,0.12969970703125
1761914800125096200,8.69409619140625,-1.001129150390625,-2.065948486328125,0.0520477294921875
1761914800135152000,8.704152099609376,-1.1220703125,-2.029205322265625,0.01275634765625
1761914800145207000,8.71420703125,-1.231781005859375,-1.9647979736328125,0.0030364990234375
1761914800155262200,8.72426220703125,-1.249542236328125,-1.86968994140625,-0.00201416015625
1761914800165317000,8.734317138671875,-1.2065277099609375,-1.7678375244140625,-0.0001983642578125
1761914800175372000,8.7443720703125,-1.1291656494140625,-1.6200103759765625,0.006561279296875
1761914800185428200,8.75442822265625,-0.999603271484375,-1.4055328369140625,0.0213470458984375
1761914800195483100,8.764483154296874,-0.82977294921875,-1.2047576904296875,0.04443359375
1761914800205538000,8.7745380859375,-0.662750244140625,-1.0177764892578125,0.0574951171875
1761914800215593200,8.78459326171875,-0.5021209716796875,-0.7994537353515625,0.027557373046875
1761914800225649400,8.7946494140625,-0.3621826171875,-0.6080780029296875,-0.0261993408203125
1761914800235704300,8.804704345703126,-0.2608795166015625,-0.497802734375,-0.06585693359375
1761914800245759500,8.814759521484374,-0.2070465087890625,-0.396331787109375,-0.0925750732421875
1761914800255814400,8.824814453125,-0.182098388671875,-0.28887939453125,-0.1152496337890625
1761914800265870300,8.834870361328125,-0.2035980224609375,-0.1973724365234375,-0.1216278076171875
1761914800275925500,8.844925537109376,-0.2443695068359375,-0.1577911376953125,-0.0926361083984375
1761914800285980400,8.85498046875,-0.25390625,-0.147979736328125,-0.0284881591796875
1761914800296035300,8.865035400390624,-0.23175048828125,-0.1488800048828125,0.051666259765625
1761914800306090200,8.87509033203125,-0.198699951171875,-0.1558685302734375,0.1297454833984375
1761914800316146400,8.885146484375,-0.15264892578125,-0.1614532470703125,0.1842041015625
1761914800326201300,8.895201416015626,-0.093231201171875,-0.15582275390625,0.203338623046875
1761914800336256500,8.905256591796874,-0.04034423828125,-0.1552886962890625,0.202178955078125
1761914800346311400,8.9153115234375,-0.00079345703125,-0.164703369140625,0.1864013671875
1761914800356367400,8.925367431640625,0.0376129150390625,-0.1791229248046875,0.1647491455078125
1761914800366422500,8.935422607421875,0.06024169921875,-0.1874542236328125,0.1407470703125
1761914800376477400,8.9454775390625,0.045501708984375,-0.1824798583984375,0.102447509765625
1761914800386532400,8.955532470703124,0.0115509033203125,-0.178924560546875,0.0676422119140625
1761914800396588300,8.96558837890625,-0.0336456298828125,-0.181610107421875,0.0385589599609375
1761914800406643500,8.9756435546875,-0.06744384765625,-0.1847686767578125,0.0209503173828125
1761914800416698400,8.985698486328126,-0.1053924560546875,-0.20245361328125,0.0289459228515625
1761914800426753500,8.99575341796875,-0.1478271484375,-0.2347412109375,0.052642822265625
1761914800436808400,9.005808349609374,-0.1882171630859375,-0.2595062255859375,0.0764312744140625
1761914800446864400,9.015864501953125,-0.230743408203125,-0.2728729248046875,0.0838470458984375
1761914800456919600,9.02591943359375,-0.2485504150390625,-0.28692626953125,0.0685882568359375
1761914800466974500,9.035974365234376,-0.2578582763671875,-0.310028076171875,0.0501708984375
1761914800477029400,9.046029296875,-0.26824951171875,-0.365447998046875,0.06005859375
1761914800487085300,9.056085205078125,-0.2790374755859375,-0.4607086181640625,0.0916900634765625
1761914800497140500,9.066140380859375,-0.265289306640625,-0.585662841796875,0.1251373291015625
1761914800507195400,9.0761953125,-0.2447662353515625,-0.7246246337890625,0.1480560302734375
1761914800517250300,9.086250244140626,-0.267669677734375,-0.83453369140625,0.1486358642578125
1761914800527306200,9.09630615234375,-0.327362060546875,-0.9138946533203125,0.119354248046875
1761914800537361400,9.106361328125,-0.395111083984375,-1.0057830810546875,0.0645751953125
1761914800547416600,9.11641650390625,-0.44500732421875,-1.16888427734375,0.0336761474609375
1761914800557471500,9.126471435546875,-0.5389404296875,-1.2644195556640625,0.0251312255859375
1761914800567526400,9.1365263671875,-0.665618896484375,-1.255889892578125,0.04638671875
1761914800577582300,9.146582275390625,-0.743011474609375,-1.3746795654296875,0.1630706787109375
1761914800587637500,9.156637451171875,-0.7837066650390625,-1.597259521484375,0.31231689453125
1761914800597692400,9.1666923828125,-0.8004608154296875,-1.7879791259765625,0.40716552734375
1761914800607747300,9.176747314453126,-0.841705322265625,-1.8997802734375,0.4459228515625
1761914800617803300,9.18680322265625,-0.913909912109375,-1.9777679443359375,0.44439697265625
1761914800627858400,9.1968583984375,-1.021392822265625,-2.033660888671875,0.41729736328125
1761914800637913300,9.206913330078125,-1.091705322265625,-2.0150299072265625,0.3410797119140625
1761914800647968300,9.21696826171875,-1.1204376220703125,-1.974853515625,0.2528839111328125
1761914800658024200,9.227024169921876,-1.129364013671875,-1.998016357421875,0.2042999267578125
1761914800668079400,9.237079345703124,-1.1352996826171875,-2.0402679443359375,0.185760498046875
1761914800678134500,9.247134521484375,-1.1224365234375,-2.0344696044921875,0.176513671875
1761914800688189400,9.257189453125,-1.086578369140625,-1.9857330322265625,0.158111572265625
1761914800698244400,9.267244384765625,-1.03076171875,-1.9182891845703125,0.1267242431640625
1761914800708300300,9.27730029296875,-0.9686126708984375,-1.827880859375,0.0935211181640625
1761914800718355500,9.28735546875,-0.8981781005859375,-1.656402587890625,0.054718017578125
1761914800728410400,9.297410400390625,-0.7990264892578125,-1.41180419921875,0.0246734619140625
1761914800738465300,9.30746533203125,-0.7302703857421875,-1.17352294921875,0.038482666015625
1761914800748521200,9.317521240234376,-0.6625213623046875,-0.98956298828125,0.0885009765625
1761914800758576400,9.327576416015624,-0.56884765625,-0.819854736328125,0.10693359375
1761914800768631600,9.337631591796875,-0.4889678955078125,-0.6954193115234375,0.0851898193359375
1761914800778686500,9.3476865234375,-0.4147186279296875,-0.5698394775390625,0.0304718017578125
1761914800788742400,9.357742431640625,-0.3360137939453125,-0.3935699462890625,-0.042938232421875
1761914800798797300,9.36779736328125,-0.3174896240234375,-0.2435455322265625,-0.0846710205078125
1761914800808852500,9.3778525390625,-0.353485107421875,-0.15557861328125,-0.0575714111328125
1761914800818907400,9.387907470703125,-0.346832275390625,-0.0813751220703125,0.0015716552734375
1761914800828962300,9.39796240234375,-0.29754638671875,-0.0738525390625,0.0810699462890625
1761914800839018200,9.408018310546876,-0.2275390625,-0.1195220947265625,0.16064453125
1761914800849073400,9.418073486328124,-0.13922119140625,-0.166351318359375,0.227325439453125
1761914800859128600,9.428128662109375,-0.0442352294921875,-0.1766357421875,0.2670135498046875
1761914800869183200,9.438183349609375,0.0249481201171875,-0.163787841796875,0.2762298583984375
1761914800879239400,9.448239501953125,0.0789337158203125,-0.1501312255859375,0.264862060546875
1761914800889294300,9.45829443359375,0.118133544921875,-0.15838623046875,0.2285308837890625
1761914800899349500,9.468349609375,0.1252288818359375,-0.179840087890625,0.16748046875
1761914800909404400,9.478404296875,0.0917816162109375,-0.2094573974609375,0.1080322265625
1761914800919460400,9.48846044921875,0.029083251953125,-0.238372802734375,0.0742340087890625
1761914800929515300,9.498515380859375,-0.0345916748046875,-0.261383056640625,0.05950927734375
1761914800939570400,9.5085703125,-0.0662078857421875,-0.2674102783203125,0.0482330322265625
1761914800949625600,9.51862548828125,-0.071441650390625,-0.2677764892578125,0.0420684814453125
1761914800959680300,9.52868017578125,-0.0768890380859375,-0.285186767578125,0.043060302734375
1761914800969736400,9.538736328125,-0.065704345703125,-0.294403076171875,0.0365447998046875
1761914800979791400,9.548791259765625,-0.0577850341796875,-0.296478271484375,0.026397705078125
1761914800989846500,9.558846435546876,-0.0835723876953125,-0.29571533203125,0.0104217529296875
1761914800999901200,9.568901123046874,-0.1236419677734375,-0.28656005859375,-0.0063934326171875
1761914801009957400,9.578957275390625,-0.1804046630859375,-0.2766571044921875,-0.012847900390625
1761914801020012300,9.58901220703125,-0.237213134765625,-0.280029296875,-0.0081939697265625
1761914801030067500,9.5990673828125,-0.2815704345703125,-0.3365325927734375,0.015716552734375
1761914801040122600,9.60912255859375,-0.2713623046875,-0.4744110107421875,0.0650482177734375
1761914801050178300,9.61917822265625,-0.22430419921875,-0.67095947265625,0.124053955078125
1761914801060233500,9.6292333984375,-0.224609375,-0.843841552734375,0.1516571044921875
1761914801070288400,9.639288330078125,-0.2689361572265625,-0.935394287109375,0.130645751953125
1761914801080343600,9.649343505859376,-0.3701324462890625,-0.98834228515625,0.0552520751953125
1761914801090398200,9.659398193359374,-0.4387969970703125,-1.161224365234375,0.0077972412109375
1761914801100454400,9.669454345703125,-0.4943695068359375,-1.3328857421875,-0.040191650390625
1761914801110509300,9.67950927734375,-0.604583740234375,-1.388519287109375,-0.1046600341796875
1761914801120564500,9.689564453125,-0.6833343505859375,-1.463287353515625,-0.0901031494140625
1761914801130619600,9.69961962890625,-0.747833251953125,-1.6604766845703125,0.0533599853515625
1761914801140675300,9.70967529296875,-0.8788604736328125,-1.7711334228515625,0.218536376953125
1761914801150730500,9.71973046875,-0.9897918701171875,-1.77508544921875,0.3305206298828125
1761914801160785400,9.729785400390625,-0.9873504638671875,-1.777435302734375,0.4097442626953125
1761914801170840600,9.739840576171876,-0.94677734375,-1.785675048828125,0.4301605224609375
1761914801180895200,9.749895263671876,-0.930023193359375,-1.8246002197265625,0.4019622802734375
1761914801190951400,9.759951416015625,-0.9100799560546875,-1.8722686767578125,0.3432769775390625
1761914801201006300,9.77000634765625,-0.907989501953125,-1.9344329833984375,0.2658843994140625
1761914801211056600,9.780056640625,-0.91815185546875,-1.972991943359375,0.204833984375
1761914801221111600,9.790111572265625,-0.9384307861328125,-1.9886474609375,0.1689605712890625
1761914801231167500,9.80016748046875,-0.9994659423828125,-1.98876953125,0.1650238037109375
1761914801241222700,9.81022265625,-1.0678558349609375,-1.9809417724609375,0.1853179931640625
1761914801251277600,9.820277587890626,-1.0891571044921875,-1.9051361083984375,0.1879425048828125
1761914801261332500,9.83033251953125,-1.0413818359375,-1.798309326171875,0.166900634765625
1761914801271388400,9.840388427734375,-0.9435577392578125,-1.664794921875,0.1425933837890625
1761914801281443600,9.850443603515625,-0.8004302978515625,-1.48675537109375,0.103302001953125
1761914801291498800,9.860498779296876,-0.639495849609375,-1.2940673828125,0.0652618408203125
1761914801301553700,9.8705537109375,-0.5287628173828125,-1.118896484375,0.0540924072265625
1761914801311608600,9.880608642578125,-0.4302215576171875,-0.94195556640625,0.05035400390625
1761914801321664500,9.89066455078125,-0.3213348388671875,-0.762603759765625,0.0346832275390625
1761914801331719700,9.9007197265625,-0.2572479248046875,-0.641082763671875,0.0258636474609375
1761914801341774600,9.910774658203126,-0.2343292236328125,-0.560882568359375,0.0376434326171875
1761914801351829500,9.92082958984375,-0.247802734375,-0.4918670654296875,0.061859130859375
1761914801361885400,9.930885498046875,-0.269683837890625,-0.4099884033203125,0.0891571044921875
1761914801371940600,9.940940673828125,-0.2814178466796875,-0.2984466552734375,0.10919189453125
1761914801381995800,9.950995849609376,-0.3006744384765625,-0.2038421630859375,0.1219940185546875
1761914801392050400,9.961050537109376,-0.3188018798828125,-0.1673583984375,0.14031982421875
1761914801402105600,9.971105712890624,-0.2548065185546875,-0.162628173828125,0.1618499755859375
1761914801412161500,9.98116162109375,-0.181121826171875,-0.155242919921875,0.184417724609375
1761914801422216700,9.991216796875,-0.14227294921875,-0.1330718994140625,0.1970672607421875
1761914801432271600,10.001271728515626,-0.0854644775390625,-0.13507080078125,0.2064666748046875
1761914801442326500,10.011326416015624,-0.0611572265625,-0.1354522705078125,0.1944732666015625
1761914801452382500,10.021382568359375,-0.195892333984375,-0.1749420166015625,0.18585205078125
1761914801462437600,10.031437744140625,-0.3437652587890625,-0.2476043701171875,0.18890380859375
1761914801472492800,10.041492919921875,-0.2949981689453125,-0.2558135986328125,0.1831512451171875
1761914801482547500,10.05154736328125,-0.261383056640625,-0.2324066162109375,0.1406707763671875
1761914801492603600,10.061603759765624,-0.3795318603515625,-0.2274322509765625,0.0562591552734375
1761914801502658600,10.071658447265625,-0.1746673583984375,-0.21746826171875,0.05853271484375
1761914801512713700,10.081713623046875,-0.0306549072265625,-0.2447357177734375,0.059906005859375
1761914801522768400,10.091768310546875,-0.0835113525390625,-0.2825927734375,0.02325439453125
1761914801532823600,10.101823486328126,-0.1192474365234375,-0.2492828369140625,0.004638671875
1761914801542879500,10.11187939453125,-0.10797119140625,-0.2056121826171875,0.03021240234375
1761914801552934700,10.1219345703125,-0.1031036376953125,-0.217254638671875,0.0581817626953125
1761914801562989800,10.13198974609375,-0.127471923828125,-0.276824951171875,0.0655059814453125
1761914801573044500,10.14204443359375,-0.144287109375,-0.334716796875,0.067901611328125
1761914801583100700,10.1521005859375,-0.150360107421875,-0.381988525390625,0.0831146240234375
1761914801593155600,10.162155517578125,-0.1526641845703125,-0.4534912109375,0.1159820556640625
1761914801603210800,10.172210693359375,-0.1082000732421875,-0.564605712890625,0.1925811767578125
1761914801613265400,10.182265380859375,-0.0789031982421875,-0.7470245361328125,0.2914886474609375
1761914801623320600,10.192320556640626,-0.2013397216796875,-0.8759002685546875,0.331024169921875
1761914801633376500,10.20237646484375,-0.3063507080078125,-0.87835693359375,0.2493743896484375
1761914801643431700,10.212431640625,-0.2816925048828125,-0.91949462890625,0.154754638671875
1761914801653486800,10.22248681640625,-0.3017730712890625,-1.0139617919921875,0.1081695556640625
1761914801663541500,10.23254150390625,-0.379913330078125,-1.0101776123046875,0.1009368896484375
1761914801673597700,10.24259765625,-0.4534454345703125,-0.990325927734375,0.16143798828125
1761914801683652600,10.252652587890625,-0.5422821044921875,-1.040008544921875,0.2790374755859375
1761914801693707800,10.262707763671875,-0.6331787109375,-1.123870849609375,0.3824615478515625
1761914801703762400,10.272762451171875,-0.680633544921875,-1.2231292724609375,0.4483795166015625
1761914801713818600,10.282818603515626,-0.60400390625,-1.274566650390625,0.4649658203125
1761914801723873500,10.29287353515625,-0.526031494140625,-1.315185546875,0.46630859375
1761914801733928700,10.3029287109375,-0.8397369384765625,-1.5706787109375,0.5561065673828125
1761914801743983600,10.312983642578125,-0.90032958984375,-1.7534637451171875,0.615081787109375
1761914801754038500,10.32303857421875,-0.754302978515625,-1.8255615234375,0.6128692626953125
1761914801764094500,10.333094482421876,-0.6885986328125,-1.8470458984375,0.563201904296875
1761914801774149600,10.343149658203124,-0.737823486328125,-1.7921142578125,0.4959869384765625
1761914801784204800,10.353204833984375,-0.721435546875,-1.6859893798828125,0.4229736328125
1761914801794259500,10.363259521484375,-0.7865142822265625,-1.65118408203125,0.4124755859375
1761914801804315600,10.373315673828126,-1.0066680908203125,-1.745941162109375,0.4658660888671875
1761914801814370600,10.38337060546875,-1.1149139404296875,-1.811248779296875,0.5243072509765625
1761914801824425700,10.39342578125,-1.1429290771484375,-1.746368408203125,0.489471435546875
1761914801834480600,10.403480712890625,-1.133392333984375,-1.6017608642578125,0.347564697265625
1761914801844535600,10.41353564453125,-1.0694122314453125,-1.4900665283203125,0.2000579833984375
1761914801854591500,10.423591552734376,-0.998016357421875,-1.406097412109375,0.0915679931640625
1761914801864646700,10.433646728515624,-0.9480438232421875,-1.2827606201171875,0.00018310546875
1761914801874701600,10.44370166015625,-0.8650665283203125,-1.134063720703125,-0.0599517822265625
1761914801884756500,10.453756591796875,-0.763885498046875,-0.98309326171875,-0.06951904296875
1761914801894812700,10.463812744140625,-0.708953857421875,-0.8878021240234375,-0.041412353515625
1761914801904867600,10.47386767578125,-0.7394561767578125,-0.911376953125,0.02288818359375
1761914801914922800,10.4839228515625,-0.7525787353515625,-0.9688568115234375,0.0764312744140625
1761914801924977700,10.493977783203125,-0.7262115478515625,-0.9286346435546875,0.1086578369140625
1761914801935033600,10.50403369140625,-0.63555908203125,-0.7998504638671875,0.1012725830078125
1761914801945088500,10.514088623046876,-0.5272674560546875,-0.6436920166015625,0.07568359375
1761914801955143700,10.524143798828124,-0.4791412353515625,-0.5043792724609375,0.0698394775390625
1761914801965198600,10.534198486328124,-0.4058074951171875,-0.406341552734375,0.071197509765625
1761914801975253500,10.54425341796875,-0.32904052734375,-0.3489837646484375,0.08526611328125
1761914801985309700,10.554309814453125,-0.224609375,-0.302642822265625,0.108428955078125
1761914801995364600,10.564364501953126,-0.062347412109375,-0.2158660888671875,0.2132720947265625
1761914802005419800,10.574419677734374,-0.4834442138671875,-0.1557769775390625,0.3767547607421875
1761914802015474400,10.584474365234374,-0.6952667236328125,-0.2402496337890625,0.249725341796875
1761914802025530600,10.594530517578125,-0.4340057373046875,-0.2648468017578125,0.2021636962890625
1761914802035585500,10.60458544921875,-0.2984619140625,-0.22552490234375,0.20928955078125
1761914802045640700,10.614640625,-0.211578369140625,-0.1735687255859375,0.19549560546875
1761914802055695600,10.624695556640624,-0.0895843505859375,-0.1508636474609375,0.194305419921875
1761914802065750500,10.63475048828125,0.0398406982421875,-0.14764404296875,0.1605377197265625
