time,seconds_elapsed,z,y,x
1761914791511544800,0.080544921875,0.3047488033771515,-0.006516166962683201,-0.009284917265176773
1761914791521599700,0.090599853515625,0.29182660579681396,-0.020693250000476837,-0.038353532552719116
1761914791531655700,0.10065576171875,0.2886079251766205,0.00979861244559288,-0.07801305502653122
1761914791541710800,0.1107109375,0.29335275292396545,0.049897778779268265,-0.11879494041204453
1761914791551766000,0.12076611328125,0.3063202202320099,0.08307383954524994,-0.1406049132347107
1761914791561821000,0.130821044921875,0.32016560435295105,0.13058751821517944,-0.14005640149116516
1761914791571876900,0.140876953125,0.3244945704936981,0.1713719666004181,-0.1271595060825348
1761914791581931800,0.150931884765625,0.3207787573337555,0.18614865839481354,-0.1090499758720398
1761914791591987000,0.160987060546875,0.3248840272426605,0.17315535247325897,-0.09938189387321472
1761914791602041900,0.171041748046875,0.3388335406780243,0.14254146814346313,-0.10444247722625732
1761914791612096800,0.1810966796875,0.35537710785865784,0.09614335000514984,-0.11882434785366058
1761914791622152700,0.191152587890625,0.3641018569469452,0.08110849559307098,-0.12555347383022308
1761914791632208000,0.201207763671875,0.36612266302108765,0.09760437905788422,-0.13069124519824982
1761914791642263000,0.211262939453125,0.3524320125579834,0.10163044929504395,-0.13680939376354218
1761914791652317700,0.221317626953125,0.34339481592178345,0.0934649333357811,-0.14503483474254608
1761914791662374000,0.231373779296875,0.33595702052116394,0.09907346963882446,-0.14353598654270172
1761914791672428800,0.2414287109375,0.33818742632865906,0.12185787409543991,-0.14168909192085266
1761914791682484000,0.25148388671875,0.33863475918769836,0.1557956039905548,-0.1312676966190338
1761914791692539000,0.261538818359375,0.3413914144039154,0.20111487805843353,-0.11279413849115372
1761914791702593800,0.27159375,0.3507618308067322,0.24637949466705322,-0.08447426557540894
1761914791712649700,0.281649658203125,0.35644394159317017,0.2618468403816223,-0.04064662754535675
1761914791722705000,0.291704833984375,0.33855122327804565,0.2328689843416214,0.014161285944283009
1761914791732760000,0.301760009765625,0.30727532505989075,0.18547776341438293,0.06721597909927368
1761914791742814700,0.311814697265625,0.27491462230682373,0.12887851893901825,0.0907653197646141
1761914791752870000,0.321869873046875,0.26432645320892334,0.04960739240050316,0.07604709267616272
1761914791762925800,0.33192578125,0.25982165336608887,0.004930219613015652,0.04826986789703369
1761914791772981000,0.34198095703125,0.254136860370636,0.004908647853881121,0.01619955152273178
1761914791783035600,0.35203564453125,0.24108703434467316,0.03623837232589722,0.0066694533452391624
1761914791793090800,0.3620908203125,0.229312926530838,0.07364539802074432,0.01799774169921875
1761914791803146800,0.372146728515625,0.22711414098739624,0.12283880263566971,0.05043746531009674
1761914791813202000,0.382201904296875,0.222794771194458,0.16252176463603973,0.09086531400680542
1761914791823257000,0.392257080078125,0.22059766948223114,0.20054256916046143,0.13083191215991974
1761914791833311700,0.402311767578125,0.2036977857351303,0.22826048731803894,0.15118272602558136
1761914791843367000,0.412366943359375,0.17992202937602997,0.2294231504201889,0.14945541322231293
1761914791853422800,0.4224228515625,0.15704602003097534,0.1918904185295105,0.1386919766664505
1761914791863478000,0.43247802734375,0.13586542010307312,0.13063646852970123,0.13932886719703674
1761914791873532700,0.44253271484375,0.11419660598039627,0.06444066017866135,0.15337304770946503
1761914791883587800,0.452587890625,0.08816088736057281,0.015485060401260853,0.15975281596183777
1761914791893643800,0.462643798828125,0.05611667037010193,-0.04220087453722954,0.13868507742881775
1761914791903699000,0.472698974609375,0.028705574572086334,-0.09367774426937103,0.09162894636392593
1761914791913753900,0.48275390625,0.007593897171318531,-0.0933869257569313,0.033319033682346344
1761914791923808800,0.492808837890625,-0.014890401624143124,-0.02446659468114376,-0.01936192810535431
1761914791933864000,0.502864013671875,-0.026713239029049873,0.06385926902294159,-0.06337065994739532
1761914791943919900,0.512919921875,-0.035308338701725006,0.15816213190555573,-0.08677175641059875
1761914791953975000,0.52297509765625,-0.04389943182468414,0.2311077117919922,-0.089349165558815
1761914791964029700,0.53302978515625,-0.04649662226438522,0.25789594650268555,-0.08907249569892883
1761914791974084900,0.5430849609375,-0.05124637112021446,0.23258048295974731,-0.08590946346521378
1761914791984140000,0.55314013671875,-0.05199822783470154,0.18676844239234924,-0.08163254708051682
1761914791994196000,0.563196044921875,-0.042946409434080124,0.14717043936252594,-0.06371612846851349
1761914792004251000,0.5732509765625,-0.0246492400765419,0.11749833077192307,-0.03406719118356705
1761914792014305800,0.583305908203125,0.008650394156575203,0.11853057146072388,-0.00017127487808465958
1761914792024361000,0.59336083984375,0.048629697412252426,0.1508227437734604,0.028186408802866936
1761914792034417000,0.6034169921875,0.09450104832649231,0.17933163046836853,0.04986800253391266
1761914792044472000,0.61347216796875,0.12889450788497925,0.18449386954307556,0.051177989691495895
1761914792054526700,0.623526611328125,0.14230193197727203,0.1639811396598816,0.05714879557490349
1761914792064582000,0.633581787109375,0.1339028775691986,0.1140931099653244,0.057098258286714554
1761914792074637000,0.643636962890625,0.09765459597110748,0.02880137786269188,0.059748370200395584
1761914792084693000,0.65369287109375,0.047489017248153687,-0.0680265873670578,0.06824848055839539
1761914792094748000,0.663747802734375,0.00033615296706557274,-0.15679213404655457,0.0898754745721817
1761914792104802800,0.673802734375,-0.04283267259597778,-0.2129545509815216,0.13086801767349243
1761914792114858000,0.68385791015625,-0.05783851817250252,-0.2457745522260666,0.17970266938209534
1761914792124913000,0.693912841796875,-0.05034450814127922,-0.2641117572784424,0.2300187349319458
1761914792134968800,0.70396875,-0.02896890975534916,-0.2657693326473236,0.27779877185821533
1761914792145023700,0.714023681640625,-0.004932934883981943,-0.258920282125473,0.34278517961502075
1761914792155079000,0.724078857421875,0.0025340362917631865,-0.23498910665512085,0.4270521402359009
1761914792165134000,0.734134033203125,-0.00857195258140564,-0.19156891107559204,0.5078220963478088
1761914792175190000,0.74418994140625,-0.017402460798621178,-0.1536920964717865,0.5586794018745422
1761914792185244700,0.75424462890625,-0.013992644846439362,-0.1475302129983902,0.5716298222541809
1761914792195299800,0.7642998046875,0.018166888505220413,-0.11142441630363464,0.5697736144065857
1761914792205351000,0.774350830078125,0.07789012044668198,0.0008058106177486479,0.6278488039970398
1761914792215405800,0.78440576171875,0.14325368404388428,0.27395930886268616,0.7839140295982361
1761914792225462000,0.7944619140625,0.1886913925409317,0.5909798741340637,1.0084961652755737
1761914792235516700,0.8045166015625,0.1941375583410263,0.9260100722312927,1.2091871500015259
1761914792245571800,0.81457177734375,0.17405657470226288,0.8422479033470154,1.3022184371948242
1761914792255627000,0.824626953125,0.19716748595237732,0.5015025734901428,1.3682187795639038
1761914792265682000,0.834681884765625,0.27469879388809204,0.21417099237442017,1.431971788406372
1761914792275737900,0.84473779296875,0.3548562228679657,0.04271215200424194,1.4301906824111938
1761914792285792800,0.854792724609375,0.3780194818973541,-0.09822680056095123,1.2734463214874268
1761914792295848000,0.864847900390625,0.4052380323410034,0.1857452690601349,1.1112403869628906
1761914792305902800,0.87490283203125,0.39222365617752075,0.7362551093101501,1.0496985912322998
1761914792315959000,0.884958984375,0.18307338654994965,0.9978377223014832,1.040597677230835
1761914792326013700,0.895013671875,-0.1314217746257782,0.9569219946861267,1.1312485933303833
1761914792336068900,0.90506884765625,-0.2652677297592163,0.8883618116378784,1.352759599685669
1761914792346124000,0.9151240234375,-0.209618479013443,0.7644605040550232,1.5705848932266235
1761914792356178700,0.9251787109375,-0.04905703291296959,0.6545398831367493,1.7191094160079956
1761914792366235000,0.93523486328125,0.19667565822601318,0.5701372623443604,1.8031560182571411
1761914792376289800,0.945289794921875,0.5068503022193909,0.42459842562675476,1.800157904624939
1761914792386345000,0.955344970703125,0.8528645038604736,0.21718662977218628,1.7332367897033691
1761914792396399900,0.96539990234375,1.1668509244918823,-0.02699887566268444,1.5554168224334717
1761914792406454800,0.975454833984375,1.3008334636688232,-0.24253153800964355,1.2056695222854614
1761914792416510700,0.9855107421875,1.1444090604782104,-0.41027313470840454,0.7001091241836548
1761914792426566000,0.99556591796875,0.6869170069694519,-0.5581735372543335,0.08074092864990234
1761914792436621000,1.00562109375,0.06510752439498901,-0.6238132119178772,-0.5268387794494629
1761914792446675700,1.01567578125,-0.5498459935188293,-0.6587446928024292,-1.0487902164459229
1761914792456731000,1.02573095703125,-1.0414708852767944,-0.6732339262962341,-1.4462963342666626
1761914792466786800,1.035786865234375,-1.3604888916015625,-0.6431963443756104,-1.7006590366363525
1761914792476842000,1.045842041015625,-1.4463545083999634,-0.5992027521133423,-1.7862428426742554
1761914792486896600,1.055896728515625,-1.2933987379074097,-0.4930925667285919,-1.7037360668182373
1761914792496951800,1.065951904296875,-1.004353642463684,-0.22895173728466034,-1.455838680267334
1761914792507007000,1.076007080078125,-0.6914278864860535,0.20815785229206085,-1.0967085361480713
1761914792517063000,1.08606298828125,-0.47157010436058044,0.6866157650947571,-0.7396639585494995
1761914792527118000,1.0961181640625,-0.37353459000587463,1.028422474861145,-0.44878536462783813
1761914792537172700,1.1061728515625,-0.3333626687526703,1.1430199146270752,-0.2038789540529251
1761914792547228000,1.116227783203125,-0.30882564187049866,1.0677158832550049,-0.00007947534322738647
1761914792557283800,1.126283935546875,-0.2885110378265381,0.8841848373413086,0.18569517135620117
1761914792567339000,1.136339111328125,-0.2799748480319977,0.6392799019813538,0.3258146643638611
1761914792577393700,1.1463935546875,-0.29502010345458984,0.3770919144153595,0.42271140217781067
1761914792587448800,1.15644873046875,-0.3068137466907501,0.05021202191710472,0.450308233499527
1761914792597504000,1.16650390625,-0.3324456214904785,-0.2744414210319519,0.39657843112945557
1761914792607560000,1.176559814453125,-0.3740774691104889,-0.526305079460144,0.31280308961868286
1761914792617615000,1.186614990234375,-0.44505417346954346,-0.7190212607383728,0.25855904817581177
1761914792627669800,1.196669677734375,-0.5196316242218018,-0.796871542930603,0.2676091492176056
1761914792637725000,1.206724853515625,-0.5750488042831421,-0.7800217270851135,0.33772486448287964
1761914792647779800,1.21677978515625,-0.6056227087974548,-0.7241436839103699,0.4240448772907257
1761914792657836000,1.2268359375,-0.6152287125587463,-0.6537656784057617,0.48458412289619446
1761914792667890700,1.236890625,-0.6285454034805298,-0.5954209566116333,0.5079487562179565
1761914792677945900,1.24694580078125,-0.6170123219490051,-0.5360825061798096,0.5125323534011841
1761914792688001000,1.2570009765625,-0.5849690437316895,-0.4373023808002472,0.5232972502708435
1761914792698056000,1.267055908203125,-0.5398854613304138,-0.2699677348136902,0.5554802417755127
1761914792708112000,1.27711181640625,-0.4579833447933197,-0.10996105521917343,0.6017811298370361
1761914792718166800,1.287166748046875,-0.28664326667785645,-0.09571873396635056,0.5721441507339478
1761914792728222000,1.297221923828125,-0.03709084540605545,-0.3034313917160034,0.47488102316856384
1761914792738276900,1.30727685546875,0.2559162676334381,-0.4448851943016052,0.4173085391521454
1761914792748331800,1.317331787109375,0.5180466771125793,-0.3737359941005707,0.4565255045890808
1761914792758387700,1.3273876953125,0.6197749376296997,-0.4071618616580963,0.4893995523452759
1761914792768443000,1.33744287109375,0.6006172299385071,-0.7022460103034973,0.34748712182044983
1761914792778498000,1.347498046875,0.5781287550926208,-1.391028881072998,-0.06678860634565353
1761914792788552700,1.357552734375,0.5656681656837463,-2.2509894371032715,-0.5473949909210205
1761914792798609000,1.36760888671875,0.49185141921043396,-2.8424108028411865,-0.7770656943321228
1761914792808663800,1.377663818359375,0.2661273181438446,-2.5863492488861084,-0.5631958246231079
1761914792818719000,1.387718994140625,-0.07834378629922867,-1.389209508895874,-0.034158557653427124
1761914792828774000,1.39777392578125,-0.3179810643196106,0.06157967075705528,0.42923831939697266
1761914792838828800,1.407828857421875,-0.36468011140823364,0.8759626150131226,0.4681122303009033
1761914792848884700,1.417884765625,-0.20111288130283356,0.9072467088699341,0.1767074465751648
1761914792858940000,1.42793994140625,0.14862407743930817,0.5998963117599487,-0.11146975308656693
1761914792868995000,1.4379951171875,0.5018895268440247,0.1477535516023636,-0.23901033401489258
1761914792879049700,1.4480498046875,0.750969648361206,-0.25442957878112793,-0.23903802037239075
1761914792889105000,1.45810498046875,0.9409903287887573,-0.45439937710762024,-0.16878879070281982
1761914792899160800,1.468160888671875,1.0916204452514648,-0.570631742477417,-0.12709778547286987
1761914792909216000,1.478216064453125,1.190717339515686,-0.6983994245529175,-0.20440098643302917
1761914792919270700,1.488270751953125,1.2237777709960938,-0.7789246439933777,-0.4145808815956116
1761914792929325800,1.498325927734375,1.1626665592193604,-0.5832606554031372,-0.6615526676177979
1761914792939381000,1.508381103515625,1.0045853853225708,-0.13073787093162537,-0.9186723232269287
1761914792949437000,1.51843701171875,0.7548084259033203,0.4981744587421417,-1.1641275882720947
1761914792959492000,1.5284921875,0.4342852830886841,1.0369194746017456,-1.3972524404525757
1761914792969546800,1.538546630859375,0.08251170068979263,1.2468172311782837,-1.5965275764465332
1761914792979602000,1.548601806640625,-0.1861322820186615,1.0993452072143555,-1.7083169221878052
1761914792989656800,1.55865673828125,-0.33763808012008667,0.7006218433380127,-1.6975150108337402
1761914792999713000,1.568713134765625,-0.4215766489505768,0.20229966938495636,-1.5991394519805908
1761914793009767700,1.578767578125,-0.4694893956184387,-0.298895925283432,-1.4623407125473022
1761914793019822800,1.58882275390625,-0.5360002517700195,-0.7133700847625732,-1.287601113319397
1761914793029878000,1.5988779296875,-0.5944246053695679,-0.9945061802864075,-1.0869301557540894
1761914793039933000,1.608932861328125,-0.6110347509384155,-1.087140440940857,-0.859076201915741
1761914793049988900,1.61898876953125,-0.5805229544639587,-0.9157236814498901,-0.606304943561554
1761914793060043800,1.629043701171875,-0.5093606114387512,-0.602450430393219,-0.32328686118125916
1761914793070099000,1.639098876953125,-0.402493953704834,-0.24699249863624573,0.01128300093114376
1761914793080153900,1.64915380859375,-0.26294246315956116,0.04674378037452698,0.3076685965061188
1761914793090208800,1.659208740234375,-0.0755988210439682,0.29815563559532166,0.4707779288291931
1761914793100264700,1.6692646484375,0.1203581690788269,0.4960878789424896,0.49125760793685913
1761914793110319900,1.67931982421875,0.271259069442749,0.5650586485862732,0.3738633394241333
1761914793120375000,1.689375,0.3140970766544342,0.4836636781692505,0.1742146760225296
1761914793130430000,1.699429931640625,0.24678641557693481,0.2786490321159363,-0.031674548983573914
1761914793140484900,1.70948486328125,0.11208052933216095,0.01942708157002926,-0.188034325838089
1761914793150540800,1.719540771484375,-0.07650686055421829,-0.19071774184703827,-0.2799453139305115
1761914793160596000,1.729595947265625,-0.25101447105407715,-0.32634350657463074,-0.2887862026691437
1761914793170651000,1.73965087890625,-0.3892112076282501,-0.3219594657421112,-0.24567845463752747
1761914793180705800,1.749705810546875,-0.4785301685333252,-0.14994217455387115,-0.15770386159420013
1761914793190761000,1.759760986328125,-0.5095783472061157,0.10790310055017471,-0.06560114026069641
1761914793200817000,1.76981689453125,-0.4744187593460083,0.31098777055740356,0.02720309980213642
1761914793210876200,1.779876220703125,-0.41001713275909424,0.44628381729125977,0.11420377343893051
1761914793220931300,1.789931396484375,-0.3661879003047943,0.5036203265190125,0.2055339515209198
1761914793230986200,1.799986328125,-0.35684850811958313,0.5206604599952698,0.2867189645767212
1761914793241041200,1.810041259765625,-0.3605271279811859,0.4697571098804474,0.35344821214675903
1761914793251097000,1.82009716796875,-0.35271206498146057,0.30451422929763794,0.3981103301048279
1761914793261152300,1.83015234375,-0.29632946848869324,0.08612625300884247,0.4392761290073395
1761914793271207400,1.84020751953125,-0.1419886201620102,0.040868669748306274,0.5336406826972961
1761914793281262000,1.850261962890625,0.12423934042453766,0.48165008425712585,0.6760016083717346
1761914793291317200,1.860317138671875,0.4136587083339691,1.039670467376709,0.7294024229049683
1761914793301373200,1.870373291015625,0.5468684434890747,1.0541913509368896,0.5065203309059143
1761914793311428400,1.880428466796875,0.5155079960823059,0.2775057256221771,-0.05658311769366264
1761914793321483000,1.89048291015625,0.40010786056518555,-0.9998536705970764,-0.7338470816612244
1761914793331538200,1.9005380859375,0.3097979426383972,-1.9018399715423584,-1.1013305187225342
1761914793341593300,1.91059326171875,0.19152377545833588,-1.9859788417816162,-1.0016276836395264
1761914793351649300,1.920649169921875,-0.06805340200662613,-1.046012043952942,-0.4627532362937927
1761914793361704400,1.930704345703125,-0.3564351201057434,0.3217671811580658,0.21428728103637695
1761914793371759000,1.940759033203125,-0.6039263010025024,1.3396427631378174,0.6517836451530457
1761914793381814300,1.950814208984375,-0.6065873503684998,1.8530685901641846,0.7283362150192261
1761914793391869200,1.960869140625,-0.397495836019516,1.826356053352356,0.5084086060523987
1761914793401925400,1.97092529296875,-0.06077587977051735,1.270370602607727,0.12086457759141922
1761914793411980000,1.98097998046875,0.2711300849914551,0.5707041025161743,-0.1841394007205963
1761914793422035200,1.99103515625,0.5606876015663147,0.1481621414422989,-0.2377091646194458
1761914793432090400,2.00109033203125,0.8116706013679504,0.022876674309372902,-0.06934362649917603
1761914793442145300,2.011145263671875,0.963982105255127,0.0665927305817604,0.22663849592208862
1761914793452201200,2.021201171875,0.9834011197090149,0.135914146900177,0.5294655561447144
1761914793462256000,2.031256103515625,0.936241090297699,0.0935983881354332,0.7360631823539734
1761914793472311300,2.041311279296875,0.8426917791366577,0.022708479315042496,0.8627145886421204
1761914793482366200,2.0513662109375,0.7392594218254089,0.031536322087049484,0.9284312725067139
1761914793492421000,2.061421142578125,0.6547930240631104,0.15313510596752167,0.9005011320114136
1761914793502477000,2.07147705078125,0.5783411264419556,0.31835654377937317,0.7342540621757507
1761914793512532200,2.0815322265625,0.480092853307724,0.5117214918136597,0.4640011191368103
1761914793522587400,2.09158740234375,0.3634487986564636,0.6198394298553467,0.1120944693684578
1761914793532642000,2.10164208984375,0.21774935722351074,0.4949355721473694,-0.3325549066066742
1761914793542697200,2.111697265625,0.06579232960939407,0.2031806856393814,-0.803711473941803
1761914793552753200,2.121753173828125,-0.06987674534320831,-0.014449403621256351,-1.1740763187408447
1761914793562808300,2.131808349609375,-0.1748654842376709,0.006201546173542738,-1.3651496171951294
1761914793572863200,2.14186328125,-0.2563207149505615,0.17094366252422333,-1.4180883169174194
1761914793582918100,2.151918212890625,-0.3741445541381836,0.42275193333625793,-1.353181004524231
1761914793592973300,2.161973388671875,-0.49562546610832214,0.7472429275512695,-1.1918586492538452
1761914793603029200,2.172029296875,-0.5683487057685852,1.0837730169296265,-0.9667904376983643
1761914793613084400,2.18208447265625,-0.5787644386291504,1.3652321100234985,-0.6986598372459412
1761914793623139000,2.19213916015625,-0.5404242277145386,1.5011895895004272,-0.4082964360713959
1761914793633194200,2.2021943359375,-0.47511276602745056,1.4672069549560547,-0.1375839114189148
1761914793643249200,2.212249267578125,-0.3957095444202423,1.2392574548721313,0.0633678212761879
1761914793653305300,2.222305419921875,-0.2951474189758301,0.8782514929771423,0.18283113837242126
1761914793663360300,2.2323603515625,-0.1534225046634674,0.47345343232154846,0.21948102116584778
1761914793673415200,2.242415283203125,-0.006731770932674408,0.07674670219421387,0.20982444286346436
1761914793683470300,2.25247021484375,0.11455417424440384,-0.2695646286010742,0.17670564353466034
1761914793693525200,2.262525146484375,0.1737666130065918,-0.5263471007347107,0.11798842251300812
1761914793703581400,2.27258154296875,0.18923504650592804,-0.6639456748962402,0.07920295000076294
1761914793713636000,2.282635986328125,0.16627779603004456,-0.6600923538208008,0.09594272077083588
1761914793723691300,2.292691162109375,0.11263374239206314,-0.4956013858318329,0.17474564909934998
1761914793733746200,2.30274609375,0.04180167615413666,-0.22670532763004303,0.30980002880096436
1761914793743801300,2.31280126953125,-0.0373661108314991,0.06574118882417679,0.48578572273254395
1761914793753857000,2.32285693359375,-0.12627744674682617,0.3223555088043213,0.6813937425613403
1761914793763912200,2.332912109375,-0.22818489372730255,0.475962370634079,0.8768455386161804
1761914793773967400,2.34296728515625,-0.30548277497291565,0.47451475262641907,1.0331405401229858
1761914793784022300,2.353022216796875,-0.3721744418144226,0.32271644473075867,1.1366479396820068
1761914793794077200,2.3630771484375,-0.4120776951313019,0.029562247917056084,1.21901273727417
1761914793804133000,2.373133056640625,-0.4074414074420929,-0.3397130072116852,1.2929301261901855
1761914793814188300,2.383188232421875,-0.34772005677223206,-0.6951584219932556,1.3763962984085083
1761914793824243200,2.3932431640625,-0.19260667264461517,-0.8030542731285095,1.4547944068908691
1761914793834298000,2.403298095703125,0.10524178296327591,-0.638608455657959,1.4602621793746948
1761914793844353300,2.413353271484375,0.48886531591415405,-0.4704517424106598,1.3153773546218872
1761914793854409200,2.4234091796875,0.7154850959777832,-0.595321536064148,1.0068477392196655
1761914793864464400,2.43346435546875,0.6047188639640808,-0.8550897240638733,0.6467387676239014
1761914793874519300,2.443519287109375,0.2631303369998932,-0.9992665648460388,0.3487749397754669
1761914793884574200,2.45357421875,-0.09774156659841537,-0.9448959827423096,0.09189759194850922
1761914793894629000,2.463629150390625,-0.3794066309928894,-0.6995601654052734,-0.09069759398698807
1761914793904685300,2.473685302734375,-0.6643584370613098,-0.5037272572517395,-0.12637808918952942
1761914793914740200,2.483740234375,-0.9304735064506531,-0.36641889810562134,0.07760676741600037
1761914793924795100,2.493795166015625,-1.0895496606826782,-0.40779322385787964,0.491463840007782
1761914793934850300,2.503850341796875,-1.0693094730377197,-0.441969096660614,0.9739019870758057
1761914793944905200,2.5139052734375,-0.7756600379943848,-0.18502360582351685,1.3617496490478516
1761914793954961400,2.52396142578125,-0.2680155038833618,0.2430698722600937,1.5227433443069458
1761914793965016000,2.53401611328125,0.17440107464790344,0.5393574833869934,1.3882228136062622
1761914793975071200,2.5440712890625,0.44505196809768677,0.5164186954498291,1.0393726825714111
1761914793985126100,2.554126220703125,0.5707268118858337,0.27275463938713074,0.6276862621307373
1761914793995181300,2.564181396484375,0.5570648312568665,-0.15933732688426971,0.25506728887557983
1761914794005237200,2.5742373046875,0.40549930930137634,-0.5451180338859558,-0.021450862288475037
1761914794015292200,2.584292236328125,0.19545447826385498,-0.7591726779937744,-0.2157297283411026
1761914794025347300,2.594347412109375,0.07602554559707642,-0.8195161819458008,-0.3809266686439514
1761914794035402200,2.60440234375,0.15036362409591675,-0.7706276774406433,-0.5346064567565918
1761914794045457200,2.61445703125,0.3272654116153717,-0.600148618221283,-0.6397193074226379
1761914794055513000,2.62451318359375,0.4104051887989044,-0.24435049295425415,-0.6551100015640259
1761914794065568300,2.634568359375,0.3265206515789032,0.08744422346353531,-0.6151654720306396
1761914794075623200,2.644623046875,0.1563652902841568,0.30481278896331787,-0.5318113565444946
1761914794085678300,2.65467822265625,-0.018962053582072258,0.360726922750473,-0.4468756914138794
1761914794095733200,2.664733154296875,-0.146859809756279,0.21764184534549713,-0.4328904449939728
1761914794105789200,2.6747890625,-0.27933236956596375,-0.14965413510799408,-0.6074585914611816
1761914794115844400,2.68484423828125,-0.38917291164398193,-0.5793938040733337,-1.0086543560028076
1761914794125899300,2.694899169921875,-0.4718227684497833,-0.867124080657959,-1.4687167406082153
1761914794135954200,2.7049541015625,-0.5782309770584106,-0.9502147436141968,-1.7438527345657349
1761914794146009000,2.715009033203125,-0.6963486075401306,-0.9055804014205933,-1.7259187698364258
1761914794156065300,2.725065185546875,-0.7554913759231567,-0.7096433639526367,-1.3932992219924927
1761914794166120200,2.7351201171875,-0.6748801469802856,-0.34719911217689514,-0.8140944242477417
1761914794176175400,2.74517529296875,-0.49761760234832764,0.05892838537693024,-0.13001388311386108
1761914794186230300,2.755230224609375,-0.2745344638824463,0.5041031837463379,0.5507561564445496
1761914794196285200,2.76528515625,-0.019181713461875916,0.8012151718139648,1.0792855024337769
1761914794206338000,2.775338134765625,0.16593754291534424,0.799321174621582,1.362541913986206
1761914794216393200,2.785393310546875,0.2614893615245819,0.6185389757156372,1.4182329177856445
1761914794226448100,2.7954482421875,0.3020668923854828,0.3254091441631317,1.2676562070846558
1761914794236503000,2.8055029296875,0.28139829635620117,0.04977075010538101,0.9860048294067383
1761914794246558200,2.81555810546875,0.21886911988258362,-0.20528151094913483,0.6647375822067261
1761914794256614100,2.8256142578125,0.09827791899442673,-0.2891439199447632,0.3749324083328247
1761914794266669300,2.83566943359375,-0.06293760240077972,-0.16422833502292633,0.17714476585388184
1761914794276724200,2.84572412109375,-0.2209228277206421,0.07377059757709503,0.050062939524650574
1761914794286779100,2.855779052734375,-0.35642844438552856,0.34492671489715576,-0.012181526981294155
1761914794296834300,2.865834228515625,-0.461647093296051,0.593102216720581,0.0017254743725061417
1761914794306890200,2.87589013671875,-0.5331319570541382,0.7550336122512817,0.10645348578691483
1761914794316945200,2.885945068359375,-0.555462658405304,0.7680923938751221,0.2744544744491577
1761914794327000000,2.896,-0.5341845154762268,0.6518834829330444,0.4811141788959503
1761914794337055200,2.90605517578125,-0.4955466091632843,0.47863346338272095,0.6793088912963867
1761914794347110100,2.916110107421875,-0.4627007842063904,0.30634400248527527,0.8118121027946472
1761914794357166000,2.926166015625,-0.4240941107273102,0.11641395837068558,0.8499894738197327
1761914794367221000,2.936220947265625,-0.36188000440597534,-0.0981191098690033,0.8119770884513855
1761914794377276200,2.946276123046875,-0.2551265060901642,-0.24223186075687408,0.7511109709739685
1761914794387331300,2.956331298828125,-0.053413912653923035,-0.1631825864315033,0.6999447345733643
1761914794397386000,2.966385986328125,0.24468272924423218,0.06753968447446823,0.597938060760498
1761914794407442200,2.976442138671875,0.4822380244731903,0.21386386454105377,0.38858622312545776
1761914794417497000,2.9864970703125,0.578855037689209,0.10787034034729004,0.0531124621629715
1761914794427552300,2.99655224609375,0.5590522885322571,-0.3575625717639923,-0.37392354011535645
1761914794437607200,3.006607177734375,0.5194904804229736,-0.8135129809379578,-0.7636041045188904
1761914794447662000,3.016662109375,0.49793702363967896,-1.010241985321045,-1.0250808000564575
1761914794457718000,3.026718017578125,0.3624620735645294,-0.9201632738113403,-1.1011621952056885
1761914794467773200,3.036773193359375,-0.03159281983971596,-0.6809874773025513,-1.019881248474121
1761914794477828400,3.046828369140625,-0.6230975985527039,-0.721505343914032,-0.9160789251327515
1761914794487883000,3.056883056640625,-0.993023157119751,-0.7792733311653137,-0.731186032295227
1761914794497938200,3.066938232421875,-0.8637170791625977,-0.4721764028072357,-0.3417644202709198
1761914794507994000,3.076994140625,-0.38086310029029846,-0.13849402964115143,0.07579020410776138
1761914794518049300,3.08704931640625,0.11915533989667892,-0.10064495354890823,0.3121423125267029
1761914794528104200,3.097104248046875,0.400541752576828,-0.2608969509601593,0.3381730914115906
1761914794538159000,3.1071591796875,0.5117537379264832,-0.4681950807571411,0.18724872171878815
1761914794548214300,3.11721435546875,0.5330203771591187,-0.7560366988182068,-0.053821153938770294
1761914794558270200,3.127270263671875,0.4944262206554413,-1.0383647680282593,-0.30033180117607117
1761914794568325000,3.1373251953125,0.3939419686794281,-1.1032191514968872,-0.49026551842689514
1761914794578380000,3.147380126953125,0.288554847240448,-0.9574777483940125,-0.6563060283660889
1761914794588435200,3.157435302734375,0.2145565301179886,-0.6541801691055298,-0.791824221611023
1761914794598490000,3.167489990234375,0.17702984809875488,-0.33632758259773254,-0.8634377121925354
1761914794608546300,3.17754638671875,0.11220265179872513,-0.09681566804647446,-0.8433561325073242
1761914794618601000,3.18760107421875,0.03487960994243622,0.05507194250822067,-0.7367386221885681
1761914794628656000,3.19765625,-0.009431129321455956,0.14901387691497803,-0.5873499512672424
1761914794638711300,3.207711181640625,-0.019522355869412422,0.17233829200267792,-0.47323793172836304
1761914794648766000,3.217765869140625,-0.024533359333872795,0.09991761296987534,-0.46516427397727966
1761914794658822100,3.227822265625,-0.0665353536605835,-0.004689403809607029,-0.5520485639572144
1761914794668877000,3.237876953125,-0.15253548324108124,-0.04427462816238403,-0.6750404834747314
1761914794678932200,3.24793212890625,-0.27578848600387573,0.007117541506886482,-0.7914062738418579
1761914794688987100,3.257987060546875,-0.4345179498195648,0.1595691293478012,-0.8462306261062622
1761914794699042000,3.2680419921875,-0.5908522605895996,0.3585864007472992,-0.8171453475952148
1761914794709098000,3.278097900390625,-0.6729891896247864,0.535402774810791,-0.6832703351974487
1761914794719153200,3.288153076171875,-0.6683648228645325,0.7063767313957214,-0.4089471697807312
1761914794729208300,3.298208251953125,-0.5743898749351501,0.8164204359054565,-0.05243857949972153
1761914794739263000,3.308262939453125,-0.40490272641181946,0.8392526507377625,0.30132028460502625
1761914794749319200,3.318319091796875,-0.19575297832489014,0.7484591007232666,0.5593238472938538
1761914794759374000,3.3283740234375,0.01774013228714466,0.5688126683235168,0.6841813325881958
1761914794769429200,3.33842919921875,0.18959738314151764,0.31083062291145325,0.6697366237640381
1761914794779484200,3.348484130859375,0.2888684868812561,0.050291310995817184,0.5559061765670776
1761914794789539000,3.3585390625,0.27199575304985046,-0.15250706672668457,0.39512181282043457
1761914794799595000,3.368594970703125,0.1523391455411911,-0.2767324447631836,0.23600023984909058
1761914794809650200,3.378650146484375,-0.014522003009915352,-0.286306232213974,0.09968475997447968
1761914794819705300,3.388705322265625,-0.19383424520492554,-0.1792522519826889,0.02160699851810932
1761914794829760000,3.398760009765625,-0.32875317335128784,-0.009958825074136257,0.007244037464261055
1761914794839815200,3.408815185546875,-0.41101154685020447,0.2045523077249527,0.07932090759277344
1761914794849871000,3.41887109375,-0.4217888116836548,0.461007297039032,0.23498399555683136
1761914794859926300,3.42892626953125,-0.36902838945388794,0.67097407579422,0.41013485193252563
1761914794869981000,3.43898095703125,-0.28394120931625366,0.7658867835998535,0.5040836930274963
1761914794880036000,3.4490361328125,-0.22088590264320374,0.7394717931747437,0.49530577659606934
1761914794890091300,3.45909130859375,-0.2087101936340332,0.5416309237480164,0.4134591221809387
1761914794900147200,3.469147216796875,-0.27843597531318665,0.22878125309944153,0.35668301582336426
1761914794910202400,3.479202392578125,-0.37765949964523315,-0.08895330131053925,0.39564985036849976
1761914794920257000,3.489257080078125,-0.3745362460613251,-0.1782955825328827,0.5668498873710632
1761914794930312200,3.499312255859375,-0.1413613259792328,0.12466322630643845,0.8299683332443237
1761914794940367000,3.5093671875,0.2583681643009186,0.5105046629905701,0.9659951329231262
1761914794950423300,3.51942333984375,0.6386318802833557,0.7078459858894348,0.8228552937507629
1761914794960478000,3.52947802734375,0.787588357925415,0.5071212649345398,0.36722689867019653
1761914794970533000,3.539533203125,0.6125196218490601,-0.10252393782138824,-0.2502693235874176
1761914794980588300,3.54958837890625,0.2567427158355713,-0.694504976272583,-0.706145703792572
1761914794990643200,3.559643310546875,-0.13117676973342896,-0.9969455599784851,-0.7247412204742432
1761914795000699100,3.56969921875,-0.5075049996376038,-0.9262754917144775,-0.19512790441513062
1761914795010754000,3.579754150390625,-0.7149359583854675,-0.46530309319496155,0.6782861351966858
1761914795020809200,3.589809326171875,-0.6293227076530457,-0.19479882717132568,1.2721112966537476
1761914795030864100,3.599864013671875,-0.2775561213493347,-0.279695600271225,1.2559016942977905
1761914795040919000,3.6099189453125,0.13901570439338684,-0.4346749782562256,0.7584514617919922
1761914795050975000,3.61997509765625,0.44434288144111633,-0.47258320450782776,0.1002434641122818
1761914795061030100,3.630030029296875,0.6089274883270264,-0.3459758758544922,-0.3644551634788513
1761914795071085300,3.640085205078125,0.7293050289154053,0.10342667996883392,-0.4536591172218323
1761914795081140000,3.650139892578125,0.8302016258239746,0.7649865746498108,-0.21328306198120117
1761914795091196200,3.660196044921875,0.8640652894973755,1.2510979175567627,0.10748855024576187
1761914795101251000,3.6702509765625,0.8190536499023438,1.2713767290115356,0.23934032022953033
1761914795111306200,3.68030615234375,0.681342363357544,0.8140429854393005,0.09957258403301239
1761914795121361200,3.690361083984375,0.5144421458244324,0.0990762710571289,-0.1559905856847763
1761914795131416000,3.700416015625,0.3947508633136749,-0.5179344415664673,-0.3049694001674652
1761914795141472000,3.710471923828125,0.3084515333175659,-0.8372006416320801,-0.24961623549461365
1761914795151527200,3.720527099609375,0.20628097653388977,-0.9428362846374512,-0.04166490212082863
1761914795161582300,3.730582275390625,0.055658772587776184,-0.8223407864570618,0.26421552896499634
1761914795171637000,3.740636962890625,-0.056915175169706345,-0.5729343891143799,0.5129880309104919
1761914795181692200,3.750692138671875,-0.054921023547649384,-0.25402528047561646,0.6236314177513123
1761914795191748000,3.760748046875,0.022072825580835342,0.11630377173423767,0.5966546535491943
1761914795201803300,3.77080322265625,0.14990854263305664,0.47273892164230347,0.40103620290756226
1761914795211861200,3.780861328125,0.242812380194664,0.6717753410339355,0.04087589681148529
1761914795221916200,3.790916259765625,0.18082274496555328,0.6206033229827881,-0.3676374852657318
1761914795231971300,3.800971435546875,-0.04054293408989906,0.4101898968219757,-0.6378276348114014
1761914795242027300,3.81102734375,-0.3176594078540802,0.1856762319803238,-0.6814724802970886
1761914795252082400,3.82108251953125,-0.564059853553772,0.006957622244954109,-0.5060705542564392
1761914795262137000,3.83113720703125,-0.724915087223053,-0.09455600380897522,-0.19902169704437256
1761914795272192300,3.841192138671875,-0.7630468010902405,-0.1424923837184906,0.1564197540283203
1761914795282247400,3.851247314453125,-0.7097530961036682,-0.11060771346092224,0.5025231838226318
1761914795292303400,3.861303466796875,-0.5852449536323547,0.024715756997466087,0.788387656211853
1761914795302358300,3.871358154296875,-0.413814514875412,0.23169422149658203,0.9702066779136658
1761914795312413200,3.8814130859375,-0.20846110582351685,0.43680262565612793,1.030088186264038
1761914795322468400,3.89146826171875,-0.016578014940023422,0.6643292903900146,0.9714628458023071
1761914795332524300,3.901524169921875,0.163919597864151,0.8510312438011169,0.805533766746521
1761914795342579200,3.9115791015625,0.30255040526390076,0.9227758646011353,0.5550660490989685
1761914795352634000,3.921634033203125,0.3577744960784912,0.8539589643478394,0.28396955132484436
1761914795362689300,3.931689208984375,0.33648934960365295,0.6686705350875854,0.08414743095636368
1761914795372744400,3.941744384765625,0.25738999247550964,0.45877698063850403,-0.011895745992660522
1761914795382800400,3.95180029296875,0.1508415937423706,0.26844850182533264,0.020203763619065285
1761914795392855000,3.96185498046875,0.036948055028915405,0.1363123059272766,0.14356350898742676
1761914795402910200,3.97191015625,-0.07775916159152985,0.08999517560005188,0.31493663787841797
1761914795412965400,3.98196533203125,-0.1871950924396515,0.10492805391550064,0.4860042631626129
1761914795423020000,3.99202001953125,-0.2513139247894287,0.14475519955158234,0.6160154342651367
1761914795433076200,4.002076171875,-0.2930893301963806,0.18532899022102356,0.7303857207298279
1761914795443131100,4.012131103515625,-0.31930601596832275,0.2359229028224945,0.8559432029724121
1761914795453186300,4.022186279296875,-0.3418501913547516,0.2908841371536255,0.9477671384811401
1761914795463241200,4.0322412109375,-0.3532966077327728,0.25019583106040955,0.9425143599510193
1761914795473297400,4.04229736328125,-0.3595784604549408,0.05884769558906555,0.852857232093811
1761914795483352000,4.05235205078125,-0.3315240442752838,-0.23259948194026947,0.769498348236084
1761914795493407200,4.0624072265625,-0.2287702113389969,-0.2768971920013428,0.8214515447616577
1761914795503462400,4.07246240234375,-0.06482432782649994,-0.05012166500091553,0.9261513948440552
1761914795513517000,4.08251708984375,0.07197879254817963,0.19588303565979004,0.9036612510681152
1761914795523573200,4.0925732421875,0.14455077052116394,0.22945579886436462,0.590200662612915
1761914795533628200,4.102628173828125,0.14544585347175598,-0.19108396768569946,-0.03807868808507919
1761914795543683300,4.112683349609375,0.016258731484413147,-0.8850814700126648,-0.6834216117858887
1761914795553738200,4.12273828125,-0.15635645389556885,-1.340620517730713,-0.991237223148346
1761914795563793200,4.132793212890625,-0.3416525423526764,-1.404901385307312,-0.8386495113372803
1761914795573849000,4.14284912109375,-0.6198707818984985,-1.0315693616867065,-0.2599318027496338
1761914795583904300,4.152904296875,-0.8841171264648438,-0.368062824010849,0.38315942883491516
1761914795593959400,4.16295947265625,-0.8882554173469543,0.2345687448978424,0.6142987012863159
1761914795604014000,4.17301416015625,-0.5870474576950073,0.7229517698287964,0.3914475440979004
1761914795614069200,4.1830693359375,-0.13239449262619019,0.7144227623939514,-0.14158417284488678
1761914795624125200,4.193125244140625,0.2617168724536896,0.3813294768333435,-0.6846279501914978
1761914795634180400,4.203180419921875,0.6049349308013916,0.2031347006559372,-0.9349637627601624
1761914795644235000,4.213235107421875,0.949715256690979,0.22738350927829742,-0.8994519114494324
1761914795654290200,4.223290283203125,1.2366245985031128,0.2947002351284027,-0.6984341144561768
1761914795664346000,4.23334619140625,1.4096235036849976,0.1856543868780136,-0.5517345666885376
1761914795674401300,4.2434013671875,1.455542802810669,-0.20994779467582703,-0.570682168006897
1761914795684456400,4.25345654296875,1.3539451360702515,-0.7003803253173828,-0.6411001086235046
1761914795694511000,4.263510986328125,1.092024803161621,-1.0855306386947632,-0.602816104888916
1761914795704566300,4.273566162109375,0.6719146370887756,-1.2168282270431519,-0.4229626953601837
1761914795714622200,4.283622314453125,0.19690366089344025,-1.089586615562439,-0.15240763127803802
1761914795724677400,4.293677490234375,-0.22880619764328003,-0.7520800828933716,0.14616118371486664
1761914795734732000,4.30373193359375,-0.48576316237449646,-0.34232667088508606,0.43570753931999207
1761914795744787200,4.313787109375,-0.5383910536766052,0.025649351999163628,0.6788825392723083
1761914795754842400,4.32384228515625,-0.43295836448669434,0.3638814687728882,0.8436477780342102
1761914795764898300,4.333898193359375,-0.2176060825586319,0.5988728404045105,0.7943716645240784
1761914795774953200,4.343953125,-0.02662920206785202,0.7749271988868713,0.5164164900779724
1761914795785008000,4.354008056640625,0.06438115239143372,0.8917155265808105,0.015733759850263596
1761914795795063300,4.364063232421875,-0.0012540468014776707,0.853190004825592,-0.564670205116272
1761914795805119200,4.374119140625,-0.17057044804096222,0.6538913249969482,-0.956397533416748
1761914795815174400,4.38417431640625,-0.3627729117870331,0.39290735125541687,-1.0237089395523071
1761914795825229000,4.39422900390625,-0.5028945207595825,0.09567563980817795,-0.850830078125
1761914795835284200,4.4042841796875,-0.5513360500335693,-0.17933543026447296,-0.5525171756744385
1761914795845339400,4.41433935546875,-0.4985767602920532,-0.41938281059265137,-0.22273766994476318
1761914795855395300,4.424395263671875,-0.35677942633628845,-0.5104948878288269,0.10389716178178787
1761914795865450200,4.4344501953125,-0.1635059118270874,-0.4115751087665558,0.3950493037700653
1761914795875505200,4.444505126953125,0.04443848505616188,-0.19372133910655975,0.5670982599258423
1761914795885560300,4.454560302734375,0.24740904569625854,0.07697189599275589,0.5721693634986877
1761914795895615200,4.464615234375,0.444256067276001,0.3258424401283264,0.38944002985954285
1761914795905673200,4.474673095703125,0.5717549920082092,0.4959878623485565,0.056385159492492676
1761914795915728400,4.484728271484375,0.5723068118095398,0.5405800938606262,-0.31092122197151184
1761914795925783000,4.494782958984375,0.4739901125431061,0.4714513421058655,-0.5823004245758057
1761914795935838200,4.504838134765625,0.32940763235092163,0.3564872145652771,-0.6923590302467346
1761914795945893400,4.514893310546875,0.17619264125823975,0.2733793258666992,-0.642139196395874
1761914795955949300,4.52494921875,0.054033711552619934,0.20658430457115173,-0.4947223365306854
1761914795966004200,4.535004150390625,-0.035559214651584625,0.15272052586078644,-0.33394837379455566
1761914795976059100,4.54505908203125,-0.09934698045253754,0.10137903690338135,-0.20722424983978271
1761914795986114300,4.5551142578125,-0.15033894777297974,0.04972122609615326,-0.10100668668746948
1761914795996170200,4.565170166015625,-0.20320534706115723,0.0029899394139647484,0.001017685979604721
1761914796006225400,4.575225341796875,-0.24432504177093506,-0.054905787110328674,0.09221861511468887
1761914796016280000,4.585280029296875,-0.2808077037334442,-0.1127626895904541,0.15239086747169495
1761914796026335200,4.595335205078125,-0.3102823793888092,-0.16492058336734772,0.18101787567138672
1761914796036390400,4.605390380859375,-0.3181927800178528,-0.21827276051044464,0.16260716319084167
1761914796046446300,4.6154462890625,-0.2884761095046997,-0.27928289771080017,0.12283920496702194
1761914796056501200,4.625501220703125,-0.22366730868816376,-0.30511611700057983,0.12060881406068802
1761914796066556200,4.63555615234375,-0.06573447585105896,-0.14527477324008942,0.20969700813293457
1761914796076611300,4.645611328125,0.1982249915599823,0.19048379361629486,0.3563397228717804
1761914796086666200,4.655666259765625,0.45568758249282837,0.40669676661491394,0.4064067304134369
1761914796096722200,4.66572216796875,0.5565566420555115,0.3130139410495758,0.23936420679092407
1761914796106777000,4.675777099609375,0.4821118414402008,-0.12447314709424973,-0.10485410690307617
1761914796116832300,4.685832275390625,0.2993100881576538,-0.6763429641723633,-0.3671797215938568
1761914796126887400,4.695887451171875,0.09189040213823318,-1.0695956945419312,-0.36284056305885315
1761914796136943400,4.705943359375,-0.155587300658226,-1.2657990455627441,-0.11184109002351761
1761914796146998300,4.715998291015625,-0.4092237949371338,-1.1274851560592651,0.2506420314311981
1761914796157053200,4.72605322265625,-0.543777346611023,-0.697953462600708,0.5175797343254089
1761914796167108400,4.7361083984375,-0.5044763684272766,-0.07575872540473938,0.5963707566261292
1761914796177163000,4.7461630859375,-0.3112483024597168,0.5442424416542053,0.4783514440059662
1761914796187219200,4.75621923828125,-0.07321958243846893,0.8736912608146667,0.18505701422691345
1761914796197274000,4.766274169921875,0.11949686706066132,0.8601216673851013,-0.18767209351062775
1761914796207325700,4.77632568359375,0.21188735961914062,0.5753380060195923,-0.4920926094055176
1761914796217380900,4.786380859375,0.23678791522979736,0.11420417577028275,-0.6657198071479797
1761914796227436800,4.796436767578125,0.24130789935588837,-0.45302677154541016,-0.7336922883987427
1761914796237492000,4.806491943359375,0.2563433051109314,-0.9821646809577942,-0.7591680884361267
1761914796247546600,4.816546630859375,0.3185291290283203,-1.389957070350647,-0.7763850092887878
1761914796257601800,4.826601806640625,0.383587509393692,-1.6019699573516846,-0.7740268111228943
1761914796267656700,4.83665673828125,0.4108439087867737,-1.5735392570495605,-0.6971421241760254
1761914796277713000,4.846712890625,0.3714914619922638,-1.2551720142364502,-0.4974854588508606
1761914796287767600,4.856767578125,0.2347949743270874,-0.6696992516517639,-0.17540450394153595
1761914796297822700,4.86682275390625,0.03217794746160507,-0.06139281019568443,0.20273081958293915
1761914796307878000,4.8768779296875,-0.1317082941532135,0.3326944410800934,0.557012677192688
1761914796317933800,4.886933837890625,-0.1983051598072052,0.46326228976249695,0.7987579107284546
1761914796327988700,4.89698876953125,-0.22938422858715057,0.31633588671684265,0.8047212958335876
1761914796338043600,4.907043701171875,-0.23964619636535645,0.040289122611284256,0.5512104630470276
1761914796348098800,4.917098876953125,-0.22036468982696533,-0.24351391196250916,0.06079801172018051
1761914796358153700,4.92715380859375,-0.23671436309814453,-0.44580602645874023,-0.5326759815216064
1761914796368210000,4.9372099609375,-0.3327474892139435,-0.49701717495918274,-0.9745385646820068
1761914796378264600,4.9472646484375,-0.4472295939922333,-0.3584185540676117,-1.0973174571990967
1761914796388319700,4.95731982421875,-0.5083746910095215,-0.08086027950048447,-0.9026941061019897
1761914796398375000,4.967375,-0.4633409082889557,0.1647968888282776,-0.5123417973518372
1761914796408430800,4.977430908203125,-0.3109951317310333,0.27819928526878357,-0.08455502241849899
1761914796418485800,4.98748583984375,-0.10798420011997223,0.308244526386261,0.25656288862228394
1761914796428540700,4.997540771484375,0.0920545682311058,0.32217493653297424,0.44963181018829346
1761914796438595800,5.007595947265625,0.28522616624832153,0.3028622269630432,0.4588319659233093
1761914796448650800,5.017650634765625,0.4243308901786804,0.2335575819015503,0.30659645795822144
1761914796458707000,5.02770703125,0.5097824335098267,0.15199321508407593,0.07534380257129669
1761914796468761600,5.03776171875,0.5355366468429565,0.10712067782878876,-0.14273881912231445
1761914796478816800,5.047816650390625,0.4896586537361145,0.12133823335170746,-0.29939794540405273
1761914796488872000,5.057871826171875,0.3765052855014801,0.2068181335926056,-0.376406729221344
1761914796498927900,5.067927978515625,0.23980790376663208,0.3293435275554657,-0.38265183568000793
1761914796508982800,5.077982666015625,0.14007793366909027,0.44307562708854675,-0.3231882154941559
1761914796519037700,5.08803759765625,0.07232896983623505,0.514893651008606,-0.21152666211128235
1761914796529092900,5.0980927734375,0.029801536351442337,0.551341712474823,-0.05569187551736832
1761914796539147800,5.108147705078125,0.014840163290500641,0.5554410815238953,0.10932690650224686
1761914796549203700,5.11820361328125,-0.01652817241847515,0.5118415355682373,0.25754183530807495
1761914796559258600,5.128258544921875,-0.09473935514688492,0.4615115225315094,0.3913387656211853
1761914796569313800,5.138313720703125,-0.18034407496452332,0.33271655440330505,0.46922770142555237
1761914796579368700,5.14836865234375,-0.2407512217760086,0.1163235455751419,0.4985046684741974
1761914796589425000,5.1584248046875,-0.2552150785923004,-0.16561217606067657,0.4947017431259155
1761914796599479600,5.1684794921875,-0.22576399147510529,-0.4323490560054779,0.497963547706604
1761914796609534700,5.17853466796875,-0.12118764221668243,-0.5150420069694519,0.5459893941879272
1761914796619590000,5.18858984375,0.08666648715734482,-0.26137009263038635,0.6539595127105713
1761914796629644500,5.19864453125,0.3822700083255768,0.1097993329167366,0.7070128917694092
1761914796639700700,5.20870068359375,0.6798803806304932,0.3369472622871399,0.5901951789855957
1761914796649755600,5.218755615234375,0.8418398499488831,0.2634594440460205,0.23289214074611664
1761914796659810800,5.228810791015625,0.8406901359558105,-0.10691622644662857,-0.29168933629989624
1761914796669865700,5.23886572265625,0.6766243577003479,-0.5503507852554321,-0.7442423105239868
1761914796679921700,5.248921630859375,0.37592366337776184,-0.9448450803756714,-0.9294126033782959
1761914796689976600,5.2589765625,-0.11457724869251251,-1.3116804361343384,-0.8441363573074341
1761914796700031700,5.26903173828125,-0.5837724208831787,-1.3585797548294067,-0.562159538269043
1761914796710087000,5.2790869140625,-0.7148349285125732,-1.0260881185531616,-0.20123682916164398
1761914796720141600,5.2891416015625,-0.5337098836898804,-0.5436258316040039,0.1245628371834755
1761914796730197800,5.29919775390625,-0.16259312629699707,0.03719048947095871,0.3716508448123932
1761914796740252700,5.309252685546875,0.29540717601776123,0.5851718783378601,0.4057491719722748
1761914796750307800,5.319307861328125,0.6436036825180054,0.9656049609184265,0.15473507344722748
1761914796760362800,5.32936279296875,0.7773590683937073,1.0459493398666382,-0.2737009525299072
1761914796770418700,5.339418701171875,0.714670717716217,0.8109277486801147,-0.7338001728057861
1761914796780473600,5.3494736328125,0.5523473620414734,0.3367559313774109,-1.0448417663574219
1761914796790528800,5.35952880859375,0.3402814567089081,-0.18820880353450775,-1.1065213680267334
1761914796800584000,5.369583984375,0.16118332743644714,-0.7000582218170166,-1.010176420211792
1761914796810638600,5.379638671875,0.07472620159387589,-1.1129618883132935,-0.8698405027389526
1761914796820694800,5.38969482421875,0.10121826082468033,-1.293137550354004,-0.7172775864601135
1761914796830749700,5.399749755859375,0.14787685871124268,-1.144779920578003,-0.5104118585586548
1761914796840804900,5.409804931640625,0.08167866617441177,-0.6483575701713562,-0.1946680098772049
1761914796850859500,5.419859619140625,-0.12049917131662369,0.048886120319366455,0.2283076047897339
1761914796860915700,5.429915771484375,-0.33037757873535156,0.7000359296798706,0.6602693796157837
1761914796870970600,5.439970703125,-0.45800134539604187,1.054202675819397,0.9842434525489807
1761914796881025800,5.45002587890625,-0.48479756712913513,0.9949362277984619,1.0586528778076172
1761914796891081000,5.4600810546875,-0.4409525394439697,0.6247703433036804,0.787238359451294
1761914796901135600,5.470135498046875,-0.38207775354385376,0.23822958767414093,0.2604150176048279
1761914796911191800,5.48019189453125,-0.3670361042022705,0.001351843704469502,-0.34128886461257935
1761914796921246700,5.490246826171875,-0.4126339554786682,-0.09493421018123627,-0.8709103465080261
1761914796931302000,5.500302001953125,-0.4678393006324768,-0.15803536772727966,-1.2827023267745972
1761914796941356500,5.5103564453125,-0.48992329835891724,-0.25478801131248474,-1.5591282844543457
1761914796951412700,5.520412841796875,-0.470571368932724,-0.3176047205924988,-1.6734023094177246
1761914796961467600,5.530467529296875,-0.3910832107067108,-0.18085750937461853,-1.5750921964645386
1761914796971522800,5.540522705078125,-0.23010718822479248,0.2535775601863861,-1.2550864219665527
1761914796981577700,5.55057763671875,-0.00547966081649065,0.8407683372497559,-0.7737986445426941
1761914796991633700,5.560633544921875,0.21441428363323212,1.2511963844299316,-0.2704660892486572
1761914797001688800,5.570688720703125,0.38478147983551025,1.3502116203308105,0.14165756106376648
1761914797011743700,5.58074365234375,0.49555423855781555,1.2117033004760742,0.4159073233604431
1761914797021799000,5.590798828125,0.5525102019309998,0.9480441808700562,0.5426138043403625
1761914797031853600,5.600853515625,0.55736243724823,0.6202830076217651,0.49761736392974854
1761914797041909800,5.61090966796875,0.5047122836112976,0.26518696546554565,0.3150877356529236
1761914797051964700,5.620964599609375,0.39101630449295044,-0.031164508312940598,0.08975532650947571
1761914797062019800,5.631019775390625,0.2578135132789612,-0.2121654450893402,-0.10121702402830124
1761914797072074800,5.64107470703125,0.13971979916095734,-0.2349231094121933,-0.19584371149539948
1761914797082130700,5.651130615234375,0.057558879256248474,-0.10354377329349518,-0.19315098226070404
1761914797092185900,5.661185791015625,0.0006959402817301452,0.14208567142486572,-0.10266398638486862
1761914797102240800,5.67124072265625,-0.04108186811208725,0.44326546788215637,0.06732185930013657
1761914797112295700,5.681295654296875,-0.08320707082748413,0.7215686440467834,0.28032436966896057
1761914797122350600,5.6913505859375,-0.14655914902687073,0.834933876991272,0.4690793752670288
1761914797132406800,5.70140673828125,-0.22441568970680237,0.727460503578186,0.6231915950775146
1761914797142461700,5.711461669921875,-0.28236180543899536,0.4632059633731842,0.7814954519271851
1761914797152516900,5.721516845703125,-0.30794739723205566,0.18556904792785645,0.9724580645561218
1761914797162571800,5.73157177734375,-0.26311972737312317,0.08478012681007385,1.147971749305725
1761914797172627700,5.741627685546875,-0.09537447988986969,0.3116542398929596,1.2540814876556396
1761914797182683000,5.751682861328125,0.1632368415594101,0.6183761358261108,1.2216564416885376
1761914797192737800,5.76173779296875,0.4327552616596222,0.7321649193763733,1.021175742149353
1761914797202792700,5.771792724609375,0.5819748640060425,0.5055211186408997,0.7006956934928894
1761914797212847900,5.781847900390625,0.5770149230957031,0.11037746071815491,0.3645881712436676
1761914797222902800,5.79190283203125,0.4253803789615631,-0.4416827857494354,0.07541041076183319
1761914797232958000,5.8019580078125,0.17365549504756927,-0.8679689168930054,-0.08114046603441238
1761914797243012900,5.812012939453125,-0.07919540256261826,-0.947870135307312,-0.09439368546009064
1761914797253068000,5.822068115234375,-0.2668789029121399,-0.5339533090591431,0.05969691649079323
1761914797263123700,5.832123779296875,-0.3639564514160156,0.2621976137161255,0.3825410306453705
1761914797273179000,5.842178955078125,-0.3859444856643677,0.9409889578819275,0.7017713189125061
1761914797283233800,5.85223388671875,-0.26570436358451843,1.3509982824325562,0.8536897897720337
1761914797293289000,5.8622890625,0.02913942188024521,1.5232577323913574,0.7916831374168396
1761914797303345000,5.872344970703125,0.3134582042694092,1.318705439567566,0.5489298701286316
1761914797313399800,5.88239990234375,0.5141369700431824,0.847114086151123,0.2392791509628296
1761914797323455000,5.892455078125,0.6654753684997559,0.4954034984111786,0.08029936254024506
1761914797333510000,5.902510009765625,0.777542233467102,0.3106355667114258,0.12469097971916199
1761914797343564800,5.912564697265625,0.8005700707435608,0.12173569947481155,0.2490891069173813
1761914797353620700,5.922620849609375,0.6964302062988281,-0.18794305622577667,0.34256961941719055
1761914797363676000,5.932676025390625,0.4948994517326355,-0.48336032032966614,0.3694920539855957
1761914797373730800,5.942730712890625,0.30559462308883667,-0.616728663444519,0.345551997423172
1761914797383786000,5.952785888671875,0.2235407680273056,-0.5426539182662964,0.2822752892971039
1761914797393842000,5.962842041015625,0.24607408046722412,-0.3010004460811615,0.22462910413742065
1761914797403896800,5.972896728515625,0.29355213046073914,0.08905279636383057,0.20845626294612885
1761914797413952000,5.982951904296875,0.2939826548099518,0.6219182014465332,0.21419399976730347
1761914797424007000,5.9930068359375,0.29668256640434265,1.1954139471054077,0.21625475585460663
1761914797434061800,6.003061767578125,0.35496601462364197,1.5720367431640625,0.15123257040977478
1761914797444117800,6.01311767578125,0.4633257985115051,1.6679009199142456,-0.041168827563524246
1761914797454173000,6.0231728515625,0.5365588068962097,1.6065095663070679,-0.36371535062789917
1761914797464227800,6.033227783203125,0.4805850386619568,1.4842840433120728,-0.7607125043869019
1761914797474283000,6.043282958984375,0.24107800424098969,1.310114860534668,-1.1157201528549194
1761914797484338700,6.053338623046875,-0.07651009410619736,1.0492265224456787,-1.3240174055099487
1761914797494393900,6.063393798828125,-0.38638952374458313,0.8019738793373108,-1.3127180337905884
1761914797504448800,6.07344873046875,-0.6136362552642822,0.7132482528686523,-1.0673400163650513
1761914797514504000,6.08350390625,-0.7140035629272461,0.7076317071914673,-0.67410808801651
1761914797524560000,6.093559814453125,-0.6662741303443909,0.794022798538208,-0.22407568991184235
1761914797534614800,6.10361474609375,-0.47204551100730896,0.8729313015937805,0.2033153772354126
1761914797544670000,6.113669921875,-0.18834879994392395,0.8911896347999573,0.5118074417114258
1761914797554724900,6.123724853515625,0.10558133572340012,0.80890953540802,0.6491444110870361
1761914797564779800,6.13377978515625,0.3848564028739929,0.654239296913147,0.6170114874839783
1761914797574835700,6.143835693359375,0.607796311378479,0.4268103837966919,0.444492369890213
1761914797584891000,6.153890869140625,0.7460607290267944,0.1724981963634491,0.17682550847530365
1761914797594945800,6.16394580078125,0.7888686656951904,0.016221463680267334,-0.09527832269668579
1761914797605001000,6.1740009765625,0.736832320690155,0.017432935535907745,-0.2926047146320343
1761914797615056600,6.184056640625,0.6055528521537781,0.1289779245853424,-0.38017186522483826
1761914797625111800,6.19411181640625,0.43464797735214233,0.264143705368042,-0.37118127942085266
1761914797635167000,6.2041669921875,0.2451135218143463,0.3517715632915497,-0.26655882596969604
1761914797645222000,6.214221923828125,0.07481928914785385,0.36715343594551086,-0.07878278195858002
1761914797655278000,6.224278076171875,-0.016917798668146133,0.3133426308631897,0.1682264655828476
1761914797665332700,6.234332763671875,-0.031491681933403015,0.12971872091293335,0.3996642231941223
1761914797675388000,6.244387939453125,-0.01525187399238348,-0.11672135442495346,0.6038195490837097
1761914797685442800,6.25444287109375,-0.007340155076235533,-0.30460816621780396,0.761616587638855
1761914797695497700,6.264497802734375,-0.017411815002560616,-0.42263925075531006,0.8285272121429443
1761914797705553700,6.2745537109375,-0.023541878908872604,-0.49561038613319397,0.8081409335136414
1761914797715608800,6.28460888671875,-0.02539657987654209,-0.5073594450950623,0.738896369934082
1761914797725664000,6.2946640625,0.018106956034898758,-0.4114254415035248,0.6633651256561279
1761914797735719000,6.304718994140625,0.12081759423017502,-0.2566637396812439,0.5775905251502991
1761914797745775000,6.314775146484375,0.21119090914726257,-0.16432635486125946,0.4763384461402893
1761914797755829800,6.324829833984375,0.2462865114212036,-0.24194231629371643,0.3472854793071747
1761914797765885000,6.334885009765625,0.24224355816841125,-0.5277884602546692,0.17996706068515778
1761914797775939800,6.34493994140625,0.18266747891902924,-0.9875659942626953,0.01245152298361063
1761914797785994800,6.354994873046875,0.021096162497997284,-1.4666298627853394,-0.027737975120544434
1761914797796050700,6.36505078125,-0.17852959036827087,-1.758891224861145,0.12628580629825592
1761914797806105900,6.37510595703125,-0.3553861379623413,-1.772030234336853,0.4055243730545044
1761914797816161000,6.3851611328125,-0.5295569896697998,-1.5428513288497925,0.6984403729438782
1761914797826216000,6.3952158203125,-0.7013692855834961,-1.4131971597671509,0.8520105481147766
1761914797836271900,6.40527197265625,-0.7634865641593933,-1.4406882524490356,0.8224703669548035
1761914797846326800,6.415326904296875,-0.6724320650100708,-1.574044942855835,0.6623920202255249
1761914797856382000,6.4253818359375,-0.46560537815093994,-1.643377423286438,0.5060506463050842
1761914797866436900,6.435436767578125,-0.21438780426979065,-1.4738794565200806,0.4225243330001831
1761914797876493000,6.4454931640625,0.06548003852367401,-1.0227279663085938,0.3785758912563324
1761914797886547700,6.455547607421875,0.33241215348243713,-0.37942373752593994,0.3593102991580963
1761914797896603000,6.465602783203125,0.48308590054512024,0.18874689936637878,0.3557441234588623
1761914797906658000,6.475657958984375,0.4828539490699768,0.4731171131134033,0.3111017942428589
1761914797916712700,6.485712646484375,0.3495278060436249,0.44063496589660645,0.207884281873703
1761914797926769000,6.495768798828125,0.1704760193824768,0.08216390013694763,0.05450990051031113
1761914797936823800,6.50582373046875,0.04453197866678238,-0.40016403794288635,-0.09738150238990784
1761914797946879000,6.51587890625,0.03874998912215233,-0.7138156890869141,-0.15006814897060394
1761914797956934000,6.525933837890625,0.1310497224330902,-0.7984654903411865,-0.11874189972877502
1761914797966989800,6.53598974609375,0.2233668714761734,-0.7044889330863953,-0.05064699798822403
1761914797977044700,6.546044677734375,0.22236822545528412,-0.43097254633903503,0.06411027163267136
1761914797987100000,6.556099853515625,0.09135853499174118,-0.005750415381044149,0.2121274322271347
1761914797997155000,6.566155029296875,-0.10396542400121689,0.38784298300743103,0.3174724578857422
1761914798007209700,6.576209716796875,-0.29170629382133484,0.6136518716812134,0.31507399678230286
1761914798017266000,6.586265869140625,-0.3989502489566803,0.6264775991439819,0.18146388232707977
1761914798027320800,6.59632080078125,-0.4329572319984436,0.48724856972694397,-0.05216832086443901
1761914798037376000,6.6063759765625,-0.4096751809120178,0.27442532777786255,-0.33652058243751526
1761914798047430700,6.6164306640625,-0.39266157150268555,0.016306404024362564,-0.635836660861969
1761914798057486800,6.62648681640625,-0.4351613223552704,-0.257237046957016,-0.8845772743225098
1761914798067541800,6.636541748046875,-0.5142063498497009,-0.4111451208591461,-1.0274531841278076
1761914798077597000,6.646596923828125,-0.58933424949646,-0.3930215835571289,-1.05631422996521
1761914798087652000,6.656652099609375,-0.6298829913139343,-0.2648068964481354,-0.9767253398895264
1761914798097707800,6.666707763671875,-0.6266301870346069,-0.07743578404188156,-0.809232771396637
1761914798107762700,6.6767626953125,-0.5635505318641663,0.11928819864988327,-0.5669415593147278
1761914798117817900,6.68681787109375,-0.4508807063102722,0.2501738667488098,-0.30058586597442627
1761914798127873000,6.696873046875,-0.29266631603240967,0.3086800277233124,-0.015656135976314545
1761914798137927700,6.706927734375,-0.08123384416103363,0.3428921103477478,0.2526186406612396
1761914798147984000,6.71698388671875,0.1361786425113678,0.35111621022224426,0.4442511796951294
1761914798158038800,6.727038818359375,0.31937938928604126,0.341102659702301,0.5249415040016174
1761914798168094000,6.737093994140625,0.44845452904701233,0.3039068281650543,0.47973406314849854
1761914798178148900,6.74714892578125,0.5224307179450989,0.22514908015727997,0.33722925186157227
1761914798188204800,6.757204833984375,0.538033127784729,0.13448309898376465,0.13281966745853424
1761914798198259700,6.767259765625,0.4819844365119934,0.0716618001461029,-0.05785460025072098
1761914798208315400,6.7773154296875,0.3456263244152069,0.07878842204809189,-0.15848374366760254
1761914798218370600,6.78737060546875,0.16778536140918732,0.12621340155601501,-0.16399092972278595
1761914798228426500,6.797426513671875,-0.01547155436128378,0.1759985387325287,-0.08600318431854248
1761914798238481400,6.8074814453125,-0.15969884395599365,0.19354933500289917,0.05004654824733734
1761914798248536300,6.817536376953125,-0.23162603378295898,0.17649897933006287,0.21328286826610565
1761914798258591500,6.827591552734375,-0.22540538012981415,0.12506122887134552,0.37689781188964844
1761914798268646400,6.837646484375,-0.17623543739318848,0.01650385372340679,0.5053620934486389
1761914798278702600,6.84770263671875,-0.14572608470916748,-0.14951863884925842,0.5807702541351318
1761914798288757200,6.85775732421875,-0.14825129508972168,-0.32542651891708374,0.5910841226577759
1761914798298812400,6.8678125,-0.18963345885276794,-0.43175920844078064,0.5516793131828308
1761914798308867300,6.877867431640625,-0.20381079614162445,-0.34712210297584534,0.4704894423484802
1761914798318923500,6.887923583984375,-0.12088707834482193,-0.11026645451784134,0.34131595492362976
1761914798328978200,6.897978271484375,0.0312848836183548,0.06950517743825912,0.19542986154556274
1761914798339033300,6.908033447265625,0.1472882628440857,0.029355060309171677,0.041951604187488556
1761914798349088500,6.918088623046875,0.18042278289794922,-0.276965469121933,-0.15310338139533997
1761914798359143400,6.928143310546875,0.11221854388713837,-0.7083764672279358,-0.40091201663017273
1761914798369199600,6.93819970703125,0.014782801270484924,-0.9412187933921814,-0.6616807579994202
1761914798379254300,6.948254150390625,-0.023344125598669052,-0.9705343842506409,-0.802882194519043
1761914798389309400,6.958309326171875,-0.08165430277585983,-1.0158909559249878,-0.6795442700386047
1761914798399364400,6.9683642578125,-0.24412450194358826,-1.2154227495193481,-0.23242248594760895
1761914798409420500,6.978420654296875,-0.42222684621810913,-1.5773543119430542,0.26516810059547424
1761914798419475200,6.98847509765625,-0.34855082631111145,-1.7274919748306274,0.5335654616355896
1761914798429530400,6.9985302734375,-0.0517263300716877,-1.611348271369934,0.46922457218170166
1761914798439585500,7.00858544921875,0.26375147700309753,-1.3589787483215332,0.1647811233997345
1761914798449641500,7.018641357421875,0.4973432123661041,-0.9788063764572144,-0.2049359381198883
1761914798459696400,7.0286962890625,0.6573163866996765,-0.5163171291351318,-0.5085878968238831
1761914798469751300,7.038751220703125,0.7784715890884399,-0.20710629224777222,-0.7191457152366638
1761914798479806500,7.048806396484375,0.8376844525337219,-0.16531699895858765,-0.8084567189216614
1761914798489861400,7.058861328125,0.7936655879020691,-0.37655600905418396,-0.7944766879081726
1761914798499917600,7.06891748046875,0.6318697929382324,-0.4967859089374542,-0.6581308245658875
1761914798509972200,7.07897216796875,0.39486631751060486,-0.5288775563240051,-0.4545518755912781
1761914798520027400,7.08902734375,0.1461106836795807,-0.5266807675361633,-0.26220783591270447
1761914798530082600,7.09908251953125,-0.08031366765499115,-0.5102562308311462,-0.09609583020210266
1761914798540138500,7.109138427734375,-0.24337005615234375,-0.511503279209137,-0.023336712270975113
1761914798550193400,7.119193359375,-0.36959245800971985,-0.5344567894935608,-0.07440868765115738
1761914798560248300,7.129248291015625,-0.4544372260570526,-0.5228883624076843,-0.1941312551498413
1761914798570303500,7.139303466796875,-0.5010219812393188,-0.43049156665802,-0.30472543835639954
1761914798580358400,7.1493583984375,-0.5388581156730652,-0.2964266836643219,-0.37063050270080566
1761914798590414600,7.15941455078125,-0.5902600288391113,-0.1225113570690155,-0.3570891320705414
1761914798600469200,7.16946923828125,-0.6599619388580322,0.10260333120822906,-0.2565542757511139
1761914798610524400,7.1795244140625,-0.7304848432540894,0.3841457962989807,-0.07659995555877686
1761914798620579600,7.18957958984375,-0.7617906928062439,0.679746687412262,0.13299480080604553
1761914798630635500,7.199635498046875,-0.7456809878349304,0.9192338585853577,0.30812719464302063
1761914798640690400,7.2096904296875,-0.681585967540741,1.0329115390777588,0.3969029486179352
1761914798650745300,7.219745361328125,-0.5727636218070984,0.9691152572631836,0.4216298460960388
1761914798660800500,7.229800537109375,-0.44300633668899536,0.8073608875274658,0.44496408104896545
1761914798670856400,7.2398564453125,-0.30850285291671753,0.6348602175712585,0.4773302972316742
1761914798680911400,7.249911376953125,-0.18365666270256042,0.45761677622795105,0.48748502135276794
1761914798690966300,7.25996630859375,-0.09303169697523117,0.2900075316429138,0.46099188923835754
1761914798701021400,7.270021484375,-0.061935603618621826,0.19773823022842407,0.40071409940719604
1761914798711076600,7.28007666015625,-0.08713523298501968,0.21340081095695496,0.321144700050354
1761914798721132500,7.290132568359375,-0.15063577890396118,0.31345096230506897,0.25481313467025757
1761914798731187500,7.3001875,-0.23854273557662964,0.460530161857605,0.216621533036232
1761914798741242400,7.310242431640625,-0.30113884806632996,0.5533413887023926,0.19795000553131104
1761914798751297500,7.320297607421875,-0.3293049931526184,0.5634827017784119,0.22349850833415985
1761914798761353500,7.330353515625,-0.33286216855049133,0.4779900312423706,0.2974497675895691
1761914798771408400,7.340408447265625,-0.3242473602294922,0.2823614180088043,0.39561787247657776
1761914798781463300,7.35046337890625,-0.3170769214630127,0.05566325783729553,0.4979947805404663
1761914798791518500,7.3605185546875,-0.2858668267726898,-0.0875524953007698,0.5898551940917969
1761914798801574400,7.370574462890625,-0.24504409730434418,-0.10565468668937683,0.67210453748703
1761914798811629300,7.38062939453125,-0.16510958969593048,0.023766150698065758,0.7311766147613525
1761914798821684500,7.3906845703125,-0.026305994018912315,0.2342044562101364,0.7387048602104187
1761914798831739400,7.400739501953125,0.1377340704202652,0.3527843654155731,0.6682397723197937
1761914798841794600,7.410794677734375,0.24760428071022034,0.23692208528518677,0.47068825364112854
1761914798851850500,7.4208505859375,0.29987412691116333,-0.1437522917985916,0.11501455307006836
1761914798861905400,7.430905517578125,0.2872185707092285,-0.5585089325904846,-0.2843801975250244
1761914798871960300,7.440960205078125,0.2370867133140564,-0.8211184144020081,-0.5878767371177673
1761914798882015500,7.451015380859375,0.12329727411270142,-1.0694139003753662,-0.6596386432647705
1761914798892071400,7.461071533203125,-0.16960224509239197,-1.1895570755004883,-0.37714600563049316
1761914798902126300,7.471126220703125,-0.5394790172576904,-0.9150881171226501,0.25415974855422974
1761914798912181500,7.481181396484375,-0.7423836588859558,-0.3213677704334259,0.9362406134605408
1761914798922236400,7.491236328125,-0.6887907385826111,0.28182676434516907,1.3307799100875854
1761914798932292400,7.501292236328125,-0.4529440999031067,0.6499134302139282,1.33136785030365
1761914798942347500,7.511347412109375,-0.15217207372188568,0.6237081289291382,0.940883219242096
1761914798952402400,7.52140234375,0.11014610528945923,0.3072132468223572,0.32754307985305786
1761914798962457300,7.531457275390625,0.37661728262901306,0.011148225516080856,-0.2659994959831238
1761914798972512500,7.541512451171875,0.5927940607070923,-0.06216247007250786,-0.6368574500083923
1761914798982568400,7.551568359375,0.7246043682098389,-0.05844802409410477,-0.8017523288726807
1761914798992623400,7.561623291015625,0.7424411773681641,0.0033370472956448793,-0.7907092571258545
1761914799002678300,7.57167822265625,0.6674631834030151,0.14782367646694183,-0.6777217984199524
1761914799012733400,7.5817333984375,0.5534418225288391,0.278053343296051,-0.5482282638549805
1761914799022789400,7.591789306640625,0.4096696972846985,0.2668386399745941,-0.45928147435188293
1761914799032844300,7.60184423828125,0.24133659899234772,0.053374845534563065,-0.4054637849330902
1761914799042899500,7.6118994140625,0.09344165772199631,-0.17325259745121002,-0.3251940906047821
1761914799052954400,7.621954345703125,-0.0011950995540246367,-0.3391970992088318,-0.1831194907426834
1761914799063009500,7.632009521484375,-0.06659691035747528,-0.4244593679904938,0.06642507016658783
1761914799073065500,7.6420654296875,-0.12395740300416946,-0.4146836996078491,0.3855620324611664
1761914799083120400,7.652120361328125,-0.14941352605819702,-0.33085155487060547,0.669416606426239
1761914799093175300,7.66217529296875,-0.1552724838256836,-0.12681692838668823,0.8191770911216736
1761914799103230500,7.67223046875,-0.16117525100708008,0.19108811020851135,0.7625442743301392
1761914799113286400,7.682286376953125,-0.18549524247646332,0.4748745560646057,0.4937354326248169
1761914799123341300,7.69234130859375,-0.228154256939888,0.6103026270866394,0.07035792618989944
1761914799133396500,7.702396484375,-0.290334552526474,0.5399112701416016,-0.3937751352787018
1761914799143451400,7.712451416015625,-0.40120959281921387,0.2589528262615204,-0.7732179164886475
1761914799153507600,7.722507568359375,-0.5415786504745483,-0.08946296572685242,-0.9488400816917419
1761914799163562200,7.732562255859375,-0.6561812162399292,-0.37911441922187805,-0.902504026889801
1761914799173617400,7.742617431640625,-0.7354581952095032,-0.5668268203735352,-0.6694310903549194
1761914799183672300,7.75267236328125,-0.7701370716094971,-0.5967501401901245,-0.31722819805145264
1761914799193727500,7.7627275390625,-0.7344381809234619,-0.4748189449310303,0.06927213072776794
1761914799203783400,7.772783447265625,-0.6134926080703735,-0.27861130237579346,0.41188085079193115
1761914799213842200,7.78284228515625,-0.42936915159225464,-0.07920631766319275,0.6381845474243164
1761914799223897300,7.7928974609375,-0.2060263454914093,0.08811086416244507,0.7190859913825989
1761914799233952000,7.802951904296875,0.02208911068737507,0.2242838740348816,0.6564556360244751
1761914799244008200,7.81300830078125,0.24376194179058075,0.35410597920417786,0.492242693901062
1761914799254063000,7.82306298828125,0.4307723045349121,0.4712078273296356,0.2938300371170044
1761914799264118300,7.8331181640625,0.5366535186767578,0.5776908993721008,0.12084271013736725
1761914799274173000,7.8431728515625,0.5755947828292847,0.6350362300872803,-0.0339716374874115
1761914799284229000,7.85322900390625,0.5556197762489319,0.624882161617279,-0.18040908873081207
1761914799294284000,7.863283935546875,0.47304102778434753,0.533214807510376,-0.2877368927001953
1761914799304339200,7.873339111328125,0.3663577139377594,0.3768675923347473,-0.30120187997817993
1761914799314394000,7.88339404296875,0.2753681540489197,0.241069033741951,-0.1942029893398285
1761914799324449000,7.893448974609375,0.22708851099014282,0.16414259374141693,0.0089169442653656
1761914799334505000,7.9035048828125,0.2320830076932907,0.1594351977109909,0.23694132268428802
1761914799344560000,7.91356005859375,0.29698795080184937,0.19275031983852386,0.4048880636692047
1761914799354615300,7.923615234375,0.3887370228767395,0.24429847300052643,0.4576796591281891
1761914799364669200,7.933669189453125,0.46145957708358765,0.29150354862213135,0.4131070077419281
1761914799374724000,7.94372412109375,0.50506591796875,0.28320538997650146,0.3124925196170807
1761914799384779300,7.953779296875,0.5313988327980042,0.2510248124599457,0.25290924310684204
1761914799394834000,7.963833984375,0.5385007262229919,0.24272504448890686,0.2614380121231079
1761914799404890000,7.97389013671875,0.5041971802711487,0.1930263638496399,0.23579256236553192
1761914799414945000,7.983945068359375,0.4555460214614868,0.14582422375679016,0.09653134644031525
1761914799425000200,7.994000244140625,0.4974435567855835,0.06905310600996017,-0.16141436994075775
1761914799435055000,8.00405517578125,0.5457141399383545,-0.16327093541622162,-0.43300458788871765
1761914799445110000,8.014110107421875,0.4279717803001404,-0.5662250518798828,-0.4854801893234253
1761914799455166200,8.024166259765625,0.1348845362663269,-0.8628125190734863,-0.21929828822612762
1761914799465221000,8.03422119140625,-0.15232914686203003,-0.9617787003517151,0.2202458530664444
1761914799475276300,8.0442763671875,-0.32243242859840393,-0.9458564519882202,0.590026319026947
1761914799485331000,8.0543310546875,-0.3499012887477875,-0.9162253141403198,0.6886088848114014
1761914799495387100,8.06438720703125,-0.19672930240631104,-0.8265361785888672,0.43139755725860596
1761914799505442000,8.074442138671875,0.14398570358753204,-0.5593077540397644,-0.04631800949573517
1761914799515497200,8.084497314453126,0.5116654634475708,-0.28201305866241455,-0.5357378125190735
1761914799525552000,8.09455224609375,0.7478352189064026,-0.0518820695579052,-0.8625192046165466
1761914799535607000,8.10460693359375,0.8686113953590393,0.16174206137657166,-0.9816237688064575
1761914799545663200,8.114663330078125,0.8541077971458435,0.2880803942680359,-0.9481092095375061
1761914799555718100,8.12471826171875,0.7045106291770935,0.16247932612895966,-0.8729183673858643
1761914799565773000,8.13477294921875,0.4843350648880005,-0.2428513467311859,-0.8633278012275696
1761914799575828000,8.144827880859374,0.298481285572052,-0.7796585559844971,-0.9193125367164612
1761914799585884200,8.15488427734375,0.20587705075740814,-1.2823883295059204,-0.9762227535247803
1761914799595939000,8.16493896484375,0.20951706171035767,-1.5492572784423828,-0.9622238278388977
1761914799605994200,8.174994140625,0.2591286599636078,-1.5507102012634277,-0.8560896515846252
1761914799616049200,8.185049072265626,0.28301718831062317,-1.2858399152755737,-0.66154545545578
1761914799626105000,8.19510498046875,0.18672171235084534,-0.8162774443626404,-0.37666377425193787
1761914799636160300,8.20516015625,-0.04820718243718147,-0.3008919060230255,-0.028464771807193756
1761914799646215200,8.215215087890625,-0.3523753583431244,0.07467514276504517,0.2983602285385132
1761914799656270000,8.22527001953125,-0.6325108408927917,0.4297373592853546,0.5620381832122803
1761914799666325000,8.235324951171876,-0.8138697743415833,0.7830510139465332,0.7077420353889465
1761914799676381200,8.245381103515625,-0.8908042311668396,1.0822540521621704,0.7009369134902954
1761914799686436000,8.25543603515625,-0.8734943866729736,1.2609031200408936,0.5476717948913574
1761914799696491000,8.265490966796875,-0.7780352234840393,1.232089638710022,0.26501375436782837
1761914799706546200,8.275546142578126,-0.6343197822570801,0.9980849027633667,-0.08721906691789627
1761914799716602000,8.28560205078125,-0.5136452913284302,0.6411081552505493,-0.40231627225875854
1761914799726657300,8.2956572265625,-0.44893643260002136,0.34068965911865234,-0.5327579975128174
1761914799736712200,8.305712158203125,-0.44107183814048767,0.2148270606994629,-0.42208340764045715
1761914799746767000,8.31576708984375,-0.4709124267101288,0.2415582537651062,-0.12760159373283386
1761914799756823000,8.325822998046876,-0.5072211027145386,0.2986449599266052,0.21618878841400146
1761914799766878200,8.335878173828124,-0.509395956993103,0.31481608748435974,0.49604547023773193
1761914799776933000,8.34593310546875,-0.45147889852523804,0.3147431015968323,0.6783992648124695
1761914799786988000,8.355988037109375,-0.3072951138019562,0.2982216775417328,0.7421629428863525
1761914799797044000,8.3660439453125,-0.10307377576828003,0.2209804356098175,0.6906629800796509
1761914799807099100,8.37609912109375,0.09451677650213242,0.11122363060712814,0.5509772896766663
1761914799817154000,8.386154052734375,0.2292434275150299,0.019708890467882156,0.3583469092845917
1761914799827209200,8.396209228515625,0.26054611802101135,0.013509710319340229,0.17842794954776764
1761914799837264100,8.40626416015625,0.18751879036426544,0.10904555022716522,0.05643840134143829
1761914799847320000,8.416320068359376,0.030561715364456177,0.27341964840888977,-0.010674139484763145
1761914799857375200,8.426375244140624,-0.15979118645191193,0.46031150221824646,0.005764755420386791
1761914799867430100,8.43643017578125,-0.323048859834671,0.610353410243988,0.0907638818025589
1761914799877485000,8.446485107421875,-0.38997864723205566,0.7016780376434326,0.21584270894527435
1761914799887542000,8.4565419921875,-0.3806133270263672,0.6783085465431213,0.3216777741909027
1761914799897598000,8.466597900390624,-0.3357987105846405,0.4858487844467163,0.3711411952972412
1761914799907653000,8.476653076171875,-0.28580817580223083,0.24988827109336853,0.3936322331428528
1761914799917708000,8.4867080078125,-0.2353908270597458,0.041009366512298584,0.4276786148548126
1761914799927763200,8.49676318359375,-0.14591707289218903,-0.09910746663808823,0.4940735399723053
1761914799937819000,8.50681884765625,-0.016810227185487747,-0.0578383207321167,0.5905199646949768
1761914799947874000,8.5168740234375,0.16215617954730988,0.11796605587005615,0.6461355686187744
1761914799957929200,8.52692919921875,0.3415754735469818,0.2398618757724762,0.5726490616798401
1761914799967984000,8.536984130859375,0.4440065622329712,0.20901499688625336,0.37858206033706665
1761914799978039000,8.5470390625,0.4876677691936493,0.08970111608505249,0.1015123799443245
1761914799988095000,8.557094970703124,0.5435379147529602,-0.05924377590417862,-0.15963758528232574
1761914799998150100,8.567150146484375,0.5281546711921692,-0.20193354785442352,-0.25961318612098694
1761914800008205000,8.577205078125,0.3506988286972046,-0.44762754440307617,-0.15508787333965302
1761914800018260000,8.587260009765625,0.08521711826324463,-0.6612932085990906,0.07917095720767975
1761914800028316000,8.59731591796875,-0.04445919021964073,-0.5747407078742981,0.35667166113853455
1761914800038371000,8.60737109375,-0.07758332788944244,-0.6471584439277649,0.4510756731033325
1761914800048426200,8.61742626953125,-0.12629550695419312,-1.0270318984985352,0.3565721809864044
1761914800058481200,8.627481201171875,-0.1304021030664444,-1.376438856124878,0.17966130375862122
1761914800068537300,8.637537353515626,0.019694611430168152,-1.4347370862960815,-0.029219573363661766
1761914800078592000,8.647592041015624,0.275631308555603,-1.281233549118042,-0.26428747177124023
1761914800088647200,8.657647216796875,0.5337897539138794,-1.0105113983154297,-0.5055479407310486
1761914800098702000,8.6677021484375,0.7348232269287109,-0.610756516456604,-0.7044170498847961
1761914800108757000,8.677757080078125,0.8073446750640869,-0.18326875567436218,-0.8846845626831055
1761914800118813000,8.68781298828125,0.7248844504356384,0.13119490444660187,-1.0703407526016235
1761914800128868000,8.6978681640625,0.4923039972782135,0.1093885526061058,-1.2405973672866821
1761914800138923300,8.70792333984375,0.20276886224746704,-0.18431150913238525,-1.2792630195617676
1761914800148978200,8.717978271484375,-0.02088763192296028,-0.46951064467430115,-1.1140098571777344
1761914800159034000,8.7280341796875,-0.10209672898054123,-0.5909718871116638,-0.7801178693771362
1761914800169089000,8.738089111328126,-0.0958176925778389,-0.5608961582183838,-0.3525683283805847
1761914800179144200,8.748144287109374,-0.11673789471387863,-0.38282009959220886,0.09278251975774765
1761914800189199000,8.75819921875,-0.14080357551574707,-0.07787581533193588,0.44854050874710083
1761914800199255300,8.76825537109375,-0.12513859570026398,0.28564462065696716,0.6322714686393738
1761914800209310200,8.778310302734376,-0.09199950098991394,0.6218442320823669,0.6289450526237488
1761914800219365400,8.788365478515624,-0.07869381457567215,0.8760570883750916,0.4334477186203003
1761914800229420500,8.798420654296875,-0.08061490207910538,1.0084396600723267,0.05730005353689194
1761914800239475500,8.808475341796875,-0.12951453030109406,1.0268434286117554,-0.4346853792667389
1761914800249531400,8.818531494140625,-0.2557959258556366,1.0163260698318481,-0.9037798643112183
1761914800259586300,8.82858642578125,-0.4429466426372528,1.0012339353561401,-1.1926337480545044
1761914800269641500,8.838641357421874,-0.6119517087936401,1.0066245794296265,-1.219974160194397
1761914800279696400,8.8486962890625,-0.7244367003440857,1.0681216716766357,-0.9894355535507202
1761914800289752600,8.858752685546875,-0.779691219329834,1.1523194313049316,-0.569256603717804
1761914800299807200,8.86880712890625,-0.7676340341567993,1.1787039041519165,-0.10272988677024841
1761914800309862400,8.8788623046875,-0.7017094492912292,1.0816940069198608,0.2945537269115448
1761914800319917600,8.88891748046875,-0.5951643586158752,0.863531231880188,0.552800178527832
1761914800329973500,8.898973388671875,-0.45178788900375366,0.5616375803947449,0.6280220150947571
1761914800340028400,8.9090283203125,-0.27345651388168335,0.24382445216178894,0.540907084941864
1761914800350083300,8.919083251953126,-0.09815147519111633,0.013351677916944027,0.3562757074832916
1761914800360138500,8.929138427734374,0.020290743559598923,-0.07318694144487381,0.14687666296958923
1761914800370193400,8.939193359375,0.06704472005367279,-0.05436871945858002,-0.04884311556816101
1761914800380249600,8.94924951171875,0.05976097285747528,0.047331809997558594,-0.19038879871368408
1761914800390304300,8.95930419921875,0.004187338054180145,0.18208105862140656,-0.25054651498794556
1761914800400359400,8.969359375,-0.07619591802358627,0.3321845531463623,-0.2169821560382843
1761914800410414300,8.979414306640624,-0.1654692143201828,0.453315794467926,-0.09192826598882675
1761914800420470500,8.989470458984375,-0.22289468348026276,0.5005038380622864,0.09489114582538605
1761914800430525200,8.999525146484375,-0.24191531538963318,0.4244774281978607,0.29868969321250916
1761914800440580400,9.009580322265625,-0.21818974614143372,0.20830276608467102,0.47071340680122375
1761914800450635500,9.019635498046876,-0.15572547912597656,-0.030344968661665916,0.573268711566925
1761914800460691500,9.02969140625,-0.07021164894104004,-0.19585749506950378,0.6084272265434265
1761914800470746600,9.03974658203125,0.026813071221113205,-0.24294154345989227,0.6186388731002808
1761914800480801300,9.04980126953125,0.15068282186985016,-0.18003395199775696,0.6633307337760925
1761914800490856400,9.0598564453125,0.31624117493629456,-0.02706795372068882,0.7777215838432312
1761914800500911400,9.069911376953126,0.49972817301750183,0.12812189757823944,0.893020749092102
1761914800510967600,9.079967529296875,0.6206116080284119,0.09649290889501572,0.8628986477851868
1761914800521022200,9.090022216796875,0.649512767791748,-0.14078781008720398,0.6317301392555237
1761914800531077400,9.100077392578125,0.6052762269973755,-0.41126081347465515,0.26833969354629517
1761914800541132500,9.110132568359376,0.5886751413345337,-0.505526065826416,-0.037880685180425644
1761914800551188500,9.1201884765625,0.5374465584754944,-0.47772592306137085,-0.13334107398986816
1761914800561243400,9.130243408203125,0.3465767204761505,-0.5154868960380554,-0.0426039844751358
1761914800571298300,9.14029833984375,0.14644260704517365,-0.5690946578979492,0.05915424972772598
1761914800581353500,9.150353515625,0.07415322959423065,-0.5910471081733704,0.004106446169316769
1761914800591409400,9.160409423828124,0.13314823806285858,-0.4985317587852478,-0.19132819771766663
1761914800601464600,9.170464599609375,0.23051419854164124,-0.3279443085193634,-0.45241624116897583
1761914800611519200,9.180519287109375,0.3480881452560425,-0.12679189443588257,-0.7088419198989868
1761914800621574400,9.190574462890625,0.46945318579673767,-0.0016584828263148665,-0.8949894309043884
1761914800631629600,9.200629638671876,0.5561222434043884,0.10826519876718521,-0.9336970448493958
1761914800641685500,9.210685546875,0.5882495641708374,0.22892317175865173,-0.826386034488678
1761914800651740400,9.220740478515625,0.632296085357666,0.2888264060020447,-0.6403740048408508
1761914800661795300,9.23079541015625,0.6552663445472717,0.19491374492645264,-0.4548158347606659
1761914800671850500,9.2408505859375,0.5642164945602417,-0.0780942440032959,-0.34019654989242554
1761914800681906400,9.250906494140626,0.39177098870277405,-0.43411946296691895,-0.32992368936538696
1761914800691961600,9.260961669921874,0.2586608827114105,-0.7358261346817017,-0.39953792095184326
1761914800702016300,9.271016357421875,0.1973610520362854,-0.8653103709220886,-0.49459972977638245
1761914800712071400,9.281071533203125,0.1437634974718094,-0.7718697190284729,-0.5252542495727539
1761914800722127400,9.29112744140625,0.03911910951137543,-0.4774942696094513,-0.4294787049293518
1761914800732182500,9.3011826171875,-0.09844529628753662,-0.20383095741271973,-0.2519526481628418
1761914800742237400,9.311237548828124,-0.17936331033706665,-0.04826053977012634,-0.03732265159487724
1761914800752292400,9.321292236328125,-0.1955169141292572,0.02129453606903553,0.137033149600029
1761914800762347500,9.331347412109375,-0.140615314245224,0.04938849061727524,0.14214642345905304
1761914800772403500,9.341403564453126,-0.08043774962425232,0.11889708042144775,0.001748768612742424
1761914800782458400,9.351458251953124,-0.10855807363986969,0.2830897569656372,-0.16959021985530853
1761914800792513300,9.36151318359375,-0.2133311778306961,0.4117591381072998,-0.301522821187973
1761914800802568400,9.371568359375,-0.3522526025772095,0.35096314549446106,-0.3278180956840515
1761914800812624400,9.381624267578125,-0.5102474093437195,0.22089709341526031,-0.19350096583366394
1761914800822679600,9.391679443359376,-0.6031776666641235,0.12908142805099487,0.06971841305494308
1761914800832734500,9.401734375,-0.556915283203125,0.10790453106164932,0.34400925040245056
1761914800842789400,9.411789306640625,-0.3840370178222656,0.15423819422721863,0.5467268824577332
1761914800852845300,9.42184521484375,-0.15693967044353485,0.2554933726787567,0.6227823495864868
1761914800862900500,9.431900390625,0.07100588083267212,0.33809158205986023,0.5548211336135864
1761914800872955400,9.441955322265626,0.2579862177371979,0.39635297656059265,0.36272889375686646
1761914800883010300,9.45201025390625,0.4045439660549164,0.45833083987236023,0.09861762821674347
1761914800893065500,9.4620654296875,0.49021491408348083,0.5159719586372375,-0.19322898983955383
1761914800903121400,9.472121337890625,0.4896561801433563,0.5330808758735657,-0.45763614773750305
1761914800913176300,9.48217626953125,0.40581008791923523,0.5054473280906677,-0.6159960627555847
1761914800923231500,9.4922314453125,0.2597772479057312,0.46048253774642944,-0.6098231077194214
1761914800933286400,9.502286376953125,0.1051168143749237,0.45137616991996765,-0.442873477935791
1761914800943342300,9.51234228515625,0.007806506007909775,0.492328941822052,-0.1872989535331726
1761914800953397500,9.5223974609375,0.007674703374505043,0.509314239025116,0.06671047955751419
1761914800963452400,9.532452392578126,0.048478856682777405,0.48736709356307983,0.25123345851898193
1761914800973507300,9.54250732421875,0.057388871908187866,0.4251292645931244,0.35548752546310425
1761914800983563500,9.5525634765625,0.0021051098592579365,0.2903520166873932,0.3778567612171173
1761914800993618400,9.562618408203125,-0.11407908797264099,0.13440610468387604,0.38664767146110535
1761914801003673300,9.57267333984375,-0.2717720568180084,-0.00222019013017416,0.4191417098045349
1761914801013728300,9.582728271484376,-0.3711988031864166,-0.09860353171825409,0.49170181155204773
1761914801023783400,9.592783447265624,-0.3143187463283539,-0.13136066496372223,0.5690658092498779
1761914801033839400,9.60283935546875,-0.10429325699806213,-0.00883005652576685,0.6476351022720337
1761914801043894300,9.612894287109375,0.17194631695747375,0.2724516987800598,0.6833693981170654
1761914801053949400,9.622949462890626,0.4293140769004822,0.4909064471721649,0.5860934257507324
1761914801064004400,9.63300439453125,0.5332000255584717,0.5347679257392883,0.3519248366355896
1761914801074060500,9.643060546875,0.44078895449638367,0.3918435871601105,0.04627475142478943
1761914801084115500,9.653115478515625,0.3013719618320465,0.28503936529159546,-0.17785048484802246
1761914801094170400,9.66317041015625,0.17605406045913696,0.2609950006008148,-0.23041898012161255
1761914801104225300,9.673225341796876,-0.03627525642514229,0.17638210952281952,-0.18952161073684692
1761914801114281500,9.683281494140624,-0.3246466815471649,0.08517500013113022,-0.08173254132270813
1761914801124336400,9.69333642578125,-0.5461875796318054,-0.007574375718832016,0.06779623031616211
1761914801134391300,9.703391357421875,-0.721288800239563,-0.34544962644577026,0.23335276544094086
1761914801144446500,9.713446533203125,-0.8249688744544983,-0.8937097787857056,0.43840286135673523
1761914801154501400,9.72350146484375,-0.7690392732620239,-1.2879114151000977,0.658765971660614
1761914801164557600,9.7335576171875,-0.5252742767333984,-1.3835196495056152,0.7558831572532654
1761914801174612500,9.743612548828125,-0.13779568672180176,-1.217950701713562,0.5998156666755676
1761914801184667400,9.75366748046875,0.26262521743774414,-0.8288208246231079,0.26066771149635315
1761914801194722300,9.763722412109376,0.5454033017158508,-0.32883790135383606,-0.14488056302070618
1761914801204778500,9.773778564453124,0.6191267967224121,0.1811973750591278,-0.4769926965236664
1761914801214828800,9.783828857421875,0.522678554058075,0.5746484398841858,-0.666790783405304
1761914801224883500,9.793883544921876,0.3373640775680542,0.66572505235672,-0.7399683594703674
1761914801234938600,9.803938720703124,0.13959750533103943,0.39436957240104675,-0.7182977199554443
1761914801244993800,9.813993896484375,-0.03289889916777611,-0.07647120952606201,-0.6098392009735107
1761914801255049700,9.8240498046875,-0.08252264559268951,-0.5237792134284973,-0.43356165289878845
1761914801265104600,9.834104736328126,-0.015608055517077446,-0.8003152012825012,-0.22124512493610382
1761914801275159600,9.84415966796875,0.0967649444937706,-0.8702691793441772,-0.0048354859463870525
1761914801285214700,9.854214599609374,0.18507057428359985,-0.7490295767784119,0.13222728669643402
1761914801295270700,9.864270751953125,0.20522361993789673,-0.6287187337875366,0.15801312029361725
1761914801305325600,9.87432568359375,0.13531777262687683,-0.537525475025177,0.10872440785169601
1761914801315380500,9.88438037109375,-0.007266429252922535,-0.4675242304801941,-0.0009761573746800423
1761914801325435600,9.894435546875,-0.16576232016086578,-0.4541644752025604,-0.24259917438030243
1761914801335491600,9.90449169921875,-0.3296456038951874,-0.5111284852027893,-0.6214326024055481
1761914801345546800,9.914546630859375,-0.4931410551071167,-0.6048813462257385,-1.0506415367126465
1761914801355601700,9.9246015625,-0.6640188097953796,-0.6594516038894653,-1.4213440418243408
1761914801365656600,9.934656494140626,-0.8337002396583557,-0.5903995633125305,-1.6524534225463867
1761914801375711700,9.944711669921874,-0.9338425397872925,-0.406624436378479,-1.7268447875976562
1761914801385767700,9.954767578125,-0.9097550511360168,-0.10863533616065979,-1.628446340560913
1761914801395822600,9.964822509765625,-0.7652063369750977,0.427919864654541,-1.3485777378082275
1761914801405877500,9.97487744140625,-0.5970455408096313,1.1332197189331055,-0.9429888725280762
1761914801415932700,9.9849326171875,-0.4819619059562683,1.8140400648117065,-0.5015255808830261
1761914801425988600,9.994988525390625,-0.412538081407547,2.3993372917175293,-0.08410943299531937
1761914801436043500,10.00504345703125,-0.3641889989376068,2.784569025039673,0.26389023661613464
1761914801446098700,10.0150986328125,-0.3155415952205658,2.6354846954345703,0.4944462180137634
1761914801456153600,10.025153564453126,-0.25780561566352844,1.913070559501648,0.6348698139190674
1761914801466208800,10.035208740234374,-0.24882595241069794,1.1391130685806274,0.7375900149345398
1761914801476264700,10.0452646484375,-0.26141348481178284,0.45306986570358276,0.7678599953651428
1761914801486319600,10.055319580078125,-0.2535822093486786,-0.4260531961917877,0.7421171069145203
1761914801496374500,10.06537451171875,-0.311237633228302,-0.6377900242805481,0.7695366740226746
1761914801506429700,10.0754296875,-0.36661672592163086,-0.32452526688575745,0.8060219287872314
1761914801516485600,10.085485595703124,-0.3517961800098419,-0.022384781390428543,0.8121838569641113
1761914801526540500,10.09554052734375,-0.3225650489330292,0.1769043654203415,0.810581386089325
1761914801536595500,10.105595458984375,-0.35250040888786316,0.3529217541217804,0.8327016830444336
1761914801546650600,10.115650634765625,-0.40552422404289246,0.48988625407218933,0.884299099445343
1761914801556706600,10.12570654296875,-0.41224053502082825,0.5297790169715881,0.9258635640144348
1761914801566761700,10.13576171875,-0.3856019973754883,0.5169129967689514,0.9508234858512878
1761914801576816600,10.145816650390625,-0.35812997817993164,0.4890722334384918,0.9630245566368103
1761914801586871600,10.15587158203125,-0.32460662722587585,0.4802483916282654,0.9836574196815491
1761914801596926700,10.1659267578125,-0.24578233063220978,0.5784064531326294,1.0476254224777222
1761914801606982700,10.175982666015624,-0.05290449038147926,0.7017702460289001,1.1044058799743652
1761914801617037600,10.18603759765625,0.2310163378715515,0.45786553621292114,0.9827257394790649
1761914801627092500,10.196092529296875,0.5030395984649658,-0.07457573711872101,0.6468188166618347
1761914801637147600,10.206147705078125,0.6968140006065369,-0.41958117485046387,0.2231903076171875
1761914801647203600,10.21620361328125,0.7795631885528564,-0.5065253973007202,-0.15320010483264923
1761914801657258500,10.226258544921874,0.6318725943565369,-0.4661586880683899,-0.37881550192832947
1761914801667313700,10.236313720703125,0.24756170809268951,-0.371816486120224,-0.4261507987976074
1761914801677368600,10.24636865234375,-0.21079210937023163,-0.3358764946460724,-0.34159985184669495
1761914801687423700,10.256423828125,-0.5178133249282837,-0.3516855537891388,-0.2183612734079361
1761914801697479700,10.266479736328124,-0.5298951864242554,-0.282172828912735,-0.13719473779201508
1761914801707534600,10.27653466796875,-0.3111644387245178,0.09251607954502106,-0.09687607735395432
1761914801717589500,10.286589599609375,-0.0875987783074379,0.7278873920440674,-0.10932467132806778
1761914801727644700,10.296644775390625,0.20636974275112152,0.5542231798171997,-0.2852717339992523
1761914801737700600,10.30670068359375,0.4399922490119934,0.06883902847766876,-0.49577489495277405
1761914801747755500,10.316755615234374,0.5860333442687988,-0.15142463147640228,-0.5935291647911072
1761914801757810700,10.326810791015625,0.6812600493431091,-0.11010492593050003,-0.6369829177856445
1761914801767865600,10.336865478515625,0.6472682952880859,-0.05084453150629997,-0.7367249727249146
1761914801777921800,10.346921875,0.428611159324646,0.07553048431873322,-0.9193577170372009
1761914801787976400,10.3569765625,0.14626921713352203,-0.0003698739456012845,-1.243476152420044
1761914801798031600,10.367031494140624,0.043916720896959305,-0.5179391503334045,-1.6411350965499878
1761914801808086500,10.37708642578125,0.13273394107818604,-1.0046603679656982,-1.9369544982910156
1761914801818141700,10.3871416015625,0.3355570435523987,-1.179591178894043,-2.041533946990967
1761914801828197600,10.39719775390625,0.6098852753639221,-1.0162824392318726,-2.0046122074127197
1761914801838252500,10.40725244140625,0.8852764964103699,-0.5714625120162964,-1.8462841510772705
1761914801848307700,10.4173076171875,1.0358322858810425,-0.023949893191456795,-1.5773848295211792
1761914801858362600,10.427362548828125,0.9501655101776123,0.40610358119010925,-1.2723175287246704
1761914801868418800,10.437418701171875,0.6309939622879028,0.7070314884185791,-0.9745486974716187
1761914801878473500,10.447473388671876,0.1518663465976715,0.9210863709449768,-0.6600653529167175
1761914801888528600,10.457528564453124,-0.3717777132987976,0.9347319006919861,-0.32880350947380066
1761914801898583600,10.46758349609375,-0.7679117918014526,0.6439574956893921,-0.0594852939248085
1761914801908638700,10.477638671875,-0.9251083135604858,0.23492364585399628,0.1024378314614296
1761914801918694700,10.487694580078125,-0.9255175590515137,-0.11184142529964447,0.15277262032032013
1761914801928749600,10.49774951171875,-0.8513386249542236,-0.189209446310997,0.1427154541015625
1761914801938804700,10.5078046875,-0.7544283270835876,0.043566130101680756,0.11118493974208832
1761914801948859600,10.517859619140625,-0.6853289008140564,0.4120061993598938,0.05195516720414162
1761914801958915600,10.52791552734375,-0.642452597618103,0.9215680360794067,0.017514392733573914
1761914801968970500,10.537970458984375,-0.5951415300369263,1.58255934715271,0.020284611731767654
1761914801979025700,10.548025634765626,-0.5205670595169067,2.411345958709717,0.0839332863688469
1761914801989080600,10.55808056640625,-0.5879858136177063,3.1685972213745117,0.5504887700080872
1761914801999135700,10.5681357421875,-0.9021127820014954,2.1990208625793457,1.2056150436401367
1761914802009191400,10.57819140625,-0.8042030334472656,0.45898598432540894,1.637550711631775
1761914802019246600,10.58824658203125,-0.4286176562309265,-0.671442449092865,1.8973239660263062
1761914802029301800,10.5983017578125,-0.09114055335521698,-1.2786493301391602,2.028695821762085
1761914802039356700,10.608356689453124,0.06308632344007492,-1.4415289163589478,1.9546818733215332
1761914802049412600,10.61841259765625,0.015608817338943481,-1.1930601596832275,1.7440956830978394
1761914802059467500,10.628467529296875,-0.06810292601585388,-0.6926460862159729,1.6054892539978027
1761914802069522700,10.638522705078126,-0.05329282209277153,-0.1942104697227478,1.5177218914031982
