time,seconds_elapsed,z,y,x
1761915073371355100,0.117355224609375,-1.1100625980943442,-0.8074111921399831,1.2804222334958613
1761915073381409000,0.127408935546875,-0.6506780771613121,-3.99778953371644,-0.24953487892523407
1761915073391464000,0.1374638671875,0.20926175911724565,-5.760094974070787,0.4112203556142747
1761915073401518000,0.14751806640625,0.5098176540970802,-3.2811376399099825,1.8634157445713877
1761915073411572000,0.157572021484375,0.9603840778023004,-1.737292287389934,1.9583798011183737
1761915073421627100,0.167627197265625,1.3917209003806112,-1.3454980783879755,1.4802157609134912
1761915073431681000,0.177680908203125,1.6770084990799425,-1.1387824966222047,1.4351217968203127
1761915073441736000,0.18773583984375,1.4357768997281788,-1.117962703694403,1.4433319912828504
1761915073451790000,0.1977900390625,0.770734197127819,-1.3881249217152594,0.8125308732412755
1761915073461844000,0.207843994140625,0.3108452338039875,-1.5148893071487546,0.16414631384462117
1761915073471899100,0.217899169921875,-0.04518120398521423,-1.1559022659882903,0.14461027711704372
1761915073481953000,0.227953125,-0.14705050987601279,-0.5531695968285203,0.35721199431195855
1761915073492006700,0.238006591796875,0.12271978621780871,-0.11778496016412973,0.39043125008568164
1761915073502061800,0.248061767578125,0.11635609640479087,0.009278115954995154,0.33591786187067624
1761915073512115700,0.25811572265625,-0.12544482726752756,-0.019157704934477805,0.26041268516182897
1761915073522169900,0.268169921875,-0.615410948947072,0.016934183666110037,0.2573202721044421
1761915073532224800,0.278224853515625,-1.0938041217327117,0.01884469346255064,0.24126345579475164
1761915073542278700,0.288278564453125,-1.3957155229747296,0.03342997591495514,0.15337649802714584
1761915073552332800,0.298332763671875,-1.4522563253641128,0.047368777157366274,-0.029664193640649317
1761915073562387700,0.3083876953125,-1.140326218932867,0.059441492266952986,-0.304632789029926
1761915073572441900,0.31844189453125,-0.5651812294006348,0.07754647327810525,-0.5890203701496124
1761915073582496800,0.328496826171875,-0.18253741832077502,0.10659195049852133,-0.7654401823729277
1761915073592550700,0.338550537109375,-0.16313304514884946,0.09564560907036065,-0.7790686024919152
1761915073602604800,0.348604736328125,-0.7279343353211879,0.017368191169202327,-0.7559488620586693
1761915073612659700,0.35865966796875,-1.2596020021766423,-0.06597557021081447,-0.7573296488925814
1761915073622713900,0.3687138671875,-0.8687912512540816,-0.037836394180357454,-0.7539941477943212
1761915073632767700,0.378767822265625,-0.2734510304331779,0.034948856045305725,-0.8084710764564573
1761915073642822700,0.38882275390625,0.20226561661958695,0.008219839073717594,-0.9905436537444591
1761915073652876800,0.398876708984375,0.7581430111020803,0.0016553659915924071,-1.0578755339350552
1761915073662930700,0.4089306640625,1.0365969643890858,-0.11036211668699979,-1.0970900115355848
1761915073672985900,0.41898583984375,0.7571183442294597,-0.12908669090121982,-1.0572346056830138
1761915073683039700,0.429039794921875,0.34261809016168115,0.05534516286402941,-0.9474556226462125
1761915073693094000,0.439093994140625,0.16321838534474373,0.276388252928853,-0.9000590076338499
1761915073703148800,0.449148681640625,0.2212947267383337,0.4728247250035405,-0.9666328359987586
1761915073713202700,0.45920263671875,0.502964134940505,0.5350453265950084,-1.1202924618162213
1761915073723257900,0.4692578125,0.6434376045137643,0.4227998803794384,-1.2682961807638407
1761915073733312000,0.47931201171875,0.6834843682199716,0.30019319914728404,-1.304819446519017
1761915073743366000,0.489365966796875,0.6254238089174032,0.21846797887980937,-1.2761930714935064
1761915073753420800,0.4994208984375,0.5803975032329559,0.1762777734041214,-1.206737623277679
1761915073763474700,0.509474609375,0.6165916831642388,0.11723550958782433,-1.1208850208818912
1761915073773528800,0.51952880859375,0.7294739659786224,0.057624213711917394,-1.1227611169520766
1761915073783584000,0.529583984375,0.7115700604975224,0.07147241406142711,-1.0916844261649996
1761915073793637600,0.5396376953125,0.38194180029034613,0.2020163180336356,-0.9563893821429461
1761915073803691800,0.54969189453125,-0.06329962899982929,0.33509003274440763,-0.7620905796840787
1761915073813746700,0.55974658203125,-0.28992051919698714,0.464850969645381,-0.5172618326231837
1761915073823800800,0.56980078125,-0.359987158113718,0.5509814391344785,-0.40067623831145466
1761915073833854700,0.579854736328125,-0.22116963905394077,0.6615580753549933,-0.3653046268094331
1761915073843909600,0.58990966796875,0.14919161355793475,0.8370233633324503,-0.30291480613090094
1761915073853963800,0.5999638671875,0.6132528941303491,0.9171969702437519,-0.20325411620028316
1761915073864018700,0.610018798828125,0.9911673386007547,0.9567375379934906,-0.0905793386567384
1761915073874072800,0.62007275390625,1.2900567616730927,0.9876794964849949,0.031242548873275516
1761915073884126700,0.630126708984375,1.4910282468289136,0.9460685522019863,0.1317963882513344
1761915073894181600,0.640181640625,1.716117105153203,0.8709542745068669,0.2128846257895231
1761915073904235800,0.65023583984375,1.939996003165841,0.9076078886434435,0.3186748314511031
1761915073914289700,0.66028955078125,2.077873611027002,1.0439672008961438,0.45288975208625193
1761915073924344800,0.6703447265625,2.102152896758914,1.1310133239254354,0.551243597202003
1761915073934399000,0.68039892578125,2.162622270768881,1.2564064210057257,0.5949906767308711
1761915073944452900,0.690452880859375,2.2276965082257987,1.2317270300403236,0.6423832731552421
1761915073954507800,0.7005078125,2.2165227877825497,1.0401824216604232,0.754862966518104
1761915073964561700,0.710561767578125,2.1236679784744976,0.8421914136201143,0.8946873245328665
1761915073974615800,0.72061572265625,2.05663559268713,0.7422150818690657,1.0366894649781286
1761915073984671000,0.7306708984375,2.0119845500558613,0.729286334452033,1.0741646246306598
1761915073994724900,0.740724853515625,1.704527789646387,0.7266428342059255,1.0111078644759952
1761915074004779800,0.75077978515625,1.0774895312696695,0.47700668686330316,0.7894481038175523
1761915074014833700,0.760833740234375,0.39539106445014477,-0.093166359475255,0.5538805215768515
1761915074024887800,0.7708876953125,-0.07764788782596588,-1.0214055327370761,0.10607508701756596
1761915074034943000,0.78094287109375,-0.48005847564935683,-1.8436118506878614,-0.5566888569958508
1761915074044996900,0.790996826171875,-1.265003568959236,-2.3372654287084935,-1.195234597814828
1761915074055050800,0.80105078125,-3.1966081758767366,-3.035411359487474,-1.6496245253309607
1761915074065105700,0.811105712890625,-5.773137995517254,-3.5715541259303687,-1.6242722035400567
1761915074075159800,0.821159912109375,-8.590317230707406,-3.6336703903645273,-1.296158585679531
1761915074085213700,0.831213623046875,-11.455838764262198,-2.9197333084747195,-0.7321114748753607
1761915074095268600,0.8412685546875,-13.374686180937289,-1.6615993330240248,-0.27931349272578954
1761915074105322800,0.85132275390625,-14.006320534932613,-0.9609639235168694,-0.433162576700747
1761915074115376600,0.861376708984375,-12.994120345175265,-1.06044253487885,-1.0361809309341012
1761915074125431800,0.871431884765625,-10.891910749793052,-1.4418439446821807,-1.6268084440194068
1761915074135486000,0.88148583984375,-8.25067552600801,-1.8896470411539077,-2.1883877034053203
1761915074145540600,0.89154052734375,-5.479135175442695,-2.230023197607696,-2.727970088908076
1761915074155594800,0.9015947265625,-2.9741525886654854,-2.09999718002975,-3.0964868826970458
1761915074165648600,0.911648681640625,-1.23746908082366,-1.4045295285493136,-3.1120471476614475
1761915074175703800,0.921703857421875,0.24772622206807135,-0.8176765655666589,-2.7437247074007987
1761915074185758000,0.931758056640625,1.553396732458472,-1.018356666560471,-2.220405182173848
1761915074195811800,0.941811767578125,2.2896610892295834,-1.4029779151931405,-1.517829452253878
1761915074205866800,0.95186669921875,2.3622207140058276,-1.5504992574512957,-0.5971309036299586
1761915074215920600,0.961920654296875,2.0702882704645393,-1.4415233344256877,0.3740862644843757
1761915074225974800,0.971974853515625,1.7989333355277775,-1.3387567874342203,1.188835836688429
1761915074236030000,0.982030029296875,1.7512205672383307,-1.1450000559628009,1.7420346596114336
1761915074246083800,0.992083740234375,1.8432938707798718,-0.6907640038341284,2.052960119044781
1761915074256137700,1.0021376953125,1.879144351840019,0.1785340278983116,2.1963494760647415
1761915074266192600,1.012192626953125,2.0776924092411995,1.2925894950211048,2.2498805752441284
1761915074276246800,1.022246826171875,2.728805370688438,2.3134113826513287,2.1713132344856856
1761915074286302000,1.032302001953125,3.7057062835276127,3.100548433047533,1.9758831629745661
1761915074296355800,1.04235595703125,4.80253998221457,3.75725994515419,1.8448738334476946
1761915074306409700,1.05240966796875,5.5406169413656,4.109248505729437,1.7936301145531237
1761915074316464600,1.062464599609375,5.924932485049963,4.284690412831306,1.8344392409339547
1761915074326518800,1.072518798828125,6.216154734495282,4.513864494642615,2.055609464509785
1761915074336573000,1.082572998046875,6.694823217090964,4.675803361570835,2.232305755586922
1761915074346627800,1.0926279296875,7.301660398960113,4.669287696066498,2.1788740251287817
1761915074356681700,1.102681640625,7.8194380721509456,4.493543006625771,1.9512281757980583
1761915074366735600,1.112735595703125,8.191621279492974,4.1426293818056585,1.53518434555009
1761915074376790800,1.122790771484375,8.367897883853315,3.6821833691209553,1.0290721218422054
1761915074386845000,1.132844970703125,8.413139293593169,3.2849370321929454,0.6389855935409665
1761915074396898800,1.14289892578125,8.295870173996686,3.2174995727360245,0.5872850707896053
1761915074406953700,1.15295361328125,7.857841160303354,3.376805753073096,0.6847552649386227
1761915074417007600,1.163007568359375,7.009644953310489,3.474651210275292,0.740987293639779
1761915074427062800,1.173062744140625,5.735448024070263,3.3884634576410053,0.8129632733091712
1761915074437117000,1.183116943359375,4.036772467583417,3.1687983779311177,0.8763217928893864
1761915074447170800,1.1931708984375,2.5021301199555395,3.109681003051996,1.1710329073637724
1761915074457225700,1.203225830078125,1.518900004094839,3.2255197975844143,1.489486131953448
1761915074467279600,1.213279541015625,1.1929355270922184,3.165595197975635,1.5855318462572991
1761915074477333800,1.223333740234375,1.2910013490468264,2.8742005145728586,1.4143882208712397
1761915074487389000,1.233388916015625,1.272918579867482,2.2166700872987506,1.1363029547661543
1761915074497443000,1.243443115234375,0.6910691242605448,1.2833978883057833,0.9377477369718253
1761915074507497000,1.2534970703125,-0.9842191268980502,0.5226426488786936,0.5037897721096873
1761915074517552000,1.26355224609375,-1.9835779552608728,1.1849702473014592,1.1837027115836738
1761915074527606300,1.273606201171875,-0.8555570911496877,1.5860779358327388,1.4495932436347008
1761915074537660200,1.28366015625,0.2864005283772945,0.7381354113399982,0.5094426833048462
1761915074547715000,1.293715087890625,0.5226017323464155,0.26569500947892666,-0.251682558478415
1761915074557769000,1.30376904296875,-0.5769920787036419,0.25217384912669655,-0.682131492306292
1761915074567824100,1.31382421875,-2.2827871118068694,-0.4157838641375303,-1.3876955903872847
1761915074577878300,1.323878173828125,-2.99467749029994,-2.1114450412392616,-2.200238592457771
1761915074587932200,1.33393212890625,-3.0959628588229418,-4.004315136092901,-3.0361183387130497
1761915074597987000,1.343987060546875,-4.56480791541636,-4.985731480529904,-4.12329485899955
1761915074608041000,1.354041015625,-5.981307283222675,-4.43474244261086,-4.388402716240287
1761915074618095000,1.36409521484375,-6.693796796652674,-3.836934370371699,-4.063291056674719
1761915074628150300,1.374150390625,-8.195757940906287,-4.865497958169877,-4.0936435248404734
1761915074638204200,1.3842041015625,-10.128817422807217,-6.242151345539092,-3.960064198695123
1761915074648258300,1.39425830078125,-11.397339813542365,-6.61702276905179,-3.2254151681661605
1761915074658313000,1.40431298828125,-12.415545381194352,-5.9586558909535405,-2.747946124488115
1761915074668367000,1.4143671875,-13.311065649420023,-4.393806621110439,-2.618688753195107
1761915074678421200,1.424421142578125,-13.299350661706924,-2.7610028821989894,-2.6794395744949577
1761915074688476200,1.43447607421875,-12.08708265763521,-1.703004233340919,-2.7908944548547265
1761915074698530300,1.4445302734375,-9.470064760261774,-1.2653215488672256,-3.0494255640536543
1761915074708585200,1.454585205078125,-6.004056290647387,-1.301954996998608,-3.1448879255115982
1761915074718639000,1.46463916015625,-3.0727976718127725,-1.545369785608351,-2.81226048348844
1761915074728693200,1.474693359375,-0.9470809441149234,-1.5491834986776112,-2.099411635226756
1761915074738748200,1.484748046875,0.6357739380180836,-0.9899737449020147,-0.9942704191826284
1761915074748802300,1.49480224609375,1.9303437932014464,-0.014418401452898978,0.48123877147510646
1761915074758856000,1.50485595703125,1.955264883968234,0.6363873937413096,1.5917422452047467
1761915074768911000,1.5149111328125,0.7387894913345575,0.9560539396435022,1.9123847965322434
1761915074778965200,1.52496533203125,-0.25198329499065875,1.7275637973189353,1.9967977945789694
1761915074789019100,1.53501904296875,-0.42175241715312,2.5971111276373264,2.2101607054047285
1761915074799074000,1.545073974609375,0.41958617902994155,2.8927228442132473,2.357136834870279
1761915074809128000,1.5551279296875,1.7701316039353607,2.7586878832548853,2.3083104062505067
1761915074819183000,1.56518310546875,3.3750206232219933,2.640909645092487,2.1707642223007975
1761915074829237200,1.5752373046875,5.046134219044447,2.832693907447159,2.0149531906031073
1761915074839291100,1.585291015625,6.215310100364685,3.1266742234289646,1.743609946104139
1761915074849346000,1.595345947265625,6.949782313022017,3.219965962849557,1.4239673655994236
1761915074859400000,1.60539990234375,7.437041513830423,3.365718541869521,1.254562400574237
1761915074869454000,1.6154541015625,7.491586758488416,3.4841751176849005,1.2201920750692485
1761915074879509200,1.62550927734375,7.277000589478016,3.6331910824149847,1.2312446533508599
1761915074889563100,1.635563232421875,6.774886933887005,3.5073329981714485,1.2918757937937975
1761915074899617300,1.6456171875,6.010309505823254,3.011171528983116,1.456813404146582
1761915074909672200,1.655672119140625,5.55454668251872,2.5018834517180917,1.8875570831373334
1761915074919726000,1.66572607421875,5.44827943392992,2.251291611085832,2.3677048445053397
1761915074929780200,1.6757802734375,5.574880445495247,2.3054767902597786,2.7702596631050107
1761915074939835100,1.685835205078125,5.964470714712142,2.5309628312081096,3.1876579767018556
1761915074949889300,1.69588916015625,6.334532107594609,2.498449970138073,3.240032014800608
1761915074959944200,1.705944091796875,6.532161881107092,2.3582722686409947,2.89607449272871
1761915074969998000,1.715998046875,6.7887342574536795,2.6074448901250955,2.7434979129076003
1761915074980052200,1.72605224609375,6.861255303785205,2.8330723853707314,2.7288626538336276
1761915074990107100,1.736107177734375,6.584898615038394,2.22455148819834,2.4809143134474754
1761915075000161300,1.746161376953125,6.489512825947999,0.7650549824476242,2.37031108148098
1761915075010215200,1.756215087890625,6.458318061739206,-1.152111349272728,2.045611802108586
1761915075020270000,1.76627001953125,5.872769751614332,-2.9812168279632925,1.2995467668130993
1761915075030324200,1.77632421875,4.630989821854233,-4.044804090608656,1.0950517837062477
1761915075040378000,1.786378173828125,2.858580920636654,-4.21109939918071,1.5975407023504375
1761915075050433300,1.796433349609375,0.9724199680328368,-4.228988399353623,2.2189292644023895
1761915075060487000,1.80648681640625,-1.486806829741597,-4.860430153386295,1.6042434148594735
1761915075070541000,1.816541015625,-4.705274370726943,-5.348060817855596,-0.3884454830959439
1761915075080596200,1.82659619140625,-7.879864191541075,-4.176064910678566,-2.38034498423934
1761915075090650000,1.836650146484375,-9.599228315791487,-1.6485843686282633,-3.4333877642557025
1761915075100704300,1.846704345703125,-9.667629067322611,-0.45021717187613247,-4.365789902415871
1761915075110759200,1.85675927734375,-8.146708371055126,-0.9889248203709721,-5.082912336343527
1761915075120813000,1.86681298828125,-5.691095672124624,-2.2134122545465824,-4.915568395501375
1761915075130867200,1.8768671875,-4.582088136041164,-4.31152055208981,-4.434260504312813
1761915075140922000,1.886922119140625,-5.236573204270005,-6.689364951685071,-3.760667707771063
1761915075150976300,1.896976318359375,-6.823290607050061,-8.269383733609319,-3.039065790341794
1761915075161031200,1.90703125,-8.862838871335983,-8.183921372640132,-2.55486188545078
1761915075171085000,1.9170849609375,-11.330049653601646,-6.261874867662787,-2.589549167950451
1761915075181139200,1.92713916015625,-13.278815238678455,-3.656864218947291,-3.4041444263756273
1761915075191194000,1.937194091796875,-13.616811514258384,-1.5271630977883934,-4.356624014663696
1761915075201248300,1.947248291015625,-11.99043780839443,-0.5468938775599003,-4.9479129142671825
1761915075211302100,1.95730224609375,-9.264007350143789,-0.38226241054683924,-4.86056926959604
1761915075221357000,1.967357177734375,-6.433235058408975,-0.8988903291806578,-4.531806978568435
1761915075231411200,1.9774111328125,-3.4382255596756934,-1.5568565175235272,-4.343836721543967
1761915075241465000,1.987465087890625,-0.32953122957348824,-0.8299567859470843,-3.6990003561481832
1761915075251520300,1.997520263671875,1.7956974223464726,1.4309882041469215,-2.4005858082354066
1761915075261574100,2.00757421875,2.0711235522449014,3.7622082152113316,-1.0784656097602099
1761915075271628000,2.0176279296875,1.2354933968365192,5.535612849467992,0.09780366388708353
1761915075281683200,2.02768310546875,0.13723580282628536,6.378660003134608,0.8807259461324661
1761915075291737000,2.037737060546875,-0.7536743412554263,6.143572897887229,1.3060849364101885
1761915075301792300,2.047792236328125,-0.98518943323493,5.643903712838888,1.645446362863481
1761915075311846100,2.05784619140625,-0.39497546938657757,5.244978044521808,2.1812109436437486
1761915075321900000,2.067900146484375,0.9435667985141277,4.487350289465486,2.821265043199062
1761915075331955200,2.077955078125,2.932172226548195,3.4130607232809065,3.0336630545154213
1761915075342009000,2.088009033203125,5.402096943947672,2.4511396451696754,2.8633368829920887
1761915075352063200,2.098063232421875,7.875261666181683,2.0235499001652,2.621596457335353
1761915075362118100,2.1081181640625,9.674321842959523,1.998817902229726,2.375149607553333
1761915075372172000,2.118172119140625,10.362753604453802,2.0280457502797247,2.0128382442757484
1761915075382226200,2.12822607421875,10.021431399321555,2.1103692287012934,1.7870358308546244
1761915075392281000,2.138281005859375,9.223373141938447,2.1393115378081795,1.6433189954459666
1761915075402335200,2.148335205078125,8.131476899653673,2.019338712210953,1.6514339128404856
1761915075412389000,2.15838916015625,7.10569125213623,1.8491545795068143,1.8447094366662202
1761915075422444000,2.168444091796875,6.557614302271604,1.728407554666698,2.352408345043659
1761915075432498200,2.178498291015625,6.696910544759035,1.3391875800669193,3.0789971109747887
1761915075442553000,2.188552978515625,7.094637358680367,0.6136170512676239,3.7381606924086808
1761915075452607200,2.198607177734375,7.82660898669362,0.08547580497264862,4.136090335425735
1761915075462661400,2.208661376953125,8.488165600743889,0.2853615407183766,4.178613718378544
1761915075472716000,2.218716064453125,8.220551021379231,1.4423349430695176,3.8834997221916914
1761915075482770200,2.228770263671875,7.94182877254486,1.8259236337840556,3.9172815802842376
1761915075492824300,2.23882421875,7.743041061168909,1.7223673977196217,3.93851959862411
1761915075502879500,2.24887939453125,7.0411857544779775,1.9232453593730925,3.0453093609064816
1761915075512933400,2.258933349609375,6.287217983233928,1.6920868257462978,2.041954448644817
1761915075522987300,2.2689873046875,6.105542734700441,1.1396002427458762,1.4686346287131309
1761915075533042400,2.27904248046875,6.237489198946952,0.6976976024895906,1.4229016360640525
1761915075543096300,2.289096435546875,6.346793623274564,0.2723041984856129,1.845365416356921
1761915075553150500,2.299150390625,5.768802012139559,0.0917944866001606,2.055667332176864
1761915075563205400,2.309205322265625,3.589053250002861,-0.8552864575147628,1.7455211865529416
1761915075573259300,2.31925927734375,-0.3605833704411983,-1.5720464878708122,0.052770636200904844
1761915075583314400,2.329314453125,-3.7831998575747012,-1.5448580366939306,-0.9586363573521375
1761915075593368300,2.339368408203125,-5.108178879547119,-1.9053718490302562,-1.5448974919214844
1761915075603422500,2.34942236328125,-7.5385677053719755,-2.780744816762209,-2.4329025622114537
1761915075613477400,2.359477294921875,-9.48670960559249,-3.3755326643973587,-2.4643933867573735
1761915075623531300,2.36953125,-10.610253032028675,-2.9347657501727342,-1.6716289979986845
1761915075633585400,2.37958544921875,-10.864058281749486,-1.869765698119998,-0.6264470144852996
1761915075643640600,2.389640625,-10.144297900533676,-1.2577762480542063,-0.21605667995437977
1761915075653694500,2.399694580078125,-9.270676160383223,-1.856570700982213,-0.5279040765382349
1761915075663748600,2.40974853515625,-9.515343579402565,-3.225218476550281,-1.0444440246276556
1761915075673803300,2.41980322265625,-11.612593506550787,-4.106772178743779,-1.5417292371489106
1761915075683857400,2.429857421875,-11.949757422959804,-3.4064769609764216,-1.22982236546278
1761915075693911300,2.439911376953125,-11.964089899694919,-2.1051200760014352,-1.28755778446421
1761915075703966500,2.449966552734375,-12.148448103702068,-1.328002899838239,-1.8330986399799585
1761915075714020600,2.4600205078125,-9.337318670070172,-1.2975693292602897,-1.5029036858007312
1761915075724074200,2.47007421875,-5.905334635132551,-1.3796470162272452,-1.1390618250202387
1761915075734129400,2.48012939453125,-2.6766519896030423,-1.3336483583793044,-0.9037276862092316
1761915075744183300,2.490183349609375,-0.6794236946523189,-1.2772311823695897,-0.4403795223422348
1761915075754238500,2.500238525390625,1.1726117009878159,-0.8127022842854261,-0.21470088143125174
1761915075764292400,2.510292236328125,1.7503443689256906,-0.5486965430676937,-0.4850459817383438
1761915075774346200,2.52034619140625,2.8275521606445313,-0.41294221097081896,-0.15988836413919924
1761915075784401400,2.5304013671875,4.2145933787763115,-1.049125606572628,0.8562142398841679
1761915075794455300,2.540455322265625,3.499666993588209,-0.46379766120016575,1.8488475593842566
1761915075804509400,2.550509521484375,3.028497342315316,0.9309627530068159,1.9713301758453248
1761915075814564400,2.560564453125,2.5916040546536445,1.2727234956867992,1.5972814668923616
1761915075824618200,2.5706181640625,0.4005126452475786,1.0645737894646823,1.2581006577029823
1761915075834672400,2.58067236328125,0.8669096752911806,1.6049603309571743,1.6180141660585998
1761915075844727600,2.5907275390625,-0.47111996691226954,2.085695682954788,1.8331167601585387
1761915075854781400,2.600781494140625,-1.0906138012588023,2.168072937390208,2.01291014046818
1761915075864835600,2.610835693359375,0.7514964126944541,1.4602083072818814,2.556507022309303
1761915075874890200,2.62089013671875,3.2851556433796882,1.2959257998369633,2.7080843619599935
1761915075884944400,2.6309443359375,5.453616703304648,1.3980211695685982,2.45040855441615
1761915075894999600,2.64099951171875,6.6467778558462856,1.4598340671420096,2.0286182894706726
1761915075905053400,2.651053466796875,6.903006533321737,1.813024404722452,1.6326722214862703
1761915075915107600,2.661107666015625,7.1364990628540514,2.004097888459265,1.2651520375192165
1761915075925162200,2.671162353515625,7.443525030630827,1.9621577122218905,1.2352239322453737
1761915075935216400,2.68121630859375,7.4353668586164705,1.9566627680674193,1.3057577502824365
1761915075945270300,2.691270263671875,7.623160297769307,2.049321324151009,1.1971888006225229
1761915075955325400,2.701325439453125,7.895118459296226,2.032019330085814,0.8323686693944037
1761915075965379600,2.711379638671875,7.591294502431154,1.5975450862646101,0.11243731552585959
1761915075975433500,2.72143359375,6.837901900726556,0.7621148373425006,-0.7011841294310986
1761915075985488400,2.73148828125,5.570040019726753,0.3604916005045175,-1.1367844546727834
1761915075995542300,2.741542236328125,4.159774577873945,0.616352905972302,-0.7649360322430729
1761915076005596400,2.751596435546875,1.7178788541287182,0.9077329763278364,0.29637524829432366
1761915076015651600,2.761651611328125,-0.6223638368248939,1.5210478297784924,1.686140484562516
1761915076025705200,2.771705322265625,0.27734979143738747,1.2058864863410592,1.2864612213991582
1761915076035760400,2.781760498046875,-0.795572285786271,0.48086482359617944,0.8622118728637694
1761915076045814500,2.791814453125,-1.4212228891968726,-0.18354221144914626,0.5280573674038053
1761915076055868400,2.801868408203125,-2.2718413549005985,-0.9546502103254199,0.38219497133381664
1761915076065923300,2.81192333984375,-2.5812644469469785,-1.8073986737951635,0.5206824547216296
1761915076075977200,2.821977294921875,-2.919511482417583,-2.349583058489859,0.1179643353190273
1761915076086031400,2.83203125,-3.6896079661637544,-2.4456097758322954,-0.24075192607603965
1761915076096086500,2.84208642578125,-5.843289390107989,-2.195917806649208,-0.18980185636579988
1761915076106140400,2.852140380859375,-9.257924815359711,-1.6387047796487808,-0.5979432429261505
1761915076116194600,2.862194580078125,-11.944578559017181,-0.6093050332874059,-0.3637164808351546
1761915076126249200,2.872249267578125,-12.792941939270495,0.8839546258553862,0.7662018143951892
1761915076136303400,2.882303466796875,-12.226767022657393,1.5255024710997938,1.4816088227070867
1761915076146357200,2.892357177734375,-10.30594626008272,1.1077192498385906,1.4218192476548253
1761915076156412400,2.902412353515625,-7.997585731080174,-0.46116760495752096,0.4095325486578047
1761915076166466600,2.912466552734375,-5.105522812080383,-5.377504354482888,-2.9586577901527282
1761915076176520400,2.9225205078125,-3.1759996876120566,-12.965948728179931,-6.490895804738998
1761915076186575400,2.932575439453125,-3.976445132392645,-11.563654995858668,-3.529931783470511
1761915076196629200,2.942629150390625,-4.2866666813403365,-6.216926303389668,-0.13376315827965735
1761915076206684400,2.952684326171875,-4.326449241152406,-5.089776376894116,-1.3692643000312148
1761915076216738600,2.962738525390625,-5.808304585966468,-4.183322918982803,-2.0525093065373596
1761915076226792400,2.97279248046875,-6.383751773315668,-1.7913406884416936,-1.0824706806831061
1761915076236847400,2.982847412109375,-6.597397446605563,-0.6992451241925358,-0.29352862669155
1761915076246901500,2.992901611328125,-4.71857691989243,-0.9091972036615014,-0.39465369008630513
1761915076256955400,3.002955322265625,-1.0664590186893939,-1.679838754069805,-1.0141980855762958
1761915076267010600,3.013010498046875,2.2832775256723163,-1.7239727870896457,-1.0580781438350677
1761915076277064400,3.023064453125,4.476553877902031,-1.0801596272617577,-0.5430183513008058
1761915076287118300,3.033118408203125,4.868191727298498,-0.44844636281132694,0.014171733215451239
1761915076297173500,3.043173583984375,4.192078180107474,0.3724181851416826,0.5973972994811833
1761915076307227400,3.053227294921875,3.545135197821259,1.5739967451557517,1.3657045617230237
1761915076317281500,3.063281494140625,3.4670080020457505,1.998816440925002,1.9371677940025924
1761915076327336200,3.073336181640625,3.958549410218,1.7872978427916764,1.8641446433678268
1761915076337390300,3.083390380859375,4.250363780337572,1.896668318092823,1.56332732097283
1761915076347444200,3.0934443359375,5.0204421439051625,2.8136627515017985,2.024551916814595
1761915076357499400,3.10349951171875,5.3097541758149855,2.731336350470781,1.3346940680399537
1761915076367553500,3.113553466796875,6.123035721293092,2.8400960003972053,1.0910653444185852
1761915076377608200,3.123608154296875,7.324647306793928,3.0864675929859278,1.4014232330970466
1761915076387662300,3.133662353515625,7.490047127830982,2.9555367355227466,1.090727344635874
1761915076397716200,3.14371630859375,7.818510435912013,3.1141932197794318,0.5704845965057611
1761915076407771400,3.153771484375,9.632254971602558,3.4286113436341283,0.05833835333064198
1761915076417825500,3.163825439453125,9.99225323563218,3.371434873689711,-0.08781184670478105
1761915076427879400,3.17387939453125,9.526033900243043,3.0668071992263197,0.1549997153148055
1761915076437934300,3.183934326171875,9.191516114428639,2.6013483268156645,0.5504933633565903
1761915076447988500,3.193988525390625,9.08830182366967,2.6167443411290643,0.8183074108161031
1761915076458042400,3.20404248046875,7.570874814736842,2.9084160879075527,0.5324852668486535
1761915076468097500,3.21409765625,5.184831911116838,2.9153558240428565,-0.026494185302406548
1761915076478151400,3.2241513671875,5.421088644665479,2.4979864442795514,0.10843626319095492
1761915076488205300,3.234205322265625,3.7025241463601586,1.3775962211772799,0.4213965894527733
1761915076498260500,3.244260498046875,3.211424636736512,0.7603998501181602,1.4093619171418248
1761915076508314400,3.254314453125,4.257462214165925,0.4818664018541574,1.6695238424129784
1761915076518369500,3.26436962890625,3.488614853698015,0.023829788398742675,0.967290057798475
1761915076528423400,3.27442333984375,4.284817838603258,-0.12260229731798171,0.5520049369633198
1761915076538477300,3.284477294921875,4.233911827230453,-0.12106705057471989,0.7000494263127446
1761915076548532500,3.294532470703125,2.767791811686754,-0.1422337572440505,0.4848486325353384
1761915076558586400,3.30458642578125,-0.7084153958588838,-0.5274114707157016,-0.0015268442410975693
1761915076568640500,3.314640625,-3.451654365569353,-1.2275313319161534,0.07434526608400047
1761915076578695400,3.3246953125,-6.17391601370275,-1.6406462691053747,0.7925513305298983
1761915076588749300,3.334749267578125,-8.88199716079235,-2.2442980989366768,1.8991187799848614
1761915076598803200,3.34480322265625,-10.330636464703083,-2.8004993185460565,2.1931426428474485
1761915076608858400,3.3548583984375,-10.605032082509993,-2.9246286793008447,1.5432544008895754
1761915076618912500,3.36491259765625,-8.36158563196659,-2.594635385173559,0.10111644169688225
1761915076628966400,3.37496630859375,-5.858171901941299,-2.565940036565065,-1.1347772065036
1761915076639021300,3.385021240234375,-4.699025247204303,-3.132587539125979,-1.925705173615366
1761915076649075500,3.395075439453125,-3.7615608572185035,-3.8886131196826694,-3.203004014393687
1761915076659130400,3.40513037109375,-4.455100755506754,-4.642528283956647,-4.324311352340877
1761915076669184500,3.4151845703125,-6.355347516608238,-4.4908775868088,-4.268538903975487
1761915076679238400,3.42523828125,-7.379709853324294,-4.16920291595459,-3.7094095219597216
1761915076689293300,3.435293212890625,-7.459168589964508,-4.239367170026898,-3.1451839858487247
1761915076699347500,3.445347412109375,-7.254747256615757,-4.183561111652851,-2.418276655487716
1761915076709401300,3.4554013671875,-7.074768290606141,-3.933495048460364,-1.639565049739927
1761915076719456500,3.46545654296875,-7.5134735961258405,-3.5364024407893417,-0.6443799999304115
1761915076729510400,3.475510498046875,-7.96320356900692,-3.2461946290835737,0.47424014475941656
1761915076739564500,3.485564453125,-7.7729276653885835,-3.298404416531324,1.1506282711081206
1761915076749619500,3.495619384765625,-6.730950177004933,-3.292892082850635,1.316093704727292
1761915076759673300,3.50567333984375,-4.613119234120846,-2.969740617442131,1.137043836261332
1761915076769727500,3.5157275390625,-1.6043968518555163,-2.200442006075382,0.6322482481099665
1761915076779782400,3.525782470703125,1.1815858655601739,-1.0988806943446396,0.04106828877367079
1761915076789836300,3.535836181640625,3.180630270022154,-0.017514321641623972,-0.31860103556253017
1761915076799890400,3.545890380859375,4.069456593567133,0.8988158026397227,-0.44451727973408994
1761915076809945300,3.5559453125,3.9596366209328173,1.7336077536582946,-0.29895320902355016
1761915076819999500,3.56599951171875,3.3522692777097225,2.445050972905755,0.11016348884236067
1761915076830054400,3.576054443359375,2.728511356177926,2.828444141048193,0.5104852146277203
1761915076840108300,3.5861083984375,2.903784336453676,3.0691356421738862,0.8752375047840177
1761915076850162400,3.596162353515625,3.7023318386584516,3.1056033783495423,1.1934433304838836
1761915076860217300,3.60621728515625,4.774010053300858,2.8225878162354228,1.3247471129126847
1761915076870271500,3.616271484375,6.165378486981988,2.546137603986263,1.29308341601789
1761915076880325400,3.626325439453125,7.38292413919568,2.52572142342329,1.2330411813788116
1761915076890380300,3.63638037109375,8.585244165226817,2.6946026568353174,1.1917568387016653
1761915076900434400,3.646434326171875,9.91791257265806,2.738056014114618,1.80173100342229
1761915076910488300,3.65648828125,9.417623794406651,2.521221189394593,0.727062374792248
1761915076920543500,3.66654345703125,8.426616030281782,2.67799931255877,0.4361391813587397
1761915076930597400,3.676597412109375,8.217631334540247,3.329046807554364,0.285908214815706
1761915076940651500,3.686651611328125,8.028643132644891,3.563668048855662,-0.19994754893556235
1761915076950706400,3.69670654296875,8.018695739126205,3.3815567469924686,-0.5389766746945679
1761915076960760300,3.70676025390625,7.8588506296068426,3.196502961936593,-0.5250613273929804
1761915076970815500,3.7168154296875,7.475051218751072,3.0188077229499815,-0.4953945764690637
1761915076980869400,3.726869384765625,6.531031415772437,3.05118731302917,-0.48268012938983734
1761915076990923500,3.736923583984375,5.337445900338888,3.325365488693118,-0.3686477266922593
1761915077000978400,3.746978515625,4.627128470250964,3.5548417683213946,-0.2324761920966208
1761915077011032300,3.7570322265625,4.203792583298683,3.207514185294509,-0.10603300144150853
1761915077021086500,3.76708642578125,3.5602380744069815,2.8614865789502857,-0.13348375681638716
1761915077031141400,3.777141357421875,2.4152789349764583,2.9675796400159595,-0.26838936312943695
1761915077041195500,3.787195556640625,1.0843494801670313,2.6902140664875507,-0.23505327604301274
1761915077051249400,3.79724951171875,-0.03853577462136745,1.630818994835019,-0.05504815267883241
1761915077061304300,3.80730419921875,-1.0968646783471108,0.3426730352193117,0.06521583788469433
1761915077071358500,3.8173583984375,-2.420764672911167,-0.9841595056653022,-0.11170469040237367
1761915077081412400,3.827412353515625,-3.8330812020748852,-2.033238935008645,-0.15502119649425147
1761915077091467300,3.83746728515625,-6.114986854872107,-2.8403327317625284,0.09692783090062439
1761915077101521400,3.847521484375,-9.420300320139527,-3.4679239478468893,0.2903834605336189
1761915077111576300,3.857576416015625,-11.722312941420078,-3.5256618510663507,0.145156220562011
1761915077121630500,3.86763037109375,-11.820671608841419,-2.782446359983086,-0.07373034905605018
1761915077131684400,3.877684326171875,-11.067241597735881,-2.615400525304675,-0.7954374073602258
1761915077141739300,3.8877392578125,-9.783053435835242,-3.475429208910465,-2.0618284851551056
1761915077151793400,3.89779345703125,-8.020711755123735,-4.930626848423481,-3.3884622885972258
1761915077161847300,3.907847412109375,-5.608033942556381,-6.319230493566393,-4.395741973087191
1761915077171902500,3.91790234375,-4.07296898560226,-6.626808834528923,-4.654354330828785
1761915077181956400,3.927956298828125,-4.3096722938746215,-6.202914729171991,-4.397913471907377
1761915077192010500,3.938010498046875,-5.1099435511320825,-5.572676213449239,-4.210072394220531
1761915077202065400,3.9480654296875,-5.586790078997612,-4.451998113316297,-4.047080511108041
1761915077212119300,3.958119384765625,-5.885278520053625,-3.4985990720957516,-3.657895607821643
1761915077222173400,3.96817333984375,-6.027694355866313,-3.0269951210588215,-3.1939041776150465
1761915077232228600,3.978228515625,-5.467100454255938,-2.5519857454925776,-2.5144763913094996
1761915077242282500,3.988282470703125,-4.1965182083815336,-2.808229036015272,-1.794229834011942
1761915077252337400,3.99833740234375,-3.6122733820706605,-3.335576501584053,-1.269243836877495
1761915077262391300,4.008391357421875,-3.6118846750140188,-3.3072780433386564,-0.7979970287151634
1761915077272443400,4.018443359375,-3.5081741251707075,-3.456054061833024,-0.8115817558228969
1761915077282497300,4.028497314453125,-3.58801046295166,-2.4482161589384077,-0.5173799060449004
1761915077292552400,4.038552490234375,-3.689342008703947,-0.6394628556638956,-0.3536030100345611
1761915077302606300,4.0486064453125,-3.5005852774769064,1.2953244729429483,-0.0751759447544813
1761915077312660500,4.058660400390625,-2.969082445794344,2.9483681590676305,0.22688962413594124
1761915077322715400,4.06871533203125,-1.8378157316297292,3.814315711328387,0.4981899062760174
1761915077332769300,4.078769287109375,-0.40692835750877854,3.636213937367499,0.8047368583641946
1761915077342823400,4.088823486328125,1.1956909632802009,3.0623747697368264,1.4304374383963643
1761915077352878300,4.09887841796875,2.7432272792726753,2.54590087262094,2.690701850004494
1761915077362932500,4.108932373046875,3.291875307023525,1.6713254850074648,3.7235640117794273
1761915077372986400,4.118986328125,2.8740818566292523,1.3706629147827625,4.390626237508655
1761915077383041300,4.129041259765625,1.5349047979563473,2.1091627755209803,4.667964046247303
1761915077393095400,4.139095458984375,0.04995733234584331,3.1105212532684203,4.255692866405845
1761915077403150300,4.149150390625,0.11212065079212188,3.8737653869017956,3.8233731702700253
1761915077413204500,4.15920458984375,1.7082120311170816,4.237323096978664,3.5298178017020225
1761915077423258400,4.16925830078125,4.048803681638836,4.131194964599609,3.5847117136672138
1761915077433313300,4.179313232421875,6.071718791031837,3.7748791884750124,3.793539757542312
1761915077443367400,4.189367431640625,7.141018586105107,3.030117929254472,4.009597752670944
1761915077453421300,4.19942138671875,6.9239224801003925,2.295199434134364,3.738291040790081
1761915077463476500,4.2094765625,5.946055937099456,2.455407531747222,3.124804630164802
1761915077473530400,4.2195302734375,5.3662458783656355,2.9829832531139253,2.2442414003133773
1761915077483584500,4.22958447265625,5.672579187703132,3.420536173728108,1.5049848759889601
1761915077493639400,4.239639404296875,6.6078060278952115,3.668095222535729,1.2397852488115428
1761915077503693300,4.249693359375,7.667320342013239,3.3120588478744026,1.4023530612930655
1761915077513747500,4.25974755859375,8.30116009709835,2.35941910058856,1.8781848591580985
1761915077523802600,4.269802734375,7.753337998777628,1.2567349223077295,2.2781562371358275
1761915077533856500,4.2798564453125,6.531939178267121,0.33929040704369545,2.4700787389174104
1761915077543911400,4.289911376953125,5.675256297957897,-0.3523427808403969,2.1336513200894
1761915077553965300,4.29996533203125,6.374725586295128,-0.5811269865512848,1.547024274817109
1761915077564019500,4.31001953125,7.305400754532218,-0.4422527688682079,0.7958455497696996
1761915077574074600,4.32007470703125,7.512955709731578,-0.5984037000447512,0.002723287484049797
1761915077584128300,4.330128173828125,6.818859346604347,-1.173790097117424,-0.5887140806794167
1761915077594182400,4.340182373046875,5.601528213924169,-1.0876707335442304,-0.5069502819672227
1761915077604237600,4.350237548828125,3.280114726603031,-0.5514350281208753,0.24756021785140037
1761915077614291500,4.36029150390625,-0.08156184639930725,-0.9087789782494307,0.8581560216017067
1761915077624345600,4.370345703125,-3.376771850803494,-2.139623087975383,0.6065861297175288
1761915077634400300,4.380400146484375,-5.008724818104505,-3.6730028683215377,-0.6145091778017581
1761915077644454400,4.390454345703125,-4.017809992960095,-4.774067920967936,-2.24096734707877
1761915077654509600,4.400509521484375,-1.5951637440860271,-4.675338082146644,-2.8164918374478813
1761915077664563500,4.4105634765625,-0.8095195625960826,-4.932332483297587,-2.1577549569934606
1761915077674617600,4.42061767578125,-3.0857348947972056,-6.240780641707778,-1.6956348736166953
1761915077684672300,4.43067236328125,-6.492078877043724,-6.32361908391416,-1.397432263764739
1761915077694726400,4.440726318359375,-8.658301802653074,-5.831185695338249,-1.6381646814227102
1761915077704780300,4.4507802734375,-8.961773292818664,-5.345810408580303,-2.384104629033804
1761915077714835500,4.46083544921875,-8.177516766294836,-5.05246926728487,-3.290658040188253
1761915077724889600,4.4708896484375,-7.48016695432961,-4.91464485091567,-3.6364772644788026
1761915077734943500,4.480943603515625,-7.468592836391926,-4.274759678186476,-3.155844203811884
1761915077744998400,4.490998291015625,-7.8299121198922395,-3.3053774704143404,-1.660406177716702
1761915077755052300,4.50105224609375,-8.246582119214533,-2.650311679688096,-0.14361279051229356
1761915077765106400,4.5111064453125,-7.4252902857601635,-1.6114105300098656,0.5179074370503425
1761915077775161600,4.52116162109375,-5.758911317244172,-0.4603448903977871,0.6464589981615543
1761915077785215500,4.531215576171875,-4.459967484760284,0.6111246499300003,0.7977760794408619
1761915077795270400,4.5412705078125,-3.8723569814085956,1.3986869400009512,1.0412293003648518
1761915077805324500,4.551324462890625,-3.621545068284869,1.829800182956457,1.1536777218066154
1761915077815378400,4.56137841796875,-3.3940000489801165,2.0289377306833862,1.2303259310707448
1761915077825433600,4.57143359375,-3.0984505839854477,1.4160221056833862,1.2700330875590442
1761915077835487500,4.581487548828125,-2.3865075985223054,1.0704261687546968,1.6414879806265235
1761915077845541400,4.591541259765625,-1.4006290139794348,1.6861580202192068,2.097271846719086
1761915077855596500,4.601596435546875,-0.06177168878018856,2.5672929124787447,2.214672191479802
1761915077865651500,4.6116513671875,1.6001444551080464,3.3640748663157223,2.1069353087298572
1761915077875705600,4.62170556640625,3.201405347025394,4.042481200619042,1.9345146491453051
1761915077885760500,4.631760498046875,4.807771453127264,4.581411844214797,1.7944596972450613
1761915077895814400,4.641814453125,6.103230366104841,4.598518169577419,1.45027085063532
1761915077905868500,4.65186865234375,6.726928081882,4.534653600171208,1.0966361302882432
1761915077915923500,4.66192333984375,6.907760449850559,4.698951597446203,0.8578722362242639
1761915077925977300,4.671977294921875,6.982378176200389,4.9313569162637,0.6472599392808973
1761915077936031200,4.68203125,6.788356656312942,5.179991485348344,0.5039661515899002
1761915077946086400,4.69208642578125,6.2903615419566625,5.1103714211553335,0.38978579178899525
1761915077956140500,4.702140625,5.7665025030255315,4.802777882623672,0.3354167804807424
1761915077966194400,4.7121943359375,5.384342091548443,4.754246199166775,0.3098671825520694
1761915077976249300,4.722249267578125,5.506725193157791,4.936413030609488,0.2746539764821529
1761915077986303200,4.73230322265625,6.008081308379769,4.900363812106847,0.1866154814146459
1761915077996358400,4.7423583984375,6.281883051946759,4.888779172775149,0.16940043498054147
1761915078006412500,4.75241259765625,6.082620708796382,4.860812722963095,0.43536505518108604
1761915078016466400,4.762466552734375,5.333595070129633,4.275781130188704,0.777928346415609
1761915078026521300,4.772521240234375,4.4421366445153945,3.263321997234225,0.983483944491297
1761915078036575500,4.782575439453125,4.107334196540713,2.2824311379760505,0.7423736334316432
1761915078046629400,4.79262939453125,4.777636427104473,1.5933207465678452,0.11297288370728492
1761915078056684500,4.8026845703125,5.87170942890644,1.191839548549056,-0.5197030882954597
1761915078066738400,4.812738525390625,6.059542031025886,0.7399234638005495,-1.0123245467893778
1761915078076792600,4.82279248046875,5.191929175901413,-0.06316928061842918,-1.1664460179649292
1761915078086847500,4.832847412109375,3.5588720467507837,-0.9105150082617998,-0.6483145629003644
1761915078096901400,4.8429013671875,0.51973991317451,-1.3358113816320896,0.12026260232403874
1761915078106956500,4.85295654296875,-3.169343152332306,-1.6428104614019392,0.8513673843748867
1761915078117010400,4.863010498046875,-6.241693080377578,-2.3885446573078633,1.185278582598269
1761915078127064600,4.873064697265625,-8.108947087937594,-3.5937288405984638,0.5784989761352539
1761915078137119500,4.883119384765625,-7.191136661970615,-4.575205390790105,-0.6003494272850454
1761915078147173400,4.89317333984375,-4.543702583545446,-5.012691383647918,-1.6381231803685425
1761915078157227500,4.9032275390625,-2.666986335635185,-5.225363243469595,-2.0869753475017845
1761915078167282400,4.913282470703125,-3.551426406919956,-6.168633104863763,-2.723746333733201
1761915078177336600,4.923336669921875,-5.135752530649304,-7.14701987234652,-3.5038027782186862
1761915078187390200,4.93339013671875,-5.3685138232976195,-7.350923903822898,-4.270252722156048
1761915078197445400,4.9434453125,-4.944139240947366,-6.741444683012366,-4.776001811639964
1761915078207499500,4.95349951171875,-5.343457123452425,-6.229962310573458,-4.916641577690839
1761915078217554400,4.963554443359375,-6.248900235277414,-6.162047881254553,-4.281066961637139
1761915078227608300,4.9736083984375,-7.062919447380304,-5.849568324247002,-2.6729838224843143
1761915078237662500,4.983662353515625,-7.582912458533048,-5.048853414875269,-0.9426568440623581
1761915078247717400,4.99371728515625,-7.438348504775762,-3.6841070306599137,0.35450784991979595
1761915078257771500,5.003771484375,-6.385670174157619,-2.1667630238354203,0.7731498799674212
1761915078267825400,5.013825439453125,-4.523735900315642,-1.1256102958381176,0.5239883643992245
1761915078277880300,5.02388037109375,-2.555653620350361,-0.48060792622566223,0.37621728516370057
1761915078287934500,5.0339345703125,-1.1778542778164147,-0.6884498816728591,0.5012618610672652
1761915078297988400,5.04398828125,-0.5969926642030478,-1.4826543862372636,0.9459909569211303
1761915078308043500,5.05404345703125,-0.25297172150611874,-1.8810773657292126,1.6526032488808036
1761915078318097400,5.064097412109375,0.0916419263869524,-1.654892528861761,2.3897490646615624
1761915078328151600,5.074151611328125,0.5685907455831766,-1.0264169311583042,2.753353536489606
1761915078338206500,5.08420654296875,1.1178683034092187,0.007097849306464195,2.833505223830044
1761915078348260400,5.09426025390625,1.5513228487938642,1.2909189314603804,2.6472780110806227
1761915078358315500,5.1043154296875,2.0636767433702943,2.405208207339048,2.2489088076025245
1761915078368369400,5.114369384765625,2.999785042572021,3.400433296898007,1.7815008469507096
1761915078378423600,5.124423583984375,4.226201983505487,4.218019261571765,1.2124665223184972
1761915078388478500,5.134478515625,5.149891530638933,4.913949854388833,0.5813424559328705
1761915078398532400,5.144532470703125,5.887577444645762,5.571028446242213,0.006153919519856572
1761915078408586500,5.15458642578125,6.4316276232123375,5.939961711877584,-0.28690548222474754
1761915078418641400,5.164641357421875,6.545474951666593,5.856045411306619,-0.1895798841781914
1761915078428695600,5.174695556640625,6.298937647122145,5.634271376618742,0.13644198556747286
1761915078438750500,5.18475048828125,6.120022510951757,5.530355075070261,0.41037451590728014
1761915078448804400,5.194804443359375,6.082551735213398,5.481165804487467,0.40852088739722964
1761915078458858500,5.2048583984375,5.825349828791618,5.479542002677917,0.278485700132139
1761915078468913700,5.21491357421875,5.119300577542186,5.56810583679378,0.1682794315939769
1761915078478967600,5.224967529296875,4.512951471450925,5.676086319041252,0.14371661621294915
1761915078489021400,5.235021484375,4.197316080760956,5.516534639510512,0.11850282610990107
1761915078499075800,5.245075927734375,4.108151942664384,5.1712283331781626,0.2532569316556677
1761915078509130000,5.2551298828125,3.72835241509974,4.699872803944349,0.4428361217141151
1761915078519184000,5.265183837890625,3.072326547169685,4.047386800578236,0.6137015146806836
1761915078529239000,5.275239013671875,2.5552064611047505,3.0806103913903233,0.4159797155031934
1761915078539293000,5.28529296875,2.65188930426836,1.980959297195077,-0.3370144980009645
1761915078549346800,5.295346923828125,3.28610315336287,1.2622452101618051,-1.0918480192288755
1761915078559402000,5.305402099609375,3.6909558736413715,0.7479080328136682,-1.3500437589935959
1761915078569455900,5.315455810546875,2.415244448184967,-0.018627543580532074,-1.149889873830974
1761915078579511000,5.325510986328125,0.03560439734458923,-1.1616671131253242,-0.7990749601449817
1761915078589565000,5.33556494140625,-2.0351625965476035,-2.1579081017285584,-0.10172807078920304
1761915078599618800,5.345618896484375,-4.94524924801588,-2.642192670640349,0.5694155059695244
1761915078609674000,5.355674072265625,-8.180826913756132,-3.4309979465097187,0.5030378577638417
1761915078619728000,5.365727783203125,-9.315858533412218,-4.827538229870796,-0.20624401873126624
1761915078629782000,5.375781982421875,-7.484152809095383,-5.801781906199455,-1.0263784988440572
1761915078639836700,5.385836669921875,-4.496117825549841,-6.427777962046862,-1.8446357869081198
1761915078649890800,5.395890869140625,-2.6123054818987845,-7.194735563245415,-2.5505454835563897
1761915078659945000,5.405945068359375,-2.3520681533038617,-8.012956318691373,-3.0993779279634355
1761915078669999900,5.415999755859375,-2.6525918995797633,-8.674621653813123,-3.6066906135022636
1761915078680054000,5.426053955078125,-2.977065845763683,-8.724247562247514,-3.826735632440448
1761915078690109000,5.43610888671875,-3.8296027123093603,-8.156807155743241,-3.6975405127286907
1761915078700162800,5.446162841796875,-5.040720961824059,-7.383637840422987,-3.1407582783609627
1761915078710217000,5.456217041015625,-6.126389123374223,-6.727295746150612,-1.909275578470528
1761915078720272000,5.46627197265625,-7.043854681426287,-6.410705831214785,-0.13439473418146372
1761915078730326000,5.476325927734375,-7.03071930552125,-6.104788701462745,1.1939455809175967
1761915078740380000,5.4863798828125,-5.971797112077474,-5.101285028380155,1.529737624451518
1761915078750434800,5.496434814453125,-5.031528186064958,-3.9197845030158756,0.825614080567658
1761915078760489000,5.506489013671875,-4.094089515042305,-2.804849330449104,0.0016235095486044882
1761915078770542800,5.51654296875,-3.0232261239141223,-1.8575585429757833,-0.35424108874239024
1761915078780598000,5.526597900390625,-2.2305670952260495,-1.6469658275157213,-0.26747012939266857
1761915078790652000,5.53665185546875,-1.6792770285338163,-1.5329840590268373,0.25665892211887986
1761915078800705800,5.546705810546875,-1.6566647992312906,-0.9222668208539485,0.9951099387466907
1761915078810761000,5.556760986328125,-1.6594418627291916,0.17357319062054155,1.7639914937451482
1761915078820814800,5.56681494140625,-1.1808271561473607,1.2500094134449957,2.2147568010233343
1761915078830870000,5.5768701171875,0.10218260962367057,2.261289565747976,2.271544271650165
1761915078840924000,5.586923828125,1.791159194394946,3.2341847500771284,2.074185570164025
1761915078850977800,5.596977783203125,3.4471231518805023,4.189486994570493,1.6595217960976063
1761915078861033000,5.607032958984375,5.00345710683465,5.163744699424505,1.0970092013843358
1761915078871086800,5.6170869140625,6.616400837761163,5.905419975328445,0.41933063336629417
1761915078881141000,5.62714111328125,8.206633555185794,6.336293856570125,-0.2138411593293771
1761915078891196000,5.63719580078125,9.271452989974618,6.559352085849643,-0.63478288115412
1761915078901249800,5.647249755859375,9.632017071193456,6.555455662932991,-0.7613368387073278
1761915078911304000,5.657303955078125,9.189059953448176,6.219622118344903,-0.5905067727824673
1761915078921358800,5.66735888671875,8.397033961966633,5.982340717923641,-0.2889578116446733
1761915078931413000,5.6774130859375,7.67944274148345,5.834527991503477,0.18810520851574838
1761915078941468000,5.687468017578125,7.12695148230791,5.720391324713826,0.48243649335969235
1761915078951521800,5.697521728515625,6.755956023445725,5.709664763516187,0.6756494368106126
1761915078961576000,5.707575927734375,6.524883999058604,5.630784703546762,0.7796841771069913
1761915078971630800,5.717630859375,6.363804963830113,5.284226935848594,0.7516865284390747
1761915078981685000,5.72768505859375,6.474802748072147,4.720556695532799,0.6356283190023153
1761915078991739000,5.73773876953125,6.527815376335382,4.177638735866546,0.5438994449842721
1761915079001793800,5.747793701171875,6.304340967470407,3.944090676754713,0.40998840266652403
1761915079011848000,5.757847900390625,5.709784005981684,3.5592847192049026,0.11692695509530603
1761915079021901800,5.76790185546875,4.705288983774185,2.364626021581888,-0.37389417597837743
1761915079031957000,5.77795703125,4.196286737713217,0.6077396836668253,-0.870540506074205
1761915079042011000,5.788010986328125,4.2050095578730105,-0.6639473085790872,-1.0949606713566928
1761915079052065800,5.798065673828125,3.4342426275193687,-0.8219178563982248,-0.6877148453965782
1761915079062120000,5.808119873046875,1.6926374453663826,-0.5764163246423005,-0.05666209068149328
1761915079072173800,5.818173828125,-0.20150807625055311,-0.9955641122549772,0.11208126862980425
1761915079082229000,5.82822900390625,-2.1378765365689993,-1.6623820078343152,0.011059300283342599
1761915079092283100,5.838283203125,-4.575535061135888,-2.287753794303536,-0.038613954424113035
1761915079102336800,5.848336669921875,-6.730591865086555,-3.465439729815721,-0.31115693010166284
1761915079112392000,5.858391845703125,-7.550009136840701,-4.721383794006705,-1.0420772954963147
1761915079122445800,5.86844580078125,-7.239203650525212,-4.582825218144059,-1.298935649177432
1761915079132500000,5.8785,-6.841336551350355,-3.9875013639360666,-1.1945115442372858
1761915079142555000,5.888554931640625,-6.965277988317609,-4.842109776058793,-1.294278763282299
1761915079152608800,5.89860888671875,-7.935867818313836,-6.29857290546298,-1.604469186439365
1761915079162664000,5.908663818359375,-9.293744901281595,-6.837208073243499,-1.6955165079340337
1761915079172717800,5.9187177734375,-10.159007978409528,-6.341674965086579,-1.7336168137475847
1761915079182772000,5.92877197265625,-9.878354469251633,-6.144843648475408,-2.124439255107939
1761915079192827000,5.938826904296875,-8.981273527580498,-6.6129761240094895,-2.5634733541905876
1761915079202880800,5.948880859375,-8.048966958749293,-6.763702107527852,-2.391504676157236
1761915079212935000,5.958934814453125,-7.461499663260579,-6.076518884789944,-1.5813080910824238
1761915079222989800,5.96898974609375,-6.86081632784605,-4.539287105190754,-0.6550229744978249
1761915079233044000,5.9790439453125,-5.806581415435671,-2.473216160160303,-0.1162266248062253
1761915079243097900,5.989097900390625,-4.452960236346722,-0.5541583156049251,-0.21493717440515756
1761915079253152800,5.99915283203125,-2.97966463008523,1.144278171429038,-0.32287922433838245
1761915079263207000,6.00920703125,-1.5659475864738226,2.085741275662184,-0.21216434869095682
1761915079273261800,6.01926171875,-0.29458208126723767,1.845841217175126,0.10635068908855319
1761915079283316000,6.02931591796875,0.6742822401106358,1.0469897635877132,0.9135640205688774
1761915079293370000,6.0393701171875,0.98319387550354,-0.20603227567672727,1.9214327569931744
1761915079303424800,6.0494248046875,1.0371809017568827,-0.84154668597579,3.201405931547284
1761915079313479000,6.05947900390625,0.7504366745084524,-0.8424445115983485,4.302043114170432
1761915079323532800,6.06953271484375,0.773932700908184,-0.3220020031124353,4.901183604057133
1761915079333588000,6.079587890625,1.730207005304098,0.7490221315354109,4.9745109983354805
1761915079343642000,6.08964208984375,3.2849124822735782,1.944936382177472,4.490523658804595
1761915079353695700,6.09969580078125,5.096660291188955,2.9586241801440716,3.6086908474087713
1761915079363751000,6.1097509765625,6.9322530860722065,3.658298635664582,2.5787778908282517
1761915079373804800,6.1198046875,8.577136846616863,4.036576068228483,1.626242188438773
1761915079383860000,6.12985986328125,9.84755016566515,4.1943765201777214,0.9524994620323181
1761915079393914000,6.1399140625,10.136100565552711,4.09616749036014,0.5437101329572499
1761915079403967700,6.1499677734375,9.45822760747373,3.634153789967298,0.4275542352996766
1761915079414023000,6.16002294921875,8.594031867316366,3.1752111675828694,0.6818586667142809
1761915079424076800,6.170076904296875,7.804356238353252,2.8643501516878604,1.0704513031959533
1761915079434131000,6.180130859375,7.176677928507328,2.8535440955132243,1.4145409272149205
1761915079444185900,6.190185791015625,6.8218941842556,3.0237972018003463,1.6116960689529776
1761915079454239700,6.20023974609375,6.747000563573837,3.3657220490008593,1.7223491314105688
1761915079464294000,6.2102939453125,6.724179659956693,3.7264860367059707,1.7348289660163223
1761915079474348800,6.220348876953125,6.907223858755827,3.9686207223773002,1.6177831337817012
1761915079484403000,6.23040283203125,7.09619861664772,4.157949116012454,1.4895784864120185
1761915079494457900,6.240457763671875,6.876891848856211,4.415924929416179,1.283295596975088
1761915079504512500,6.250512451171875,6.265750832313299,4.9622097351670265,1.0933061090826988
1761915079514566700,6.260566650390625,5.22613831949532,5.483462975513935,1.0633983159445226
1761915079524621800,6.270621826171875,3.8618426016569134,5.324046905061603,0.9211594441339374
1761915079534675700,6.28067578125,3.1066496725320816,4.683624264454841,0.5034355518445373
1761915079544729600,6.2907294921875,3.2758132300168272,3.719625503286719,0.012243103240430354
1761915079554784500,6.300784423828125,3.586381984966993,2.429752281486988,-0.4559827496655285
1761915079564838700,6.310838623046875,3.4532477722406387,0.9258528626471757,-1.0038149309888482
1761915079574892800,6.320892822265625,2.8428368235379455,-0.6993786874443292,-1.434202782279253
1761915079584947700,6.33094775390625,1.626326359590888,-1.6859499304264782,-1.2510881485924124
1761915079595001600,6.341001708984375,-1.478255859017372,-2.0582593944966794,-0.5409484862241893
1761915079605056800,6.351056884765625,-6.559038197594881,-3.0974732633858917,-0.27308322003409263
1761915079615110700,6.361110595703125,-10.28364441190362,-4.539716728779673,-0.49664574557393787
1761915079625164800,6.371164794921875,-11.062392404139041,-5.524423346933722,-1.0231061991751194
1761915079635219500,6.381219482421875,-10.536092401796578,-5.921369824132323,-1.7921262858614324
1761915079645273600,6.391273681640625,-10.235810647583007,-6.31084552705884,-2.4885209890589115
1761915079655327500,6.401327392578125,-10.495051950877905,-6.998858186358213,-3.053758917082846
1761915079665382700,6.411382568359375,-11.5427454788208,-7.22201286174953,-3.4163413523867723
1761915079675436800,6.421436767578125,-13.03036771659851,-6.531637564972042,-3.3319334689065814
1761915079685490700,6.43149072265625,-14.366949498081206,-5.697375190785527,-3.2106372857511043
1761915079695545600,6.441545654296875,-15.025520958840847,-5.035955939379334,-3.114657037898898
1761915079705599500,6.451599609375,-15.251762494331597,-4.8962347494781016,-3.017406039458513
1761915079715654700,6.461654541015625,-14.960758271551132,-5.075794613292813,-2.915933331669867
1761915079725708800,6.471708740234375,-13.918387399935721,-5.062478035601973,-2.828613360135257
1761915079735762700,6.4817626953125,-12.08294424265623,-4.905436877587437,-2.867338812109828
1761915079745817600,6.491817626953125,-9.736666947713493,-4.446586025139689,-2.9520594148010013
1761915079755871500,6.50187158203125,-7.18696785185337,-3.6672102563947435,-2.9733354270637036
1761915079765925600,6.511925537109375,-4.700735558253527,-2.961400366859138,-2.654036253169179
1761915079775980800,6.521980712890625,-2.7517332418113947,-2.7951132415935396,-1.696462702742964
1761915079786034700,6.53203466796875,-1.7506787154465913,-2.8592618886381387,-0.2796007852345705
1761915079796088600,6.542088623046875,-1.1151508611440657,-2.6566800456762314,1.2945590415284036
1761915079806143700,6.552143798828125,-0.2941962968200445,-2.268708902093768,2.5789859806209803
1761915079816197600,6.56219775390625,0.7337602649956941,-1.9248890349268912,3.37650969273597
1761915079826252800,6.572252685546875,1.8587521366745232,-1.5369892030149697,3.882916369345784
1761915079836306700,6.582306640625,2.8408289908468722,-0.9924836818963289,3.9966239970684048
1761915079846360600,6.592360595703125,3.6732793471753595,-0.050716626280546184,3.827945008230209
1761915079856415700,6.602415771484375,4.353323804074526,1.1078197876036167,3.4107550766870376
1761915079866469600,6.6124697265625,4.999395848745108,2.285374790212512,2.803688177715242
1761915079876523800,6.622523681640625,5.596041891467571,3.5701615025281903,2.1993946889795364
1761915079886578400,6.632578369140625,6.025326457691192,4.753652324926853,1.71715784637779
1761915079896632600,6.642632568359375,6.46207770653367,5.647231395956873,1.347192607346177
1761915079906686500,6.6526865234375,6.9218339833885425,6.168160811176896,0.9798937379796058
1761915079916741600,6.66274169921875,7.470221314376592,6.394998558995128,0.6542972175065428
1761915079926795800,6.672795654296875,7.966165341421961,6.448032230046391,0.4315028267949819
1761915079936850400,6.682850341796875,8.106592049244046,6.326205008754134,0.32323212942928076
1761915079946904600,6.692904541015625,8.017634247374534,6.174791042971611,0.2912169156830758
1761915079956958500,6.70295849609375,7.944246355080604,5.976326572200656,0.2820176371179521
1761915079967013600,6.713013671875,7.824923225563764,5.786506011134386,0.20088285702429712
1761915079977067800,6.72306787109375,7.770270428878068,5.674555456212163,0.08720357861332595
1761915079987121700,6.73312158203125,7.483325126099586,5.669137522816658,0.044090705334767694
1761915079997176600,6.743176513671875,6.86469521510601,5.800080362978577,0.2067952228732407
1761915080007230700,6.753230712890625,6.0427516397446395,6.400671343934536,0.17971921909488736
1761915080017284600,6.76328466796875,5.356320112156868,6.711395581707358,0.21126754598170516
1761915080027339800,6.77333984375,5.370241085481643,6.566738688969612,0.25038389697000385
1761915080037393700,6.7833935546875,5.7310413135439155,6.241514801201224,0.012430661701783537
1761915080047448600,6.793448486328125,5.910360938861966,5.657080005276203,-0.34467663012668487
1761915080057502700,6.803502685546875,5.762941011151671,4.871445760658383,-0.6974472079250961
1761915080067556600,6.813556640625,5.335011951190233,3.8772850854605436,-1.069717874354869
1761915080077611800,6.82361181640625,4.207290362286567,2.713358210709691,-1.297389296518266
1761915080087665700,6.833665771484375,2.3979566287755967,1.0063093781530856,-1.4982902006559073
1761915080097719600,6.843719482421875,0.9517325693130493,-1.4704723655343055,-1.7365144348852335
1761915080107774700,6.853774658203125,0.38033728770315645,-3.186438664039969,-1.1654922243714332
1761915080117828600,6.86382861328125,-1.5615893912643193,-3.5341625529080627,-0.002265314583480358
1761915080127882800,6.8738828125,-5.8380549965858455,-3.984853479775786,0.3240354086361825
1761915080137937700,6.883937744140625,-8.355198561277986,-4.392532363390922,0.015180910257995128
1761915080147991600,6.893991455078125,-9.004199645137787,-4.627032608661056,-0.7825693040892482
1761915080158046700,6.904046630859375,-8.718013051772116,-4.8944215625762935,-1.5995498502157628
1761915080168100600,6.9141005859375,-7.656071218246221,-5.434097179320454,-2.159922218029946
1761915080178154800,6.92415478515625,-6.124768244174122,-6.720510031533241,-2.8004759376704693
1761915080188209400,6.93420947265625,-4.819856443196535,-8.40591752564609,-3.8795430935204025
1761915080198263600,6.944263671875,-4.307443511909246,-9.602110593229531,-4.85498270163536
1761915080208317700,6.954317626953125,-5.145802800020575,-9.374345793694257,-4.945938983845711
1761915080218372600,6.96437255859375,-7.097416175743937,-8.54200883461237,-4.500277575577795
1761915080228426800,6.9744267578125,-9.215165285563469,-7.904937842521071,-3.870161517190933
1761915080238480600,6.984480712890625,-10.999578512829542,-7.311565122380852,-3.1589141127765177
1761915080248535600,6.99453564453125,-11.577877582478523,-6.709436264333129,-2.4372803389042614
1761915080258589700,7.004589599609375,-10.816924774652719,-5.876916349899768,-1.8043616441868244
1761915080268643600,7.0146435546875,-8.94729234752357,-4.8045507375150915,-1.4814400420114398
1761915080278698800,7.02469873046875,-6.431077003592252,-3.5544016233384608,-1.6668094688877462
1761915080288752600,7.034752685546875,-3.5662744319617747,-2.1380571538329125,-2.0151466673485934
1761915080298807600,7.0448076171875,-0.41262393880188464,-0.7491396204352379,-2.212545262453705
1761915080308861700,7.05486181640625,2.5901801593303677,0.19473054493963718,-1.9780434097483752
1761915080318915600,7.06491552734375,4.780992751795053,0.5664052182376385,-1.0797092531457542
1761915080328970800,7.074970703125,5.828531381437182,0.38891806904375553,0.4210832126546651
1761915080339024600,7.085024658203125,5.94589986975491,-0.036378888848423954,1.963960669990629
1761915080349078500,7.09507861328125,5.309331566488742,0.07834931409358978,3.0621862614274025
1761915080359133700,7.1051337890625,4.241652066093683,0.7107347787171602,3.572694820398092
1761915080369187600,7.1151875,3.320106545251608,1.3209265317112207,3.903815364989638
1761915080379241700,7.12524169921875,2.9308167202860114,2.097843216866255,3.788381059604883
1761915080389296600,7.135296630859375,3.4777187811523675,2.96366275883317,3.6229227863788602
1761915080399350500,7.1453505859375,5.045652573007345,3.627091596496105,3.2970594316631554
1761915080409405700,7.15540576171875,6.760285577082634,3.9024154350638387,2.500797410047054
1761915080419459600,7.16545947265625,8.30306505393684,4.51560695439577,1.7827584457963703
1761915080429513700,7.175513671875,9.061080639266967,5.447070642662048,1.2270295198738574
1761915080439568600,7.185568603515625,8.68436095753908,5.757845149317383,0.48650366973336784
1761915080449622500,7.19562255859375,7.407937584421038,6.18301585048139,0.4302199473775923
1761915080459676700,7.2056767578125,6.169571262496709,6.550000904658436,0.5842613390542566
1761915080469731600,7.215731689453125,5.564638452944159,6.15358751142323,0.562063243510574
1761915080479785700,7.22578564453125,5.573723092153668,5.614850636833906,0.464484328290075
1761915080489839600,7.235839599609375,5.5334974647492166,5.310774751034379,0.19476808220474048
1761915080499897600,7.245897705078125,5.355274402496218,5.223461209240555,0.05822217960506677
1761915080509951200,7.255951171875,5.121918066564202,5.224058006089925,-0.008708334976714104
1761915080520006400,7.26600634765625,4.978709619069099,5.360322333535552,0.0008831760426983237
1761915080530060300,7.276060302734375,4.714890340334176,5.514788672626018,0.04047083433717489
1761915080540114400,7.286114501953125,4.2587148445755245,5.1975335717797275,-0.027261534679401664
1761915080550169300,7.29616943359375,3.695758890008926,4.200760668256879,-0.1230524522382766
1761915080560223200,7.30622314453125,3.0399229916930195,2.8677608369141816,-0.15197565478589384
1761915080570277400,7.31627734375,2.4853040728390217,1.7279525043755768,-0.1433113233476877
1761915080580332500,7.32633251953125,1.9242624274611473,1.105245553201437,0.016120401331502943
1761915080590386400,7.336386474609375,0.6210463244855403,0.8250573234677314,0.3670521280638873
1761915080600440600,7.346440673828125,-1.4101193113803863,0.6649988634586333,0.5480325627336278
1761915080610495200,7.3564951171875,-3.6291830158174037,0.4576654420554638,0.5603782860983163
1761915080620549400,7.36654931640625,-5.105723887610435,-0.22025077064335344,0.8812936630178242
1761915080630604500,7.3766044921875,-6.283156725144386,-1.7812743447184562,1.1377266308937222
1761915080640658400,7.386658447265625,-7.73475838599205,-3.111567255190015,1.2156637839898465
1761915080650712600,7.396712646484375,-9.292499869656563,-3.367424761265516,0.7316510908219963
1761915080660767200,7.406767333984375,-10.63900098760724,-2.8024147967785593,-0.22866445178873834
1761915080670821400,7.4168212890625,-10.98372978631258,-2.7886715181082486,-1.419615600130707
1761915080680875300,7.426875244140625,-10.248403587174415,-3.5581600990891453,-2.3570761907242237
1761915080690930400,7.436930419921875,-9.896496859663724,-5.282047838243842,-2.804427597905695
1761915080700984600,7.446984619140625,-9.50113969748318,-7.835473261150717,-3.063313511891663
1761915080711038500,7.45703857421875,-8.753793974727392,-9.762099495133757,-2.7837790698915716
1761915080721093400,7.46709326171875,-8.947315728399158,-10.393424637049437,-2.134545930841565
1761915080731147300,7.477147216796875,-9.453410562580823,-9.852141000586748,-1.513468918956816
1761915080741202400,7.487202392578125,-9.4658182087332,-8.705022052773833,-1.1204020596705377
1761915080751256600,7.497256591796875,-8.676392755138874,-7.2061793328017,-0.9162202341660857
1761915080761310500,7.507310546875,-7.532002940028906,-5.849240991988777,-0.9283114347804338
1761915080771365400,7.517365478515625,-5.9320998924612995,-4.760784076502919,-0.8290334605570882
1761915080781419500,7.52741943359375,-3.4899826349198815,-3.843566355732083,-0.591026522340253
1761915080791473400,7.537473388671875,-0.7495493702799081,-3.4521517936974764,-0.6306983152542263
1761915080801528600,7.547528564453125,1.7901783666640518,-3.1054595859646796,-0.6274203164968639
1761915080811582200,7.557582275390625,3.5619910555541514,-2.470968673494458,-0.2564355982244015
1761915080821636400,7.56763623046875,4.2612236125260585,-1.784461742582917,0.445726144067198
1761915080831691500,7.57769140625,3.9323359415531156,-0.8834247567623853,1.4426245736658572
1761915080841745400,7.587745361328125,2.8376111978441476,-0.06671791301071643,2.5331954125657674
1761915080851800300,7.59780029296875,1.6577952645659446,0.7650748561918735,3.3408512271165844
1761915080861854200,7.607854248046875,1.2394985408246517,1.849818888634443,3.627499592775106
1761915080871908400,7.617908447265625,1.9640426491856573,2.8829437929987907,3.3378707500010725
1761915080881963500,7.627963623046875,3.47911286585927,3.7162843761652704,2.701281403946876
1761915080892017400,7.638017333984375,5.059436768209934,4.560954162597656,2.1238059256404638
1761915080902071600,7.648071533203125,6.340624579250812,5.16888323135674,1.5610972238332033
1761915080912126200,7.658126220703125,7.453681098464131,5.453580462947487,1.3750646568730474
1761915080922180400,7.668180419921875,8.202674003905058,5.846154131889343,0.9470843051157891
1761915080932234200,7.678234130859375,7.760238279685377,6.212342482730746,0.6942734732598066
1761915080942289400,7.688289306640625,7.546538245859741,6.202061327213048,0.7643932306032627
1761915080952343600,7.698343505859375,7.3491177311837665,6.014953532236814,0.7991379423785955
1761915080962398200,7.708398193359375,7.274066289591789,5.759422773897647,0.9771459005761891
1761915080972452400,7.718452392578125,7.2013482593834395,5.442819999480247,0.9816733148727566
1761915080982506500,7.728506591796875,7.03536333193481,5.294454899874329,0.9507008881777524
1761915080992561400,7.7385615234375,6.8359490130931135,5.257920528203249,0.7540221317797898
1761915081002615600,7.748615478515625,6.748335027047991,5.304776971924305,0.513424008025974
1761915081012669400,7.75866943359375,6.588306962177157,5.304689878162741,0.3778223822727799
1761915081022724400,7.768724365234375,6.262909471407532,5.1960208291292185,0.4697551813650876
1761915081032778500,7.778778564453125,5.55723372964561,4.930066876453161,0.7610854942947626
1761915081042832400,7.788832275390625,4.398306855139136,4.403072462105751,1.1011751619573682
1761915081052887600,7.798887451171875,3.1393226925998925,3.7213761463463304,1.3056943296574055
1761915081062941400,7.80894140625,2.2843606447339058,3.1037381689995525,1.1662780409868805
1761915081072996400,7.818996337890625,2.3385849868744613,2.5138813480257984,0.625080986829102
1761915081083050500,7.829050537109375,2.7258412601858377,1.8298960445463657,-0.13562865989059208
1761915081093104400,7.8391044921875,2.510631990841031,0.627335780018568,-1.0020235905926673
1761915081103159600,7.84915966796875,1.810679887422919,-1.1046382349580526,-1.4849781530097126
1761915081113213200,7.859213134765625,1.0731623157203196,-3.242745073151588,-1.3834516692072152
1761915081123267300,7.869267333984375,-0.2199228538632393,-4.399584619989991,-0.44306408525109287
1761915081133322500,7.879322509765625,-4.321452163517475,-4.392664465337991,0.6300008345093577
1761915081143376400,7.88937646484375,-9.764019649541378,-4.943472885993123,0.13188991175368428
1761915081153430500,7.899430419921875,-12.060491587829588,-5.262896563050151,-1.2637538611590862
1761915081163485200,7.909485107421875,-9.743485395556688,-5.21196307914853,-2.690295899552107
1761915081173539300,7.919539306640625,-6.388431455564499,-5.990292553710937,-3.8200010634884234
1761915081183594500,7.929594482421875,-4.514457199838757,-7.264940149328112,-4.408833509850502
1761915081193648400,7.9396484375,-4.356171594721078,-8.584794083371758,-4.910387193471193
1761915081203702500,7.94970263671875,-5.898393437692523,-8.858735527670383,-4.81113713016808
1761915081213757400,7.95975732421875,-8.100119638359546,-7.93938605556786,-4.039924209612607
1761915081223811300,7.969811279296875,-10.1131078125,-7.061477431878447,-3.220620919626951
1761915081233865500,7.979865478515625,-11.351517973566054,-6.310161636447906,-2.251699899625778
1761915081243920400,7.98992041015625,-11.092446181619167,-5.812174705398083,-1.3839283468082546
1761915081253974500,7.999974609375,-9.826952783316374,-5.766885364863276,-0.9878361483514309
1761915081264028400,8.0100283203125,-8.37076379467845,-5.372699000027775,-0.7542400123141706
1761915081274083300,8.020083251953125,-7.256841014024615,-4.42353306633234,-0.5194822851516306
1761915081284136200,8.03013623046875,-6.028577568441629,-2.806409419372678,-0.30629341571852564
1761915081294191400,8.04019140625,-4.519342049270868,-1.0491261910945175,-0.2822096525587141
1761915081304245500,8.05024560546875,-2.342352230453491,-0.06564005464613437,-0.30570889382883903
1761915081314299400,8.06029931640625,-0.25174890171289444,0.04873042089939117,0.20354652327559888
1761915081324354300,8.070354248046876,1.1981962240993975,-0.26990882778167724,1.4086493849582968
1761915081334408200,8.080408203125,2.4977590652644635,-0.5576467422425747,2.8367016817837953
1761915081344463400,8.09046337890625,3.8799393993616103,-0.6901467487186193,3.8209441895574328
1761915081354517500,8.100517578125,4.822274610254168,-0.19927169550061224,4.114508033692837
1761915081364571400,8.1105712890625,5.176988796401024,1.2195663443863392,3.982930402758717
1761915081374626300,8.120626220703125,5.294576480427384,2.939410361108184,3.450361987671256
1761915081384680400,8.130680419921875,5.657013954302668,4.428174754658341,2.503434480552375
1761915081394734300,8.140734375,6.204463127657771,5.669826674124598,1.42518185595572
1761915081404789500,8.15078955078125,6.67644175722599,6.585375584900379,0.607122720812261
1761915081414843400,8.160843505859376,7.451915257835387,6.91281247254312,0.06058598612695932
1761915081424897500,8.1708974609375,8.303610412859916,6.7608297669619315,-0.20826573381721972
1761915081434952400,8.180952392578124,8.706620720142126,6.359887498125434,-0.06732318542748689
1761915081445006300,8.19100634765625,8.479089729362725,5.793639516276121,0.29912498539388177
1761915081455061500,8.2010615234375,7.866120328348875,5.250412929052114,0.7693324405711144
1761915081465115400,8.211115478515625,6.906335970005393,4.94125871707499,1.2048994480650872
1761915081475169500,8.22116943359375,5.870463812759518,4.866075758057832,1.4804076302237807
1761915081485224400,8.231224365234375,5.015251589524746,4.918743518406153,1.4930746579647063
1761915081495278300,8.2412783203125,4.60921345885396,4.9677299598932265,1.375429544662684
1761915081505329700,8.25132958984375,4.527719416993857,4.9272886439114805,1.255014966647327
1761915081515384600,8.261384521484375,4.558492740920186,4.689562422332167,1.207680603216216
1761915081525438500,8.2714384765625,4.675964689612388,4.375959414252638,1.157621490996331
1761915081535492600,8.28149267578125,5.0083331884384155,4.033483947432041,1.0417198603607714
1761915081545547500,8.291547607421874,4.991647426575422,3.573042610922456,0.8781102106761187
1761915081555601700,8.3016015625,4.623332585099339,3.1935797679662703,0.5409430793967097
1761915081565656600,8.311656494140625,4.162631720870733,3.20807181917727,0.24072028882876037
1761915081575710500,8.32171044921875,3.357909913945198,3.2984535163700577,-0.0557191107429564
1761915081585764600,8.3317646484375,2.3352555501908063,2.984614361447096,-0.3432161291200667
1761915081595819500,8.341819580078125,1.3828636401861905,2.223014487889409,-0.5486676822993904
1761915081605873700,8.351873779296875,0.500272996160388,0.6295698226809501,-0.9767349086225032
1761915081615927600,8.361927490234375,0.015536591827869414,-1.6758827099204063,-1.5937173446699977
1761915081625982500,8.371982421875,0.39199265418350693,-3.038482729756832,-1.4604367092102766
1761915081636036600,8.38203662109375,-1.247189095327258,-2.991391308236122,-0.36999738773554564
1761915081646090500,8.392090576171874,-5.943208146452903,-4.294305797916651,-1.0467899301666765
1761915081656145700,8.402145751953125,-8.091502616661787,-5.816257006275653,-2.2953327051252126
1761915081666199800,8.41219970703125,-6.578609159505367,-6.507203380939364,-3.0887063118234277
1761915081676254500,8.42225439453125,-5.5089446227729315,-7.430416542732715,-3.7591909132167696
1761915081686308600,8.43230859375,-6.0771723802626125,-8.671318520614504,-3.865965234544873
1761915081696362500,8.442362548828125,-6.812453571215271,-10.287872843253611,-3.9451398935467004
1761915081706417700,8.452417724609376,-7.074498241493106,-11.113624578726292,-3.5729379815042015
1761915081716471600,8.462471435546876,-8.455942662531138,-10.755790799254179,-2.5230858142226933
1761915081726525400,8.472525390625,-10.747718551957608,-9.908188466501235,-1.1252645511403678
1761915081736580600,8.48258056640625,-12.425261304044723,-8.903916147133707,0.31595607401169834
1761915081746634500,8.492634521484375,-12.324364642578363,-7.735861963319778,1.2490620495922862
1761915081756688600,8.502688720703125,-10.682339778596162,-6.475546259915828,1.3894468179687858
1761915081766743600,8.51274365234375,-9.000431817036867,-5.106933847922086,1.0146144843574614
1761915081776797400,8.52279736328125,-7.103170793747902,-3.582715863674879,0.5871981231585145
1761915081786852600,8.5328525390625,-5.055087340828776,-2.2837480657935143,0.12527224717959762
1761915081796906500,8.542906494140626,-2.997926262962818,-1.2409434789359568,-0.3327787601273507
1761915081806960600,8.552960693359376,-0.6935843219518661,-0.45689211959540843,-0.5105228797569871
1761915081817015600,8.563015625,1.2623077540040015,-0.028396657922863958,-0.04654156908560544
1761915081827069400,8.5730693359375,2.025286514699459,-0.3542395543724298,1.0749610357053578
1761915081837123600,8.58312353515625,1.9605752653360367,-0.7532938175052404,2.4475752306863665
1761915081847178500,8.593178466796875,1.7443711397349833,-0.4386807556003332,3.424758175337314
1761915081857234400,8.603234375,2.684092368736863,1.8505162232488392,3.054529316933453
1761915081867289600,8.61328955078125,3.943068347969651,3.133334850361943,2.254048216317594
1761915081877343700,8.62334375,4.969634332209825,4.283869744098186,1.451778478719294
1761915081887398400,8.6333984375,5.733759340330958,5.204132823914289,0.7564068349592388
1761915081897452500,8.64345263671875,6.507440112304687,5.986958440852165,0.22774558337815104
1761915081907506400,8.65350634765625,7.206023265457153,6.6986471592932935,-0.05306611201614141
1761915081917561600,8.6635615234375,7.477672799426316,7.124032964512705,-0.255546832691133
1761915081927615700,8.67361572265625,7.23379799208939,7.123051552259922,-0.29042642289251086
1761915081937669600,8.683669677734375,6.760690650752187,6.904829657095671,-0.032256913547590374
1761915081947724500,8.693724609375,6.246378607845306,6.675362145295739,0.3154647102981806
1761915081957778400,8.7037783203125,5.597299782574177,6.529670648813247,0.6100704647019505
1761915081967832600,8.71383251953125,5.0675207059442995,6.4146402480542655,0.8559650874286889
1761915081977887700,8.7238876953125,4.827462826547026,6.313120486253499,0.9814927706740796
1761915081987941400,8.73394140625,4.81164098803699,6.20718699966371,1.0120531825020909
1761915081997996500,8.74399658203125,4.944962832289934,5.918754088675976,0.999722912434861
1761915082008050700,8.75405078125,5.229668831709027,5.450615183401108,0.9720627520930022
1761915082018104600,8.7641044921875,5.293853426849842,4.9332636266678564,0.8581215348102151
1761915082028159700,8.77415966796875,4.904468909338116,4.316270376965403,0.68347552732639
1761915082038213400,8.78421337890625,4.492717077195644,3.6518209640830754,0.4126891129925847
1761915082048267500,8.794267578125,4.133682689762115,2.9421710579931735,0.05255355938412249
1761915082058322700,8.80432275390625,3.574539571481943,2.096205386531353,-0.23002061563804743
1761915082068376600,8.81437646484375,2.57160113106668,1.0838602353453635,-0.3027088352300227
1761915082078430700,8.8244306640625,0.6389730263203383,-0.8051181127667426,-0.5650942817695439
1761915082088485400,8.8344853515625,-1.6428718362003565,-2.9156296725481745,-0.7981842218503356
1761915082098539500,8.84453955078125,-3.5115082380294798,-4.368557029041647,-0.6328793856203556
1761915082108594700,8.8545947265625,-5.486854371517897,-5.139048065063357,-0.43891938666179775
1761915082118648600,8.864648681640626,-8.20647690331936,-5.662462867358326,-1.071057744656503
1761915082128702700,8.87470263671875,-9.698301268962025,-5.9011208168298,-2.3538963916443287
1761915082138757400,8.88475732421875,-8.253498766735195,-5.7436967969775194,-3.008513707950711
1761915082148811500,8.8948115234375,-5.805156935590505,-6.466366343638301,-3.2260230709314346
1761915082158865400,8.904865478515624,-4.3982899040043355,-8.043353210520744,-3.3705800104260444
1761915082168920600,8.914920654296875,-4.090112428104877,-10.33433298113346,-3.3719974760085343
1761915082178974700,8.924974609375,-4.524662952032685,-12.598726358115673,-3.642371583214402
1761915082189028600,8.935028564453125,-5.429894466933607,-13.066722640049457,-3.5681004783451553
1761915082199083500,8.94508349609375,-7.519539764297008,-11.993669045400619,-2.888784043459594
1761915082209137700,8.9551376953125,-9.55888169235587,-10.122214663541316,-1.7957639117114246
1761915082219192600,8.965192626953124,-10.414800602555275,-8.27510561838746,-0.6277148424640298
1761915082229246700,8.975246826171874,-10.221620794188976,-6.790313051077723,0.03657638418190181
1761915082239300600,8.985300537109374,-8.875495523813367,-5.540543876129388,0.1406501413144171
1761915082249355500,8.99535546875,-6.883498115253448,-4.287947953322529,-0.24648966601043937
1761915082259409700,9.00540966796875,-4.220792233416438,-2.509969727540016,-0.8677971256501972
1761915082269463600,9.015463623046875,-0.9608668928831815,-0.32581717748641964,-0.9354676632106304
1761915082279518700,9.025518798828125,1.9953110631525515,1.0196966829925775,-0.289856367919594
1761915082289572400,9.035572265625,3.448421959519386,1.2481488802701235,0.8872638234686105
1761915082299626500,9.04562646484375,3.5556723739266394,0.7050988186568021,2.288227841556072
1761915082309681700,9.055681640625,3.4337609814822674,0.003791793498396873,3.505733454020321
1761915082319735600,9.065735595703124,3.0187118613600727,-0.10009294386804103,4.282698069970309
1761915082329790700,9.075790771484375,2.4089035547256468,0.6887550020992755,4.5035035518869755
1761915082339844400,9.08584423828125,2.4256916079193354,2.286647878888249,4.172354950244724
1761915082349898500,9.0958984375,3.2040245896130797,4.035439757674932,3.3261183528870344
1761915082359953700,9.10595361328125,4.34887676153779,5.456464493951201,2.260742307128757
1761915082370007600,9.116007568359375,5.716103856652975,6.762251324197649,1.2441085188381373
1761915082380061700,9.126061767578125,6.584542641207576,7.649979331111908,0.19268274556435644
1761915082390116400,9.136116455078126,7.344639708986878,8.504582482537627,-0.10573255719020962
1761915082400170500,9.14617041015625,7.387973239278793,8.748884575375914,0.07901544985212385
1761915082410224600,9.156224609375,6.804781136891245,8.580159993830323,-0.024430823031812904
1761915082420279600,9.166279541015625,5.58334256889224,8.248890396156906,0.35008835297711194
1761915082430333700,9.176333740234375,4.151164570438862,7.851788436135649,1.030450570588559
1761915082440388600,9.186388671875,3.1951684984624382,7.518444370275735,1.4179085039518773
1761915082450442500,9.1964423828125,2.989195844018459,7.302516723528504,1.6747925765961407
1761915082460496600,9.20649658203125,3.312914587920904,7.051976613083482,1.9000220124348997
1761915082470551600,9.216551513671876,4.050333959946036,6.501818180769682,1.845863721267879
1761915082480605700,9.226605712890626,4.064952267885208,6.028551849478482,1.600256975571811
1761915082490659600,9.23665966796875,3.8061499405294654,5.928935875472426,1.296652798937261
1761915082500714200,9.24671435546875,3.651509998437762,5.8454152962207795,1.039397701023519
1761915082510768000,9.25676806640625,3.5334055970609186,5.620634480932354,0.910518223132193
1761915082520822300,9.266822265625,3.445506948855519,5.463966247883438,0.9498299505621194
1761915082530877400,9.27687744140625,3.051446256226301,5.2092415452301495,0.9047403703831136
1761915082540931300,9.286931396484375,2.675754163980484,4.645952997708321,0.5943826278351247
1761915082550986200,9.296986328125,2.42064718401134,3.60509369969964,0.0021811434313654897
1761915082561040100,9.3070400390625,2.503351186183095,2.203207379135489,-0.5562875827185809
1761915082571094300,9.31709423828125,3.0790543941199777,0.44540217280983924,-0.8462168697439134
1761915082581149400,9.3271494140625,3.5028432855367657,-1.650196480000019,-0.9747733992911874
1761915082591203300,9.337203369140624,3.0314152755886314,-3.4315433054327964,-1.0779451660826802
1761915082601257200,9.34725732421875,0.9806859843358396,-4.110020659145713,-1.0565050492994488
1761915082611312400,9.3573125,-2.62608646223098,-4.41045906522572,-1.1806534070156514
1761915082621366300,9.3673662109375,-5.503382312470674,-5.341990558031201,-1.6833600600637495
1761915082631420400,9.37742041015625,-5.988342588686943,-6.222867968398332,-1.7054577639728783
1761915082641475300,9.387475341796875,-5.969701016581058,-7.225132455074787,-1.9048412492848932
1761915082651529200,9.397529296875,-5.7088774125307795,-8.823707468909024,-3.0096541101574896
1761915082661584400,9.40758447265625,-4.8888019691288465,-10.363661951470375,-4.332731974683702
1761915082671638300,9.41763818359375,-4.160852436238527,-10.654527058041095,-5.204747740942239
1761915082681692400,9.4276923828125,-3.965986866742372,-9.833274972075223,-5.5511319056391715
1761915082691747000,9.4377470703125,-4.319118167611957,-9.069420013067125,-5.412753362518549
1761915082701801200,9.44780126953125,-4.804437340268493,-8.884020191052555,-4.891744452321529
1761915082711855000,9.457855224609375,-5.1901744411885735,-8.844515279138088,-4.095180817410349
1761915082721910300,9.46791015625,-5.965899870732426,-8.608515735220909,-3.1905133661329743
1761915082731964400,9.47796435546875,-6.994102516263723,-7.8405872431635855,-2.504400987496972
1761915082742018300,9.488018310546876,-6.946552829581499,-6.5068590975463385,-1.9546713019892572
1761915082752073200,9.4980732421875,-5.947476325291395,-4.867333649164438,-1.3495640126526356
1761915082762127000,9.508127197265624,-4.789922492703795,-3.1519659010738135,-0.6485816894039511
1761915082772182300,9.518182373046875,-4.107221383816004,-1.7493430829286574,-0.06845335850119591
1761915082782236400,9.528236328125,-3.5420986066043376,-1.2293021409809588,0.13946677674874663
1761915082792290300,9.538290283203125,-2.701750190502405,-1.3411305308282375,0.4003606695562601
1761915082802345200,9.54834521484375,-2.0282991405189037,-1.2141419812500476,0.8221824986837803
1761915082812399400,9.5583994140625,-1.5266291370421647,-0.3971668419510126,1.2208169289693236
1761915082822453200,9.568453369140625,-0.9099363315910101,0.7680255226910114,1.5758698455512523
1761915082832508400,9.57850830078125,-0.05891103865206241,1.8838456613987684,1.692761364006996
1761915082842562300,9.588562255859374,0.9040683163404464,2.948011016193032,1.7147618911519646
1761915082852616200,9.5986162109375,1.8567191695421934,3.8519934078156948,1.6722158579759299
1761915082862671400,9.60867138671875,2.7052999919384715,4.7122313502579924,1.5974109384909272
1761915082872725200,9.618725341796875,3.5247447362214324,5.662341871327161,1.3228370415076613
1761915082882780400,9.628780517578125,4.728682134321332,6.56920420230031,0.8908467234566807
1761915082892834300,9.638834228515625,5.757144892093539,7.141255901992321,0.614326514711231
1761915082902888200,9.64888818359375,6.780439307317137,7.610743299266695,0.22318565505146978
1761915082912943400,9.658943359375,7.643992657917737,7.959572519028186,0.32188056868985293
1761915082922997200,9.668997314453126,8.12480399776101,7.576599622124433,0.4509992621645331
1761915082933051400,9.679051513671874,8.057529035389424,6.933274830335378,0.807029207085073
1761915082943106000,9.68910595703125,7.314193717318773,6.44107875764668,1.3967426740653812
1761915082953160200,9.69916015625,6.442250724035501,6.014508711078762,1.898097620243579
1761915082963214000,9.709214111328125,5.853248474064469,5.609962280270457,2.171689082060754
1761915082973269200,9.719269287109375,5.4599727943331,5.405227058666944,2.345397881759703
1761915082983323400,9.729323486328125,4.92958230780661,5.366124297812581,2.4365026325300336
1761915082993378000,9.7393779296875,4.475374897250533,5.396120792147517,2.448377486979961
1761915083003432200,9.74943212890625,4.275533000646531,5.596273946657776,2.286831564892083
1761915083013486300,9.759486328125,4.083720681241155,5.773855203875899,1.969984460324794
1761915083023541200,9.769541259765624,3.6031028181433675,5.708872736355662,1.4162768110968171
1761915083033595400,9.779595458984375,2.7553853345781563,5.072662160485983,0.6542639728240668
1761915083043649300,9.789649169921875,2.3652298326939345,3.6186160290956497,-0.02816153399273753
1761915083053704200,9.7997041015625,2.3901330955430864,1.758860852858424,-0.5270221791371703
1761915083063758300,9.80975830078125,1.9558377154201267,0.7227268298059701,-0.6873994958370924
1761915083073812200,9.819812255859375,0.836373082730174,0.1964426095545292,-0.6768819012150168
1761915083083867400,9.829867431640626,-0.4184124590754509,-0.8483008364111184,-0.8650881589524447
1761915083093921300,9.83992138671875,-1.0825623044893145,-2.4066502228409052,-1.020753206308186
1761915083103976200,9.84997607421875,-2.860695428572595,-3.9494302842169997,-0.8952366289786994
1761915083114030300,9.8600302734375,-6.339726169106364,-5.467950349083543,-1.3344666890248655
1761915083124084200,9.870084228515625,-7.9114277890622615,-6.5496881854474545,-1.9331717101037502
1761915083134139400,9.880139404296875,-6.406771998897194,-7.492711963126063,-2.1079465315990147
1761915083144193300,9.890193359375,-5.564156806907057,-8.43503022288382,-2.377231820654869
1761915083154247200,9.9002470703125,-5.992500292888283,-8.889526971775293,-2.752618500213325
1761915083164302300,9.91030224609375,-6.3344192948699,-9.35490518016517,-3.054529316933453
1761915083174356200,9.920356201171876,-6.411290937626362,-10.075712440085411,-3.2303923720568415
1761915083184410400,9.930410400390626,-5.6786780891001225,-10.83066805332303,-3.223594090218842
1761915083194465300,9.94046533203125,-4.671259872922301,-11.562917329233883,-3.214727185413241
1761915083204519200,9.950519287109374,-4.069764636602997,-11.643526404953002,-2.857194434714317
1761915083214573300,9.9605732421875,-3.873675078269839,-10.525593219614029,-2.3306430879592894
1761915083224628200,9.970628173828125,-3.8825738395184275,-8.640419524481892,-1.9348061794377862
1761915083234682400,9.980682373046875,-3.9461733282476663,-6.3063137288480995,-1.4332548339046538
1761915083244737300,9.9907373046875,-4.209177198946476,-3.83273633415997,-0.7719236991733313
1761915083254791200,10.000791259765625,-4.0010640253424645,-1.5307757353276013,-0.053067865581810474
1761915083264845300,10.01084521484375,-3.673098145389557,0.2474760466992855,0.5595170661590994
1761915083274900200,10.020900146484376,-2.8485534476190804,0.786129919180274,0.8122647696509957
1761915083284954400,10.030954345703124,-1.601632063317299,0.34749592533111573,1.1242048129543663
1761915083295008300,10.04100830078125,-0.4361287330299616,0.2066284880042076,1.6831098846949637
1761915083305063200,10.051063232421875,0.23822832588255405,0.622180881473422,2.277001660273224
1761915083315117300,10.061117431640625,0.5335188476800918,1.7344857055366039,2.571859489741921
1761915083325171200,10.071171142578125,1.0311439596801997,3.2416385732144115,2.411420798243582
1761915083335226400,10.081226318359375,1.55116268979609,4.812191607657074,2.077289819789678
1761915083345280300,10.0912802734375,1.8966583812206983,6.22923282725513,1.7934011281028388
1761915083355335200,10.101335205078126,2.3505127405554056,7.406489139178395,1.4462743283450603
1761915083365389300,10.111389404296874,3.2078876947820185,8.155431775736808,1.0294459235906601
1761915083375443200,10.121443115234374,4.497607771846652,8.494331137636303,0.7603942971602082
1761915083385498400,10.131498291015625,5.8499576158255335,8.488850075876712,0.7931941584780812
1761915083395552300,10.14155224609375,6.652859221586585,8.15973736397624,1.00230525707826
1761915083405606100,10.151606201171875,6.678909608644247,7.7303773944288485,1.337282038706541
1761915083415661300,10.161661376953125,6.029689913597703,7.389967043444514,1.586079689398408
1761915083425715200,10.171715087890625,5.293306314361095,7.184974047687649,1.8519174683488904
1761915083435769300,10.181769287109375,4.535723275229334,6.5884168522924185,1.953762516581267
1761915083445824500,10.191824462890626,4.139591621544957,5.906949669113755,1.8474974599495528
1761915083455878100,10.201878173828124,4.0349358998060225,5.462531246644258,1.6998592133134602
1761915083465933300,10.211933349609374,4.045447941470146,5.399089578825235,1.3993569482170045
1761915083475987200,10.2219873046875,3.9983199873313304,5.283424971815943,0.8605765267468989
1761915083486041300,10.232041259765625,3.618770635135472,5.058084769079088,0.3669491060808301
1761915083496096300,10.24209619140625,2.9550714560985565,4.5297570603013035,0.1186326630346477
1761915083506154200,10.252154296875,2.48596896648854,3.57191565271914,-0.004271539839357137
1761915083516208400,10.26220849609375,2.367466797965765,2.116957082659006,-0.1470093010827899
1761915083526263600,10.272263671875,2.587274208755791,0.39408407350480557,-0.42941213812604545
1761915083536317400,10.2823173828125,2.046923761489987,-1.0129214897692203,-0.7157483690954745
1761915083546371600,10.29237158203125,1.1138947236031294,-1.9983271961033342,-0.8290386481888592
1761915083556426200,10.30242626953125,0.1510585764735937,-2.9196155273139475,-0.5120904213346541
1761915083566480400,10.31248046875,-1.0773322948813437,-4.032636975213885,0.4338602035760879
1761915083576535600,10.32253564453125,-3.162054748889804,-4.9996547919422385,1.2144501704163848
1761915083586589400,10.33258935546875,-5.6411757491797205,-4.643970299458504,0.9662225746974349
1761915083596643300,10.342643310546874,-6.661163524073362,-3.4543408281743524,0.18189415198117492
1761915083606698500,10.352698486328125,-5.908866900911927,-2.8051398378282784,-0.41467414932996033
1761915083616752400,10.36275244140625,-4.512686390773951,-3.0953339132696387,-0.9308471638031304
1761915083626806500,10.372806640625,-3.6676287740677593,-3.903340148693323,-1.3432277953684328
1761915083636861400,10.382861328125,-3.0581907620504496,-4.690829081267118,-1.4195552482455969
1761915083646915300,10.392915283203125,-2.69383342602849,-5.097398542335629,-1.3702499500676988
1761915083656969200,10.40296923828125,-2.671518718367815,-5.398810177361965,-1.4654180047541856
1761915083667024400,10.4130244140625,-2.5930571760714054,-5.195397728794813,-1.4404659343272446
1761915083677078500,10.42307861328125,-2.362632217416167,-4.715783489781618,-1.5214263077020644
1761915083687133400,10.433133544921875,-1.9858529144555328,-4.2183740663588045,-1.6621125432431696
1761915083697187300,10.443187255859375,-1.5430974567621945,-3.6174680281043052,-1.8252678002238272
1761915083707241200,10.4532412109375,-1.3510229792892932,-3.157037212988734,-1.8307751654684543
1761915083717296400,10.46329638671875,-1.4120733680576085,-2.9580957723557946,-1.4655661810532212
1761915083727350500,10.4733505859375,-1.168085163474083,-2.8261282653212545,-0.8442734805911779
1761915083737404400,10.483404296875,-1.0731810204207897,-2.5093361058115957,-0.23884762682467697
1761915083747459300,10.493459228515626,-1.3349331374928355,-1.8556015636891126,0.32357319795191286
1761915083757513200,10.50351318359375,-2.0877304036527873,-1.0847779347121715,0.8583627962201833
1761915083767567400,10.5135673828125,-2.488328681357205,-0.6625403643906116,1.3264821200117467
1761915083777622500,10.52362255859375,-1.929955086144805,-0.5253378793120383,1.585709979303181
1761915083787676400,10.533676513671875,-1.4371283143371343,-0.30877602631449697,1.7701000397533178
1761915083797731300,10.5437314453125,-1.1506488755047322,0.06705225953161716,1.9365899941146372
1761915083807785500,10.553785400390625,-0.04961772512793541,0.8422165480613708,2.0265777235537765
1761915083817839400,10.56383935546875,1.7459774058878421,1.6334090113282203,1.1622361451849341
