time,seconds_elapsed,z,y,x
1761915073321083100,0.067083251953125,-0.83984375,-0.5675506591796875,-0.0797119140625
1761915073331138000,0.077137939453125,-0.848297119140625,-0.5413970947265625,-0.088226318359375
1761915073341192000,0.08719189453125,-0.854522705078125,-0.5027923583984375,-0.0869140625
1761915073351246000,0.09724609375,-0.880401611328125,-0.45294189453125,-0.049652099609375
1761915073361301000,0.107301025390625,-0.8800048828125,-0.3871612548828125,0.089202880859375
1761915073371355100,0.117355224609375,-0.9346160888671875,-0.502410888671875,0.0755157470703125
1761915073381409000,0.127408935546875,-0.942108154296875,-0.80633544921875,-0.12261962890625
1761915073391464000,0.1374638671875,-0.8492584228515625,-1.0850677490234375,-0.15521240234375
1761915073401518000,0.14751806640625,-0.8126983642578125,-0.94036865234375,-0.019775390625
1761915073411572000,0.157572021484375,-0.776123046875,-0.69842529296875,0.03082275390625
1761915073421627100,0.167627197265625,-0.73248291015625,-0.6221466064453125,-0.025848388671875
1761915073431681000,0.177680908203125,-0.6974029541015625,-0.588958740234375,-0.0614471435546875
1761915073441736000,0.18773583984375,-0.7000274658203125,-0.5705413818359375,-0.0545806884765625
1761915073451790000,0.1977900390625,-0.7615814208984375,-0.583099365234375,-0.0965423583984375
1761915073461844000,0.207843994140625,-0.82366943359375,-0.6036529541015625,-0.17218017578125
1761915073471899100,0.217899169921875,-0.8643951416015625,-0.5790863037109375,-0.195098876953125
1761915073481953000,0.227953125,-0.8951263427734375,-0.515869140625,-0.1700592041015625
1761915073492006700,0.238006591796875,-0.8787994384765625,-0.4557037353515625,-0.1540069580078125
1761915073502061800,0.248061767578125,-0.8689422607421875,-0.4267730712890625,-0.1501007080078125
1761915073512115700,0.25811572265625,-0.88922119140625,-0.423919677734375,-0.149169921875
1761915073522169900,0.268169921875,-0.9338226318359375,-0.4214019775390625,-0.1421661376953125
1761915073532224800,0.278224853515625,-0.9881744384765625,-0.4189453125,-0.1315155029296875
1761915073542278700,0.288278564453125,-1.027313232421875,-0.4202117919921875,-0.128326416015625
1761915073552332800,0.298332763671875,-1.0436553955078125,-0.4204254150390625,-0.1355743408203125
1761915073562387700,0.3083876953125,-1.0268402099609375,-0.4224090576171875,-0.1552886962890625
1761915073572441900,0.31844189453125,-0.97216796875,-0.4245147705078125,-0.181610107421875
1761915073582496800,0.328496826171875,-0.9206085205078125,-0.42474365234375,-0.2017669677734375
1761915073592550700,0.338550537109375,-0.901947021484375,-0.4272613525390625,-0.2047119140625
1761915073602604800,0.348604736328125,-0.93408203125,-0.4377593994140625,-0.198577880859375
1761915073612659700,0.35865966796875,-1.0053558349609375,-0.449493408203125,-0.194793701171875
1761915073622713900,0.3687138671875,-0.997894287109375,-0.456024169921875,-0.1943817138671875
1761915073632767700,0.378767822265625,-0.9322967529296875,-0.4486083984375,-0.195404052734375
1761915073642822700,0.38882275390625,-0.8821258544921875,-0.4521636962890625,-0.2123870849609375
1761915073652876800,0.398876708984375,-0.8254852294921875,-0.45513916015625,-0.2248992919921875
1761915073662930700,0.4089306640625,-0.7794189453125,-0.4647216796875,-0.227691650390625
1761915073672985900,0.41898583984375,-0.7867431640625,-0.476409912109375,-0.2251434326171875
1761915073683039700,0.429039794921875,-0.8307647705078125,-0.4654998779296875,-0.21173095703125
1761915073693094000,0.439093994140625,-0.8578948974609375,-0.4449310302734375,-0.199859619140625
1761915073703148800,0.449148681640625,-0.862091064453125,-0.424957275390625,-0.1990203857421875
1761915073713202700,0.45920263671875,-0.836883544921875,-0.4136505126953125,-0.20953369140625
1761915073723257900,0.4692578125,-0.8146209716796875,-0.4227142333984375,-0.22369384765625
1761915073733312000,0.47931201171875,-0.8065185546875,-0.437652587890625,-0.2288970947265625
1761915073743366000,0.489365966796875,-0.808624267578125,-0.4500274658203125,-0.2247772216796875
1761915073753420800,0.4994208984375,-0.8144073486328125,-0.4564971923828125,-0.2170257568359375
1761915073763474700,0.509474609375,-0.815216064453125,-0.461578369140625,-0.205596923828125
1761915073773528800,0.51952880859375,-0.8048095703125,-0.4682159423828125,-0.200836181640625
1761915073783584000,0.529583984375,-0.799163818359375,-0.4700775146484375,-0.19964599609375
1761915073793637600,0.5396376953125,-0.82098388671875,-0.4600067138671875,-0.1871337890625
1761915073803691800,0.54969189453125,-0.8678436279296875,-0.44464111328125,-0.168731689453125
1761915073813746700,0.55974658203125,-0.899749755859375,-0.4314727783203125,-0.1436309814453125
1761915073823800800,0.56980078125,-0.9128570556640625,-0.419952392578125,-0.1263885498046875
1761915073833854700,0.579854736328125,-0.9072723388671875,-0.41143798828125,-0.124542236328125
1761915073843909600,0.58990966796875,-0.8779144287109375,-0.3941650390625,-0.1235809326171875
1761915073853963800,0.5999638671875,-0.831146240234375,-0.3804168701171875,-0.11981201171875
1761915073864018700,0.610018798828125,-0.7887115478515625,-0.375213623046875,-0.11346435546875
1761915073874072800,0.62007275390625,-0.7553558349609375,-0.3695220947265625,-0.1064453125
1761915073884126700,0.630126708984375,-0.732025146484375,-0.3686065673828125,-0.099517822265625
1761915073894181600,0.640181640625,-0.7114410400390625,-0.374481201171875,-0.0948333740234375
1761915073904235800,0.65023583984375,-0.6883697509765625,-0.3753814697265625,-0.089263916015625
1761915073914289700,0.66028955078125,-0.669921875,-0.3612518310546875,-0.07843017578125
1761915073924344800,0.6703447265625,-0.6639862060546875,-0.3503570556640625,-0.069427490234375
1761915073934399000,0.68039892578125,-0.6610107421875,-0.3386993408203125,-0.0648345947265625
1761915073944452900,0.690452880859375,-0.6513671875,-0.3336029052734375,-0.063873291015625
1761915073954507800,0.7005078125,-0.648590087890625,-0.3505096435546875,-0.0574798583984375
1761915073964561700,0.710561767578125,-0.653350830078125,-0.37451171875,-0.046417236328125
1761915073974615800,0.72061572265625,-0.66180419921875,-0.3905487060546875,-0.0347747802734375
1761915073984671000,0.7306708984375,-0.662567138671875,-0.396728515625,-0.0306396484375
1761915073994724900,0.740724853515625,-0.6802825927734375,-0.395965576171875,-0.037628173828125
1761915074004779800,0.75077978515625,-0.7317657470703125,-0.409576416015625,-0.060943603515625
1761915074014833700,0.760833740234375,-0.80279541015625,-0.456146240234375,-0.0920562744140625
1761915074024887800,0.7708876953125,-0.856475830078125,-0.5382537841796875,-0.1355133056640625
1761915074034943000,0.78094287109375,-0.8967742919921875,-0.6348876953125,-0.208587646484375
1761915074044996900,0.790996826171875,-0.9515228271484375,-0.6892242431640625,-0.2817230224609375
1761915074055050800,0.80105078125,-1.1030731201171875,-0.7465057373046875,-0.3419342041015625
1761915074065105700,0.811105712890625,-1.356536865234375,-0.810394287109375,-0.3552093505859375
1761915074075159800,0.821159912109375,-1.635345458984375,-0.8304595947265625,-0.32562255859375
1761915074085213700,0.831213623046875,-1.94207763671875,-0.78607177734375,-0.2716064453125
1761915074095268600,0.8412685546875,-2.1832122802734375,-0.662017822265625,-0.21295166015625
1761915074105322800,0.85132275390625,-2.30169677734375,-0.554595947265625,-0.2072296142578125
1761915074115376600,0.861376708984375,-2.259185791015625,-0.53961181640625,-0.2711029052734375
1761915074125431800,0.871431884765625,-2.072235107421875,-0.57427978515625,-0.3498687744140625
1761915074135486000,0.88148583984375,-1.8115081787109375,-0.6224212646484375,-0.42486572265625
1761915074145540600,0.89154052734375,-1.5238189697265625,-0.6701202392578125,-0.49737548828125
1761915074155594800,0.9015947265625,-1.245758056640625,-0.68365478515625,-0.5540313720703125
1761915074165648600,0.911648681640625,-1.034423828125,-0.6369781494140625,-0.5738372802734375
1761915074175703800,0.921703857421875,-0.8809356689453125,-0.5657501220703125,-0.541717529296875
1761915074185758000,0.931758056640625,-0.7341766357421875,-0.5676727294921875,-0.4781646728515625
1761915074195811800,0.941811767578125,-0.6331939697265625,-0.619781494140625,-0.39093017578125
1761915074205866800,0.95186669921875,-0.59967041015625,-0.6619720458984375,-0.27606201171875
1761915074215920600,0.961920654296875,-0.616485595703125,-0.6741943359375,-0.143768310546875
1761915074225974800,0.971974853515625,-0.643218994140625,-0.6790618896484375,-0.021484375
1761915074236030000,0.982030029296875,-0.6505126953125,-0.6791534423828125,0.072723388671875
1761915074246083800,0.992083740234375,-0.6397857666015625,-0.6558074951171875,0.136199951171875
1761915074256137700,1.0021376953125,-0.62969970703125,-0.588287353515625,0.1727294921875
1761915074266192600,1.012192626953125,-0.622467041015625,-0.48126220703125,0.1922760009765625
1761915074276246800,1.022246826171875,-0.5735626220703125,-0.366973876953125,0.1926727294921875
1761915074286302000,1.032302001953125,-0.48883056640625,-0.275634765625,0.173004150390625
1761915074296355800,1.04235595703125,-0.378387451171875,-0.19757080078125,0.1490936279296875
1761915074306409700,1.05240966796875,-0.28826904296875,-0.145233154296875,0.1331787109375
1761915074316464600,1.062464599609375,-0.2391204833984375,-0.121978759765625,0.1238861083984375
1761915074326518800,1.072518798828125,-0.2090911865234375,-0.1013336181640625,0.1300201416015625
1761915074336573000,1.082572998046875,-0.1671905517578125,-0.0813140869140625,0.142425537109375
1761915074346627800,1.0926279296875,-0.1041717529296875,-0.078094482421875,0.132415771484375
1761915074356681700,1.102681640625,-0.041229248046875,-0.0942535400390625,0.10223388671875
1761915074366735600,1.112735595703125,0.0074920654296875,-0.1281890869140625,0.0538330078125
1761915074376790800,1.122790771484375,0.03900146484375,-0.178192138671875,-0.0084228515625
1761915074386845000,1.132844970703125,0.053558349609375,-0.2303924560546875,-0.0660858154296875
1761915074396898800,1.14289892578125,0.055328369140625,-0.2578887939453125,-0.0913543701171875
1761915074406953700,1.15295361328125,0.0305023193359375,-0.251922607421875,-0.087677001953125
1761915074417007600,1.163007568359375,-0.0373687744140625,-0.242156982421875,-0.082427978515625
1761915074427062800,1.173062744140625,-0.14617919921875,-0.246978759765625,-0.0758514404296875
1761915074437117000,1.183116943359375,-0.305145263671875,-0.26953125,-0.070709228515625
1761915074447170800,1.1931708984375,-0.4747772216796875,-0.2862396240234375,-0.05364990234375
1761915074457225700,1.203225830078125,-0.5956573486328125,-0.277374267578125,-0.02166748046875
1761915074467279600,1.213279541015625,-0.653045654296875,-0.2729644775390625,-0.013092041015625
1761915074477333800,1.223333740234375,-0.65228271484375,-0.2933349609375,-0.031951904296875
1761915074487389000,1.233388916015625,-0.6402130126953125,-0.340179443359375,-0.07611083984375
1761915074497443000,1.243443115234375,-0.6746673583984375,-0.4259490966796875,-0.11212158203125
1761915074507497000,1.2534970703125,-0.7962188720703125,-0.5119171142578125,-0.1663360595703125
1761915074517552000,1.26355224609375,-0.97857666015625,-0.500885009765625,-0.170928955078125
1761915074527606300,1.273606201171875,-0.909332275390625,-0.4006500244140625,-0.1099853515625
1761915074537660200,1.28366015625,-0.78521728515625,-0.4553680419921875,-0.202301025390625
1761915074547715000,1.293715087890625,-0.707000732421875,-0.5206451416015625,-0.3086700439453125
1761915074557769000,1.30376904296875,-0.7735748291015625,-0.528778076171875,-0.373443603515625
1761915074567824100,1.31382421875,-0.93414306640625,-0.5566864013671875,-0.4339599609375
1761915074577878300,1.323878173828125,-1.0589141845703125,-0.70001220703125,-0.53009033203125
1761915074587932200,1.33393212890625,-1.06280517578125,-0.8946380615234375,-0.6066741943359375
1761915074597987000,1.343987060546875,-1.1632232666015625,-1.03515625,-0.718414306640625
1761915074608041000,1.354041015625,-1.3500823974609375,-1.018463134765625,-0.7819671630859375
1761915074618095000,1.36409521484375,-1.4471893310546875,-0.910369873046875,-0.749847412109375
1761915074628150300,1.374150390625,-1.57891845703125,-0.93231201171875,-0.7255096435546875
1761915074638204200,1.3842041015625,-1.793548583984375,-1.0625152587890625,-0.717742919921875
1761915074648258300,1.39425830078125,-1.9704132080078125,-1.1181182861328125,-0.643218994140625
1761915074658313000,1.40431298828125,-2.0926666259765625,-1.0642852783203125,-0.5638275146484375
1761915074668367000,1.4143671875,-2.2134552001953125,-0.9048614501953125,-0.5245513916015625
1761915074678421200,1.424421142578125,-2.2693634033203125,-0.703704833984375,-0.51715087890625
1761915074688476200,1.43447607421875,-2.2019195556640625,-0.5506591796875,-0.516632080078125
1761915074698530300,1.4445302734375,-1.997467041015625,-0.4705963134765625,-0.53399658203125
1761915074708585200,1.454585205078125,-1.660858154296875,-0.45428466796875,-0.54931640625
1761915074718639000,1.46463916015625,-1.3329315185546875,-0.4812469482421875,-0.525604248046875
1761915074728693200,1.474693359375,-1.08306884765625,-0.5084991455078125,-0.453277587890625
1761915074738748200,1.484748046875,-0.9050140380859375,-0.4922332763671875,-0.3447265625
1761915074748802300,1.49480224609375,-0.7521209716796875,-0.418670654296875,-0.1857452392578125
1761915074758856000,1.50485595703125,-0.6876983642578125,-0.34344482421875,-0.0296783447265625
1761915074768911000,1.5149111328125,-0.7818450927734375,-0.3111419677734375,0.049591064453125
1761915074778965200,1.52496533203125,-0.90838623046875,-0.2466583251953125,0.071929931640625
1761915074789019100,1.53501904296875,-0.9687652587890625,-0.139617919921875,0.095947265625
1761915074799074000,1.545073974609375,-0.924346923828125,-0.0649566650390625,0.1155548095703125
1761915074809128000,1.5551279296875,-0.8062591552734375,-0.0504608154296875,0.108612060546875
1761915074819183000,1.56518310546875,-0.6574249267578125,-0.0497589111328125,0.0835418701171875
1761915074829237200,1.5752373046875,-0.4827728271484375,-0.0291290283203125,0.053558349609375
1761915074839291100,1.585291015625,-0.342926025390625,0.0120849609375,0.015777587890625
1761915074849346000,1.595345947265625,-0.2535552978515625,0.0296630859375,-0.031341552734375
1761915074859400000,1.60539990234375,-0.1891632080078125,0.038421630859375,-0.066619873046875
1761915074869454000,1.6154541015625,-0.1621856689453125,0.0429840087890625,-0.082855224609375
1761915074879509200,1.62550927734375,-0.170196533203125,0.045745849609375,-0.0882720947265625
1761915074889563100,1.635563232421875,-0.2019805908203125,0.03240966796875,-0.0890045166015625
1761915074899617300,1.6456171875,-0.2679290771484375,-0.0223541259765625,-0.07952880859375
1761915074909672200,1.655672119140625,-0.3262786865234375,-0.0934600830078125,-0.049468994140625
1761915074919726000,1.66572607421875,-0.33941650390625,-0.1439056396484375,-0.0018310546875
1761915074929780200,1.6757802734375,-0.3309783935546875,-0.160919189453125,0.0334014892578125
1761915074939835100,1.685835205078125,-0.29180908203125,-0.14996337890625,0.0682373046875
1761915074949889300,1.69588916015625,-0.2424774169921875,-0.1483154296875,0.0808563232421875
1761915074959944200,1.705944091796875,-0.2103729248046875,-0.173553466796875,0.042388916015625
1761915074969998000,1.715998046875,-0.1781768798828125,-0.1717376708984375,0.000244140625
1761915074980052200,1.72605224609375,-0.152496337890625,-0.144683837890625,-0.0125579833984375
1761915074990107100,1.736107177734375,-0.1610260009765625,-0.1758575439453125,-0.04071044921875
1761915075000161300,1.746161376953125,-0.177398681640625,-0.3068695068359375,-0.070343017578125
1761915075010215200,1.756215087890625,-0.16455078125,-0.4975433349609375,-0.0927581787109375
1761915075020270000,1.76627001953125,-0.19390869140625,-0.70458984375,-0.1689910888671875
1761915075030324200,1.77632421875,-0.289520263671875,-0.852447509765625,-0.2220916748046875
1761915075040378000,1.786378173828125,-0.4565277099609375,-0.901092529296875,-0.1965789794921875
1761915075050433300,1.796433349609375,-0.6440887451171875,-0.8914031982421875,-0.1242828369140625
1761915075060487000,1.80648681640625,-0.8710784912109375,-0.924835205078125,-0.1262359619140625
1761915075070541000,1.816541015625,-1.1811981201171875,-0.9814300537109375,-0.289825439453125
1761915075080596200,1.82659619140625,-1.531097412109375,-0.9232635498046875,-0.517913818359375
1761915075090650000,1.836650146484375,-1.782928466796875,-0.6682281494140625,-0.6626434326171875
1761915075100704300,1.846704345703125,-1.8500518798828125,-0.4531402587890625,-0.757598876953125
1761915075110759200,1.85675927734375,-1.762451171875,-0.454986572265625,-0.857879638671875
1761915075120813000,1.86681298828125,-1.5181732177734375,-0.55938720703125,-0.8700103759765625
1761915075130867200,1.8768671875,-1.3313140869140625,-0.7563934326171875,-0.8206634521484375
1761915075140922000,1.886922119140625,-1.332366943359375,-1.0211639404296875,-0.7446746826171875
1761915075150976300,1.896976318359375,-1.4713287353515625,-1.2429962158203125,-0.646942138671875
1761915075161031200,1.90703125,-1.66082763671875,-1.316497802734375,-0.5614166259765625
1761915075171085000,1.9170849609375,-1.9128570556640625,-1.1841888427734375,-0.51336669921875
1761915075181139200,1.92713916015625,-2.15509033203125,-0.9178314208984375,-0.548583984375
1761915075191194000,1.937194091796875,-2.2752227783203125,-0.65771484375,-0.6318206787109375
1761915075201248300,1.947248291015625,-2.1905059814453125,-0.4928131103515625,-0.696380615234375
1761915075211302100,1.95730224609375,-1.949920654296875,-0.4383392333984375,-0.7017822265625
1761915075221357000,1.967357177734375,-1.66607666015625,-0.452911376953125,-0.6558685302734375
1761915075231411200,1.9774111328125,-1.375213623046875,-0.5297393798828125,-0.620758056640625
1761915075241465000,1.987465087890625,-1.055023193359375,-0.529144287109375,-0.568634033203125
1761915075251520300,1.997520263671875,-0.78143310546875,-0.3529205322265625,-0.4364471435546875
1761915075261574100,2.00757421875,-0.679595947265625,-0.11846923828125,-0.2790679931640625
1761915075271628000,2.0176279296875,-0.7334442138671875,0.073333740234375,-0.127197265625
1761915075281683200,2.02768310546875,-0.837249755859375,0.1902618408203125,-0.00677490234375
1761915075291737000,2.037737060546875,-0.941558837890625,0.1956939697265625,0.0681610107421875
1761915075301792300,2.047792236328125,-0.9924163818359375,0.142486572265625,0.11798095703125
1761915075311846100,2.05784619140625,-0.9667205810546875,0.1022186279296875,0.1683502197265625
1761915075321900000,2.067900146484375,-0.856048583984375,0.0465545654296875,0.2326812744140625
1761915075331955200,2.077955078125,-0.682403564453125,-0.051605224609375,0.2612762451171875
1761915075342009000,2.088009033203125,-0.443695068359375,-0.151947021484375,0.2348175048828125
1761915075352063200,2.098063232421875,-0.187896728515625,-0.2117919921875,0.187225341796875
1761915075362118100,2.1081181640625,0.0280914306640625,-0.214111328125,0.1430206298828125
1761915075372172000,2.118172119140625,0.142120361328125,-0.206634521484375,0.0925140380859375
1761915075382226200,2.12822607421875,0.1397705078125,-0.194854736328125,0.0513763427734375
1761915075392281000,2.138281005859375,0.073211669921875,-0.1878509521484375,0.0274810791015625
1761915075402335200,2.148335205078125,-0.0280303955078125,-0.1962738037109375,0.0174407958984375
1761915075412389000,2.15838916015625,-0.136749267578125,-0.2208404541015625,0.026580810546875
1761915075422444000,2.168444091796875,-0.2115020751953125,-0.242431640625,0.061279296875
1761915075432498200,2.178498291015625,-0.2148895263671875,-0.2778167724609375,0.1255340576171875
1761915075442553000,2.188552978515625,-0.1723175048828125,-0.354705810546875,0.1903076171875
1761915075452607200,2.198607177734375,-0.105316162109375,-0.4369964599609375,0.2334442138671875
1761915075462661400,2.208661376953125,-0.012725830078125,-0.4603729248046875,0.239715576171875
1761915075472716000,2.218716064453125,0.0051422119140625,-0.38690185546875,0.207489013671875
1761915075482770200,2.228770263671875,-0.024749755859375,-0.3069915771484375,0.175537109375
1761915075492824300,2.23882421875,-0.02862548828125,-0.336883544921875,0.1826324462890625
1761915075502879500,2.24887939453125,-0.0632171630859375,-0.336029052734375,0.10968017578125
1761915075512933400,2.258933349609375,-0.1367645263671875,-0.354217529296875,-0.0157318115234375
1761915075522987300,2.2689873046875,-0.1589813232421875,-0.420654296875,-0.1079254150390625
1761915075533042400,2.27904248046875,-0.141998291015625,-0.4820098876953125,-0.1472930908203125
1761915075543096300,2.289096435546875,-0.116943359375,-0.5284576416015625,-0.129669189453125
1761915075553150500,2.299150390625,-0.1380767822265625,-0.55047607421875,-0.1025238037109375
1761915075563205400,2.309205322265625,-0.3022918701171875,-0.593597412109375,-0.0982818603515625
1761915075573259300,2.31925927734375,-0.668182373046875,-0.6686248779296875,-0.23675537109375
1761915075583314400,2.329314453125,-1.0967254638671875,-0.6617889404296875,-0.3642730712890625
1761915075593368300,2.339368408203125,-1.314300537109375,-0.64013671875,-0.40869140625
1761915075603422500,2.34942236328125,-1.520782470703125,-0.69464111328125,-0.4680633544921875
1761915075613477400,2.359477294921875,-1.790771484375,-0.75054931640625,-0.488128662109375
1761915075623531300,2.36953125,-1.9416656494140625,-0.7191009521484375,-0.4072113037109375
1761915075633585400,2.37958544921875,-2.0296173095703125,-0.5949859619140625,-0.2784881591796875
1761915075643640600,2.389640625,-1.9956512451171875,-0.472015380859375,-0.1815032958984375
1761915075653694500,2.399694580078125,-1.9193115234375,-0.4584197998046875,-0.170745849609375
1761915075663748600,2.40974853515625,-1.8869781494140625,-0.5588836669921875,-0.1955413818359375
1761915075673803300,2.41980322265625,-2.0578460693359375,-0.666839599609375,-0.2335357666015625
1761915075683857400,2.429857421875,-2.207611083984375,-0.6474609375,-0.2216033935546875
1761915075693911300,2.439911376953125,-2.1602783203125,-0.510040283203125,-0.18145751953125
1761915075703966500,2.449966552734375,-2.226409912109375,-0.4017333984375,-0.239837646484375
1761915075714020600,2.4600205078125,-2.0477752685546875,-0.382568359375,-0.24932861328125
1761915075724074200,2.47007421875,-1.6959686279296875,-0.3984832763671875,-0.2085723876953125
1761915075734129400,2.48012939453125,-1.34490966796875,-0.406707763671875,-0.1985015869140625
1761915075744183300,2.490183349609375,-1.08880615234375,-0.4134674072265625,-0.162322998046875
1761915075754238500,2.500238525390625,-0.9040069580078125,-0.3915557861328125,-0.1327362060546875
1761915075764292400,2.510292236328125,-0.7720794677734375,-0.3644256591796875,-0.1553802490234375
1761915075774346200,2.52034619140625,-0.7193145751953125,-0.3486480712890625,-0.1655120849609375
1761915075784401400,2.5304013671875,-0.5439300537109375,-0.3899688720703125,-0.08892822265625
1761915075794455300,2.540455322265625,-0.547698974609375,-0.3779754638671875,0.0410614013671875
1761915075804509400,2.550509521484375,-0.645904541015625,-0.220306396484375,0.0845794677734375
1761915075814564400,2.560564453125,-0.6715850830078125,-0.0987701416015625,0.077362060546875
1761915075824618200,2.5706181640625,-0.854278564453125,-0.0907745361328125,0.0446014404296875
1761915075834672400,2.58067236328125,-0.91754150390625,-0.0375213623046875,0.06903076171875
1761915075844727600,2.5907275390625,-0.962677001953125,0.0409698486328125,0.1257171630859375
1761915075854781400,2.600781494140625,-1.11029052734375,0.0931854248046875,0.130615234375
1761915075864835600,2.610835693359375,-1.00213623046875,0.0491180419921875,0.1759796142578125
1761915075874890200,2.62089013671875,-0.750335693359375,0.007659912109375,0.1916046142578125
1761915075884944400,2.6309443359375,-0.503265380859375,0.0215301513671875,0.1583099365234375
1761915075894999600,2.64099951171875,-0.3407135009765625,0.0171356201171875,0.093902587890625
1761915075905053400,2.651053466796875,-0.276519775390625,0.0374755859375,0.0313873291015625
1761915075915107600,2.661107666015625,-0.2621307373046875,0.0552520751953125,-0.0355377197265625
1761915075925162200,2.671162353515625,-0.2136993408203125,0.042816162109375,-0.07220458984375
1761915075935216400,2.68121630859375,-0.202728271484375,0.0195465087890625,-0.08343505859375
1761915075945270300,2.691270263671875,-0.1862945556640625,0.005340576171875,-0.099334716796875
1761915075955325400,2.701325439453125,-0.145721435546875,-0.011993408203125,-0.13189697265625
1761915075965379600,2.711379638671875,-0.15057373046875,-0.0619354248046875,-0.18658447265625
1761915075975433500,2.72143359375,-0.2034912109375,-0.1623382568359375,-0.25946044921875
1761915075985488400,2.73148828125,-0.3180389404296875,-0.251495361328125,-0.302215576171875
1761915075995542300,2.741542236328125,-0.4411773681640625,-0.26275634765625,-0.2750091552734375
1761915076005596400,2.751596435546875,-0.6561737060546875,-0.256317138671875,-0.166015625
1761915076015651600,2.761651611328125,-0.9673004150390625,-0.2070770263671875,0.0084381103515625
1761915076025705200,2.771705322265625,-0.89788818359375,-0.2221221923828125,0.0512847900390625
1761915076035760400,2.781760498046875,-0.968902587890625,-0.2987213134765625,-0.001800537109375
1761915076045814500,2.791814453125,-1.0310821533203125,-0.383758544921875,-0.0251007080078125
1761915076055868400,2.801868408203125,-1.1171722412109375,-0.4642791748046875,-0.05743408203125
1761915076065923300,2.81192333984375,-1.1632080078125,-0.55853271484375,-0.0495147705078125
1761915076075977200,2.821977294921875,-1.1884613037109375,-0.6338348388671875,-0.0724639892578125
1761915076086031400,2.83203125,-1.2417449951171875,-0.6575927734375,-0.1244354248046875
1761915076096086500,2.84208642578125,-1.4037017822265625,-0.6455078125,-0.1181182861328125
1761915076106140400,2.852140380859375,-1.7183685302734375,-0.5933990478515625,-0.1257171630859375
1761915076116194600,2.862194580078125,-2.0534515380859375,-0.5117340087890625,-0.1294708251953125
1761915076126249200,2.872249267578125,-2.2012176513671875,-0.3645172119140625,-0.024139404296875
1761915076136303400,2.882303466796875,-2.20025634765625,-0.2628936767578125,0.070953369140625
1761915076146357200,2.892357177734375,-2.037445068359375,-0.2790069580078125,0.081268310546875
1761915076156412400,2.902412353515625,-1.7996826171875,-0.407379150390625,0.00701904296875
1761915076166466600,2.912466552734375,-1.517852783203125,-0.7536468505859375,-0.2596588134765625
1761915076176520400,2.9225205078125,-1.2451934814453125,-1.5579833984375,-0.69232177734375
1761915076186575400,2.932575439453125,-1.2114410400390625,-1.834014892578125,-0.6791229248046875
1761915076196629200,2.942629150390625,-1.32794189453125,-1.27117919921875,-0.234466552734375
1761915076206684400,2.952684326171875,-1.28228759765625,-0.987457275390625,-0.2202911376953125
1761915076216738600,2.962738525390625,-1.4193115234375,-0.939666748046875,-0.3804168701171875
1761915076226792400,2.97279248046875,-1.518402099609375,-0.705352783203125,-0.325531005859375
1761915076236847400,2.982847412109375,-1.5627288818359375,-0.519744873046875,-0.2320098876953125
1761915076246901500,2.992901611328125,-1.47772216796875,-0.485076904296875,-0.215240478515625
1761915076256955400,3.002955322265625,-1.1439208984375,-0.5497283935546875,-0.2803955078125
1761915076267010600,3.013010498046875,-0.7812652587890625,-0.5814971923828125,-0.3265228271484375
1761915076277064400,3.023064453125,-0.504058837890625,-0.52288818359375,-0.288726806640625
1761915076287118300,3.033118408203125,-0.4022064208984375,-0.4463348388671875,-0.2263641357421875
1761915076297173500,3.043173583984375,-0.4514923095703125,-0.3694610595703125,-0.1589508056640625
1761915076307227400,3.053227294921875,-0.52978515625,-0.2454681396484375,-0.0748138427734375
1761915076317281500,3.063281494140625,-0.5732269287109375,-0.1562957763671875,0.0101165771484375
1761915076327336200,3.073336181640625,-0.5357666015625,-0.159698486328125,0.0372772216796875
1761915076337390300,3.083390380859375,-0.5037384033203125,-0.1668701171875,0.0069732666015625
1761915076347444200,3.0934443359375,-0.4482421875,-0.0913543701171875,0.0272216796875
1761915076357499400,3.10349951171875,-0.3870697021484375,-0.04949951171875,0.019287109375
1761915076367553500,3.113553466796875,-0.347259521484375,-0.0700531005859375,-0.0631103515625
1761915076377608200,3.123608154296875,-0.2090301513671875,-0.0412139892578125,-0.033660888671875
1761915076387662300,3.133662353515625,-0.141693115234375,-0.0562286376953125,-0.0538330078125
1761915076397716200,3.14371630859375,-0.151824951171875,-0.0645904541015625,-0.11065673828125
1761915076407771400,3.153771484375,0.0172119140625,-0.0448760986328125,-0.1794891357421875
1761915076417825500,3.163825439453125,0.130645751953125,-0.0406036376953125,-0.2146759033203125
1761915076427879400,3.17387939453125,0.098388671875,-0.083587646484375,-0.2068634033203125
1761915076437934300,3.183934326171875,0.061370849609375,-0.12890625,-0.166046142578125
1761915076447988500,3.193988525390625,0.0493927001953125,-0.1688690185546875,-0.1209869384765625
1761915076458042400,3.20404248046875,-0.01995849609375,-0.138946533203125,-0.1165313720703125
1761915076468097500,3.21409765625,-0.2927093505859375,-0.13299560546875,-0.1627960205078125
1761915076478151400,3.2241513671875,-0.356842041015625,-0.14129638671875,-0.1707916259765625
1761915076488205300,3.234205322265625,-0.393463134765625,-0.2371368408203125,-0.1341094970703125
1761915076498260500,3.244260498046875,-0.6527862548828125,-0.3198699951171875,-0.046600341796875
1761915076508314400,3.254314453125,-0.4417877197265625,-0.3452911376953125,0.031219482421875
1761915076518369500,3.26436962890625,-0.546661376953125,-0.3920440673828125,-0.0113525390625
1761915076528423400,3.27442333984375,-0.4906463623046875,-0.4266204833984375,-0.0744476318359375
1761915076538477300,3.284477294921875,-0.4453277587890625,-0.438079833984375,-0.068084716796875
1761915076548532500,3.294532470703125,-0.532440185546875,-0.4512786865234375,-0.05645751953125
1761915076558586400,3.30458642578125,-0.8028564453125,-0.4881591796875,-0.097900390625
1761915076568640500,3.314640625,-1.150848388671875,-0.571624755859375,-0.100341796875
1761915076578695400,3.3246953125,-1.376983642578125,-0.63104248046875,-0.0454254150390625
1761915076588749300,3.334749267578125,-1.6964111328125,-0.686737060546875,0.066925048828125
1761915076598803200,3.34480322265625,-1.8788299560546875,-0.7418670654296875,0.13409423828125
1761915076608858400,3.3548583984375,-1.9773101806640625,-0.7672119140625,0.0874176025390625
1761915076618912500,3.36491259765625,-1.843414306640625,-0.7339935302734375,-0.0540924072265625
1761915076628966400,3.37496630859375,-1.55389404296875,-0.7054595947265625,-0.22662353515625
1761915076639021300,3.385021240234375,-1.39569091796875,-0.7433319091796875,-0.333282470703125
1761915076649075500,3.395075439453125,-1.2862701416015625,-0.8170623779296875,-0.4553375244140625
1761915076659130400,3.40513037109375,-1.269989013671875,-0.90313720703125,-0.5969085693359375
1761915076669184500,3.4151845703125,-1.4489898681640625,-0.9341583251953125,-0.634246826171875
1761915076679238400,3.42523828125,-1.5960693359375,-0.8950347900390625,-0.5743255615234375
1761915076689293300,3.435293212890625,-1.628570556640625,-0.902557373046875,-0.506561279296875
1761915076699347500,3.445347412109375,-1.615203857421875,-0.912567138671875,-0.423675537109375
1761915076709401300,3.4554013671875,-1.584381103515625,-0.9004364013671875,-0.32958984375
1761915076719456500,3.46545654296875,-1.6077423095703125,-0.8678436279296875,-0.22076416015625
1761915076729510400,3.475510498046875,-1.665496826171875,-0.830322265625,-0.0878753662109375
1761915076739564500,3.485564453125,-1.6764068603515625,-0.8227996826171875,0.018707275390625
1761915076749619500,3.495619384765625,-1.6067047119140625,-0.8284759521484375,0.0616455078125
1761915076759673300,3.50567333984375,-1.435577392578125,-0.8088531494140625,0.0600738525390625
1761915076769727500,3.5157275390625,-1.1519317626953125,-0.7490386962890625,0.0205535888671875
1761915076779782400,3.525782470703125,-0.845855712890625,-0.6476593017578125,-0.0431365966796875
1761915076789836300,3.535836181640625,-0.60614013671875,-0.537689208984375,-0.090301513671875
1761915076799890400,3.545890380859375,-0.468658447265625,-0.4410858154296875,-0.1095733642578125
1761915076809945300,3.5559453125,-0.446380615234375,-0.3553314208984375,-0.102020263671875
1761915076819999500,3.56599951171875,-0.496002197265625,-0.2750701904296875,-0.06182861328125
1761915076830054400,3.576054443359375,-0.5687713623046875,-0.219146728515625,-0.01495361328125
1761915076840108300,3.5861083984375,-0.593658447265625,-0.1854705810546875,0.0225067138671875
1761915076850162400,3.596162353515625,-0.5279388427734375,-0.1643218994140625,0.0548248291015625
1761915076860217300,3.60621728515625,-0.4359130859375,-0.17681884765625,0.07061767578125
1761915076870271500,3.616271484375,-0.3015289306640625,-0.2083892822265625,0.061248779296875
1761915076880325400,3.626325439453125,-0.1661529541015625,-0.2200164794921875,0.0480194091796875
1761915076890380300,3.63638037109375,-0.0478973388671875,-0.2140655517578125,0.0262603759765625
1761915076900434400,3.646434326171875,0.1069183349609375,-0.2035675048828125,0.0755157470703125
1761915076910488300,3.65648828125,0.135528564453125,-0.2302398681640625,0.02239990234375
1761915076920543500,3.66654345703125,0.02886962890625,-0.24432373046875,-0.0611572265625
1761915076930597400,3.676597412109375,-0.0074920654296875,-0.2014312744140625,-0.060791015625
1761915076940651500,3.686651611328125,-0.018890380859375,-0.16375732421875,-0.1064605712890625
1761915076950706400,3.69670654296875,-0.0182342529296875,-0.1880340576171875,-0.146087646484375
1761915076960760300,3.70676025390625,-0.01641845703125,-0.2186126708984375,-0.156951904296875
1761915076970815500,3.7168154296875,-0.039337158203125,-0.2535552978515625,-0.144989013671875
1761915076980869400,3.726869384765625,-0.099700927734375,-0.2695465087890625,-0.1421661376953125
1761915076990923500,3.736923583984375,-0.21832275390625,-0.2634429931640625,-0.131591796875
1761915077000978400,3.746978515625,-0.3027191162109375,-0.23858642578125,-0.115631103515625
1761915077011032300,3.7570322265625,-0.346435546875,-0.2598876953125,-0.1038818359375
1761915077021086500,3.76708642578125,-0.3920745849609375,-0.313446044921875,-0.0996856689453125
1761915077031141400,3.777141357421875,-0.4863433837890625,-0.3207244873046875,-0.1163787841796875
1761915077041195500,3.787195556640625,-0.615447998046875,-0.3271026611328125,-0.121734619140625
1761915077051249400,3.79724951171875,-0.7350616455078125,-0.417327880859375,-0.108917236328125
1761915077061304300,3.80730419921875,-0.8333892822265625,-0.5525970458984375,-0.0903778076171875
1761915077071358500,3.8173583984375,-0.951202392578125,-0.69622802734375,-0.0985107421875
1761915077081412400,3.827412353515625,-1.08795166015625,-0.8230438232421875,-0.1140289306640625
1761915077091467300,3.83746728515625,-1.2674713134765625,-0.914825439453125,-0.0945892333984375
1761915077101521400,3.847521484375,-1.5850372314453125,-0.9875640869140625,-0.0675048828125
1761915077111576300,3.857576416015625,-1.8845367431640625,-1.019195556640625,-0.0757598876953125
1761915077121630500,3.86763037109375,-1.97918701171875,-0.961090087890625,-0.1091156005859375
1761915077131684400,3.877684326171875,-1.917144775390625,-0.89666748046875,-0.170562744140625
1761915077141739300,3.8877392578125,-1.8153839111328125,-0.9483489990234375,-0.3084564208984375
1761915077151793400,3.89779345703125,-1.649505615234375,-1.0696258544921875,-0.4615631103515625
1761915077161847300,3.907847412109375,-1.424346923828125,-1.2290496826171875,-0.603485107421875
1761915077171902500,3.91790234375,-1.2061614990234375,-1.301849365234375,-0.671722412109375
1761915077181956400,3.927956298828125,-1.169464111328125,-1.275421142578125,-0.66583251953125
1761915077192010500,3.938010498046875,-1.2496795654296875,-1.21551513671875,-0.6429901123046875
1761915077202065400,3.9480654296875,-1.3163909912109375,-1.115081787109375,-0.6317291259765625
1761915077212119300,3.958119384765625,-1.358184814453125,-0.9894256591796875,-0.5988311767578125
1761915077222173400,3.96817333984375,-1.3889617919921875,-0.923004150390625,-0.551910400390625
1761915077232228600,3.978228515625,-1.3748321533203125,-0.860687255859375,-0.4900360107421875
1761915077242282500,3.988282470703125,-1.2655487060546875,-0.8460540771484375,-0.4094696044921875
1761915077252337400,3.99833740234375,-1.17486572265625,-0.8954315185546875,-0.3492889404296875
1761915077262391300,4.008391357421875,-1.1707763671875,-0.90826416015625,-0.295562744140625
1761915077272443400,4.018443359375,-1.1864471435546875,-0.8319854736328125,-0.25689697265625
1761915077282497300,4.028497314453125,-1.21136474609375,-0.6496734619140625,-0.23974609375
1761915077292552400,4.038552490234375,-1.214874267578125,-0.43243408203125,-0.22021484375
1761915077302606300,4.0486064453125,-1.18658447265625,-0.2285614013671875,-0.19329833984375
1761915077312660500,4.058660400390625,-1.102447509765625,-0.0857086181640625,-0.17083740234375
1761915077322715400,4.06871533203125,-0.9693603515625,-0.050567626953125,-0.147979736328125
1761915077332769300,4.078769287109375,-0.820831298828125,-0.0922088623046875,-0.10565185546875
1761915077342823400,4.088823486328125,-0.6553955078125,-0.1300811767578125,0.0024261474609375
1761915077352878300,4.09887841796875,-0.55999755859375,-0.1987152099609375,0.127197265625
1761915077362932500,4.108932373046875,-0.5723114013671875,-0.2564697265625,0.2041168212890625
1761915077372986400,4.118986328125,-0.6768951416015625,-0.209320068359375,0.2480926513671875
1761915077383041300,4.129041259765625,-0.8414154052734375,-0.1015167236328125,0.2179412841796875
1761915077393095400,4.139095458984375,-0.903778076171875,-0.0113525390625,0.1531829833984375
1761915077403150300,4.149150390625,-0.78338623046875,0.039398193359375,0.1009368896484375
1761915077413204500,4.15920458984375,-0.554779052734375,0.0383758544921875,0.0785980224609375
1761915077423258400,4.16925830078125,-0.3167877197265625,-0.00238037109375,0.0849151611328125
1761915077433313300,4.179313232421875,-0.15545654296875,-0.075469970703125,0.106475830078125
1761915077443367400,4.189367431640625,-0.1190948486328125,-0.182647705078125,0.0958709716796875
1761915077453421300,4.19942138671875,-0.1889801025390625,-0.223052978515625,0.039947509765625
1761915077463476500,4.2094765625,-0.264251708984375,-0.1939544677734375,-0.044342041015625
1761915077473530400,4.2195302734375,-0.2495574951171875,-0.1690673828125,-0.135406494140625
1761915077483584500,4.22958447265625,-0.159576416015625,-0.15167236328125,-0.180633544921875
1761915077493639400,4.239639404296875,-0.03955078125,-0.1832733154296875,-0.180328369140625
1761915077503693300,4.249693359375,0.0656585693359375,-0.2772674560546875,-0.131866455078125
1761915077513747500,4.25974755859375,0.0632171630859375,-0.408294677734375,-0.082794189453125
1761915077523802600,4.269802734375,-0.032928466796875,-0.523834228515625,-0.0465545654296875
1761915077533856500,4.2798564453125,-0.1432952880859375,-0.618560791015625,-0.0614013671875
1761915077543911400,4.289911376953125,-0.1180419921875,-0.67523193359375,-0.115264892578125
1761915077553965300,4.29996533203125,-0.0019989013671875,-0.68060302734375,-0.1839447021484375
1761915077564019500,4.31001953125,0.05682373046875,-0.6886749267578125,-0.259521484375
1761915077574074600,4.32007470703125,0.0230865478515625,-0.7472991943359375,-0.321136474609375
1761915077584128300,4.330128173828125,-0.0831298828125,-0.7817230224609375,-0.3312225341796875
1761915077594182400,4.340182373046875,-0.271942138671875,-0.7262420654296875,-0.2579498291015625
1761915077604237600,4.350237548828125,-0.5940704345703125,-0.7150421142578125,-0.1711273193359375
1761915077614291500,4.36029150390625,-0.9603729248046875,-0.802978515625,-0.15423583984375
1761915077624345600,4.370345703125,-1.2226104736328125,-0.9393310546875,-0.249542236328125
1761915077634400300,4.380400146484375,-1.2298126220703125,-1.0654296875,-0.41387939453125
1761915077644454400,4.390454345703125,-1.0223388671875,-1.0871429443359375,-0.5302276611328125
1761915077654509600,4.400509521484375,-0.851531982421875,-1.0534515380859375,-0.4807281494140625
1761915077664563500,4.4105634765625,-0.9945220947265625,-1.158843994140625,-0.411224365234375
1761915077674617600,4.42061767578125,-1.342315673828125,-1.2071380615234375,-0.3614501953125
1761915077684672300,4.43067236328125,-1.64556884765625,-1.1466064453125,-0.3547515869140625
1761915077694726400,4.440726318359375,-1.7541351318359375,-1.0806884765625,-0.4051666259765625
1761915077704780300,4.4507802734375,-1.7144622802734375,-1.0226898193359375,-0.489471435546875
1761915077714835500,4.46083544921875,-1.6385040283203125,-0.993682861328125,-0.5428314208984375
1761915077724889600,4.4708896484375,-1.6253509521484375,-0.9353485107421875,-0.51416015625
1761915077734943500,4.480943603515625,-1.6604461669921875,-0.818695068359375,-0.3908843994140625
1761915077744998400,4.490998291015625,-1.7245941162109375,-0.7233734130859375,-0.2136993408203125
1761915077755052300,4.50105224609375,-1.70635986328125,-0.6178131103515625,-0.114532470703125
1761915077765106400,4.5111064453125,-1.5595703125,-0.4789581298828125,-0.0867156982421875
1761915077775161600,4.52116162109375,-1.4114837646484375,-0.3540496826171875,-0.077301025390625
1761915077785215500,4.531215576171875,-1.328338623046875,-0.245330810546875,-0.0485382080078125
1761915077795270400,4.5412705078125,-1.302001953125,-0.186920166015625,-0.0319976806640625
1761915077805324500,4.551324462890625,-1.2774505615234375,-0.14605712890625,-0.019561767578125
1761915077815378400,4.56137841796875,-1.255889892578125,-0.1786956787109375,-0.01824951171875
1761915077825433600,4.57143359375,-1.1985931396484375,-0.2447967529296875,0.00372314453125
1761915077835487500,4.581487548828125,-1.1042633056640625,-0.2184600830078125,0.0491790771484375
1761915077845541400,4.591541259765625,-0.9796905517578125,-0.140594482421875,0.06927490234375
1761915077855596500,4.601596435546875,-0.809844970703125,-0.06903076171875,0.0602874755859375
1761915077865651500,4.6116513671875,-0.6343231201171875,-0.017669677734375,0.03851318359375
1761915077875705600,4.62170556640625,-0.4589080810546875,0.0218048095703125,0.0257415771484375
1761915077885760500,4.631760498046875,-0.2931976318359375,0.015472412109375,0.0009613037109375
1761915077895814400,4.641814453125,-0.1890411376953125,-0.027374267578125,-0.03375244140625
1761915077905868500,4.65186865234375,-0.140655517578125,-0.0469512939453125,-0.0569000244140625
1761915077915923500,4.66192333984375,-0.113616943359375,-0.0544281005859375,-0.073944091796875
1761915077925977300,4.671977294921875,-0.101409912109375,-0.052764892578125,-0.0881500244140625
1761915077936031200,4.68203125,-0.1291656494140625,-0.066650390625,-0.097259521484375
1761915077946086400,4.69208642578125,-0.1697540283203125,-0.111358642578125,-0.1061859130859375
1761915077956140500,4.702140625,-0.20709228515625,-0.1435089111328125,-0.1106719970703125
1761915077966194400,4.7121943359375,-0.2094573974609375,-0.1376800537109375,-0.1188507080078125
1761915077976249300,4.722249267578125,-0.1575469970703125,-0.1372528076171875,-0.1280670166015625
1761915077986303200,4.73230322265625,-0.1115875244140625,-0.1524200439453125,-0.141265869140625
1761915077996358400,4.7423583984375,-0.104705810546875,-0.1515655517578125,-0.1248016357421875
1761915078006412500,4.75241259765625,-0.1567230224609375,-0.1951446533203125,-0.0942535400390625
1761915078016466400,4.762466552734375,-0.2424468994140625,-0.2927703857421875,-0.06866455078125
1761915078026521300,4.772521240234375,-0.29766845703125,-0.406280517578125,-0.0820159912109375
1761915078036575500,4.782575439453125,-0.258331298828125,-0.496978759765625,-0.1423797607421875
1761915078046629400,4.79262939453125,-0.13824462890625,-0.5560302734375,-0.2158050537109375
1761915078056684500,4.8026845703125,-0.0640411376953125,-0.6022796630859375,-0.272216796875
1761915078066738400,4.812738525390625,-0.11248779296875,-0.6790008544921875,-0.3047027587890625
1761915078076792600,4.82279248046875,-0.2416229248046875,-0.77447509765625,-0.270050048828125
1761915078086847500,4.832847412109375,-0.4949798583984375,-0.8369598388671875,-0.1919097900390625
1761915078096901400,4.8429013671875,-0.8700103759765625,-0.8605499267578125,-0.1125335693359375
1761915078106956500,4.85295654296875,-1.21844482421875,-0.909210205078125,-0.0614471435546875
1761915078117010400,4.863010498046875,-1.4759521484375,-1.0121307373046875,-0.0978546142578125
1761915078127064600,4.873064697265625,-1.499755859375,-1.12274169921875,-0.21746826171875
1761915078137119500,4.883119384765625,-1.2650604248046875,-1.184906005859375,-0.3505096435546875
1761915078147173400,4.89317333984375,-1.0120391845703125,-1.2039337158203125,-0.4205169677734375
1761915078157227500,4.9032275390625,-0.997711181640625,-1.264984130859375,-0.4752960205078125
1761915078167282400,4.913282470703125,-1.1703338623046875,-1.3785858154296875,-0.5564727783203125
1761915078177336600,4.923336669921875,-1.256256103515625,-1.428955078125,-0.6392364501953125
1761915078187390200,4.93339013671875,-1.220306396484375,-1.3864898681640625,-0.7020721435546875
1761915078197445400,4.9434453125,-1.2344512939453125,-1.309051513671875,-0.727752685546875
1761915078207499500,4.95349951171875,-1.3296966552734375,-1.27886962890625,-0.6939239501953125
1761915078217554400,4.963554443359375,-1.4369354248046875,-1.2470550537109375,-0.553009033203125
1761915078227608300,4.9736083984375,-1.52008056640625,-1.1661376953125,-0.3663787841796875
1761915078237662500,4.983662353515625,-1.5506439208984375,-1.0289459228515625,-0.20953369140625
1761915078247717400,4.99371728515625,-1.4933319091796875,-0.8552398681640625,-0.1284332275390625
1761915078257771500,5.003771484375,-1.334625244140625,-0.7178192138671875,-0.1333465576171875
1761915078267825400,5.013825439453125,-1.13592529296875,-0.6331939697265625,-0.1490936279296875
1761915078277880300,5.02388037109375,-0.9647674560546875,-0.6193695068359375,-0.1306304931640625
1761915078287934500,5.0339345703125,-0.87799072265625,-0.70068359375,-0.07794189453125
1761915078297988400,5.04398828125,-0.8328857421875,-0.777587890625,0.0070343017578125
1761915078308043500,5.05404345703125,-0.789520263671875,-0.7920379638671875,0.107452392578125
1761915078318097400,5.064097412109375,-0.738616943359375,-0.7578887939453125,0.1779327392578125
1761915078328151600,5.074151611328125,-0.669403076171875,-0.6828765869140625,0.207794189453125
1761915078338206500,5.08420654296875,-0.6139373779296875,-0.568634033203125,0.2080841064453125
1761915078348260400,5.09426025390625,-0.5586090087890625,-0.455078125,0.176727294921875
1761915078358315500,5.1043154296875,-0.4797515869140625,-0.3575592041015625,0.131866455078125
1761915078368369400,5.114369384765625,-0.350799560546875,-0.269256591796875,0.07672119140625
1761915078378423600,5.124423583984375,-0.2413787841796875,-0.2018280029296875,0.013214111328125
1761915078388478500,5.134478515625,-0.155242919921875,-0.13568115234375,-0.050201416015625
1761915078398532400,5.144532470703125,-0.085174560546875,-0.089874267578125,-0.090301513671875
1761915078408586500,5.15458642578125,-0.047821044921875,-0.0895538330078125,-0.09051513671875
1761915078418641400,5.164641357421875,-0.056060791015625,-0.1204986572265625,-0.0576019287109375
1761915078428695600,5.174695556640625,-0.0729827880859375,-0.1444091796875,-0.0184783935546875
1761915078438750500,5.18475048828125,-0.069580078125,-0.159942626953125,-0.0037384033203125
1761915078448804400,5.194804443359375,-0.0742340087890625,-0.1703338623046875,-0.0099029541015625
1761915078458858500,5.2048583984375,-0.1237945556640625,-0.173828125,-0.021087646484375
1761915078468913700,5.21491357421875,-0.186920166015625,-0.1667327880859375,-0.0218048095703125
1761915078478967600,5.224967529296875,-0.224273681640625,-0.1788330078125,-0.0252227783203125
1761915078489021400,5.235021484375,-0.230499267578125,-0.2141876220703125,-0.0162353515625
1761915078499075800,5.245075927734375,-0.2469940185546875,-0.2628326416015625,0.0013580322265625
1761915078509130000,5.2551298828125,-0.3014678955078125,-0.3255462646484375,0.0191802978515625
1761915078519184000,5.265183837890625,-0.3613128662109375,-0.4164581298828125,0.012359619140625
1761915078529239000,5.275239013671875,-0.369354248046875,-0.532867431640625,-0.0513153076171875
1761915078539293000,5.28529296875,-0.317535400390625,-0.6304473876953125,-0.1435546875
1761915078549346800,5.295346923828125,-0.2415924072265625,-0.6862335205078125,-0.19195556640625
1761915078559402000,5.305402099609375,-0.298004150390625,-0.75555419921875,-0.184967041015625
1761915078569455900,5.315455810546875,-0.5196990966796875,-0.8583984375,-0.1522216796875
1761915078579511000,5.325510986328125,-0.74835205078125,-0.972747802734375,-0.0936737060546875
1761915078589565000,5.33556494140625,-1.003875732421875,-1.0301666259765625,-0.014190673828125
1761915078599618800,5.345618896484375,-1.3607635498046875,-1.078521728515625,0.006439208984375
1761915078609674000,5.355674072265625,-1.5884857177734375,-1.19915771484375,-0.058746337890625
1761915078619728000,5.365727783203125,-1.5131378173828125,-1.3178558349609375,-0.153778076171875
1761915078629782000,5.375781982421875,-1.222015380859375,-1.381988525390625,-0.246826171875
1761915078639836700,5.385836669921875,-0.972869873046875,-1.452484130859375,-0.3292694091796875
1761915078649890800,5.395890869140625,-0.8916778564453125,-1.534759521484375,-0.3900909423828125
1761915078659945000,5.405945068359375,-0.9158477783203125,-1.612274169921875,-0.4417572021484375
1761915078669999900,5.415999755859375,-0.9476470947265625,-1.64349365234375,-0.47381591796875
1761915078680054000,5.426053955078125,-1.0152587890625,-1.6006011962890625,-0.4654083251953125
1761915078690109000,5.43610888671875,-1.1417694091796875,-1.517547607421875,-0.4169921875
1761915078700162800,5.446162841796875,-1.2732391357421875,-1.4322052001953125,-0.310882568359375
1761915078710217000,5.456217041015625,-1.3911285400390625,-1.3692474365234375,-0.1328582763671875
1761915078720272000,5.46627197265625,-1.4571075439453125,-1.330810546875,0.031982421875
1761915078730326000,5.476325927734375,-1.3945465087890625,-1.23443603515625,0.1076202392578125
1761915078740380000,5.4863798828125,-1.304046630859375,-1.09185791015625,0.0664825439453125
1761915078750434800,5.496434814453125,-1.2289581298828125,-0.96343994140625,-0.025665283203125
1761915078760489000,5.506489013671875,-1.1283111572265625,-0.8397674560546875,-0.0767059326171875
1761915078770542800,5.51654296875,-1.041778564453125,-0.7869873046875,-0.0772705078125
1761915078780598000,5.526597900390625,-0.97259521484375,-0.78070068359375,-0.0271759033203125
1761915078790652000,5.53665185546875,-0.950408935546875,-0.7465972900390625,0.052978515625
1761915078800705800,5.546705810546875,-0.9508514404296875,-0.65228271484375,0.1427459716796875
1761915078810761000,5.556760986328125,-0.920684814453125,-0.5479888916015625,0.2086639404296875
1761915078820814800,5.56681494140625,-0.8118438720703125,-0.451629638671875,0.2279510498046875
1761915078830870000,5.5768701171875,-0.6402130126953125,-0.3597564697265625,0.2119598388671875
1761915078840924000,5.586923828125,-0.46002197265625,-0.271331787109375,0.170074462890625
1761915078850977800,5.596977783203125,-0.2908935546875,-0.1795501708984375,0.1071624755859375
1761915078861033000,5.607032958984375,-0.1230926513671875,-0.099639892578125,0.0316009521484375
1761915078871086800,5.6170869140625,0.053192138671875,-0.0523223876953125,-0.04620361328125
1761915078881141000,5.62714111328125,0.1936187744140625,-0.031707763671875,-0.1031341552734375
1761915078891196000,5.63719580078125,0.26812744140625,-0.0285797119140625,-0.1294097900390625
1761915078901249800,5.647249755859375,0.2598876953125,-0.063079833984375,-0.1192169189453125
1761915078911304000,5.657303955078125,0.195556640625,-0.103515625,-0.0922698974609375
1761915078921358800,5.66735888671875,0.1262054443359375,-0.12860107421875,-0.045928955078125
1761915078931413000,5.6774130859375,0.0724334716796875,-0.151519775390625,-0.0056610107421875
1761915078941468000,5.687468017578125,0.035797119140625,-0.1628875732421875,0.0139312744140625
1761915078951521800,5.697521728515625,0.0156707763671875,-0.172149658203125,0.0263824462890625
1761915078961576000,5.707575927734375,0.001800537109375,-0.200653076171875,0.0224456787109375
1761915078971630800,5.717630859375,0.0069580078125,-0.256439208984375,0.00714111328125
1761915078981685000,5.72768505859375,0.0267333984375,-0.32000732421875,-0.0112457275390625
1761915078991739000,5.73773876953125,0.0162811279296875,-0.3582000732421875,-0.0269775390625
1761915079001793800,5.747793701171875,-0.023101806640625,-0.3829498291015625,-0.05706787109375
1761915079011848000,5.757847900390625,-0.1116790771484375,-0.4737396240234375,-0.10565185546875
1761915079021901800,5.76790185546875,-0.1910400390625,-0.6435089111328125,-0.1664581298828125
1761915079031957000,5.77795703125,-0.1905364990234375,-0.8092803955078125,-0.208404541015625
1761915079042011000,5.788010986328125,-0.2240447998046875,-0.8680572509765625,-0.1970367431640625
1761915079052065800,5.798065673828125,-0.3724365234375,-0.843658447265625,-0.1331939697265625
1761915079062120000,5.808119873046875,-0.5688018798828125,-0.853912353515625,-0.100921630859375
1761915079072173800,5.818173828125,-0.7643585205078125,-0.919342041015625,-0.11004638671875
1761915079082229000,5.82822900390625,-0.9989776611328125,-0.9721527099609375,-0.125885009765625
1761915079092283100,5.838283203125,-1.2540740966796875,-1.0583343505859375,-0.14398193359375
1761915079102336800,5.848336669921875,-1.403076171875,-1.195648193359375,-0.2201385498046875
1761915079112392000,5.858391845703125,-1.4064788818359375,-1.2335968017578125,-0.27947998046875
1761915079122445800,5.86844580078125,-1.36773681640625,-1.1568145751953125,-0.2809906005859375
1761915079132500000,5.8785,-1.3553466796875,-1.1761322021484375,-0.2814788818359375
1761915079142555000,5.888554931640625,-1.43072509765625,-1.3209991455078125,-0.3117828369140625
1761915079152608800,5.89860888671875,-1.565216064453125,-1.416473388671875,-0.3325042724609375
1761915079162664000,5.908663818359375,-1.6920928955078125,-1.3900604248046875,-0.3330841064453125
1761915079172717800,5.9187177734375,-1.71197509765625,-1.335906982421875,-0.358856201171875
1761915079182772000,5.92877197265625,-1.644683837890625,-1.35931396484375,-0.4085540771484375
1761915079192827000,5.938826904296875,-1.55511474609375,-1.388092041015625,-0.415802001953125
1761915079202880800,5.948880859375,-1.49322509765625,-1.3397979736328125,-0.3486785888671875
1761915079212935000,5.958934814453125,-1.454010009765625,-1.2025909423828125,-0.2497711181640625
1761915079222989800,5.96898974609375,-1.3772735595703125,-0.988067626953125,-0.1725311279296875
1761915079233044000,5.9790439453125,-1.260009765625,-0.768951416015625,-0.162109375
1761915079243097900,5.989097900390625,-1.1253509521484375,-0.571990966796875,-0.1808013916015625
1761915079253152800,5.99915283203125,-0.9866180419921875,-0.4226531982421875,-0.1718902587890625
1761915079263207000,6.00920703125,-0.8628082275390625,-0.397308349609375,-0.144927978515625
1761915079273261800,6.01926171875,-0.75238037109375,-0.452667236328125,-0.06829833984375
1761915079283316000,6.02931591796875,-0.7044677734375,-0.566070556640625,0.038818359375
1761915079293370000,6.0393701171875,-0.6935272216796875,-0.662139892578125,0.1715087890625
1761915079303424800,6.0494248046875,-0.714111328125,-0.6777191162109375,0.3011627197265625
1761915079313479000,6.05947900390625,-0.737213134765625,-0.6442718505859375,0.380859375
1761915079323532800,6.06953271484375,-0.67718505859375,-0.5495758056640625,0.3989410400390625
1761915079333588000,6.079587890625,-0.53515625,-0.4225616455078125,0.355194091796875
1761915079343642000,6.08964208984375,-0.3577880859375,-0.3082275390625,0.2611846923828125
1761915079353695700,6.09969580078125,-0.1652374267578125,-0.2216644287109375,0.1422882080078125
1761915079363751000,6.1097509765625,0.011962890625,-0.1720428466796875,0.026519775390625
1761915079373804800,6.1198046875,0.1661376953125,-0.150390625,-0.061309814453125
1761915079383860000,6.12985986328125,0.240814208984375,-0.1524658203125,-0.1138153076171875
1761915079393914000,6.1399140625,0.2054443359375,-0.192840576171875,-0.134765625
1761915079403967700,6.1499677734375,0.121368408203125,-0.2525634765625,-0.1171112060546875
1761915079414023000,6.16002294921875,0.0434112548828125,-0.300079345703125,-0.07177734375
1761915079424076800,6.170076904296875,-0.0206451416015625,-0.324310302734375,-0.0283355712890625
1761915079434131000,6.180130859375,-0.061065673828125,-0.3238677978515625,0.0027618408203125
1761915079444185900,6.190185791015625,-0.0672607421875,-0.306884765625,0.0196990966796875
1761915079454239700,6.20023974609375,-0.061981201171875,-0.2800445556640625,0.0281829833984375
1761915079464294000,6.2102939453125,-0.0432281494140625,-0.261871337890625,0.0220947265625
1761915079474348800,6.220348876953125,-0.0093231201171875,-0.2512664794921875,0.010467529296875
1761915079484403000,6.23040283203125,-0.0069122314453125,-0.23834228515625,-0.0045928955078125
1761915079494457900,6.240457763671875,-0.0508880615234375,-0.2006683349609375,-0.026123046875
1761915079504512500,6.250512451171875,-0.1343994140625,-0.1414947509765625,-0.031219482421875
1761915079514566700,6.260566650390625,-0.2654876708984375,-0.1324005126953125,-0.036590576171875
1761915079524621800,6.270621826171875,-0.373992919921875,-0.18829345703125,-0.0693511962890625
1761915079534675700,6.28067578125,-0.38311767578125,-0.27618408203125,-0.119354248046875
1761915079544729600,6.2907294921875,-0.343109130859375,-0.4000396728515625,-0.1649627685546875
1761915079554784500,6.300784423828125,-0.3378448486328125,-0.5468597412109375,-0.2154083251953125
1761915079564838700,6.310838623046875,-0.3819732666015625,-0.7118377685546875,-0.26129150390625
1761915079574892800,6.320892822265625,-0.4830322265625,-0.8449249267578125,-0.264678955078125
1761915079584947700,6.33094775390625,-0.7116851806640625,-0.8834228515625,-0.191680908203125
1761915079595001600,6.341001708984375,-1.19818115234375,-0.94775390625,-0.13885498046875
1761915079605056800,6.351056884765625,-1.6727294921875,-1.0775299072265625,-0.1495361328125
1761915079615110700,6.361110595703125,-1.8748931884765625,-1.1907958984375,-0.204193115234375
1761915079625164800,6.371164794921875,-1.85052490234375,-1.2315673828125,-0.2867889404296875
1761915079635219500,6.381219482421875,-1.81964111328125,-1.248260498046875,-0.37615966796875
1761915079645273600,6.391273681640625,-1.8320770263671875,-1.29083251953125,-0.44281005859375
1761915079655327500,6.401327392578125,-1.92401123046875,-1.326690673828125,-0.496917724609375
1761915079665382700,6.411382568359375,-2.0752410888671875,-1.2693023681640625,-0.5026397705078125
1761915079675436800,6.421436767578125,-2.2390594482421875,-1.1665191650390625,-0.48724365234375
1761915079685490700,6.43149072265625,-2.3388671875,-1.077178955078125,-0.47650146484375
1761915079695545600,6.441545654296875,-2.384185791015625,-1.0289306640625,-0.466278076171875
1761915079705599500,6.451599609375,-2.3831024169921875,-1.0337982177734375,-0.457366943359375
1761915079715654700,6.461654541015625,-2.3116455078125,-1.0339508056640625,-0.44921875
1761915079725708800,6.471708740234375,-2.1558837890625,-1.0169525146484375,-0.4524078369140625
1761915079735762700,6.4817626953125,-1.9339447021484375,-0.9797821044921875,-0.46435546875
1761915079745817600,6.491817626953125,-1.680450439453125,-0.9056396484375,-0.4724578857421875
1761915079755871500,6.50187158203125,-1.4231414794921875,-0.821624755859375,-0.4550628662109375
1761915079765925600,6.511925537109375,-1.1981658935546875,-0.78143310546875,-0.375030517578125
1761915079775980800,6.521980712890625,-1.061309814453125,-0.789031982421875,-0.233001708984375
1761915079786034700,6.53203466796875,-0.9937591552734375,-0.78570556640625,-0.0626068115234375
1761915079796088600,6.542088623046875,-0.9150543212890625,-0.75616455078125,0.09844970703125
1761915079806143700,6.552143798828125,-0.813568115234375,-0.7297515869140625,0.2071990966796875
1761915079816197600,6.56219775390625,-0.6932830810546875,-0.7045135498046875,0.2781524658203125
1761915079826252800,6.572252685546875,-0.5792083740234375,-0.6705780029296875,0.3118743896484375
1761915079836306700,6.582306640625,-0.4808349609375,-0.601531982421875,0.30523681640625
1761915079846360600,6.592360595703125,-0.4008941650390625,-0.49688720703125,0.2717132568359375
1761915079856415700,6.602415771484375,-0.3286590576171875,-0.3859710693359375,0.21282958984375
1761915079866469600,6.6124697265625,-0.2598876953125,-0.264190673828125,0.14434814453125
1761915079876523800,6.622523681640625,-0.2045745849609375,-0.142120361328125,0.0867156982421875
1761915079886578400,6.632578369140625,-0.158599853515625,-0.044342041015625,0.041748046875
1761915079896632600,6.642632568359375,-0.1059417724609375,0.0157318115234375,0.0017852783203125
1761915079906686500,6.6526865234375,-0.047119140625,0.039520263671875,-0.035491943359375
1761915079916741600,6.66274169921875,0.017913818359375,0.03912353515625,-0.0615692138671875
1761915079926795800,6.672795654296875,0.059356689453125,0.0193939208984375,-0.073577880859375
1761915079936850400,6.682850341796875,0.0655059814453125,-0.01177978515625,-0.07684326171875
1761915079946904600,6.692904541015625,0.07281494140625,-0.045440673828125,-0.0726318359375
1761915079956958500,6.70295849609375,0.0745697021484375,-0.0827789306640625,-0.07489013671875
1761915079967013600,6.713013671875,0.0829010009765625,-0.1141204833984375,-0.0821533203125
1761915079977067800,6.72306787109375,0.081329345703125,-0.131072998046875,-0.090576171875
1761915079987121700,6.73312158203125,0.0411529541015625,-0.142730712890625,-0.0761871337890625
1761915079997176600,6.743176513671875,-0.0226898193359375,-0.1058349609375,-0.07061767578125
1761915080007230700,6.753230712890625,-0.0968017578125,-0.0641326904296875,-0.0787200927734375
1761915080017284600,6.76328466796875,-0.1142120361328125,-0.0710601806640625,-0.0743408203125
1761915080027339800,6.77333984375,-0.0767974853515625,-0.104248046875,-0.094390869140625
1761915080037393700,6.7833935546875,-0.042022705078125,-0.1551361083984375,-0.1352081298828125
1761915080047448600,6.793448486328125,-0.0420989990234375,-0.2323760986328125,-0.1746368408203125
1761915080057502700,6.803502685546875,-0.070526123046875,-0.326202392578125,-0.21673583984375
1761915080067556600,6.813556640625,-0.1513671875,-0.4393768310546875,-0.2501220703125
1761915080077611800,6.82361181640625,-0.32086181640625,-0.57958984375,-0.2681427001953125
1761915080087665700,6.833665771484375,-0.50140380859375,-0.8107757568359375,-0.3033294677734375
1761915080097719600,6.843719482421875,-0.5937652587890625,-1.025299072265625,-0.283935546875
1761915080107774700,6.853774658203125,-0.7118377685546875,-1.0904083251953125,-0.1729583740234375
1761915080117828600,6.86382861328125,-1.1090545654296875,-1.104339599609375,-0.10406494140625
1761915080127882800,6.8738828125,-1.480865478515625,-1.1447906494140625,-0.1283111572265625
1761915080137937700,6.883937744140625,-1.60498046875,-1.1595611572265625,-0.2039642333984375
1761915080147991600,6.893991455078125,-1.6107635498046875,-1.1803741455078125,-0.308349609375
1761915080158046700,6.904046630859375,-1.53118896484375,-1.214111328125,-0.384765625
1761915080168100600,6.9141005859375,-1.38360595703125,-1.3164825439453125,-0.4522552490234375
1761915080178154800,6.92415478515625,-1.2352294921875,-1.4759674072265625,-0.5470123291015625
1761915080188209400,6.93420947265625,-1.15191650390625,-1.6299896240234375,-0.66265869140625
1761915080198263600,6.944263671875,-1.1853179931640625,-1.6573638916015625,-0.69769287109375
1761915080208317700,6.954317626953125,-1.36419677734375,-1.571533203125,-0.6528472900390625
1761915080218372600,6.96437255859375,-1.5894622802734375,-1.494537353515625,-0.5827789306640625
1761915080228426800,6.9744267578125,-1.80078125,-1.4251861572265625,-0.4993133544921875
1761915080238480600,6.984480712890625,-1.9225311279296875,-1.3587799072265625,-0.4185638427734375
1761915080248535600,6.99453564453125,-1.8997650146484375,-1.2783203125,-0.3453369140625
1761915080258589700,7.004589599609375,-1.7540130615234375,-1.1683349609375,-0.2966461181640625
1761915080268643600,7.0146435546875,-1.5201873779296875,-1.0430450439453125,-0.300628662109375
1761915080278698800,7.02469873046875,-1.2430267333984375,-0.8989410400390625,-0.3367462158203125
1761915080288752600,7.034752685546875,-0.93353271484375,-0.7512054443359375,-0.364288330078125
1761915080298807600,7.0448076171875,-0.61279296875,-0.6337890625,-0.3508453369140625
1761915080308861700,7.05486181640625,-0.3506011962890625,-0.5807647705078125,-0.2698516845703125
1761915080318915600,7.06491552734375,-0.198211669921875,-0.5851287841796875,-0.112579345703125
1761915080328970800,7.074970703125,-0.146240234375,-0.6365203857421875,0.0754852294921875
1761915080339024600,7.085024658203125,-0.1803131103515625,-0.6634674072265625,0.2310333251953125
1761915080349078500,7.09507861328125,-0.2720184326171875,-0.615142822265625,0.3186187744140625
1761915080359133700,7.1051337890625,-0.377410888671875,-0.5558013916015625,0.372161865234375
1761915080369187600,7.1151875,-0.4402313232421875,-0.483184814453125,0.3805084228515625
1761915080379241700,7.12524169921875,-0.43359375,-0.3903961181640625,0.3579254150390625
1761915080389296600,7.135296630859375,-0.3067779541015625,-0.3030242919921875,0.32867431640625
1761915080399350500,7.1453505859375,-0.14306640625,-0.25347900390625,0.2550201416015625
1761915080409405700,7.15540576171875,0.023468017578125,-0.207733154296875,0.162567138671875
1761915080419459600,7.16545947265625,0.1299896240234375,-0.1030120849609375,0.1087799072265625
1761915080429513700,7.175513671875,0.1364593505859375,-0.04736328125,0.036041259765625
1761915080439568600,7.185568603515625,0.0321807861328125,-0.0202178955078125,0.008453369140625
1761915080449622500,7.19562255859375,-0.098968505859375,0.0254974365234375,0.0372772216796875
1761915080459676700,7.2056767578125,-0.1828155517578125,0.0022125244140625,0.04754638671875
1761915080469731600,7.215731689453125,-0.1877288818359375,-0.0657806396484375,0.0520172119140625
1761915080479785700,7.22578564453125,-0.1769561767578125,-0.1178436279296875,0.0337371826171875
1761915080489839600,7.235839599609375,-0.1820068359375,-0.141937255859375,0.020599365234375
1761915080499897600,7.245897705078125,-0.1986541748046875,-0.1519317626953125,0.016326904296875
1761915080509951200,7.255951171875,-0.214111328125,-0.1487274169921875,0.017578125
1761915080520006400,7.26600634765625,-0.2280731201171875,-0.1294708251953125,0.025054931640625
1761915080530060300,7.276060302734375,-0.273223876953125,-0.1395721435546875,0.02459716796875
1761915080540114400,7.286114501953125,-0.3236083984375,-0.213531494140625,0.014862060546875
1761915080550169300,7.29616943359375,-0.395050048828125,-0.341705322265625,0.0101776123046875
1761915080560223200,7.30622314453125,-0.4551239013671875,-0.468536376953125,0.0070648193359375
1761915080570277400,7.31627734375,-0.513214111328125,-0.5487518310546875,0.0156707763671875
1761915080580332500,7.32633251953125,-0.6114044189453125,-0.582061767578125,0.04248046875
1761915080590386400,7.336386474609375,-0.8074951171875,-0.5931549072265625,0.06988525390625
1761915080600440600,7.346440673828125,-1.03759765625,-0.604583740234375,0.0659332275390625
1761915080610495200,7.3564951171875,-1.234222412109375,-0.6375732421875,0.0817718505859375
1761915080620549400,7.36654931640625,-1.3521881103515625,-0.7632293701171875,0.1049346923828125
1761915080630604500,7.3766044921875,-1.5010986328125,-0.9196624755859375,0.111236572265625
1761915080640658400,7.386658447265625,-1.6543731689453125,-0.9862060546875,0.0733642578125
1761915080650712600,7.396712646484375,-1.8095245361328125,-0.947998046875,-0.02325439453125
1761915080660767200,7.406767333984375,-1.885009765625,-0.918304443359375,-0.1502532958984375
1761915080670821400,7.4168212890625,-1.8329620361328125,-0.979095458984375,-0.272247314453125
1761915080680875300,7.426875244140625,-1.7572784423828125,-1.1219024658203125,-0.33636474609375
1761915080690930400,7.436930419921875,-1.7315216064453125,-1.373626708984375,-0.376617431640625
1761915080700984600,7.446984619140625,-1.64300537109375,-1.6156768798828125,-0.3719482421875
1761915080711038500,7.45703857421875,-1.6221771240234375,-1.735107421875,-0.318634033203125
1761915080721093400,7.46709326171875,-1.6743011474609375,-1.716339111328125,-0.253509521484375
1761915080731147300,7.477147216796875,-1.704925537109375,-1.6148834228515625,-0.21282958984375
1761915080741202400,7.487202392578125,-1.659088134765625,-1.4630126953125,-0.1911468505859375
1761915080751256600,7.497256591796875,-1.5561065673828125,-1.3077239990234375,-0.1934051513671875
1761915080761310500,7.507310546875,-1.4234619140625,-1.180999755859375,-0.1991424560546875
1761915080771365400,7.517365478515625,-1.207672119140625,-1.073211669921875,-0.1793975830078125
1761915080781419500,7.52741943359375,-0.9349822998046875,-1.0089263916015625,-0.1747283935546875
1761915080791473400,7.537473388671875,-0.66339111328125,-0.9799346923828125,-0.182037353515625
1761915080801528600,7.547528564453125,-0.4500732421875,-0.9212799072265625,-0.152374267578125
1761915080811582200,7.557582275390625,-0.338836669921875,-0.8522796630859375,-0.0844573974609375
1761915080821636400,7.56763623046875,-0.3384857177734375,-0.7659759521484375,0.0169830322265625
1761915080831691500,7.57769140625,-0.429473876953125,-0.673797607421875,0.1383819580078125
1761915080841745400,7.587745361328125,-0.559417724609375,-0.5916748046875,0.24224853515625
1761915080851800300,7.59780029296875,-0.641021728515625,-0.4877777099609375,0.2938079833984375
1761915080861854200,7.607854248046875,-0.6128387451171875,-0.374603271484375,0.28265380859375
1761915080871908400,7.617908447265625,-0.4766998291015625,-0.2838897705078125,0.221160888671875
1761915080881963500,7.627963623046875,-0.314056396484375,-0.2003173828125,0.151611328125
1761915080892017400,7.638017333984375,-0.161468505859375,-0.1281890869140625,0.0906219482421875
1761915080902071600,7.648071533203125,-0.04827880859375,-0.0912933349609375,0.0494232177734375
1761915080912126200,7.658126220703125,0.06768798828125,-0.0723114013671875,0.032745361328125
1761915080922180400,7.668180419921875,0.06207275390625,-0.0305023193359375,-0.0244293212890625
1761915080932234200,7.678234130859375,0.0326385498046875,-0.0279998779296875,-0.0091094970703125
1761915080942289400,7.688289306640625,0.0226593017578125,-0.0522003173828125,-0.01263427734375
1761915080952343600,7.698343505859375,0.016998291015625,-0.0833587646484375,0.00921630859375
1761915080962398200,7.708398193359375,0.0185089111328125,-0.1232757568359375,0.0164031982421875
1761915080972452400,7.718452392578125,0.0108642578125,-0.151885986328125,0.0158843994140625
1761915080982506500,7.728506591796875,-0.0052642822265625,-0.1634368896484375,0.003173828125
1761915080992561400,7.7385615234375,-0.014862060546875,-0.1650848388671875,-0.0221405029296875
1761915081002615600,7.748615478515625,-0.023651123046875,-0.1635284423828125,-0.0406951904296875
1761915081012669400,7.75866943359375,-0.0474395751953125,-0.1727142333984375,-0.0390625
1761915081022724400,7.768724365234375,-0.100677490234375,-0.1941070556640625,-0.013671875
1761915081032778500,7.778778564453125,-0.2022552490234375,-0.238494873046875,0.0214385986328125
1761915081042832400,7.788832275390625,-0.3292388916015625,-0.30816650390625,0.0471343994140625
1761915081052887600,7.798887451171875,-0.4361114501953125,-0.376678466796875,0.043701171875
1761915081062941400,7.80894140625,-0.46112060546875,-0.4412384033203125,-0.0050201416015625
1761915081072996400,7.818996337890625,-0.416412353515625,-0.5070648193359375,-0.08074951171875
1761915081083050500,7.829050537109375,-0.4042205810546875,-0.61151123046875,-0.173004150390625
1761915081093104400,7.8391044921875,-0.4606170654296875,-0.771453857421875,-0.243988037109375
1761915081103159600,7.84915966796875,-0.536102294921875,-0.98126220703125,-0.2556915283203125
1761915081113213200,7.859213134765625,-0.6307373046875,-1.15509033203125,-0.1898040771484375
1761915081123267300,7.869267333984375,-0.9319305419921875,-1.16748046875,-0.0582733154296875
1761915081133322500,7.879322509765625,-1.497344970703125,-1.1899871826171875,-0.0467529296875
1761915081143376400,7.88937646484375,-1.8989410400390625,-1.24224853515625,-0.1844024658203125
1761915081153430500,7.899430419921875,-1.81927490234375,-1.2325286865234375,-0.3446044921875
1761915081163485200,7.909485107421875,-1.4626312255859375,-1.275909423828125,-0.492584228515625
1761915081173539300,7.919539306640625,-1.2109832763671875,-1.389434814453125,-0.5727081298828125
1761915081183594500,7.929594482421875,-1.131195068359375,-1.5258026123046875,-0.630950927734375
1761915081193648400,7.9396484375,-1.2384185791015625,-1.6008453369140625,-0.64794921875
1761915081203702500,7.94970263671875,-1.4619140625,-1.52911376953125,-0.581390380859375
1761915081213757400,7.95975732421875,-1.6888885498046875,-1.4214935302734375,-0.4920501708984375
1761915081223811300,7.969811279296875,-1.8642730712890625,-1.3332366943359375,-0.3966217041015625
1761915081233865500,7.979865478515625,-1.90533447265625,-1.2571563720703125,-0.2970428466796875
1761915081243920400,7.98992041015625,-1.81280517578125,-1.2318572998046875,-0.2402496337890625
1761915081253974500,7.999974609375,-1.668182373046875,-1.203033447265625,-0.2165374755859375
1761915081264028400,8.0100283203125,-1.5511932373046875,-1.1194610595703125,-0.1939697265625
1761915081274083300,8.020083251953125,-1.4385833740234375,-0.973236083984375,-0.1718597412109375
1761915081284136200,8.03013623046875,-1.303253173828125,-0.783203125,-0.1609344482421875
1761915081294191400,8.04019140625,-1.1063690185546875,-0.6448822021484375,-0.1648406982421875
1761915081304245500,8.05024560546875,-0.8772735595703125,-0.606719970703125,-0.1324310302734375
1761915081314299400,8.06029931640625,-0.702178955078125,-0.6349334716796875,-0.0234222412109375
1761915081324354300,8.070354248046876,-0.56805419921875,-0.6756134033203125,0.13153076171875
1761915081334408200,8.080408203125,-0.4195098876953125,-0.7067413330078125,0.2611846923828125
1761915081344463400,8.09046337890625,-0.293670654296875,-0.6951446533203125,0.3192901611328125
1761915081354517500,8.100517578125,-0.23583984375,-0.5874786376953125,0.3143157958984375
1761915081364571400,8.1105712890625,-0.21697998046875,-0.4134063720703125,0.2706146240234375
1761915081374626300,8.120626220703125,-0.198028564453125,-0.24700927734375,0.1772613525390625
1761915081384680400,8.130680419921875,-0.143707275390625,-0.1063385009765625,0.0571136474609375
1761915081394734300,8.140734375,-0.1001739501953125,0.007843017578125,-0.048187255859375
1761915081404789500,8.15078955078125,-0.034881591796875,0.067169189453125,-0.1173248291015625
1761915081414843400,8.160843505859376,0.05682373046875,0.0652313232421875,-0.157470703125
1761915081424897500,8.1708974609375,0.123443603515625,0.0268707275390625,-0.1520843505859375
1761915081434952400,8.180952392578124,0.127685546875,-0.0340423583984375,-0.112091064453125
1761915081445006300,8.19100634765625,0.0854949951171875,-0.103546142578125,-0.055023193359375
1761915081455061500,8.2010615234375,0.0071258544921875,-0.1560211181640625,0.0015106201171875
1761915081465115400,8.211115478515625,-0.0908050537109375,-0.181182861328125,0.046112060546875
1761915081475169500,8.22116943359375,-0.182647705078125,-0.186767578125,0.0615081787109375
1761915081485224400,8.231224365234375,-0.2365875244140625,-0.1855621337890625,0.05438232421875
1761915081495278300,8.2412783203125,-0.252899169921875,-0.187225341796875,0.0406646728515625
1761915081505329700,8.25132958984375,-0.2489776611328125,-0.2056732177734375,0.0299224853515625
1761915081515384600,8.261384521484375,-0.2428436279296875,-0.2372589111328125,0.0240020751953125
1761915081525438500,8.2714384765625,-0.2122955322265625,-0.27081298828125,0.009735107421875
1761915081535492600,8.28149267578125,-0.190948486328125,-0.316497802734375,-0.0065765380859375
1761915081545547500,8.291547607421874,-0.2172698974609375,-0.36541748046875,-0.0379791259765625
1761915081555601700,8.3016015625,-0.2530670166015625,-0.38629150390625,-0.07550048828125
1761915081565656600,8.311656494140625,-0.3141632080078125,-0.3762054443359375,-0.1043701171875
1761915081575710500,8.32171044921875,-0.4080810546875,-0.398529052734375,-0.138519287109375
1761915081585764600,8.3317646484375,-0.5033111572265625,-0.4617156982421875,-0.160064697265625
1761915081595819500,8.341819580078125,-0.589996337890625,-0.5926055908203125,-0.191558837890625
1761915081605873700,8.351873779296875,-0.6617431640625,-0.8146820068359375,-0.2523651123046875
1761915081615927600,8.361927490234375,-0.6470947265625,-1.0162353515625,-0.283477783203125
1761915081625982500,8.371982421875,-0.6879119873046875,-1.0328521728515625,-0.1769256591796875
1761915081636036600,8.38203662109375,-1.107421875,-1.092742919921875,-0.165557861328125
1761915081646090500,8.392090576171874,-1.48638916015625,-1.267303466796875,-0.305511474609375
1761915081656145700,8.402145751953125,-1.4332427978515625,-1.35302734375,-0.39678955078125
1761915081666199800,8.41219970703125,-1.272003173828125,-1.4363250732421875,-0.47601318359375
1761915081676254500,8.42225439453125,-1.272003173828125,-1.5451202392578125,-0.496917724609375
1761915081686308600,8.43230859375,-1.36895751953125,-1.7075347900390625,-0.4975433349609375
1761915081696362500,8.442362548828125,-1.3986968994140625,-1.8321990966796875,-0.4713897705078125
1761915081706417700,8.452417724609376,-1.49139404296875,-1.8332366943359375,-0.37408447265625
1761915081716471600,8.462471435546876,-1.712677001953125,-1.7494049072265625,-0.2266845703125
1761915081726525400,8.472525390625,-1.9357147216796875,-1.6472320556640625,-0.0697021484375
1761915081736580600,8.48258056640625,-2.008392333984375,-1.521209716796875,0.055877685546875
1761915081746634500,8.492634521484375,-1.895904541015625,-1.3860626220703125,0.0982666015625
1761915081756688600,8.502688720703125,-1.72314453125,-1.2415924072265625,0.0714569091796875
1761915081766743600,8.51274365234375,-1.5539093017578125,-1.0819091796875,0.0249481201171875
1761915081776797400,8.52279736328125,-1.3448944091796875,-0.9340057373046875,-0.0211334228515625
1761915081786852600,8.5328525390625,-1.1431427001953125,-0.8176116943359375,-0.067169189453125
1761915081796906500,8.542906494140626,-0.91217041015625,-0.7305145263671875,-0.0962066650390625
1761915081806960600,8.552960693359376,-0.6842041015625,-0.6735687255859375,-0.0637664794921875
1761915081817015600,8.563015625,-0.54901123046875,-0.6860809326171875,0.0392913818359375
1761915081827069400,8.5730693359375,-0.528472900390625,-0.747100830078125,0.18829345703125
1761915081837123600,8.58312353515625,-0.5408172607421875,-0.7522735595703125,0.3133392333984375
1761915081847178500,8.593178466796875,-0.5474700927734375,-0.6795501708984375,0.362701416015625
1761915081857234400,8.603234375,-0.4880523681640625,-0.554779052734375,0.3274688720703125
1761915081867289600,8.61328955078125,-0.3665618896484375,-0.421875,0.2420501708984375
1761915081877343700,8.62334375,-0.24658203125,-0.2980499267578125,0.14605712890625
1761915081887398400,8.6333984375,-0.165802001953125,-0.1934814453125,0.056610107421875
1761915081897452500,8.64345263671875,-0.08746337890625,-0.109161376953125,-0.019805908203125
1761915081907506400,8.65350634765625,-0.0088653564453125,-0.03216552734375,-0.06744384765625
1761915081917561600,8.6635615234375,0.041168212890625,0.0232086181640625,-0.09954833984375
1761915081927615700,8.67361572265625,0.0388031005859375,0.0348968505859375,-0.116363525390625
1761915081937669600,8.683669677734375,0.000091552734375,0.0123291015625,-0.1042022705078125
1761915081947724500,8.693724609375,-0.0440673828125,-0.01763916015625,-0.0695648193359375
1761915081957778400,8.7037783203125,-0.100555419921875,-0.0410919189453125,-0.0382537841796875
1761915081967832600,8.71383251953125,-0.157379150390625,-0.0583953857421875,-0.0123443603515625
1761915081977887700,8.7238876953125,-0.1884613037109375,-0.0742034912109375,0.0035247802734375
1761915081987941400,8.73394140625,-0.19207763671875,-0.0872344970703125,0.0052032470703125
1761915081997996500,8.74399658203125,-0.180511474609375,-0.110992431640625,0.0012664794921875
1761915082008050700,8.75405078125,-0.1503143310546875,-0.157958984375,-0.005767822265625
1761915082018104600,8.7641044921875,-0.1235809326171875,-0.213165283203125,-0.016937255859375
1761915082028159700,8.77415966796875,-0.141876220703125,-0.2772369384765625,-0.03717041015625
1761915082038213400,8.78421337890625,-0.1805877685546875,-0.3517303466796875,-0.0628204345703125
1761915082048267500,8.794267578125,-0.2061767578125,-0.426544189453125,-0.10235595703125
1761915082058322700,8.80432275390625,-0.246185302734375,-0.5168304443359375,-0.1398468017578125
1761915082068376600,8.81437646484375,-0.31549072265625,-0.6123809814453125,-0.1563873291015625
1761915082078430700,8.8244306640625,-0.4716033935546875,-0.774505615234375,-0.171722412109375
1761915082088485400,8.8344853515625,-0.697784423828125,-0.9989166259765625,-0.204742431640625
1761915082098539500,8.84453955078125,-0.9052581787109375,-1.179534912109375,-0.20330810546875
1761915082108594700,8.8545947265625,-1.0880889892578125,-1.27783203125,-0.175048828125
1761915082118648600,8.864648681640626,-1.349151611328125,-1.3343963623046875,-0.2061309814453125
1761915082128702700,8.87470263671875,-1.588165283203125,-1.36749267578125,-0.33160400390625
1761915082138757400,8.88475732421875,-1.5541839599609375,-1.3566131591796875,-0.442535400390625
1761915082148811500,8.8948115234375,-1.2989959716796875,-1.380706787109375,-0.4736328125
1761915082158865400,8.904865478515624,-1.10687255859375,-1.5272064208984375,-0.4993133544921875
1761915082168920600,8.914920654296875,-1.024322509765625,-1.7339324951171875,-0.492340087890625
1761915082178974700,8.924974609375,-1.0399017333984375,-2.00189208984375,-0.5050048828125
1761915082189028600,8.935028564453125,-1.09869384765625,-2.1322174072265625,-0.5080413818359375
1761915082199083500,8.94508349609375,-1.2628631591796875,-2.0787506103515625,-0.4476776123046875
1761915082209137700,8.9551376953125,-1.4951171875,-1.91046142578125,-0.3361968994140625
1761915082219192600,8.965192626953124,-1.6290435791015625,-1.7151641845703125,-0.20281982421875
1761915082229246700,8.975246826171874,-1.6553802490234375,-1.546112060546875,-0.1018524169921875
1761915082239300600,8.985300537109374,-1.566741943359375,-1.406951904296875,-0.069580078125
1761915082249355500,8.99535546875,-1.396484375,-1.2748260498046875,-0.0871124267578125
1761915082259409700,9.00540966796875,-1.1634063720703125,-1.111175537109375,-0.1559906005859375
1761915082269463600,9.015463623046875,-0.8618011474609375,-0.8796234130859375,-0.193389892578125
1761915082279518700,9.025518798828125,-0.5419921875,-0.6910247802734375,-0.1548004150390625
1761915082289572400,9.035572265625,-0.3355865478515625,-0.623016357421875,-0.044952392578125
1761915082299626500,9.04562646484375,-0.288238525390625,-0.6525115966796875,0.1063690185546875
1761915082309681700,9.055681640625,-0.2978515625,-0.732452392578125,0.258331298828125
1761915082319735600,9.065735595703124,-0.316558837890625,-0.7781982421875,0.372711181640625
1761915082329790700,9.075790771484375,-0.370147705078125,-0.742279052734375,0.4271697998046875
1761915082339844400,9.08584423828125,-0.390625,-0.6137237548828125,0.4180755615234375
1761915082349898500,9.0958984375,-0.3267822265625,-0.437652587890625,0.345977783203125
1761915082359953700,9.10595361328125,-0.214691162109375,-0.2863006591796875,0.2289581298828125
1761915082370007600,9.116007568359375,-0.0748443603515625,-0.148681640625,0.114410400390625
1761915082380061700,9.126061767578125,0.0359649658203125,-0.0436553955078125,-0.015777587890625
1761915082390116400,9.136116455078126,0.1173248291015625,0.0450286865234375,-0.090362548828125
1761915082400170500,9.14617041015625,0.1558380126953125,0.102325439453125,-0.0890960693359375
1761915082410224600,9.156224609375,0.11676025390625,0.0935516357421875,-0.0946197509765625
1761915082420279600,9.166279541015625,0.0178070068359375,0.065032958984375,-0.08624267578125
1761915082430333700,9.176333740234375,-0.1256256103515625,0.02410888671875,-0.0182037353515625
1761915082440388600,9.186388671875,-0.2451171875,-0.0181121826171875,0.0326995849609375
1761915082450442500,9.1964423828125,-0.2824249267578125,-0.0488739013671875,0.0568695068359375
1761915082460496600,9.20649658203125,-0.2647552490234375,-0.0754241943359375,0.07861328125
1761915082470551600,9.216551513671876,-0.1823883056640625,-0.1259307861328125,0.0775909423828125
1761915082480605700,9.226605712890626,-0.139617919921875,-0.1891937255859375,0.04913330078125
1761915082490659600,9.23665966796875,-0.158447265625,-0.21563720703125,0.0095672607421875
1761915082500714200,9.24671435546875,-0.1686248779296875,-0.2227783203125,-0.031219482421875
1761915082510768000,9.25676806640625,-0.17840576171875,-0.243927001953125,-0.062225341796875
1761915082520822300,9.266822265625,-0.1788787841796875,-0.264556884765625,-0.0753326416015625
1761915082530877400,9.27687744140625,-0.20404052734375,-0.2819976806640625,-0.0849761962890625
1761915082540931300,9.286931396484375,-0.2434234619140625,-0.328216552734375,-0.117034912109375
1761915082550986200,9.296986328125,-0.264739990234375,-0.4143218994140625,-0.1778411865234375
1761915082561040100,9.3070400390625,-0.269073486328125,-0.5517120361328125,-0.2510528564453125
1761915082571094300,9.31709423828125,-0.213958740234375,-0.7158355712890625,-0.2978057861328125
1761915082581149400,9.3271494140625,-0.1514434814453125,-0.9241790771484375,-0.321624755859375
1761915082591203300,9.337203369140624,-0.1516265869140625,-1.12957763671875,-0.336212158203125
1761915082601257200,9.34725732421875,-0.296112060546875,-1.24365234375,-0.3434295654296875
1761915082611312400,9.3573125,-0.6169586181640625,-1.2655487060546875,-0.3404998779296875
1761915082621366300,9.3673662109375,-0.9844818115234375,-1.3400421142578125,-0.3891143798828125
1761915082631420400,9.37742041015625,-1.1130218505859375,-1.43194580078125,-0.41168212890625
1761915082641475300,9.387475341796875,-1.1165313720703125,-1.523223876953125,-0.413116455078125
1761915082651529200,9.397529296875,-1.106109619140625,-1.6591644287109375,-0.491729736328125
1761915082661584400,9.40758447265625,-1.0435791015625,-1.8366241455078125,-0.63433837890625
1761915082671638300,9.41763818359375,-0.9552154541015625,-1.9182891845703125,-0.740875244140625
1761915082681692400,9.4276923828125,-0.9195556640625,-1.8665924072265625,-0.7948150634765625
1761915082691747000,9.4377470703125,-0.9383392333984375,-1.7702789306640625,-0.791473388671875
1761915082701801200,9.44780126953125,-0.9997406005859375,-1.7308349609375,-0.742156982421875
1761915082711855000,9.457855224609375,-1.044677734375,-1.724639892578125,-0.6574859619140625
1761915082721910300,9.46791015625,-1.115570068359375,-1.7088165283203125,-0.5512847900390625
1761915082731964400,9.47796435546875,-1.23272705078125,-1.650787353515625,-0.45697021484375
1761915082742018300,9.488018310546876,-1.2884674072265625,-1.5290374755859375,-0.3862762451171875
1761915082752073200,9.4980732421875,-1.221649169921875,-1.3668060302734375,-0.320526123046875
1761915082762127000,9.508127197265624,-1.1099700927734375,-1.1864776611328125,-0.2441253662109375
1761915082772182300,9.518182373046875,-1.0279083251953125,-1.018585205078125,-0.1697845458984375
1761915082782236400,9.528236328125,-0.9824981689453125,-0.9250335693359375,-0.129852294921875
1761915082792290300,9.538290283203125,-0.9108428955078125,-0.9173431396484375,-0.10614013671875
1761915082802345200,9.54834521484375,-0.835296630859375,-0.9208984375,-0.0590972900390625
1761915082812399400,9.5583994140625,-0.784637451171875,-0.8623046875,-0.013763427734375
1761915082822453200,9.568453369140625,-0.729949951171875,-0.749176025390625,0.0294342041015625
1761915082832508400,9.57850830078125,-0.65240478515625,-0.6320343017578125,0.050933837890625
1761915082842562300,9.588562255859374,-0.55438232421875,-0.52215576171875,0.0536651611328125
1761915082852616200,9.5986162109375,-0.453643798828125,-0.4254302978515625,0.04779052734375
1761915082862671400,9.60867138671875,-0.3552398681640625,-0.3412017822265625,0.0367279052734375
1761915082872725200,9.618725341796875,-0.271759033203125,-0.251617431640625,0.0111541748046875
1761915082882780400,9.628780517578125,-0.1529388427734375,-0.157623291015625,-0.03912353515625
1761915082892834300,9.638834228515625,-0.029754638671875,-0.09136962890625,-0.0818023681640625
1761915082902888200,9.64888818359375,0.0829925537109375,-0.046875,-0.1254119873046875
1761915082912943400,9.658943359375,0.1874237060546875,-0.0066070556640625,-0.142913818359375
1761915082922997200,9.668997314453126,0.2616424560546875,-0.018707275390625,-0.127105712890625
1761915082933051400,9.679051513671874,0.286224365234375,-0.0913848876953125,-0.1037750244140625
1761915082943106000,9.68910595703125,0.241302490234375,-0.1521148681640625,-0.0438385009765625
1761915082953160200,9.69916015625,0.1581573486328125,-0.20379638671875,0.018951416015625
1761915082963214000,9.709214111328125,0.094451904296875,-0.2535247802734375,0.0587921142578125
1761915082973269200,9.719269287109375,0.061309814453125,-0.289947509765625,0.0818939208984375
1761915082983323400,9.729323486328125,0.023101806640625,-0.303680419921875,0.09332275390625
1761915082993378000,9.7393779296875,-0.0233001708984375,-0.30841064453125,0.095458984375
1761915083003432200,9.74943212890625,-0.04461669921875,-0.2966766357421875,0.080535888671875
1761915083013486300,9.759486328125,-0.0569000244140625,-0.2762603759765625,0.04632568359375
1761915083023541200,9.769541259765624,-0.088165283203125,-0.2693634033203125,-0.009368896484375
1761915083033595400,9.779595458984375,-0.16351318359375,-0.3074493408203125,-0.0890655517578125
1761915083043649300,9.789649169921875,-0.2319793701171875,-0.423492431640625,-0.1770782470703125
1761915083053704200,9.7997041015625,-0.229095458984375,-0.6099090576171875,-0.2415313720703125
1761915083063758300,9.80975830078125,-0.247283935546875,-0.7540130615234375,-0.277984619140625
1761915083073812200,9.819812255859375,-0.339599609375,-0.81256103515625,-0.283416748046875
1761915083083867400,9.829867431640626,-0.4778900146484375,-0.88873291015625,-0.29437255859375
1761915083093921300,9.83992138671875,-0.5682830810546875,-1.032684326171875,-0.318878173828125
1761915083103976200,9.84997607421875,-0.6852874755859375,-1.19122314453125,-0.3101348876953125
1761915083114030300,9.8600302734375,-1.0029296875,-1.3448333740234375,-0.3202972412109375
1761915083124084200,9.870084228515625,-1.2906036376953125,-1.4754791259765625,-0.3907012939453125
1761915083134139400,9.880139404296875,-1.220062255859375,-1.5679779052734375,-0.4196624755859375
1761915083144193300,9.890193359375,-1.0706787109375,-1.6722869873046875,-0.43988037109375
1761915083154247200,9.9002470703125,-1.0869903564453125,-1.7360992431640625,-0.4754486083984375
1761915083164302300,9.91030224609375,-1.1321258544921875,-1.7750396728515625,-0.507598876953125
1761915083174356200,9.920356201171876,-1.157470703125,-1.8415679931640625,-0.529541015625
1761915083184410400,9.930410400390626,-1.1177978515625,-1.91607666015625,-0.52862548828125
1761915083194465300,9.94046533203125,-1.0173797607421875,-1.9940643310546875,-0.5262908935546875
1761915083204519200,9.950519287109374,-0.9445953369140625,-2.0360870361328125,-0.50146484375
1761915083214573300,9.9605732421875,-0.9147491455078125,-1.962615966796875,-0.442626953125
1761915083224628200,9.970628173828125,-0.92413330078125,-1.790283203125,-0.3939666748046875
1761915083234682400,9.980682373046875,-0.93115234375,-1.5613250732421875,-0.345489501953125
1761915083244737300,9.9907373046875,-0.967620849609375,-1.305267333984375,-0.277496337890625
1761915083254791200,10.000791259765625,-0.975128173828125,-1.054473876953125,-0.201141357421875
1761915083264845300,10.01084521484375,-0.951446533203125,-0.843048095703125,-0.1258544921875
1761915083274900200,10.020900146484376,-0.8998260498046875,-0.7289886474609375,-0.082550048828125
1761915083284954400,10.030954345703124,-0.7846527099609375,-0.7509307861328125,-0.05450439453125
1761915083295008300,10.04100830078125,-0.661773681640625,-0.7842864990234375,-0.001953125
1761915083305063200,10.051063232421875,-0.5701141357421875,-0.763397216796875,0.0634613037109375
1761915083315117300,10.061117431640625,-0.531494140625,-0.67828369140625,0.10870361328125
1761915083325171200,10.071171142578125,-0.488861083984375,-0.53582763671875,0.10546875
1761915083335226400,10.081226318359375,-0.4250030517578125,-0.3777008056640625,0.0672760009765625
1761915083345280300,10.0912802734375,-0.38037109375,-0.2286376953125,0.029083251953125
1761915083355335200,10.101335205078126,-0.33453369140625,-0.0991668701171875,-0.010009765625
1761915083365389300,10.111389404296874,-0.260467529296875,-0.008148193359375,-0.06207275390625
1761915083375443200,10.121443115234374,-0.13677978515625,0.0401153564453125,-0.1055450439453125
1761915083385498400,10.131498291015625,0.0093536376953125,0.0506591796875,-0.120269775390625
1761915083395552300,10.14155224609375,0.1235198974609375,0.0249176025390625,-0.1103668212890625
1761915083405606100,10.151606201171875,0.1618499755859375,-0.0191650390625,-0.0788421630859375
1761915083415661300,10.161661376953125,0.11968994140625,-0.0639495849609375,-0.0497589111328125
1761915083425715200,10.171715087890625,0.05035400390625,-0.0885162353515625,-0.0224151611328125
1761915083435769300,10.181769287109375,-0.023529052734375,-0.1363983154296875,-0.0020751953125
1761915083445824500,10.191824462890626,-0.0726776123046875,-0.212249755859375,-0.006500244140625
1761915083455878100,10.201878173828124,-0.0870208740234375,-0.2720489501953125,-0.02227783203125
1761915083465933300,10.211933349609374,-0.086578369140625,-0.2935028076171875,-0.0487823486328125
1761915083475987200,10.2219873046875,-0.0784149169921875,-0.2979888916015625,-0.0994720458984375
1761915083486041300,10.232041259765625,-0.1034698486328125,-0.318817138671875,-0.1617431640625
1761915083496096300,10.24209619140625,-0.1610260009765625,-0.356903076171875,-0.2006683349609375
1761915083506154200,10.252154296875,-0.218963623046875,-0.4382171630859375,-0.2188568115234375
1761915083516208400,10.26220849609375,-0.24676513671875,-0.5680389404296875,-0.2345428466796875
1761915083526263600,10.272263671875,-0.22314453125,-0.739715576171875,-0.257415771484375
1761915083536317400,10.2823173828125,-0.240966796875,-0.903289794921875,-0.2907562255859375
1761915083546371600,10.29237158203125,-0.332733154296875,-1.0155181884765625,-0.3060302734375
1761915083556426200,10.30242626953125,-0.4293365478515625,-1.1092529296875,-0.2952423095703125
1761915083566480400,10.31248046875,-0.543670654296875,-1.2095794677734375,-0.213592529296875
1761915083576535600,10.32253564453125,-0.7242431640625,-1.3267822265625,-0.1150054931640625
1761915083586589400,10.33258935546875,-0.989349365234375,-1.3393707275390625,-0.10028076171875
1761915083596643300,10.342643310546874,-1.1680145263671875,-1.23260498046875,-0.180084228515625
1761915083606698500,10.352698486328125,-1.153961181640625,-1.127288818359375,-0.2578887939453125
1761915083616752400,10.36275244140625,-1.0085601806640625,-1.1278839111328125,-0.3195648193359375
1761915083626806500,10.372806640625,-0.900177001953125,-1.193328857421875,-0.373565673828125
1761915083636861400,10.382861328125,-0.822845458984375,-1.2877197265625,-0.3991241455078125
1761915083646915300,10.392915283203125,-0.7730560302734375,-1.3401336669921875,-0.3946685791015625
1761915083656969200,10.40296923828125,-0.7531890869140625,-1.3799591064453125,-0.4025115966796875
1761915083667024400,10.4130244140625,-0.75262451171875,-1.3820343017578125,-0.407135009765625
1761915083677078500,10.42307861328125,-0.728729248046875,-1.337066650390625,-0.4090423583984375
1761915083687133400,10.433133544921875,-0.69952392578125,-1.2884368896484375,-0.42657470703125
1761915083697187300,10.443187255859375,-0.64923095703125,-1.2304534912109375,-0.4437255859375
1761915083707241200,10.4532412109375,-0.6182708740234375,-1.172515869140625,-0.4559173583984375
1761915083717296400,10.46329638671875,-0.6188812255859375,-1.1462860107421875,-0.43621826171875
1761915083727350500,10.4733505859375,-0.6058197021484375,-1.1300811767578125,-0.3800506591796875
1761915083737404400,10.483404296875,-0.5867919921875,-1.10845947265625,-0.3189239501953125
1761915083747459300,10.493459228515626,-0.5991973876953125,-1.0512542724609375,-0.2615966796875
1761915083757513200,10.50351318359375,-0.65704345703125,-0.9731292724609375,-0.2083740234375
1761915083767567400,10.5135673828125,-0.731109619140625,-0.91180419921875,-0.156341552734375
1761915083777622500,10.52362255859375,-0.696502685546875,-0.8943939208984375,-0.1237030029296875
1761915083787676400,10.533676513671875,-0.62823486328125,-0.8791656494140625,-0.10601806640625
1761915083797731300,10.5437314453125,-0.5983734130859375,-0.848876953125,-0.091461181640625
1761915083807785500,10.553785400390625,-0.518829345703125,-0.7913055419921875,-0.081939697265625
1761915083817839400,10.56383935546875,-0.3458099365234375,-0.69873046875,-0.1289825439453125
