time,seconds_elapsed,z,y,x
1761915073321083100,0.067083251953125,-0.1129196286201477,-0.5589567422866821,-0.5382506847381592
1761915073331138000,0.077137939453125,-0.21197910606861115,-0.7136867046356201,-0.6825005412101746
1761915073341192000,0.08719189453125,-0.388677716255188,-0.8587812781333923,-0.8781073093414307
1761915073351246000,0.09724609375,-0.7220511436462402,-0.9946752190589905,-1.1607637405395508
1761915073361301000,0.107301025390625,-1.1083053350448608,-1.1876749992370605,-1.3993923664093018
1761915073371355100,0.117355224609375,-0.9033138751983643,-1.5573399066925049,-1.4618474245071411
1761915073381409000,0.127408935546875,-0.174054354429245,-1.6554361581802368,-1.49988853931427
1761915073391464000,0.1374638671875,0.5353848338127136,-1.5759098529815674,-1.3808860778808594
1761915073401518000,0.14751806640625,0.7604563236236572,-1.3728328943252563,-1.1869914531707764
1761915073411572000,0.157572021484375,0.9219019412994385,-1.0549707412719727,-0.9990206956863403
1761915073421627100,0.167627197265625,1.0300209522247314,-0.6491684317588806,-0.7811890244483948
1761915073431681000,0.177680908203125,1.0010305643081665,-0.12657710909843445,-0.5594446659088135
1761915073441736000,0.18773583984375,0.9668222665786743,0.3639899492263794,-0.39066416025161743
1761915073451790000,0.1977900390625,1.063679814338684,0.7263990044593811,-0.3419498801231384
1761915073461844000,0.207843994140625,1.2087295055389404,0.9965066909790039,-0.3873663544654846
1761915073471899100,0.217899169921875,1.248600959777832,1.1019595861434937,-0.4027668833732605
1761915073481953000,0.227953125,1.180462121963501,1.1551083326339722,-0.3522600531578064
1761915073492006700,0.238006591796875,1.0696985721588135,1.3101344108581543,-0.277383416891098
1761915073502061800,0.248061767578125,0.9477258324623108,1.463657021522522,-0.17653216421604156
1761915073512115700,0.25811572265625,0.8444575071334839,1.5550535917282104,-0.03412734344601631
1761915073522169900,0.268169921875,0.7606595158576965,1.5264840126037598,0.1266503483057022
1761915073532224800,0.278224853515625,0.6913113594055176,1.3819667100906372,0.2681105434894562
1761915073542278700,0.288278564453125,0.6237688064575195,1.1506786346435547,0.35685399174690247
1761915073552332800,0.298332763671875,0.56224524974823,0.877246081829071,0.415171355009079
1761915073562387700,0.3083876953125,0.5023989677429199,0.6525514125823975,0.4509490728378296
1761915073572441900,0.31844189453125,0.4557952284812927,0.5766018033027649,0.4724634289741516
1761915073582496800,0.328496826171875,0.4087907075881958,0.6093946099281311,0.5027883052825928
1761915073592550700,0.338550537109375,0.3713671565055847,0.6512951850891113,0.5067628026008606
1761915073602604800,0.348604736328125,0.36242640018463135,0.549694299697876,0.43553629517555237
1761915073612659700,0.35865966796875,0.3572750389575958,0.3002746105194092,0.38111966848373413
1761915073622713900,0.3687138671875,0.3537774980068207,0.13224725425243378,0.3524147868156433
1761915073632767700,0.378767822265625,0.3405706286430359,0.09671296179294586,0.3268550932407379
1761915073642822700,0.38882275390625,0.3382342457771301,0.13178333640098572,0.3294748365879059
1761915073652876800,0.398876708984375,0.34168916940689087,0.27766862511634827,0.3405911326408386
1761915073662930700,0.4089306640625,0.36740145087242126,0.48313310742378235,0.32459938526153564
1761915073672985900,0.41898583984375,0.3994017243385315,0.606249988079071,0.28735828399658203
1761915073683039700,0.429039794921875,0.4046550691127777,0.6100172996520996,0.26146435737609863
1761915073693094000,0.439093994140625,0.3960570693016052,0.5542440414428711,0.2574898600578308
1761915073703148800,0.449148681640625,0.3718869984149933,0.5041603446006775,0.27764999866485596
1761915073713202700,0.45920263671875,0.3317694067955017,0.4981280267238617,0.30725979804992676
1761915073723257900,0.4692578125,0.3059979975223541,0.5023302435874939,0.2993291914463043
1761915073733312000,0.47931201171875,0.2955930233001709,0.49107998609542847,0.2565971612930298
1761915073743366000,0.489365966796875,0.30824437737464905,0.45500028133392334,0.18020199239253998
1761915073753420800,0.4994208984375,0.31435367465019226,0.4008089303970337,0.09335018694400787
1761915073763474700,0.509474609375,0.3416990041732788,0.3654618561267853,0.021328724920749664
1761915073773528800,0.51952880859375,0.38219955563545227,0.38046157360076904,-0.016630908474326134
1761915073783584000,0.529583984375,0.41899698972702026,0.4170462191104889,-0.03087562508881092
1761915073793637600,0.5396376953125,0.4375491142272949,0.4008547365665436,-0.01264149323105812
1761915073803691800,0.54969189453125,0.4462642967700958,0.3069689869880676,0.016690563410520554
1761915073813746700,0.55974658203125,0.45260581374168396,0.15796034038066864,0.036078907549381256
1761915073823800800,0.56980078125,0.45855000615119934,-0.025000425055623055,0.040464334189891815
1761915073833854700,0.579854736328125,0.4377746880054474,-0.20956893265247345,0.014186658896505833
1761915073843909600,0.58990966796875,0.3935275971889496,-0.3480466604232788,-0.02568885125219822
1761915073853963800,0.5999638671875,0.33799615502357483,-0.4110170900821686,-0.07984209805727005
1761915073864018700,0.610018798828125,0.2904603183269501,-0.41819190979003906,-0.13046640157699585
1761915073874072800,0.62007275390625,0.25556039810180664,-0.38036197423934937,-0.1616903692483902
1761915073884126700,0.630126708984375,0.23426257073879242,-0.3327537178993225,-0.16787448525428772
1761915073894181600,0.640181640625,0.21810676157474518,-0.2805890440940857,-0.15377038717269897
1761915073904235800,0.65023583984375,0.19877435266971588,-0.22653700411319733,-0.12156957387924194
1761915073914289700,0.66028955078125,0.1616075336933136,-0.19424457848072052,-0.0668615847826004
1761915073924344800,0.6703447265625,0.11138751357793808,-0.2067265510559082,0.006009689066559076
1761915073934399000,0.68039892578125,0.041972748935222626,-0.23208196461200714,0.10452800989151001
1761915073944452900,0.690452880859375,-0.02791125886142254,-0.2818668484687805,0.2070988565683365
1761915073954507800,0.7005078125,-0.05251220986247063,-0.33642515540122986,0.2597556710243225
1761915073964561700,0.710561767578125,-0.04620291665196419,-0.4166153371334076,0.24117933213710785
1761915073974615800,0.72061572265625,-0.022187061607837677,-0.49564969539642334,0.1746666133403778
1761915073984671000,0.7306708984375,-0.006786533165723085,-0.5564379692077637,0.11351324617862701
1761915073994724900,0.740724853515625,-0.008742891252040863,-0.6476134061813354,0.0799504891037941
1761915074004779800,0.75077978515625,-0.010662497952580452,-0.8326106667518616,0.09196934103965759
1761915074014833700,0.760833740234375,-0.0054855793714523315,-1.066223382949829,0.07133516669273376
1761915074024887800,0.7708876953125,0.030554447323083878,-1.1033838987350464,-0.04091600701212883
1761915074034943000,0.78094287109375,0.08932854980230331,-0.816578209400177,-0.21654748916625977
1761915074044996900,0.790996826171875,0.12393818795681,-0.25081756711006165,-0.3870619535446167
1761915074055050800,0.80105078125,0.16401343047618866,0.33507147431373596,-0.49749499559402466
1761915074065105700,0.811105712890625,0.281158983707428,0.7530540823936462,-0.5664846897125244
1761915074075159800,0.821159912109375,0.38232260942459106,0.8064930438995361,-0.5711495280265808
1761915074085213700,0.831213623046875,0.3721011281013489,0.387967973947525,-0.5038349032402039
1761915074095268600,0.8412685546875,0.2385859489440918,-0.35829398036003113,-0.3521982431411743
1761915074105322800,0.85132275390625,0.0385575108230114,-1.2463815212249756,-0.10392000526189804
1761915074115376600,0.861376708984375,-0.11461872607469559,-1.9058153629302979,0.18646761775016785
1761915074125431800,0.871431884765625,-0.19886809587478638,-2.148055076599121,0.40934303402900696
1761915074135486000,0.88148583984375,-0.2114376723766327,-1.9663220643997192,0.5270467400550842
1761915074145540600,0.89154052734375,-0.17808984220027924,-1.3932305574417114,0.5473576188087463
1761915074155594800,0.9015947265625,-0.21487395465373993,-0.5350916385650635,0.5383270978927612
1761915074165648600,0.911648681640625,-0.41840365529060364,0.37759682536125183,0.6044073104858398
1761915074175703800,0.921703857421875,-0.7038718461990356,1.2708282470703125,0.8231713771820068
1761915074185758000,0.931758056640625,-0.9193514585494995,2.108964681625366,1.1617003679275513
1761915074195811800,0.941811767578125,-1.0326329469680786,2.7725400924682617,1.5191876888275146
1761915074205866800,0.95186669921875,-1.0755252838134766,3.107205867767334,1.7767143249511719
1761915074215920600,0.961920654296875,-1.083624005317688,3.0676934719085693,1.8425655364990234
1761915074225974800,0.971974853515625,-1.0390636920928955,2.7315473556518555,1.6605466604232788
1761915074236030000,0.982030029296875,-0.9211248159408569,2.236384153366089,1.2396469116210938
1761915074246083800,0.992083740234375,-0.7366359233856201,1.661713719367981,0.6751121282577515
1761915074256137700,1.0021376953125,-0.5466375350952148,0.9677091240882874,0.13552507758140564
1761915074266192600,1.012192626953125,-0.4024829864501953,0.20117145776748657,-0.25765469670295715
1761915074276246800,1.022246826171875,-0.2897697687149048,-0.4891236126422882,-0.48550304770469666
1761915074286302000,1.032302001953125,-0.21920718252658844,-0.9190510511398315,-0.5646375417709351
1761915074296355800,1.04235595703125,-0.2090083360671997,-1.1079578399658203,-0.49260836839675903
1761915074306409700,1.05240966796875,-0.20091526210308075,-1.180597186088562,-0.30929845571517944
1761915074316464600,1.062464599609375,-0.13648061454296112,-1.254376769065857,-0.06078878045082092
1761915074326518800,1.072518798828125,-0.04404495656490326,-1.3887934684753418,0.17431534826755524
1761915074336573000,1.082572998046875,0.05410611256957054,-1.499953031539917,0.3669987618923187
1761915074346627800,1.0926279296875,0.1516646295785904,-1.5373976230621338,0.5217236280441284
1761915074356681700,1.102681640625,0.2166132628917694,-1.4620988368988037,0.6407940983772278
1761915074366735600,1.112735595703125,0.24953339993953705,-1.297752022743225,0.7392389178276062
1761915074376790800,1.122790771484375,0.26444870233535767,-1.0607829093933105,0.8165004253387451
1761915074386845000,1.132844970703125,0.2882104814052582,-0.741267740726471,0.836602509021759
1761915074396898800,1.14289892578125,0.3139328956604004,-0.3557879328727722,0.7865893840789795
1761915074406953700,1.15295361328125,0.35913366079330444,0.017403224483132362,0.6995368003845215
1761915074417007600,1.163007568359375,0.41661933064460754,0.28002259135246277,0.5919085741043091
1761915074427062800,1.173062744140625,0.5076373815536499,0.3743469715118408,0.461978554725647
1761915074437117000,1.183116943359375,0.6305105686187744,0.24902686476707458,0.322219580411911
1761915074447170800,1.1931708984375,0.7405816912651062,-0.061226338148117065,0.19155824184417725
1761915074457225700,1.203225830078125,0.8406262397766113,-0.4813690185546875,0.10284968465566635
1761915074467279600,1.213279541015625,0.9498246312141418,-0.8672053813934326,0.04598506912589073
1761915074477333800,1.223333740234375,1.0835672616958618,-1.061890721321106,-0.032471656799316406
1761915074487389000,1.233388916015625,1.2703555822372437,-1.0169597864151,-0.18512378633022308
1761915074497443000,1.243443115234375,1.4882590770721436,-0.8608137965202332,-0.39054083824157715
1761915074507497000,1.2534970703125,1.5467668771743774,-1.0593160390853882,-0.5429399609565735
1761915074517552000,1.26355224609375,1.3509414196014404,-1.615090012550354,-0.5070616006851196
1761915074527606300,1.273606201171875,1.2407547235488892,-1.8253308534622192,-0.44023436307907104
1761915074537660200,1.28366015625,1.1923797130584717,-1.3624005317687988,-0.31597474217414856
1761915074547715000,1.293715087890625,1.1325480937957764,-0.6428079605102539,-0.011255583725869656
1761915074557769000,1.30376904296875,1.0348548889160156,-0.20020979642868042,0.427194744348526
1761915074567824100,1.31382421875,0.9198662042617798,-0.1635468453168869,0.6500038504600525
1761915074577878300,1.323878173828125,0.8655097484588623,0.09499841928482056,0.28804856538772583
1761915074587932200,1.33393212890625,0.9047245383262634,0.7079291939735413,-0.5827435851097107
1761915074597987000,1.343987060546875,0.9217301607131958,1.0721527338027954,-1.4643281698226929
1761915074608041000,1.354041015625,0.7935173511505127,1.3346823453903198,-2.0120115280151367
1761915074618095000,1.36409521484375,0.6067991256713867,1.6933544874191284,-2.2729225158691406
1761915074628150300,1.374150390625,0.4976750314235687,1.9492136240005493,-2.450289011001587
1761915074638204200,1.3842041015625,0.472514808177948,2.0161402225494385,-2.681562900543213
1761915074648258300,1.39425830078125,0.5657755136489868,2.015108585357666,-2.907680034637451
1761915074658313000,1.40431298828125,0.6866364479064941,1.877791404724121,-2.9783401489257812
1761915074668367000,1.4143671875,0.6577690839767456,1.5475064516067505,-2.742584705352783
1761915074678421200,1.424421142578125,0.4884527623653412,1.0829973220825195,-2.215010404586792
1761915074688476200,1.43447607421875,0.2325914353132248,0.6336589455604553,-1.4740325212478638
1761915074698530300,1.4445302734375,-0.07777974754571915,0.4866977334022522,-0.5828226804733276
1761915074708585200,1.454585205078125,-0.31102365255355835,0.7086359858512878,0.37791934609413147
1761915074718639000,1.46463916015625,-0.4110298752784729,1.0524407625198364,1.2441308498382568
1761915074728693200,1.474693359375,-0.4047858417034149,1.347895860671997,1.7877877950668335
1761915074738748200,1.484748046875,-0.4003157317638397,1.6209670305252075,1.832587480545044
1761915074748802300,1.49480224609375,-0.412513792514801,1.8979341983795166,1.335416555404663
1761915074758856000,1.50485595703125,-0.3822411000728607,1.9271677732467651,0.41703158617019653
1761915074768911000,1.5149111328125,-0.31410226225852966,1.472598671913147,-0.5907328128814697
1761915074778965200,1.52496533203125,-0.2920374572277069,0.6817377805709839,-1.3997300863265991
1761915074789019100,1.53501904296875,-0.32759782671928406,-0.20886293053627014,-1.9048891067504883
1761915074799074000,1.545073974609375,-0.3614213168621063,-0.9520611763000488,-2.0728609561920166
1761915074809128000,1.5551279296875,-0.3433259427547455,-1.4860957860946655,-1.9443390369415283
1761915074819183000,1.56518310546875,-0.26199567317962646,-1.7337383031845093,-1.590129017829895
1761915074829237200,1.5752373046875,-0.17092114686965942,-1.6952732801437378,-1.0337868928909302
1761915074839291100,1.585291015625,-0.0758577436208725,-1.4960967302322388,-0.3649441599845886
1761915074849346000,1.595345947265625,0.02155163139104843,-1.2315844297409058,0.31078264117240906
1761915074859400000,1.60539990234375,0.07846285402774811,-0.9256561994552612,0.9021074771881104
1761915074869454000,1.6154541015625,0.0798756554722786,-0.6510645747184753,1.3438800573349
1761915074879509200,1.62550927734375,0.023191072046756744,-0.4249742031097412,1.6198261976242065
1761915074889563100,1.635563232421875,-0.06737850606441498,-0.30033186078071594,1.7131342887878418
1761915074899617300,1.6456171875,-0.14365489780902863,-0.3298324942588806,1.6467711925506592
1761915074909672200,1.655672119140625,-0.13840395212173462,-0.4661296308040619,1.4830752611160278
1761915074919726000,1.66572607421875,-0.03970427066087723,-0.6946802139282227,1.287172555923462
1761915074929780200,1.6757802734375,0.09720510989427567,-0.974685788154602,1.129709243774414
1761915074939835100,1.685835205078125,0.2023397833108902,-1.2006728649139404,1.0363901853561401
1761915074949889300,1.69588916015625,0.2935922145843506,-1.3528187274932861,0.9958432912826538
1761915074959944200,1.705944091796875,0.3672863841056824,-1.4064286947250366,0.9701848030090332
1761915074969998000,1.715998046875,0.3443874716758728,-1.317999005317688,0.9550217986106873
1761915074980052200,1.72605224609375,0.19070656597614288,-1.19046151638031,0.9766935706138611
1761915074990107100,1.736107177734375,-0.006127400789409876,-1.1356443166732788,1.026634693145752
1761915075000161300,1.746161376953125,-0.11988752335309982,-1.0603892803192139,1.055763840675354
1761915075010215200,1.756215087890625,-0.06824003905057907,-0.8396003842353821,0.964003324508667
1761915075020270000,1.76627001953125,0.06390334665775299,-0.46400174498558044,0.6849386692047119
1761915075030324200,1.77632421875,0.1793987900018692,-0.07966233789920807,0.26137539744377136
1761915075040378000,1.786378173828125,0.26694196462631226,0.13546328246593475,-0.21143928170204163
1761915075050433300,1.796433349609375,0.4025000333786011,0.2056780606508255,-0.7322523593902588
1761915075060487000,1.80648681640625,0.7183211445808411,0.2086315006017685,-1.3177672624588013
1761915075070541000,1.816541015625,1.0748767852783203,0.08010495454072952,-1.829684853553772
1761915075080596200,1.82659619140625,1.0985521078109741,-0.1441180258989334,-1.9915931224822998
1761915075090650000,1.836650146484375,0.7405798435211182,-0.31881579756736755,-1.608665943145752
1761915075100704300,1.846704345703125,0.26017192006111145,-0.4043658673763275,-0.7080671787261963
1761915075110759200,1.85675927734375,-0.11101040989160538,-0.1438503861427307,0.5098448991775513
1761915075120813000,1.86681298828125,-0.3199356496334076,0.5761045813560486,1.6623435020446777
1761915075130867200,1.8768671875,-0.28062179684638977,1.555258870124817,2.3015811443328857
1761915075140922000,1.886922119140625,-0.02924230694770813,2.479201555252075,2.2724320888519287
1761915075150976300,1.896976318359375,0.3382563292980194,3.1692662239074707,1.56292724609375
1761915075161031200,1.90703125,0.684782087802887,3.406999111175537,0.42207667231559753
1761915075171085000,1.9170849609375,0.7785019278526306,3.0491905212402344,-0.72371906042099
1761915075181139200,1.92713916015625,0.4973069727420807,2.2907750606536865,-1.5664281845092773
1761915075191194000,1.937194091796875,-0.037280261516571045,1.5451351404190063,-1.9514336585998535
1761915075201248300,1.947248291015625,-0.5469280481338501,1.1013507843017578,-1.8581604957580566
1761915075211302100,1.95730224609375,-0.9052441120147705,0.9814427495002747,-1.3319907188415527
1761915075221357000,1.967357177734375,-0.9541330933570862,0.9915521144866943,-0.5207577347755432
1761915075231411200,1.9774111328125,-0.7517781257629395,1.159454345703125,0.3605091869831085
1761915075241465000,1.987465087890625,-0.514353334903717,1.5592560768127441,1.100279450416565
1761915075251520300,1.997520263671875,-0.4381539225578308,2.0166666507720947,1.508599042892456
1761915075261574100,2.00757421875,-0.596389889717102,2.281798839569092,1.5012420415878296
1761915075271628000,2.0176279296875,-0.9419568777084351,2.214482307434082,1.1484637260437012
1761915075281683200,2.02768310546875,-1.3375364542007446,1.7485127449035645,0.6466325521469116
1761915075291737000,2.037737060546875,-1.6108380556106567,0.9628539085388184,0.18417170643806458
1761915075301792300,2.047792236328125,-1.7470674514770508,-0.02394527941942215,-0.13469070196151733
1761915075311846100,2.05784619140625,-1.787535548210144,-1.1400790214538574,-0.3572268486022949
1761915075321900000,2.067900146484375,-1.6993523836135864,-2.1830992698669434,-0.5827100276947021
1761915075331955200,2.077955078125,-1.4958163499832153,-2.8841466903686523,-0.8094347715377808
1761915075342009000,2.088009033203125,-1.2387148141860962,-3.1284947395324707,-0.9831898212432861
1761915075352063200,2.098063232421875,-1.0243247747421265,-2.8865675926208496,-1.03261137008667
1761915075362118100,2.1081181640625,-0.898033618927002,-2.324326992034912,-0.9088130593299866
1761915075372172000,2.118172119140625,-0.8216323256492615,-1.666439175605774,-0.6177071332931519
1761915075382226200,2.12822607421875,-0.7845014929771423,-1.139893889427185,-0.2549084424972534
1761915075392281000,2.138281005859375,-0.8166503310203552,-0.8228664398193359,0.1242428570985794
1761915075402335200,2.148335205078125,-0.9429965615272522,-0.7542711496353149,0.48370036482810974
1761915075412389000,2.15838916015625,-1.0812164545059204,-0.8769783973693848,0.7908635139465332
1761915075422444000,2.168444091796875,-1.1151145696640015,-1.0898462533950806,1.0133626461029053
1761915075432498200,2.178498291015625,-1.0139015913009644,-1.3022487163543701,1.1564971208572388
1761915075442553000,2.188552978515625,-0.7811823487281799,-1.4924943447113037,1.2518987655639648
1761915075452607200,2.198607177734375,-0.4331895112991333,-1.5375834703445435,1.3472532033920288
1761915075462661400,2.208661376953125,-0.047871384769678116,-1.4828201532363892,1.4500453472137451
1761915075472716000,2.218716064453125,0.1969122588634491,-1.4664009809494019,1.5486042499542236
1761915075482770200,2.228770263671875,0.2809693515300751,-1.4251792430877686,1.70451819896698
1761915075492824300,2.23882421875,0.27689817547798157,-1.4658550024032593,1.9474977254867554
1761915075502879500,2.24887939453125,0.3068494200706482,-1.7083845138549805,2.1433091163635254
1761915075512933400,2.258933349609375,0.29668039083480835,-1.7948893308639526,2.0585625171661377
1761915075522987300,2.2689873046875,0.20395658910274506,-1.6566526889801025,1.6210349798202515
1761915075533042400,2.27904248046875,0.15866421163082123,-1.4111049175262451,0.7840836048126221
1761915075543096300,2.289096435546875,0.24073192477226257,-0.9467729330062866,-0.4823072552680969
1761915075553150500,2.299150390625,0.34264683723449707,-0.21403878927230835,-1.8784409761428833
1761915075563205400,2.309205322265625,0.3969891667366028,0.6747233271598816,-2.903125762939453
1761915075573259300,2.31925927734375,0.34595102071762085,1.4250355958938599,-3.284360408782959
1761915075583314400,2.329314453125,0.13492532074451447,2.1123387813568115,-3.2067108154296875
1761915075593368300,2.339368408203125,-0.19100883603096008,2.923434257507324,-3.08895206451416
1761915075603422500,2.34942236328125,-0.20337256789207458,3.004744052886963,-3.064530849456787
1761915075613477400,2.359477294921875,-0.028491029515862465,2.756354570388794,-3.105029582977295
1761915075623531300,2.36953125,0.08840443193912506,2.5218443870544434,-3.158554792404175
1761915075633585400,2.37958544921875,0.028237497434020042,2.3940868377685547,-3.1300811767578125
1761915075643640600,2.389640625,-0.14818920195102692,2.3134765625,-2.8939461708068848
1761915075653694500,2.399694580078125,-0.2986990809440613,2.279360771179199,-2.451756477355957
1761915075663748600,2.40974853515625,-0.33308929204940796,2.1166329383850098,-1.9072608947753906
1761915075673803300,2.41980322265625,-0.24693894386291504,1.519178867340088,-1.345665693283081
1761915075683857400,2.429857421875,-0.24966123700141907,0.9262557029724121,-0.6765113472938538
1761915075693911300,2.439911376953125,-0.3296830952167511,0.012977850623428822,-0.09808448702096939
1761915075703966500,2.449966552734375,-0.5393319129943848,-0.9055429697036743,0.33097153902053833
1761915075714020600,2.4600205078125,-0.8227173089981079,-1.2473745346069336,0.6586681604385376
1761915075724074200,2.47007421875,-0.957793653011322,-1.2150137424468994,0.8032892942428589
1761915075734129400,2.48012939453125,-1.03207266330719,-1.0165469646453857,0.9188278317451477
1761915075744183300,2.490183349609375,-1.052839994430542,-1.0534871816635132,1.0500208139419556
1761915075754238500,2.500238525390625,-1.06987464427948,-1.2692489624023438,1.1188658475875854
1761915075764292400,2.510292236328125,-0.9966563582420349,-1.4443190097808838,0.8422955274581909
1761915075774346200,2.52034619140625,-0.6705160737037659,-0.5446425080299377,-0.16270315647125244
1761915075784401400,2.5304013671875,0.02635144628584385,0.5829856395721436,-1.65507972240448
1761915075794455300,2.540455322265625,0.8015422224998474,0.9225216507911682,-2.491668701171875
1761915075804509400,2.550509521484375,1.2588706016540527,1.4076076745986938,-2.9423828125
1761915075814564400,2.560564453125,1.4598053693771362,1.885342001914978,-3.0214414596557617
1761915075824618200,2.5706181640625,1.4288705587387085,1.8299647569656372,-2.7485787868499756
1761915075834672400,2.58067236328125,1.2975389957427979,1.6558563709259033,-2.1282927989959717
1761915075844727600,2.5907275390625,1.3166636228561401,0.7056125402450562,-1.5846506357192993
1761915075854781400,2.600781494140625,1.3453423976898193,-0.5569924116134644,-1.06172776222229
1761915075864835600,2.610835693359375,1.356960415840149,-1.4787821769714355,-0.5026500821113586
1761915075874890200,2.62089013671875,1.347895622253418,-1.959032416343689,0.036022450774908066
1761915075884944400,2.6309443359375,1.3377388715744019,-2.1512365341186523,0.5266704559326172
1761915075894999600,2.64099951171875,1.2988489866256714,-2.1950175762176514,0.9768549203872681
1761915075905053400,2.651053466796875,1.1882569789886475,-2.2028260231018066,1.3775171041488647
1761915075915107600,2.661107666015625,1.0170851945877075,-2.084580898284912,1.7176845073699951
1761915075925162200,2.671162353515625,0.8109615445137024,-1.8278086185455322,2.0177135467529297
1761915075935216400,2.68121630859375,0.6136175990104675,-1.38601815700531,2.307973623275757
1761915075945270300,2.691270263671875,0.4570503830909729,-0.6406521797180176,2.572896718978882
1761915075955325400,2.701325439453125,0.35780447721481323,0.38281235098838806,2.745910882949829
1761915075965379600,2.711379638671875,0.3503388464450836,1.4234355688095093,2.6748545169830322
1761915075975433500,2.72143359375,0.36704325675964355,2.271657705307007,2.399259090423584
1761915075985488400,2.73148828125,0.33971789479255676,2.679685115814209,2.207520008087158
1761915075995542300,2.741542236328125,0.30309996008872986,2.757103443145752,2.050166606903076
1761915076005596400,2.751596435546875,0.26574912667274475,2.458042860031128,1.8428161144256592
1761915076015651600,2.761651611328125,0.11833436787128448,1.8813272714614868,1.6575934886932373
1761915076025705200,2.771705322265625,0.10000702738761902,1.2519350051879883,1.535011649131775
1761915076035760400,2.781760498046875,0.01107182539999485,0.5912781953811646,1.3416653871536255
1761915076045814500,2.791814453125,-0.13386698067188263,-0.11334120482206345,1.0814950466156006
1761915076055868400,2.801868408203125,-0.18408142030239105,-0.6481191515922546,0.7479104399681091
1761915076065923300,2.81192333984375,-0.13757410645484924,-0.7022840976715088,0.39622482657432556
1761915076075977200,2.821977294921875,-0.07648012787103653,-0.24658873677253723,0.0433029979467392
1761915076086031400,2.83203125,-0.018135860562324524,0.737604558467865,-0.2455303966999054
1761915076096086500,2.84208642578125,-0.026079537346959114,1.6943494081497192,-0.3812975585460663
1761915076106140400,2.852140380859375,-0.15468572080135345,1.7822771072387695,-0.3039660155773163
1761915076116194600,2.862194580078125,-0.4073869585990906,0.8999398946762085,0.025083249434828758
1761915076126249200,2.872249267578125,-0.743290901184082,-0.5179552435874939,0.5466076731681824
1761915076136303400,2.882303466796875,-1.208180546760559,-1.9045705795288086,1.2027252912521362
1761915076146357200,2.892357177734375,-1.724348545074463,-2.855839729309082,1.87883722782135
1761915076156412400,2.902412353515625,-2.0483789443969727,-3.2006545066833496,2.351123571395874
1761915076166466600,2.912466552734375,-1.0416736602783203,-1.9629603624343872,1.7310858964920044
1761915076176520400,2.9225205078125,0.8645353317260742,-0.6683588624000549,0.4398474097251892
1761915076186575400,2.932575439453125,1.5851813554763794,-0.6525524854660034,-0.22425919771194458
1761915076196629200,2.942629150390625,1.6379088163375854,-0.4500289559364319,-0.8225516676902771
1761915076206684400,2.952684326171875,1.574514389038086,-0.1577582061290741,-1.208487868309021
1761915076216738600,2.962738525390625,1.294761300086975,-0.095965676009655,-1.2368888854980469
1761915076226792400,2.97279248046875,0.812037467956543,-0.2943999469280243,-1.145654320716858
1761915076236847400,2.982847412109375,0.39044657349586487,-0.8066579103469849,-1.0626920461654663
1761915076246901500,2.992901611328125,0.22422458231449127,-1.1525063514709473,-1.018309473991394
1761915076256955400,3.002955322265625,0.27069780230522156,-0.9608466625213623,-0.9732306599617004
1761915076267010600,3.013010498046875,0.39110755920410156,-0.2424216866493225,-0.9316895604133606
1761915076277064400,3.023064453125,0.46634215116500854,0.663635790348053,-0.8623059988021851
1761915076287118300,3.033118408203125,0.42161381244659424,1.330491304397583,-0.7506649494171143
1761915076297173500,3.043173583984375,0.32027122378349304,1.5479609966278076,-0.6667748093605042
1761915076307227400,3.053227294921875,0.2048649936914444,1.3527580499649048,-0.6222907304763794
1761915076317281500,3.063281494140625,0.13683348894119263,0.9976931214332581,-0.5708547234535217
1761915076327336200,3.073336181640625,0.18508702516555786,0.6521815061569214,-0.4965740740299225
1761915076337390300,3.083390380859375,0.2722006142139435,0.2590944170951843,-0.32416582107543945
1761915076347444200,3.0934443359375,0.3406846225261688,-0.009897371754050255,-0.03898601606488228
1761915076357499400,3.10349951171875,0.3972826600074768,-0.3913438022136688,0.3694581985473633
1761915076367553500,3.113553466796875,0.3479244112968445,-0.6768175959587097,0.7755807042121887
1761915076377608200,3.123608154296875,0.27836185693740845,-0.8190141916275024,1.048641562461853
1761915076387662300,3.133662353515625,0.24610750377178192,-1.0225028991699219,1.1837918758392334
1761915076397716200,3.14371630859375,0.21370908617973328,-1.051866888999939,1.232222557067871
1761915076407771400,3.153771484375,0.11855008453130722,-0.6983527541160583,1.2946577072143555
1761915076417825500,3.163825439453125,0.0019800602458417416,-0.26098790764808655,1.2828420400619507
1761915076427879400,3.17387939453125,-0.1392146199941635,0.16655409336090088,1.1364136934280396
1761915076437934300,3.183934326171875,-0.2975941300392151,0.5694426894187927,0.8913483023643494
1761915076447988500,3.193988525390625,-0.5068551898002625,0.9920751452445984,0.5639283657073975
1761915076458042400,3.20404248046875,-0.6653590798377991,0.9507202506065369,0.04469423368573189
1761915076468097500,3.21409765625,-0.7904970645904541,0.509496808052063,-0.5790316462516785
1761915076478151400,3.2241513671875,-1.0125114917755127,0.6434537768363953,-0.9651942849159241
1761915076488205300,3.234205322265625,-1.1479790210723877,0.30223628878593445,-0.99098140001297
1761915076498260500,3.244260498046875,-1.1306560039520264,0.31278079748153687,-0.6039231419563293
1761915076508314400,3.254314453125,-0.7645730376243591,0.17643176019191742,-0.039327431470155716
1761915076518369500,3.26436962890625,-0.13237082958221436,0.2235795557498932,0.5658804774284363
1761915076528423400,3.27442333984375,0.42848265171051025,0.6697916388511658,1.1372177600860596
1761915076538477300,3.284477294921875,0.7071835398674011,1.2890833616256714,1.6549955606460571
1761915076548532500,3.294532470703125,0.7651890516281128,1.8248610496520996,1.9214067459106445
1761915076558586400,3.30458642578125,0.7225915193557739,1.7925132513046265,1.7689051628112793
1761915076568640500,3.314640625,0.5779749155044556,1.3847843408584595,1.3215832710266113
1761915076578695400,3.3246953125,0.34857848286628723,0.562467634677887,0.43569713830947876
1761915076588749300,3.334749267578125,0.15155677497386932,-0.30717167258262634,-0.6110444664955139
1761915076598803200,3.34480322265625,0.06185457855463028,-1.2690948247909546,-1.2144536972045898
1761915076608858400,3.3548583984375,0.082459457218647,-2.217606782913208,-1.1152160167694092
1761915076618912500,3.36491259765625,0.324418306350708,-2.556246042251587,-0.5763229727745056
1761915076628966400,3.37496630859375,0.5642961263656616,-2.154268980026245,-0.056603092700242996
1761915076639021300,3.385021240234375,0.7096596956253052,-1.3332945108413696,0.2837185263633728
1761915076649075500,3.395075439453125,0.8574854135513306,-0.19862042367458344,0.49854668974876404
1761915076659130400,3.40513037109375,0.9586602449417114,0.859540581703186,0.7019829154014587
1761915076669184500,3.4151845703125,0.9164653420448303,1.4680116176605225,0.9443662166595459
1761915076679238400,3.42523828125,0.8074861764907837,1.8142640590667725,1.0877822637557983
1761915076689293300,3.435293212890625,0.7019189596176147,2.042015552520752,1.0896350145339966
1761915076699347500,3.445347412109375,0.5771080851554871,2.2062904834747314,0.9062294960021973
1761915076709401300,3.4554013671875,0.37775716185569763,2.297187566757202,0.5330982804298401
1761915076719456500,3.46545654296875,0.09893190860748291,2.1621313095092773,0.1232399120926857
1761915076729510400,3.475510498046875,-0.1340600699186325,1.7275270223617554,-0.13098783791065216
1761915076739564500,3.485564453125,-0.2136068195104599,1.0850354433059692,-0.18362203240394592
1761915076749619500,3.495619384765625,-0.14832130074501038,0.4446333944797516,-0.09135068207979202
1761915076759673300,3.50567333984375,0.03146151825785637,0.03123914636671543,0.07689238339662552
1761915076769727500,3.5157275390625,0.24929530918598175,-0.03851756453514099,0.2934105694293976
1761915076779782400,3.525782470703125,0.3918522000312805,0.13014201819896698,0.48011520504951477
1761915076789836300,3.535836181640625,0.42792418599128723,0.4480725824832916,0.47790345549583435
1761915076799890400,3.545890380859375,0.3795904815196991,0.7262855768203735,0.2716735899448395
1761915076809945300,3.5559453125,0.2610238790512085,0.7950289249420166,-0.04650332033634186
1761915076819999500,3.56599951171875,0.12923282384872437,0.5758917927742004,-0.39351320266723633
1761915076830054400,3.576054443359375,0.02365872450172901,0.08909977972507477,-0.6695839166641235
1761915076840108300,3.5861083984375,-0.05925986170768738,-0.40449902415275574,-0.7693217396736145
1761915076850162400,3.596162353515625,-0.08038458973169327,-0.7837550044059753,-0.6539424061775208
1761915076860217300,3.60621728515625,0.0017201356822624803,-1.0140467882156372,-0.34572598338127136
1761915076870271500,3.616271484375,0.14736761152744293,-1.0115008354187012,0.04673714563250542
1761915076880325400,3.626325439453125,0.29931026697158813,-0.8566174507141113,0.44760146737098694
1761915076890380300,3.63638037109375,0.4688313901424408,-0.5352639555931091,0.7807064652442932
1761915076900434400,3.646434326171875,0.810901939868927,0.030009031295776367,0.962666392326355
1761915076910488300,3.65648828125,1.0485291481018066,0.3309590220451355,1.2078982591629028
1761915076920543500,3.66654345703125,1.0375089645385742,0.44474363327026367,1.4299275875091553
1761915076930597400,3.676597412109375,0.9489660263061523,0.6223429441452026,1.532842755317688
1761915076940651500,3.686651611328125,0.8766463398933411,0.72923344373703,1.6201742887496948
1761915076950706400,3.69670654296875,0.8137089014053345,0.8341057896614075,1.6768476963043213
1761915076960760300,3.70676025390625,0.7706389427185059,0.9606062173843384,1.6532038450241089
1761915076970815500,3.7168154296875,0.7761649489402771,1.055437684059143,1.5848822593688965
1761915076980869400,3.726869384765625,0.7854418158531189,0.9612488150596619,1.4720662832260132
1761915076990923500,3.736923583984375,0.7365435361862183,0.6857733130455017,1.306520700454712
1761915077000978400,3.746978515625,0.6523476839065552,0.3886910080909729,1.0873095989227295
1761915077011032300,3.7570322265625,0.6137707233428955,0.21093088388442993,0.8745211362838745
1761915077021086500,3.76708642578125,0.5771296620368958,0.15847966074943542,0.7403297424316406
1761915077031141400,3.777141357421875,0.48024144768714905,0.16443395614624023,0.7594704031944275
1761915077041195500,3.787195556640625,0.4026973843574524,0.18480713665485382,0.9128432273864746
1761915077051249400,3.79724951171875,0.44256091117858887,0.29669904708862305,1.0746089220046997
1761915077061304300,3.80730419921875,0.5478771924972534,0.4536513686180115,1.1097909212112427
1761915077071358500,3.8173583984375,0.5926372408866882,0.5913679599761963,0.9330211877822876
1761915077081412400,3.827412353515625,0.5381702780723572,0.7076753973960876,0.5657094717025757
1761915077091467300,3.83746728515625,0.5069106221199036,0.5478702783584595,0.08234307914972305
1761915077101521400,3.847521484375,0.5519971251487732,-0.11128044873476028,-0.3382132053375244
1761915077111576300,3.857576416015625,0.588250458240509,-1.0271165370941162,-0.5869998335838318
1761915077121630500,3.86763037109375,0.5209598541259766,-1.7313910722732544,-0.6928573250770569
1761915077131684400,3.877684326171875,0.43884554505348206,-2.1974470615386963,-0.685598611831665
1761915077141739300,3.8877392578125,0.36403441429138184,-2.330491304397583,-0.5361212491989136
1761915077151793400,3.89779345703125,0.3498157858848572,-2.1525042057037354,-0.2669249176979065
1761915077161847300,3.907847412109375,0.4232817590236664,-1.4444458484649658,-0.09217999130487442
1761915077171902500,3.91790234375,0.5422454476356506,-0.5764790177345276,-0.09033548831939697
1761915077181956400,3.927956298828125,0.6275672316551208,0.003385144053027034,-0.2623293399810791
1761915077192010500,3.938010498046875,0.6054004430770874,0.29525455832481384,-0.5793890953063965
1761915077202065400,3.9480654296875,0.38258838653564453,0.4025631546974182,-0.9348145723342896
1761915077212119300,3.958119384765625,0.06414622813463211,0.3637896776199341,-1.1694731712341309
1761915077222173400,3.96817333984375,-0.21536611020565033,0.17999693751335144,-1.2100447416305542
1761915077232228600,3.978228515625,-0.40084168314933777,-0.031859926879405975,-1.08712899684906
1761915077242282500,3.988282470703125,-0.3906734883785248,-0.013113670982420444,-1.050443410873413
1761915077252337400,3.99833740234375,-0.212646484375,0.13519591093063354,-1.2624579668045044
1761915077262391300,4.008391357421875,0.06142394617199898,0.27390557527542114,-1.6262284517288208
1761915077272443400,4.018443359375,0.34435445070266724,0.32384517788887024,-1.9510823488235474
1761915077282497300,4.028497314453125,0.5188090801239014,0.2029626965522766,-2.1308999061584473
1761915077292552400,4.038552490234375,0.48970338702201843,-0.0839521586894989,-2.1879220008850098
1761915077302606300,4.0486064453125,0.24236071109771729,-0.46639859676361084,-2.173234701156616
1761915077312660500,4.058660400390625,-0.09392116963863373,-0.7385371923446655,-2.109130382537842
1761915077322715400,4.06871533203125,-0.3505159318447113,-0.8134079575538635,-1.9555253982543945
1761915077332769300,4.078769287109375,-0.4731886088848114,-0.6384971141815186,-1.7127926349639893
1761915077342823400,4.088823486328125,-0.4206646680831909,-0.2681712508201599,-1.4270734786987305
1761915077352878300,4.09887841796875,-0.1592109650373459,0.018437862396240234,-1.1436069011688232
1761915077362932500,4.108932373046875,0.17083166539669037,0.04886927083134651,-0.9316120743751526
1761915077372986400,4.118986328125,0.32178229093551636,-0.34927597641944885,-0.7524521946907043
1761915077383041300,4.129041259765625,0.1746857911348343,-1.0477837324142456,-0.5339747071266174
1761915077393095400,4.139095458984375,-0.16132816672325134,-1.6913174390792847,-0.2256898581981659
1761915077403150300,4.149150390625,-0.4351775646209717,-2.0261588096618652,0.17055656015872955
1761915077413204500,4.15920458984375,-0.5391857028007507,-1.912906527519226,0.6136916279792786
1761915077423258400,4.16925830078125,-0.4586658477783203,-1.4482249021530151,1.1216368675231934
1761915077433313300,4.179313232421875,-0.21179454028606415,-0.8389365077018738,1.6554070711135864
1761915077443367400,4.189367431640625,0.08823265880346298,-0.39308762550354004,2.13718318939209
1761915077453421300,4.19942138671875,0.21607770025730133,-0.28553080558776855,2.486769437789917
1761915077463476500,4.2094765625,0.1280037760734558,-0.3724827468395233,2.6691927909851074
1761915077473530400,4.2195302734375,-0.09522638469934464,-0.44695591926574707,2.669957160949707
1761915077483584500,4.22958447265625,-0.34250542521476746,-0.38442090153694153,2.536942720413208
1761915077493639400,4.239639404296875,-0.5258083939552307,-0.13603746891021729,2.3414320945739746
1761915077503693300,4.249693359375,-0.5739996433258057,0.21288616955280304,2.1180148124694824
1761915077513747500,4.25974755859375,-0.47553882002830505,0.3939049541950226,1.9455467462539673
1761915077523802600,4.269802734375,-0.30110257863998413,0.2418871968984604,1.8717700242996216
1761915077533856500,4.2798564453125,-0.10913340747356415,-0.05913948640227318,1.829744577407837
1761915077543911400,4.289911376953125,-0.015987223014235497,-0.10235673189163208,1.7742213010787964
1761915077553965300,4.29996533203125,-0.06416753679513931,0.1574562042951584,1.6394765377044678
1761915077564019500,4.31001953125,-0.22841240465641022,0.5768164396286011,1.4103951454162598
1761915077574074600,4.32007470703125,-0.45082682371139526,0.9545900821685791,1.0731204748153687
1761915077584128300,4.330128173828125,-0.7422680258750916,1.1915267705917358,0.5723705887794495
1761915077594182400,4.340182373046875,-1.0644657611846924,1.0171536207199097,-0.17880703508853912
1761915077604237600,4.350237548828125,-1.294914960861206,0.30365362763404846,-1.0981206893920898
1761915077614291500,4.36029150390625,-1.4038374423980713,-0.772724986076355,-1.9515851736068726
1761915077624345600,4.370345703125,-1.4637383222579956,-1.6360043287277222,-2.4447362422943115
1761915077634400300,4.380400146484375,-1.5306129455566406,-1.7682095766067505,-2.488541603088379
1761915077644454400,4.390454345703125,-1.638701319694519,-1.0782444477081299,-2.3073906898498535
1761915077654509600,4.400509521484375,-1.577681064605713,-0.13268108665943146,-2.182790756225586
1761915077664563500,4.4105634765625,-1.296509861946106,0.5001480579376221,-2.240614414215088
1761915077674617600,4.42061767578125,-1.0599170923233032,0.6073972582817078,-2.333955764770508
1761915077684672300,4.43067236328125,-0.9467087388038635,0.42972901463508606,-2.301621437072754
1761915077694726400,4.440726318359375,-0.9595584869384766,0.30886462330818176,-2.1894919872283936
1761915077704780300,4.4507802734375,-1.0438004732131958,0.4362652003765106,-2.121086835861206
1761915077714835500,4.46083544921875,-1.1078100204467773,0.6826094388961792,-2.144718885421753
1761915077724889600,4.4708896484375,-1.0892059803009033,0.7802633047103882,-2.219733238220215
1761915077734943500,4.480943603515625,-0.9572170376777649,0.5712701678276062,-2.3069117069244385
1761915077744998400,4.490998291015625,-0.7081379890441895,0.11426611989736557,-2.3651435375213623
1761915077755052300,4.50105224609375,-0.5207763314247131,-0.21773818135261536,-2.2927424907684326
1761915077765106400,4.5111064453125,-0.43176817893981934,-0.24200251698493958,-2.0660102367401123
1761915077775161600,4.52116162109375,-0.40795767307281494,-0.06985338032245636,-1.7242069244384766
1761915077785215500,4.531215576171875,-0.38240277767181396,0.07651767879724503,-1.3096365928649902
1761915077795270400,4.5412705078125,-0.3597128987312317,0.11941587924957275,-0.8651670217514038
1761915077805324500,4.551324462890625,-0.36088043451309204,0.04553685709834099,-0.4681991636753082
1761915077815378400,4.56137841796875,-0.3133334219455719,-0.09146786481142044,-0.16049860417842865
1761915077825433600,4.57143359375,-0.17848585546016693,-0.24780553579330444,0.11770080029964447
1761915077835487500,4.581487548828125,0.003748132847249508,-0.4394897520542145,0.47702088952064514
1761915077845541400,4.591541259765625,0.16256015002727509,-0.5522682070732117,0.9755356311798096
1761915077855596500,4.601596435546875,0.22593939304351807,-0.4968520998954773,1.5879169702529907
1761915077865651500,4.6116513671875,0.23674117028713226,-0.29377809166908264,2.2314488887786865
1761915077875705600,4.62170556640625,0.25751328468322754,0.040815871208906174,2.8254456520080566
1761915077885760500,4.631760498046875,0.3284628391265869,0.412295937538147,3.286757230758667
1761915077895814400,4.641814453125,0.39659181237220764,0.7031051516532898,3.5593676567077637
1761915077905868500,4.65186865234375,0.4431944787502289,0.8370301723480225,3.6416869163513184
1761915077915923500,4.66192333984375,0.43964502215385437,0.8630812168121338,3.547445774078369
1761915077925977300,4.671977294921875,0.379903107881546,0.7645501494407654,3.281465768814087
1761915077936031200,4.68203125,0.2995792627334595,0.5428091883659363,2.8521668910980225
1761915077946086400,4.69208642578125,0.2082543969154358,0.21681620180606842,2.317892074584961
1761915077956140500,4.702140625,0.13415753841400146,-0.17953486740589142,1.7458064556121826
1761915077966194400,4.7121943359375,0.07698213309049606,-0.47435346245765686,1.2645593881607056
1761915077976249300,4.722249267578125,0.012672651559114456,-0.5562443137168884,0.9635372757911682
1761915077986303200,4.73230322265625,-0.06815322488546371,-0.46790754795074463,0.823979377746582
1761915077996358400,4.7423583984375,-0.11825047433376312,-0.37498798966407776,0.7913798689842224
1761915078006412500,4.75241259765625,-0.07508862763643265,-0.4185226857662201,0.8228845596313477
1761915078016466400,4.762466552734375,0.052372127771377563,-0.6124471426010132,0.895179808139801
1761915078026521300,4.772521240234375,0.2096797227859497,-0.8090251684188843,1.0361411571502686
1761915078036575500,4.782575439453125,0.3338109850883484,-0.781387448310852,1.2204828262329102
1761915078046629400,4.79262939453125,0.3739626705646515,-0.4106607735157013,1.3283942937850952
1761915078056684500,4.8026845703125,0.3121411204338074,0.09134216606616974,1.3168846368789673
1761915078066738400,4.812738525390625,0.19304774701595306,0.5421841740608215,1.1699367761611938
1761915078076792600,4.82279248046875,0.10761647671461105,0.8604212403297424,0.7967925071716309
1761915078086847500,4.832847412109375,0.04763436317443848,0.7787181735038757,0.20202313363552094
1761915078096901400,4.8429013671875,-0.009779660031199455,0.17837932705879211,-0.46129438281059265
1761915078106956500,4.85295654296875,-0.017076455056667328,-0.6896111965179443,-0.9846321940422058
1761915078117010400,4.863010498046875,0.04037245735526085,-1.569981336593628,-1.1050055027008057
1761915078127064600,4.873064697265625,0.15021958947181702,-1.879525899887085,-0.8264135122299194
1761915078137119500,4.883119384765625,0.2806122303009033,-1.4221261739730835,-0.39311960339546204
1761915078147173400,4.89317333984375,0.4404623508453369,-0.5633611083030701,-0.08888086676597595
1761915078157227500,4.9032275390625,0.5894014835357666,-0.006878145970404148,0.002251968951895833
1761915078167282400,4.913282470703125,0.6508145332336426,0.17879371345043182,-0.04182947054505348
1761915078177336600,4.923336669921875,0.6380025744438171,0.3046472370624542,-0.21782900393009186
1761915078187390200,4.93339013671875,0.46213221549987793,0.4827325642108917,-0.584815263748169
1761915078197445400,4.9434453125,0.07120546698570251,0.6010083556175232,-1.1511154174804688
1761915078207499500,4.95349951171875,-0.38344353437423706,0.5877833366394043,-1.7725965976715088
1761915078217554400,4.963554443359375,-0.6635886430740356,0.41982337832450867,-2.30753755569458
1761915078227608300,4.9736083984375,-0.7154169678688049,0.15107473731040955,-2.627565860748291
1761915078237662500,4.983662353515625,-0.6074036359786987,-0.10664974898099899,-2.62819766998291
1761915078247717400,4.99371728515625,-0.4656795561313629,-0.17530284821987152,-2.2326574325561523
1761915078257771500,5.003771484375,-0.393607497215271,0.12612970173358917,-1.5210849046707153
1761915078267825400,5.013825439453125,-0.4362042248249054,0.7537528872489929,-0.6388478875160217
1761915078277880300,5.02388037109375,-0.5183321237564087,1.4843615293502808,0.2668212950229645
1761915078287934500,5.0339345703125,-0.5271834135055542,2.0872256755828857,1.0486071109771729
1761915078297988400,5.04398828125,-0.4548551142215729,2.410186529159546,1.6066043376922607
1761915078308043500,5.05404345703125,-0.331926554441452,2.4052181243896484,1.9357799291610718
1761915078318097400,5.064097412109375,-0.19649522006511688,2.1525330543518066,2.040184259414673
1761915078328151600,5.074151611328125,-0.060328319668769836,1.7129390239715576,1.9298335313796997
1761915078338206500,5.08420654296875,0.03230174630880356,1.1532105207443237,1.6496222019195557
1761915078348260400,5.09426025390625,0.07654564082622528,0.5764800906181335,1.2687432765960693
1761915078358315500,5.1043154296875,0.08658948540687561,0.15792784094810486,0.8984363079071045
1761915078368369400,5.114369384765625,0.11257075518369675,-0.041192177683115005,0.648468554019928
1761915078378423600,5.124423583984375,0.14631539583206177,-0.04827485606074333,0.5640175938606262
1761915078388478500,5.134478515625,0.14028041064739227,0.12182790040969849,0.6532211899757385
1761915078398532400,5.144532470703125,0.0904071256518364,0.41043466329574585,0.847068190574646
1761915078408586500,5.15458642578125,0.07968337833881378,0.7068160176277161,1.0356229543685913
1761915078418641400,5.164641357421875,0.1594570279121399,0.8978205919265747,1.1773345470428467
1761915078428695600,5.174695556640625,0.2799179255962372,0.9992516040802002,1.2719275951385498
1761915078438750500,5.18475048828125,0.3933086693286896,1.0886198282241821,1.3107588291168213
1761915078448804400,5.194804443359375,0.46116840839385986,1.1130732297897339,1.2846769094467163
1761915078458858500,5.2048583984375,0.4476912319660187,0.983426034450531,1.217151165008545
1761915078468913700,5.21491357421875,0.37813690304756165,0.7822210192680359,1.114647388458252
1761915078478967600,5.224967529296875,0.2928915321826935,0.593930184841156,1.0061683654785156
1761915078489021400,5.235021484375,0.24116601049900055,0.43956273794174194,0.9309335350990295
1761915078499075800,5.245075927734375,0.2467501312494278,0.2471402883529663,0.8608633279800415
1761915078509130000,5.2551298828125,0.31095361709594727,-0.00935941282659769,0.7859752774238586
1761915078519184000,5.265183837890625,0.427866667509079,-0.2766838073730469,0.7457612752914429
1761915078529239000,5.275239013671875,0.5525745153427124,-0.38256070017814636,0.7644186019897461
1761915078539293000,5.28529296875,0.5679819583892822,-0.1881861537694931,0.8193718194961548
1761915078549346800,5.295346923828125,0.5055550336837769,0.26792144775390625,0.742097795009613
1761915078559402000,5.305402099609375,0.39700886607170105,0.6271403431892395,0.474044531583786
1761915078569455900,5.315455810546875,0.24892939627170563,0.6706023216247559,0.08463605493307114
1761915078579511000,5.325510986328125,0.11323574185371399,0.5704051852226257,-0.4227198362350464
1761915078589565000,5.33556494140625,0.02845401130616665,0.11330818384885788,-0.9858500361442566
1761915078599618800,5.345618896484375,-0.02389361523091793,-0.7611370086669922,-1.3086727857589722
1761915078609674000,5.355674072265625,-0.026326945051550865,-1.6176629066467285,-1.2244477272033691
1761915078619728000,5.365727783203125,0.0310460664331913,-1.8507704734802246,-0.9262918829917908
1761915078629782000,5.375781982421875,0.0889410600066185,-1.3914246559143066,-0.5733413100242615
1761915078639836700,5.385836669921875,0.12432541698217392,-0.5968684554100037,-0.2786148488521576
1761915078649890800,5.395890869140625,0.17330414056777954,0.08867047727108002,-0.07267500460147858
1761915078659945000,5.405945068359375,0.23568016290664673,0.5597946047782898,0.0021915151737630367
1761915078669999900,5.415999755859375,0.193948432803154,0.8917187452316284,-0.1789947897195816
1761915078680054000,5.426053955078125,-0.0893021821975708,1.0149182081222534,-0.5835252404212952
1761915078690109000,5.43610888671875,-0.5680271983146667,0.861191987991333,-1.0891873836517334
1761915078700162800,5.446162841796875,-1.006123661994934,0.4883401095867157,-1.6498357057571411
1761915078710217000,5.456217041015625,-1.183227777481079,-0.05915626510977745,-2.210345506668091
1761915078720272000,5.46627197265625,-1.028855323791504,-0.5344104170799255,-2.659406900405884
1761915078730326000,5.476325927734375,-0.7013450860977173,-0.7884323000907898,-2.8626739978790283
1761915078740380000,5.4863798828125,-0.5114794969558716,-0.8182240128517151,-2.7030186653137207
1761915078750434800,5.496434814453125,-0.5651912093162537,-0.5889471769332886,-2.220773696899414
1761915078760489000,5.506489013671875,-0.7518671154975891,-0.18238259851932526,-1.5345523357391357
1761915078770542800,5.51654296875,-0.8810282945632935,0.28473320603370667,-0.7892155051231384
1761915078780598000,5.526597900390625,-0.859320878982544,0.6924868822097778,-0.12785303592681885
1761915078790652000,5.53665185546875,-0.7593095898628235,0.8471406102180481,0.4018036127090454
1761915078800705800,5.546705810546875,-0.6353815197944641,0.678363561630249,0.7969147562980652
1761915078810761000,5.556760986328125,-0.4922957122325897,0.27026692032814026,1.0474377870559692
1761915078820814800,5.56681494140625,-0.3259458839893341,-0.2035890817642212,1.1698004007339478
1761915078830870000,5.5768701171875,-0.1621827781200409,-0.6351551413536072,1.186578392982483
1761915078840924000,5.586923828125,-0.020182766020298004,-1.008244514465332,1.1545172929763794
1761915078850977800,5.596977783203125,0.05928302928805351,-1.2780685424804688,1.1070393323898315
1761915078861033000,5.607032958984375,0.09130620956420898,-1.3489294052124023,1.0758142471313477
1761915078871086800,5.6170869140625,0.07403108477592468,-1.1593608856201172,1.0708882808685303
1761915078881141000,5.62714111328125,-0.004042678512632847,-0.7566434741020203,1.1003806591033936
1761915078891196000,5.63719580078125,-0.11160056293010712,-0.3074187934398651,1.1792410612106323
1761915078901249800,5.647249755859375,-0.16680017113685608,0.014057761989533901,1.2706284523010254
1761915078911304000,5.657303955078125,-0.18969403207302094,0.13263633847236633,1.329380989074707
1761915078921358800,5.66735888671875,-0.17285193502902985,0.11455054581165314,1.325424075126648
1761915078931413000,5.6774130859375,-0.11795087158679962,-0.012430038303136826,1.2483011484146118
1761915078941468000,5.687468017578125,-0.03730902075767517,-0.1937745362520218,1.1238234043121338
1761915078951521800,5.697521728515625,0.06024842709302902,-0.3993314206600189,0.9745747447013855
1761915078961576000,5.707575927734375,0.1575789749622345,-0.594520628452301,0.8317254185676575
1761915078971630800,5.717630859375,0.2354317009449005,-0.6767449378967285,0.6989900469779968
1761915078981685000,5.72768505859375,0.31433025002479553,-0.6763046979904175,0.5579748749732971
1761915078991739000,5.73773876953125,0.37071120738983154,-0.5818554162979126,0.4303777515888214
1761915079001793800,5.747793701171875,0.4024854004383087,-0.4813093841075897,0.35997122526168823
1761915079011848000,5.757847900390625,0.4369805157184601,-0.4878213405609131,0.4209357798099518
1761915079021901800,5.76790185546875,0.48763465881347656,-0.3929198682308197,0.5509414672851562
1761915079031957000,5.77795703125,0.5228512287139893,-0.13387444615364075,0.6251176595687866
1761915079042011000,5.788010986328125,0.560599684715271,0.10174340754747391,0.48959100246429443
1761915079052065800,5.798065673828125,0.6017180681228638,0.1532561331987381,0.17515504360198975
1761915079062120000,5.808119873046875,0.5933152437210083,0.06764855235815048,-0.17408524453639984
1761915079072173800,5.818173828125,0.5082933306694031,-0.08397293090820312,-0.5599426627159119
1761915079082229000,5.82822900390625,0.3723035156726837,-0.4702226221561432,-0.9050747752189636
1761915079092283100,5.838283203125,0.2927117645740509,-0.9759281277656555,-1.131157398223877
1761915079102336800,5.848336669921875,0.24409522116184235,-1.2328126430511475,-1.169228434562683
1761915079112392000,5.858391845703125,0.18755684792995453,-1.1531615257263184,-1.0498130321502686
1761915079122445800,5.86844580078125,0.1304221898317337,-0.800598680973053,-0.8603810667991638
1761915079132500000,5.8785,0.158774733543396,-0.30886703729629517,-0.6842001676559448
1761915079142555000,5.888554931640625,0.24299241602420807,0.07663299143314362,-0.5636976957321167
1761915079152608800,5.89860888671875,0.26622527837753296,0.18912145495414734,-0.571445643901825
1761915079162664000,5.908663818359375,0.16280809044837952,0.03900519013404846,-0.7150643467903137
1761915079172717800,5.9187177734375,-0.05557777360081673,-0.13417111337184906,-0.935753583908081
1761915079182772000,5.92877197265625,-0.3343510925769806,-0.15675579011440277,-1.192853331565857
1761915079192827000,5.938826904296875,-0.5552150011062622,-0.056601494550704956,-1.4530107975006104
1761915079202880800,5.948880859375,-0.6043255925178528,-0.019716447219252586,-1.701465368270874
1761915079212935000,5.958934814453125,-0.516077995300293,-0.07066644728183746,-1.8943722248077393
1761915079222989800,5.96898974609375,-0.3596614897251129,-0.15608440339565277,-1.9867315292358398
1761915079233044000,5.9790439453125,-0.21417327225208282,-0.229811891913414,-1.987924575805664
1761915079243097900,5.989097900390625,-0.24107946455478668,-0.22473856806755066,-1.927189588546753
1761915079253152800,5.99915283203125,-0.5035467743873596,-0.0795142650604248,-1.798604130744934
1761915079263207000,6.00920703125,-0.848193347454071,0.2140750139951706,-1.5430341958999634
1761915079273261800,6.01926171875,-1.05230712890625,0.5261626243591309,-1.1515252590179443
1761915079283316000,6.02931591796875,-1.0560299158096313,0.7167298793792725,-0.7347109913825989
1761915079293370000,6.0393701171875,-0.870903491973877,0.7037381529808044,-0.462276816368103
1761915079303424800,6.0494248046875,-0.5342897772789001,0.3317480981349945,-0.3586481809616089
1761915079313479000,6.05947900390625,-0.1214958056807518,-0.2746368944644928,-0.36809787154197693
1761915079323532800,6.06953271484375,0.27367308735847473,-0.890036940574646,-0.38520359992980957
1761915079333588000,6.079587890625,0.5686373710632324,-1.35940420627594,-0.3498339056968689
1761915079343642000,6.08964208984375,0.7556261420249939,-1.571295142173767,-0.23742960393428802
1761915079353695700,6.09969580078125,0.8369750380516052,-1.4972214698791504,-0.057258494198322296
1761915079363751000,6.1097509765625,0.8393247723579407,-1.1027628183364868,0.15390567481517792
1761915079373804800,6.1198046875,0.7644801139831543,-0.45564502477645874,0.37801867723464966
1761915079383860000,6.12985986328125,0.6521535515785217,0.22052544355392456,0.613129734992981
1761915079393914000,6.1399140625,0.5309197902679443,0.7350396513938904,0.8467680215835571
1761915079403967700,6.1499677734375,0.44659507274627686,1.0651658773422241,1.0818942785263062
1761915079414023000,6.16002294921875,0.4388551115989685,1.1826797723770142,1.2975655794143677
1761915079424076800,6.170076904296875,0.4821775555610657,1.1502717733383179,1.468721866607666
1761915079434131000,6.180130859375,0.5426387786865234,1.0501514673233032,1.590949535369873
1761915079444185900,6.190185791015625,0.5977049469947815,0.9576354622840881,1.6732704639434814
1761915079454239700,6.20023974609375,0.6621880531311035,0.8889314532279968,1.7068217992782593
1761915079464294000,6.2102939453125,0.7439711093902588,0.8930748105049133,1.6795358657836914
1761915079474348800,6.220348876953125,0.8285855650901794,0.9765129685401917,1.5546519756317139
1761915079484403000,6.23040283203125,0.8912345767021179,1.0627083778381348,1.3263282775878906
1761915079494457900,6.240457763671875,0.8816895484924316,1.1319518089294434,1.0283706188201904
1761915079504512500,6.250512451171875,0.7970470786094666,1.0974247455596924,0.7659270167350769
1761915079514566700,6.260566650390625,0.6872745156288147,0.8514565229415894,0.6393799781799316
1761915079524621800,6.270621826171875,0.5672109723091125,0.566735565662384,0.6127888560295105
1761915079534675700,6.28067578125,0.4502294957637787,0.4521501660346985,0.5937533378601074
1761915079544729600,6.2907294921875,0.36597320437431335,0.5474268794059753,0.5012034773826599
1761915079554784500,6.300784423828125,0.3500056862831116,0.7901074290275574,0.32818931341171265
1761915079564838700,6.310838623046875,0.37159937620162964,1.1414852142333984,0.0803651437163353
1761915079574892800,6.320892822265625,0.3904055655002594,1.6049782037734985,-0.32088375091552734
1761915079584947700,6.33094775390625,0.38549256324768066,1.6827614307403564,-0.8410475850105286
1761915079595001600,6.341001708984375,0.36519289016723633,0.9198790192604065,-1.2685134410858154
1761915079605056800,6.351056884765625,0.33944863080978394,-0.20865227282047272,-1.5231877565383911
1761915079615110700,6.361110595703125,0.37847328186035156,-1.0054363012313843,-1.7127488851547241
1761915079625164800,6.371164794921875,0.4562133252620697,-1.3019405603408813,-1.9376193284988403
1761915079635219500,6.381219482421875,0.45895373821258545,-1.094001054763794,-2.133986234664917
1761915079645273600,6.391273681640625,0.48145052790641785,-0.5816631317138672,-2.224074363708496
1761915079655327500,6.401327392578125,0.536916196346283,-0.04842132702469826,-2.1618335247039795
1761915079665382700,6.411382568359375,0.5232115387916565,0.27935361862182617,-1.9980133771896362
1761915079675436800,6.421436767578125,0.39256006479263306,0.35639193654060364,-1.7704417705535889
1761915079685490700,6.43149072265625,0.17024336755275726,0.2542743682861328,-1.5439960956573486
1761915079695545600,6.441545654296875,-0.059843093156814575,0.02208160050213337,-1.3388738632202148
1761915079705599500,6.451599609375,-0.25254517793655396,-0.27048981189727783,-1.153781533241272
1761915079715654700,6.461654541015625,-0.37248143553733826,-0.5550384521484375,-0.9623561501502991
1761915079725708800,6.471708740234375,-0.4109973907470703,-0.7147071957588196,-0.7965264320373535
1761915079735762700,6.4817626953125,-0.43227365612983704,-0.7116576433181763,-0.6616314649581909
1761915079745817600,6.491817626953125,-0.5039185285568237,-0.5432577133178711,-0.562780499458313
1761915079755871500,6.50187158203125,-0.6780088543891907,-0.17886242270469666,-0.46389976143836975
1761915079765925600,6.511925537109375,-0.8928255438804626,0.29953718185424805,-0.2860586643218994
1761915079775980800,6.521980712890625,-1.0137120485305786,0.6635492444038391,-0.0046485476195812225
1761915079786034700,6.53203466796875,-0.9974166750907898,0.8691311478614807,0.331820011138916
1761915079796088600,6.542088623046875,-0.8678645491600037,0.9630818963050842,0.7056993246078491
1761915079806143700,6.552143798828125,-0.6199157238006592,0.9731858968734741,1.0766198635101318
1761915079816197600,6.56219775390625,-0.27786436676979065,0.9223299026489258,1.3683228492736816
1761915079826252800,6.572252685546875,0.0915064811706543,0.7823163270950317,1.5012750625610352
1761915079836306700,6.582306640625,0.38786277174949646,0.5652082562446594,1.440184235572815
1761915079846360600,6.592360595703125,0.5728001594543457,0.3319534361362457,1.246293067932129
1761915079856415700,6.602415771484375,0.6398172378540039,0.12404045462608337,1.0191880464553833
1761915079866469600,6.6124697265625,0.6116932034492493,-0.022600118070840836,0.8404036164283752
1761915079876523800,6.622523681640625,0.526602029800415,-0.13381612300872803,0.7507919669151306
1761915079886578400,6.632578369140625,0.41838473081588745,-0.1824992448091507,0.7782952189445496
1761915079896632600,6.642632568359375,0.3229010999202728,-0.15078018605709076,0.9215897917747498
1761915079906686500,6.6526865234375,0.253215491771698,0.0009097357979044318,1.1630748510360718
1761915079916741600,6.66274169921875,0.21690860390663147,0.24581216275691986,1.4649063348770142
1761915079926795800,6.672795654296875,0.22981294989585876,0.49078303575515747,1.7695627212524414
1761915079936850400,6.682850341796875,0.27829980850219727,0.6909267902374268,2.0241878032684326
1761915079946904600,6.692904541015625,0.36794713139533997,0.8375462889671326,2.2014012336730957
1761915079956958500,6.70295849609375,0.47318512201309204,0.9281731247901917,2.295341968536377
1761915079967013600,6.713013671875,0.5674149394035339,0.9973913431167603,2.2862887382507324
1761915079977067800,6.72306787109375,0.6564177870750427,1.0493669509887695,2.1860084533691406
1761915079987121700,6.73312158203125,0.7210575342178345,1.0040098428726196,2.019798517227173
1761915079997176600,6.743176513671875,0.7559283971786499,0.728712797164917,1.7831504344940186
1761915080007230700,6.753230712890625,0.7513980865478516,0.3360120952129364,1.4856425523757935
1761915080017284600,6.76328466796875,0.7297964096069336,0.02526514232158661,1.17522132396698
1761915080027339800,6.77333984375,0.7037368416786194,-0.12163455784320831,0.8944774866104126
1761915080037393700,6.7833935546875,0.665360152721405,-0.12156504392623901,0.6800943613052368
1761915080047448600,6.793448486328125,0.6062957644462585,-0.01950339414179325,0.5298182964324951
1761915080057502700,6.803502685546875,0.5485554933547974,0.1299782395362854,0.38849449157714844
1761915080067556600,6.813556640625,0.4800845980644226,0.18123503029346466,0.14550712704658508
1761915080077611800,6.82361181640625,0.41354817152023315,0.020145215094089508,-0.1642688363790512
1761915080087665700,6.833665771484375,0.3588218092918396,-0.09321862459182739,-0.557776153087616
1761915080097719600,6.843719482421875,0.3131485879421234,0.21788546442985535,-1.1289429664611816
1761915080107774700,6.853774658203125,0.3323228061199188,0.3565083146095276,-1.7349317073822021
1761915080117828600,6.86382861328125,0.40876567363739014,-0.25265783071517944,-2.0346081256866455
1761915080127882800,6.8738828125,0.4052430987358093,-0.9482717514038086,-1.9322738647460938
1761915080137937700,6.883937744140625,0.3177585303783417,-1.4553070068359375,-1.4622684717178345
1761915080147991600,6.893991455078125,0.17309002578258514,-1.7646363973617554,-0.810002326965332
1761915080158046700,6.904046630859375,0.07284943759441376,-1.7403056621551514,-0.35094577074050903
1761915080168100600,6.9141005859375,0.04831799864768982,-1.363525152206421,-0.20364554226398468
1761915080178154800,6.92415478515625,0.047560062259435654,-0.6499806642532349,-0.27128317952156067
1761915080188209400,6.93420947265625,-0.005331648513674736,0.28122103214263916,-0.4618730843067169
1761915080198263600,6.944263671875,-0.133950337767601,1.035577654838562,-0.6646704077720642
1761915080208317700,6.954317626953125,-0.28751140832901,1.4025620222091675,-0.8532413840293884
1761915080218372600,6.96437255859375,-0.5018466114997864,1.3470503091812134,-0.9994696974754333
1761915080228426800,6.9744267578125,-0.7478592991828918,0.9113715291023254,-1.0882357358932495
1761915080238480600,6.984480712890625,-0.9138339161872864,0.3071764409542084,-1.1493515968322754
1761915080248535600,6.99453564453125,-0.9538782238960266,-0.29271015524864197,-1.1601089239120483
1761915080258589700,7.004589599609375,-0.8702483177185059,-0.7378833889961243,-1.0797024965286255
1761915080268643600,7.0146435546875,-0.762413740158081,-0.9733651280403137,-0.9205613136291504
1761915080278698800,7.02469873046875,-0.742982804775238,-0.955410361289978,-0.7033877372741699
1761915080288752600,7.034752685546875,-0.8674400448799133,-0.5911277532577515,-0.4332859218120575
1761915080298807600,7.0448076171875,-1.1203343868255615,0.11207673698663712,-0.09179490059614182
1761915080308861700,7.05486181640625,-1.3657859563827515,0.977003276348114,0.3423488140106201
1761915080318915600,7.06491552734375,-1.404982089996338,1.7420353889465332,0.7885569334030151
1761915080328970800,7.074970703125,-1.200793743133545,2.188490867614746,1.1127387285232544
1761915080339024600,7.085024658203125,-0.926799476146698,2.2211077213287354,1.1761126518249512
1761915080349078500,7.09507861328125,-0.731402575969696,1.840975284576416,0.94106525182724
1761915080359133700,7.1051337890625,-0.566504180431366,1.1748907566070557,0.4733150899410248
1761915080369187600,7.1151875,-0.3590596318244934,0.32404571771621704,-0.09747062623500824
1761915080379241700,7.12524169921875,-0.09217572957277298,-0.43743300437927246,-0.6145952343940735
1761915080389296600,7.135296630859375,0.2344239503145218,-0.8333297371864319,-0.9902533292770386
1761915080399350500,7.1453505859375,0.573820948600769,-0.7676657438278198,-1.1699367761611938
1761915080409405700,7.15540576171875,0.7534958720207214,-0.33225730061531067,-1.096840500831604
1761915080419459600,7.16545947265625,0.7620931267738342,0.4047709107398987,-0.7903508543968201
1761915080429513700,7.175513671875,0.7116930484771729,1.1090856790542603,-0.27551332116127014
1761915080439568600,7.185568603515625,0.5806399583816528,1.5004312992095947,0.3472362458705902
1761915080449622500,7.19562255859375,0.4760533571243286,1.6137608289718628,0.8871980309486389
1761915080459676700,7.2056767578125,0.4647596776485443,1.580810308456421,1.2462283372879028
1761915080469731600,7.215731689453125,0.5123226642608643,1.5295953750610352,1.4127507209777832
1761915080479785700,7.22578564453125,0.5343899130821228,1.434289574623108,1.4123603105545044
1761915080489839600,7.235839599609375,0.5301496386528015,1.3040117025375366,1.265489935874939
1761915080499897600,7.245897705078125,0.5205683708190918,1.124483585357666,0.9899734258651733
1761915080509951200,7.255951171875,0.513974666595459,0.9775460362434387,0.6398193836212158
1761915080520006400,7.26600634765625,0.4899404048919678,0.8323877453804016,0.27303552627563477
1761915080530060300,7.276060302734375,0.4657040536403656,0.7254104614257812,-0.03449539095163345
1761915080540114400,7.286114501953125,0.45767754316329956,0.6179492473602295,-0.22462299466133118
1761915080550169300,7.29616943359375,0.5066424012184143,0.5237396359443665,-0.3017958104610443
1761915080560223200,7.30622314453125,0.5796868205070496,0.4437241852283478,-0.32527822256088257
1761915080570277400,7.31627734375,0.626646876335144,0.38312289118766785,-0.41878873109817505
1761915080580332500,7.32633251953125,0.6136221289634705,0.248660147190094,-0.6758593916893005
1761915080590386400,7.336386474609375,0.5036072134971619,0.03430497646331787,-0.9327538013458252
1761915080600440600,7.346440673828125,0.30016276240348816,-0.34433713555336,-0.9869728088378906
1761915080610495200,7.3564951171875,0.1723022609949112,-0.6030280590057373,-0.9489724636077881
1761915080620549400,7.36654931640625,0.26743170619010925,-0.846697986125946,-0.810084879398346
1761915080630604500,7.3766044921875,0.5038642287254333,-1.0176963806152344,-0.6527903079986572
1761915080640658400,7.386658447265625,0.7115042209625244,-1.1052658557891846,-0.42371612787246704
1761915080650712600,7.396712646484375,0.6708856821060181,-1.1795904636383057,0.043645747005939484
1761915080660767200,7.406767333984375,0.4364335238933563,-1.18567955493927,0.6786999702453613
1761915080670821400,7.4168212890625,0.15381433069705963,-0.9823650121688843,1.161030888557434
1761915080680875300,7.426875244140625,-0.07051011919975281,-0.8174154758453369,1.3668330907821655
1761915080690930400,7.436930419921875,-0.16111911833286285,-0.6347910761833191,1.282015085220337
1761915080700984600,7.446984619140625,-0.14311347901821136,-0.40667295455932617,0.9526910185813904
1761915080711038500,7.45703857421875,-0.06964273005723953,-0.37537387013435364,0.4880216121673584
1761915080721093400,7.46709326171875,0.00726563623175025,-0.5964359641075134,-0.057142648845911026
1761915080731147300,7.477147216796875,-0.04952201247215271,-0.9694071412086487,-0.5801515579223633
1761915080741202400,7.487202392578125,-0.2996370494365692,-1.303611159324646,-0.9580037593841553
1761915080751256600,7.497256591796875,-0.6467334628105164,-1.5757921934127808,-1.1080390214920044
1761915080761310500,7.507310546875,-0.9340614080429077,-1.7372993230819702,-1.0474447011947632
1761915080771365400,7.517365478515625,-1.0686479806900024,-1.6769616603851318,-0.867473304271698
1761915080781419500,7.52741943359375,-1.1007345914840698,-1.364722490310669,-0.6163007616996765
1761915080791473400,7.537473388671875,-1.0671789646148682,-0.818297803401947,-0.4206089973449707
1761915080801528600,7.547528564453125,-0.9949367642402649,-0.1955588459968567,-0.33008256554603577
1761915080811582200,7.557582275390625,-0.8991550803184509,0.34847408533096313,-0.32204967737197876
1761915080821636400,7.56763623046875,-0.801791787147522,0.6989748477935791,-0.36389246582984924
1761915080831691500,7.57769140625,-0.6849488019943237,0.7400850057601929,-0.3985162079334259
1761915080841745400,7.587745361328125,-0.5456870198249817,0.4297487139701843,-0.3737805187702179
1761915080851800300,7.59780029296875,-0.4184121787548065,-0.10638795793056488,-0.2917378544807434
1761915080861854200,7.607854248046875,-0.28545892238616943,-0.5783685445785522,-0.1714138239622116
1761915080871908400,7.617908447265625,-0.17023324966430664,-0.8196560144424438,-0.03404398635029793
1761915080881963500,7.627963623046875,-0.11861186474561691,-0.7807748913764954,0.135558620095253
1761915080892017400,7.638017333984375,-0.0570230707526207,-0.579363226890564,0.3681604564189911
1761915080902071600,7.648071533203125,0.043717119842767715,-0.25451457500457764,0.6125842928886414
1761915080912126200,7.658126220703125,0.19930271804332733,0.10722019523382187,0.8237247467041016
1761915080922180400,7.668180419921875,0.20386897027492523,0.19876448810100555,1.0712612867355347
1761915080932234200,7.678234130859375,0.1403656303882599,0.3054906725883484,1.2138667106628418
1761915080942289400,7.688289306640625,0.0814296081662178,0.3433040976524353,1.2461493015289307
1761915080952343600,7.698343505859375,0.062009308487176895,0.3402332067489624,1.1955095529556274
1761915080962398200,7.708398193359375,0.10239188373088837,0.32111623883247375,1.0691920518875122
1761915080972452400,7.718452392578125,0.16159687936306,0.2866126000881195,0.8945539593696594
1761915080982506500,7.728506591796875,0.2128656655550003,0.23920539021492004,0.7135093212127686
1761915080992561400,7.7385615234375,0.21857547760009766,0.23790231347084045,0.5504370331764221
1761915081002615600,7.748615478515625,0.17821474373340607,0.26787325739860535,0.41479238867759705
1761915081012669400,7.75866943359375,0.12956412136554718,0.35752245783805847,0.2937602400779724
1761915081022724400,7.768724365234375,0.11718201637268066,0.40043264627456665,0.22416067123413086
1761915081032778500,7.778778564453125,0.17052939534187317,0.2791333794593811,0.25380590558052063
1761915081042832400,7.788832275390625,0.2813864052295685,-0.01661546155810356,0.3545074760913849
1761915081052887600,7.798887451171875,0.38279691338539124,-0.34870845079421997,0.4747324287891388
1761915081062941400,7.80894140625,0.47093528509140015,-0.45850205421447754,0.5778540372848511
1761915081072996400,7.818996337890625,0.4965602159500122,-0.32798346877098083,0.667980432510376
1761915081083050500,7.829050537109375,0.4664776921272278,-0.1230873093008995,0.7004364132881165
1761915081093104400,7.8391044921875,0.3811154067516327,0.0958695337176323,0.5942679047584534
1761915081103159600,7.84915966796875,0.30267810821533203,0.46133431792259216,0.23575447499752045
1761915081113213200,7.859213134765625,0.2925269305706024,1.0648316144943237,-0.4451364576816559
1761915081123267300,7.869267333984375,0.3585893213748932,1.0452747344970703,-1.0311565399169922
1761915081133322500,7.879322509765625,0.4649759531021118,0.048713743686676025,-1.1155731678009033
1761915081143376400,7.88937646484375,0.5084190368652344,-1.154982328414917,-0.7102243304252625
1761915081153430500,7.899430419921875,0.4630291759967804,-1.646996259689331,-0.2323078066110611
1761915081163485200,7.909485107421875,0.4087070822715759,-1.4125036001205444,-0.08225226402282715
1761915081173539300,7.919539306640625,0.3836967945098877,-0.7526077032089233,-0.28295233845710754
1761915081183594500,7.929594482421875,0.3358802795410156,0.014037787914276123,-0.6268439292907715
1761915081193648400,7.9396484375,0.1890985518693924,0.5793980956077576,-0.9496733546257019
1761915081203702500,7.94970263671875,0.002897785510867834,0.7948952317237854,-1.1760815382003784
1761915081213757400,7.95975732421875,-0.20263752341270447,0.6263073086738586,-1.280503749847412
1761915081223811300,7.969811279296875,-0.3959691822528839,0.1506132036447525,-1.3094440698623657
1761915081233865500,7.979865478515625,-0.5009347200393677,-0.3510996997356415,-1.3268723487854004
1761915081243920400,7.98992041015625,-0.5441429018974304,-0.6349343657493591,-1.35679292678833
1761915081253974500,7.999974609375,-0.5570768117904663,-0.6685301065444946,-1.3435178995132446
1761915081264028400,8.0100283203125,-0.4968057870864868,-0.6104191541671753,-1.2053240537643433
1761915081274083300,8.020083251953125,-0.4149348735809326,-0.5297541618347168,-0.9508858919143677
1761915081284136200,8.03013623046875,-0.4117785096168518,-0.4619484543800354,-0.6359021663665771
1761915081294191400,8.04019140625,-0.5819752812385559,-0.191912442445755,-0.2851864695549011
1761915081304245500,8.05024560546875,-0.7957056760787964,0.23014132678508759,0.11913277953863144
1761915081314299400,8.06029931640625,-0.824801504611969,0.5848080515861511,0.5577988028526306
1761915081324354300,8.070354248046876,-0.5952314138412476,0.7773210406303406,0.9386822581291199
1761915081334408200,8.080408203125,-0.1502707302570343,0.8152391314506531,1.1393450498580933
1761915081344463400,8.09046337890625,0.3427749276161194,0.6398212313652039,1.066672921180725
1761915081354517500,8.100517578125,0.678368091583252,0.23014532029628754,0.7109715938568115
1761915081364571400,8.1105712890625,0.8081149458885193,-0.26682451367378235,0.16441744565963745
1761915081374626300,8.120626220703125,0.7543236017227173,-0.6723669171333313,-0.3330346941947937
1761915081384680400,8.130680419921875,0.598861813545227,-0.9021940231323242,-0.6153396368026733
1761915081394734300,8.140734375,0.3799145817756653,-0.9199735522270203,-0.6034755110740662
1761915081404789500,8.15078955078125,0.13339613378047943,-0.6362709999084473,-0.32446250319480896
1761915081414843400,8.160843505859376,-0.07367608696222305,-0.08370208740234375,0.12184014916419983
1761915081424897500,8.1708974609375,-0.1673320084810257,0.5591660737991333,0.6125866770744324
1761915081434952400,8.180952392578124,-0.13187867403030396,1.0958516597747803,1.0497124195098877
1761915081445006300,8.19100634765625,-0.013908091932535172,1.438899278640747,1.3471405506134033
1761915081455061500,8.2010615234375,0.11579743772745132,1.5030561685562134,1.4740463495254517
1761915081465115400,8.211115478515625,0.186327263712883,1.2853158712387085,1.389617681503296
1761915081475169500,8.22116943359375,0.19792692363262177,0.8914763927459717,1.1213537454605103
1761915081485224400,8.231224365234375,0.17573480308055878,0.4622075855731964,0.7741942405700684
1761915081495278300,8.2412783203125,0.13332103192806244,0.0843292623758316,0.45075279474258423
1761915081505329700,8.25132958984375,0.1136980727314949,-0.20212221145629883,0.2097092866897583
1761915081515384600,8.261384521484375,0.15779602527618408,-0.3084542453289032,0.11157126724720001
1761915081525438500,8.2714384765625,0.27227121591567993,-0.22694073617458344,0.1901363879442215
1761915081535492600,8.28149267578125,0.4416791498661041,-0.056778062134981155,0.3805167078971863
1761915081545547500,8.291547607421874,0.6035537719726562,0.14074672758579254,0.6077256202697754
1761915081555601700,8.3016015625,0.6793841123580933,0.32574427127838135,0.8043023347854614
1761915081565656600,8.311656494140625,0.6650176644325256,0.43165794014930725,0.9312280416488647
1761915081575710500,8.32171044921875,0.553202748298645,0.42168039083480835,0.9720298051834106
1761915081585764600,8.3317646484375,0.3658035397529602,0.33727604150772095,0.9073246121406555
1761915081595819500,8.341819580078125,0.18685057759284973,0.1776871681213379,0.7829011678695679
1761915081605873700,8.351873779296875,0.06955643743276596,0.08381474018096924,0.5771269798278809
1761915081615927600,8.361927490234375,0.01581917703151703,0.4040026068687439,0.11000719666481018
1761915081625982500,8.371982421875,0.007950867526233196,0.6033828258514404,-0.5527853965759277
1761915081636036600,8.38203662109375,-0.010508833453059196,-0.03958575800061226,-0.8643140196800232
1761915081646090500,8.392090576171874,-0.11250124126672745,-0.7246469259262085,-0.7365866899490356
1761915081656145700,8.402145751953125,-0.2309165745973587,-0.6104263663291931,-0.45388519763946533
1761915081666199800,8.41219970703125,-0.3555549085140228,-0.1107771173119545,-0.12640587985515594
1761915081676254500,8.42225439453125,-0.4381890594959259,0.3063330352306366,0.06783363968133926
1761915081686308600,8.43230859375,-0.4752677381038666,0.684116780757904,0.041856635361909866
1761915081696362500,8.442362548828125,-0.5261631011962891,1.1481600999832153,-0.22477293014526367
1761915081706417700,8.452417724609376,-0.650560200214386,1.3982594013214111,-0.5714725255966187
1761915081716471600,8.462471435546876,-0.78692626953125,1.1359186172485352,-0.8723482489585876
1761915081726525400,8.472525390625,-0.8438819646835327,0.4493706226348877,-1.1714712381362915
1761915081736580600,8.48258056640625,-0.8081298470497131,-0.3072662055492401,-1.4337002038955688
1761915081746634500,8.492634521484375,-0.7353642582893372,-0.7693523168563843,-1.553286075592041
1761915081756688600,8.502688720703125,-0.7005040645599365,-0.9586617946624756,-1.4293906688690186
1761915081766743600,8.51274365234375,-0.6928170919418335,-0.9174147844314575,-1.0623801946640015
1761915081776797400,8.52279736328125,-0.6496528387069702,-0.7187442779541016,-0.6060923337936401
1761915081786852600,8.5328525390625,-0.6099768280982971,-0.3692914843559265,-0.17413824796676636
1761915081796906500,8.542906494140626,-0.630168080329895,0.16446244716644287,0.22904036939144135
1761915081806960600,8.552960693359376,-0.6693810224533081,0.800667405128479,0.6400987505912781
1761915081817015600,8.563015625,-0.5766611695289612,1.2087284326553345,1.0158026218414307
1761915081827069400,8.5730693359375,-0.2715180516242981,1.21805739402771,1.2132868766784668
1761915081837123600,8.58312353515625,0.1257733702659607,0.7884083390235901,1.12726891040802
1761915081847178500,8.593178466796875,0.4890786111354828,0.11743900924921036,0.7829073071479797
1761915081857234400,8.603234375,0.734322190284729,-0.5090717673301697,0.3454311788082123
1761915081867289600,8.61328955078125,0.8437895774841309,-0.9138352274894714,-0.0024623586796224117
1761915081877343700,8.62334375,0.8713018894195557,-1.1116210222244263,-0.18678106367588043
1761915081887398400,8.6333984375,0.849018931388855,-1.1096630096435547,-0.16138222813606262
1761915081897452500,8.64345263671875,0.7784659266471863,-0.9285047054290771,0.03921984136104584
1761915081907506400,8.65350634765625,0.675447404384613,-0.5984416007995605,0.31952711939811707
1761915081917561600,8.6635615234375,0.5687683820724487,-0.2324630618095398,0.5934665203094482
1761915081927615700,8.67361572265625,0.481550931930542,0.06295579671859741,0.7625996470451355
1761915081937669600,8.683669677734375,0.4228833317756653,0.2625107169151306,0.830264687538147
1761915081947724500,8.693724609375,0.4027746021747589,0.33439821004867554,0.8434063196182251
1761915081957778400,8.7037783203125,0.39492067694664,0.2453487664461136,0.8049619793891907
1761915081967832600,8.71383251953125,0.38074707984924316,0.05594822019338608,0.7235174775123596
1761915081977887700,8.7238876953125,0.3491089940071106,-0.1607484072446823,0.6252747774124146
1761915081987941400,8.73394140625,0.2943645119667053,-0.3301624655723572,0.5644657611846924
1761915081997996500,8.74399658203125,0.2514737844467163,-0.4002600610256195,0.5861234068870544
1761915082008050700,8.75405078125,0.267932653427124,-0.32045045495033264,0.6931204199790955
1761915082018104600,8.7641044921875,0.3416774272918701,-0.14782407879829407,0.8671947717666626
1761915082028159700,8.77415966796875,0.448637992143631,-0.025780729949474335,1.068590760231018
1761915082038213400,8.78421337890625,0.5679105520248413,0.049863964319229126,1.2005311250686646
1761915082048267500,8.794267578125,0.6251533627510071,0.15687324106693268,1.22221839427948
1761915082058322700,8.80432275390625,0.5953078269958496,0.3040464520454407,1.137873649597168
1761915082068376600,8.81437646484375,0.49571362137794495,0.4775111675262451,0.9365794062614441
1761915082078430700,8.8244306640625,0.3915829360485077,0.5388602614402771,0.6901699304580688
1761915082088485400,8.8344853515625,0.2886909246444702,0.39274781942367554,0.43477994203567505
1761915082098539500,8.84453955078125,0.2503983974456787,0.14454039931297302,0.02219931222498417
1761915082108594700,8.8545947265625,0.29247286915779114,-0.19357478618621826,-0.5430899262428284
1761915082118648600,8.864648681640626,0.2688431739807129,-0.7788515686988831,-0.8815047144889832
1761915082128702700,8.87470263671875,0.029809294268488884,-1.3931211233139038,-0.6243064999580383
1761915082138757400,8.88475732421875,-0.29508036375045776,-1.4216084480285645,-0.028662271797657013
1761915082148811500,8.8948115234375,-0.5046378374099731,-0.8976016640663147,0.6103839874267578
1761915082158865400,8.904865478515624,-0.5867412686347961,-0.16167810559272766,1.1040579080581665
1761915082168920600,8.914920654296875,-0.5152614712715149,0.5510091185569763,1.3180556297302246
1761915082178974700,8.924974609375,-0.3814370930194855,1.1966125965118408,1.2227693796157837
1761915082189028600,8.935028564453125,-0.3401772677898407,1.684493064880371,0.8924100995063782
1761915082199083500,8.94508349609375,-0.447563111782074,1.6356607675552368,0.48296505212783813
1761915082209137700,8.9551376953125,-0.6305617094039917,1.1022956371307373,0.02070714347064495
1761915082219192600,8.965192626953124,-0.8190162777900696,0.3181651830673218,-0.49346163868904114
1761915082229246700,8.975246826171874,-0.9680915474891663,-0.5121226906776428,-1.0139710903167725
1761915082239300600,8.985300537109374,-1.0095285177230835,-1.2004611492156982,-1.4642589092254639
1761915082249355500,8.99535546875,-0.9105685949325562,-1.6526501178741455,-1.7385210990905762
1761915082259409700,9.00540966796875,-0.8084757924079895,-1.744515061378479,-1.7756136655807495
1761915082269463600,9.015463623046875,-0.8886585235595703,-1.321519374847412,-1.5389102697372437
1761915082279518700,9.025518798828125,-1.0939255952835083,-0.42199331521987915,-1.049009084701538
1761915082289572400,9.035572265625,-1.2101722955703735,0.5166599154472351,-0.3627784550189972
1761915082299626500,9.04562646484375,-1.116719365119934,1.1816701889038086,0.3677116930484772
1761915082309681700,9.055681640625,-0.7909346222877502,1.5710886716842651,0.9720867872238159
1761915082319735600,9.065735595703124,-0.2760060131549835,1.5270895957946777,1.3219138383865356
1761915082329790700,9.075790771484375,0.27880606055259705,1.0523310899734497,1.3717612028121948
1761915082339844400,9.08584423828125,0.7107284665107727,0.35703936219215393,1.1676478385925293
1761915082349898500,9.0958984375,0.9870391488075256,-0.3132937252521515,0.8248968124389648
1761915082359953700,9.10595361328125,1.1083253622055054,-0.790204644203186,0.44790321588516235
1761915082370007600,9.116007568359375,1.0916779041290283,-0.9551272988319397,0.14837561547756195
1761915082380061700,9.126061767578125,0.991644024848938,-0.8607421517372131,-0.03581472113728523
1761915082390116400,9.136116455078126,0.8181017637252808,-0.5371124744415283,-0.08700574189424515
1761915082400170500,9.14617041015625,0.6361977458000183,-0.14596226811408997,-0.00646801944822073
1761915082410224600,9.156224609375,0.4759944975376129,0.1938275247812271,0.16735969483852386
1761915082420279600,9.166279541015625,0.3485039174556732,0.3423994183540344,0.3696366250514984
1761915082430333700,9.176333740234375,0.2892528474330902,0.25484639406204224,0.6184776425361633
1761915082440388600,9.186388671875,0.31294485926628113,-0.01943947747349739,0.9031407833099365
1761915082450442500,9.1964423828125,0.4094602167606354,-0.29954543709754944,1.0775543451309204
1761915082460496600,9.20649658203125,0.5279466509819031,-0.4548490047454834,1.1047953367233276
1761915082470551600,9.216551513671876,0.6617617011070251,-0.4928794801235199,1.0396517515182495
1761915082480605700,9.226605712890626,0.8041777014732361,-0.5719953179359436,0.9249935746192932
1761915082490659600,9.23665966796875,0.885780394077301,-0.7058543562889099,0.7714948654174805
1761915082500714200,9.24671435546875,0.887637197971344,-0.8546395301818848,0.5960002541542053
1761915082510768000,9.25676806640625,0.8673468232154846,-0.9255741834640503,0.4050990343093872
1761915082520822300,9.266822265625,0.8456628322601318,-0.8957712650299072,0.28680381178855896
1761915082530877400,9.27687744140625,0.7824284434318542,-0.8991633653640747,0.3503021001815796
1761915082540931300,9.286931396484375,0.6539511680603027,-0.9290962219238281,0.5713433623313904
1761915082550986200,9.296986328125,0.5158225893974304,-0.958843469619751,0.7733942270278931
1761915082561040100,9.3070400390625,0.39983662962913513,-0.8883309364318848,0.8034924864768982
1761915082571094300,9.31709423828125,0.3825971782207489,-0.6113954782485962,0.6466528177261353
1761915082581149400,9.3271494140625,0.4614664316177368,-0.10141424089670181,0.40234825015068054
1761915082591203300,9.337203369140624,0.5595477223396301,0.4822228252887726,0.14305409789085388
1761915082601257200,9.34725732421875,0.5529689192771912,0.8164447546005249,-0.10493094474077225
1761915082611312400,9.3573125,0.40535494685173035,0.5685388445854187,-0.26867514848709106
1761915082621366300,9.3673662109375,0.15914544463157654,0.05107809603214264,-0.3112737238407135
1761915082631420400,9.37742041015625,-0.047208789736032486,-0.23937582969665527,-0.30542489886283875
1761915082641475300,9.387475341796875,-0.07044380903244019,-0.36368128657341003,-0.25439074635505676
1761915082651529200,9.397529296875,0.010094977915287018,-0.3018661141395569,-0.16370877623558044
1761915082661584400,9.40758447265625,0.059665992856025696,0.05754159018397331,-0.11297555267810822
1761915082671638300,9.41763818359375,0.036915939301252365,0.5246847867965698,-0.1522635668516159
1761915082681692400,9.4276923828125,-0.09539815783500671,0.9487553834915161,-0.28183168172836304
1761915082691747000,9.4377470703125,-0.34765198826789856,1.216030478477478,-0.45759180188179016
1761915082701801200,9.44780126953125,-0.6172312498092651,1.3809927701950073,-0.636738121509552
1761915082711855000,9.457855224609375,-0.8170841932296753,1.4434013366699219,-0.8042890429496765
1761915082721910300,9.46791015625,-0.8811310529708862,1.3365355730056763,-0.9163020849227905
1761915082731964400,9.47796435546875,-0.8176090717315674,0.9496917724609375,-0.9497503638267517
1761915082742018300,9.488018310546876,-0.717589795589447,0.5333917737007141,-0.9781452417373657
1761915082752073200,9.4980732421875,-0.6492205858230591,0.3043425977230072,-1.03865385055542
1761915082762127000,9.508127197265624,-0.6146929860115051,0.22318542003631592,-1.0498020648956299
1761915082772182300,9.518182373046875,-0.6172459125518799,0.12412328273057938,-0.9272831082344055
1761915082782236400,9.528236328125,-0.6750367879867554,0.07093649357557297,-0.723783552646637
1761915082792290300,9.538290283203125,-0.6576380729675293,0.12745170295238495,-0.5426768660545349
1761915082802345200,9.54834521484375,-0.5145229697227478,0.159074068069458,-0.3775952160358429
1761915082812399400,9.5583994140625,-0.32701221108436584,0.07379060238599777,-0.21265234053134918
1761915082822453200,9.568453369140625,-0.1636781394481659,-0.08784383535385132,-0.030665500089526176
1761915082832508400,9.57850830078125,-0.03638090938329697,-0.2673605978488922,0.15296317636966705
1761915082842562300,9.588562255859374,0.07414693385362625,-0.45793214440345764,0.32715627551078796
1761915082852616200,9.5986162109375,0.16938050091266632,-0.6526254415512085,0.4903002083301544
1761915082862671400,9.60867138671875,0.22680331766605377,-0.8653888702392578,0.6345018744468689
1761915082872725200,9.618725341796875,0.21366621553897858,-1.106177806854248,0.7556109428405762
1761915082882780400,9.628780517578125,0.13716371357440948,-1.2736599445343018,0.8365945219993591
1761915082892834300,9.638834228515625,0.03352466970682144,-1.2960366010665894,0.838708758354187
1761915082902888200,9.64888818359375,-0.10532988607883453,-1.1538395881652832,0.8199374675750732
1761915082912943400,9.658943359375,-0.2929743528366089,-0.8412049412727356,0.8224685788154602
1761915082922997200,9.668997314453126,-0.39427781105041504,-0.3755491077899933,0.8716598153114319
1761915082933051400,9.679051513671874,-0.4064934551715851,0.11924303323030472,0.9714894890785217
1761915082943106000,9.68910595703125,-0.3498048782348633,0.426004558801651,1.0978870391845703
1761915082953160200,9.69916015625,-0.20658673346042633,0.524894118309021,1.2105787992477417
1761915082963214000,9.709214111328125,0.016223710030317307,0.4953479468822479,1.2619993686676025
1761915082973269200,9.719269287109375,0.24940504133701324,0.40430113673210144,1.202284812927246
1761915082983323400,9.729323486328125,0.4632584750652313,0.250711053609848,1.0349254608154297
1761915082993378000,9.7393779296875,0.6537452936172485,0.05700469762086868,0.8051247000694275
1761915083003432200,9.74943212890625,0.7981842756271362,-0.14339818060398102,0.5463243126869202
1761915083013486300,9.759486328125,0.8675601482391357,-0.29466307163238525,0.28460562229156494
1761915083023541200,9.769541259765624,0.85006183385849,-0.43085071444511414,0.09385538846254349
1761915083033595400,9.779595458984375,0.7474768757820129,-0.6082223057746887,0.05167091637849808
1761915083043649300,9.789649169921875,0.5841510891914368,-0.6730846762657166,0.10488221049308777
1761915083053704200,9.7997041015625,0.43201372027397156,-0.5500511527061462,0.07295836508274078
1761915083063758300,9.80975830078125,0.2821302115917206,-0.3547317087650299,-0.12713584303855896
1761915083073812200,9.819812255859375,0.12387240678071976,-0.26243987679481506,-0.41377002000808716
1761915083083867400,9.829867431640626,-0.022714100778102875,-0.14710955321788788,-0.601168692111969
1761915083093921300,9.83992138671875,-0.1322174221277237,0.20692095160484314,-0.6182190179824829
1761915083103976200,9.84997607421875,-0.13031911849975586,0.49240437150001526,-0.5490042567253113
1761915083114030300,9.8600302734375,-0.04198979586362839,0.21606332063674927,-0.32136204838752747
1761915083124084200,9.870084228515625,-0.04715792462229729,-0.155989870429039,0.0036216326989233494
1761915083134139400,9.880139404296875,-0.059409528970718384,-0.10919492691755295,0.1259842962026596
1761915083144193300,9.890193359375,-0.08288343250751495,0.05752454698085785,0.005390504375100136
1761915083154247200,9.9002470703125,-0.20127665996551514,0.09096425771713257,-0.1574876308441162
1761915083164302300,9.91030224609375,-0.3603331446647644,0.013302489183843136,-0.25962942838668823
1761915083174356200,9.920356201171876,-0.4793495535850525,-0.11858870089054108,-0.3327806293964386
1761915083184410400,9.930410400390626,-0.5239412784576416,-0.09056638181209564,-0.43409472703933716
1761915083194465300,9.94046533203125,-0.46752485632896423,0.12200500071048737,-0.5612260699272156
1761915083204519200,9.950519287109374,-0.3301480710506439,0.3987196981906891,-0.7129758596420288
1761915083214573300,9.9605732421875,-0.17724508047103882,0.5931578874588013,-0.8481352925300598
1761915083224628200,9.970628173828125,-0.09885068237781525,0.692176878452301,-0.9582782983779907
1761915083234682400,9.980682373046875,-0.1356678158044815,0.6705538630485535,-1.0216604471206665
1761915083244737300,9.9907373046875,-0.23415310680866241,0.5016295313835144,-1.029819130897522
1761915083254791200,10.000791259765625,-0.39802858233451843,0.29978564381599426,-0.9402572512626648
1761915083264845300,10.01084521484375,-0.5704562664031982,0.02207600697875023,-0.7750011682510376
1761915083274900200,10.020900146484376,-0.667740523815155,-0.1607569307088852,-0.5620130300521851
1761915083284954400,10.030954345703124,-0.6045548915863037,-0.1480826735496521,-0.34593236446380615
1761915083295008300,10.04100830078125,-0.33849841356277466,0.00021971078240312636,-0.10568461567163467
1761915083305063200,10.051063232421875,0.037392646074295044,0.09808582067489624,0.1721419394016266
1761915083315117300,10.061117431640625,0.40805405378341675,0.07474055141210556,0.43108028173446655
1761915083325171200,10.071171142578125,0.6611220240592957,-0.021465344354510307,0.6166674494743347
1761915083335226400,10.081226318359375,0.7489879727363586,-0.2059829980134964,0.6943572163581848
1761915083345280300,10.0912802734375,0.7064780592918396,-0.4908597469329834,0.6610727310180664
1761915083355335200,10.101335205078126,0.5722693800926208,-0.8277610540390015,0.5564965605735779
1761915083365389300,10.111389404296874,0.36360856890678406,-1.0720163583755493,0.4414900541305542
1761915083375443200,10.121443115234374,0.1394588202238083,-1.1001931428909302,0.3607938885688782
1761915083385498400,10.131498291015625,-0.023639015853405,-0.8747330904006958,0.3695801794528961
1761915083395552300,10.14155224609375,-0.09337415546178818,-0.48979660868644714,0.45829248428344727
1761915083405606100,10.151606201171875,-0.10863886028528214,-0.0845300629734993,0.5751844644546509
1761915083415661300,10.161661376953125,-0.05877622961997986,0.14446264505386353,0.7010105848312378
1761915083425715200,10.171715087890625,-0.016806676983833313,0.20800699293613434,0.7799096703529358
1761915083435769300,10.181769287109375,0.03205380588769913,0.10475890338420868,0.7664055824279785
1761915083445824500,10.191824462890626,0.13363316655158997,-0.05190793797373772,0.6457832455635071
1761915083455878100,10.201878173828124,0.2667272984981537,-0.19342193007469177,0.4870527386665344
1761915083465933300,10.211933349609374,0.3859839141368866,-0.2786526679992676,0.3592891991138458
1761915083475987200,10.2219873046875,0.4605034291744232,-0.27594342827796936,0.2526777982711792
1761915083486041300,10.232041259765625,0.4160483479499817,-0.2057259976863861,0.17254167795181274
1761915083496096300,10.24209619140625,0.31493479013442993,-0.18326330184936523,0.13139131665229797
1761915083506154200,10.252154296875,0.2028050422668457,-0.1728133261203766,0.1803458034992218
1761915083516208400,10.26220849609375,0.09372702240943909,-0.1174243614077568,0.2848761975765228
1761915083526263600,10.272263671875,0.030615434050559998,0.09247586876153946,0.2608201503753662
1761915083536317400,10.2823173828125,-0.0487358458340168,0.27631574869155884,0.11664139479398727
1761915083546371600,10.29237158203125,-0.13807131350040436,0.39259546995162964,-0.08851761370897293
1761915083556426200,10.30242626953125,-0.1331212967634201,0.43574056029319763,-0.3689274489879608
1761915083566480400,10.31248046875,0.11854927986860275,0.44636523723602295,-0.634423017501831
1761915083576535600,10.32253564453125,0.5152026414871216,0.2931554317474365,-0.7391752600669861
1761915083586589400,10.33258935546875,0.7303263545036316,-0.11328288167715073,-0.539689838886261
1761915083596643300,10.342643310546874,0.6933654546737671,-0.519952654838562,-0.1607753038406372
1761915083606698500,10.352698486328125,0.5460782647132874,-0.6631864905357361,0.1602645069360733
1761915083616752400,10.36275244140625,0.3497859537601471,-0.5739836692810059,0.38090288639068604
1761915083626806500,10.372806640625,0.1819216012954712,-0.417634516954422,0.5018649697303772
1761915083636861400,10.382861328125,0.1005425825715065,-0.27849259972572327,0.49685609340667725
1761915083646915300,10.392915283203125,0.0717863067984581,-0.18474215269088745,0.40424707531929016
1761915083656969200,10.40296923828125,0.05708752200007439,-0.18475200235843658,0.2579505741596222
1761915083667024400,10.4130244140625,0.0347348116338253,-0.2502647042274475,0.11442138254642487
1761915083677078500,10.42307861328125,0.04665086045861244,-0.36439579725265503,-0.0012926984345540404
1761915083687133400,10.433133544921875,0.034635741263628006,-0.39901769161224365,-0.023444872349500656
1761915083697187300,10.443187255859375,0.011030546389520168,-0.3796815574169159,0.012196478433907032
1761915083707241200,10.4532412109375,0.00037816885742358863,-0.3594905138015747,0.008448611944913864
1761915083717296400,10.46329638671875,0.02846572920680046,-0.38646355271339417,-0.09335524588823318
1761915083727350500,10.4733505859375,0.06387192010879517,-0.3485318720340729,-0.20329585671424866
1761915083737404400,10.483404296875,0.10678929835557938,-0.2363550066947937,-0.23259063065052032
1761915083747459300,10.493459228515626,0.10953714698553085,-0.06127534061670303,-0.10425157099962234
1761915083757513200,10.50351318359375,0.0814618393778801,-0.039022233337163925,0.13389921188354492
1761915083767567400,10.5135673828125,0.07667400687932968,-0.13386166095733643,0.360363245010376
1761915083777622500,10.52362255859375,0.10774510353803635,-0.25211799144744873,0.46375036239624023
1761915083787676400,10.533676513671875,0.15913985669612885,-0.45426684617996216,0.44791653752326965
1761915083797731300,10.5437314453125,0.21520951390266418,-0.6794869303703308,0.3574824929237366
1761915083807785500,10.553785400390625,0.20329906046390533,-0.7386834025382996,0.3404150903224945
1761915083817839400,10.56383935546875,0.06469803303480148,-0.3787691593170166,0.3349100947380066
1761915083827894500,10.57389453125,-0.1803697794675827,0.06275845319032669,0.30326613783836365
