time,seconds_elapsed,z,y,x
1761915073371355100,0.117355224609375,-0.902625322341919,-1.557521939277649,-1.4736043214797974
1761915073381409000,0.127408935546875,-0.17336590588092804,-1.6556180715560913,-1.5116453170776367
1761915073391464000,0.1374638671875,0.5360732674598694,-1.5760917663574219,-1.392642855644226
1761915073401518000,0.14751806640625,0.7611445188522339,-1.3730148077011108,-1.1987478733062744
1761915073411572000,0.157572021484375,0.9225901365280151,-1.0551526546478271,-1.0107771158218384
1761915073421627100,0.167627197265625,1.0307077169418335,-0.6493500471115112,-0.7929438948631287
1761915073431681000,0.177680908203125,1.0017173290252686,-0.12675870954990387,-0.5711995363235474
1761915073441736000,0.18773583984375,0.9675108194351196,0.36380794644355774,-0.4024209976196289
1761915073451790000,0.1977900390625,1.0643683671951294,0.7262170314788818,-0.3537067174911499
1761915073461844000,0.207843994140625,1.2094179391860962,0.9963247179985046,-0.39912307262420654
1761915073471899100,0.217899169921875,1.2492893934249878,1.1017776727676392,-0.4145236015319824
1761915073481953000,0.227953125,1.1811517477035522,1.154926061630249,-0.36401811242103577
1761915073492006700,0.238006591796875,1.0703881978988647,1.3099521398544312,-0.2891414761543274
1761915073502061800,0.248061767578125,0.9484143853187561,1.463474988937378,-0.18828900158405304
1761915073512115700,0.25811572265625,0.8451460599899292,1.5548715591430664,-0.045884184539318085
1761915073522169900,0.268169921875,0.7613463997840881,1.5263023376464844,0.11489534378051758
1761915073532224800,0.278224853515625,0.6919982433319092,1.3817850351333618,0.25635552406311035
1761915073542278700,0.288278564453125,0.6244571208953857,1.1504967212677002,0.3450973927974701
1761915073552332800,0.298332763671875,0.5629335641860962,0.8770641088485718,0.4034147560596466
1761915073562387700,0.3083876953125,0.5030878782272339,0.6523693203926086,0.43919187784194946
1761915073572441900,0.31844189453125,0.4564841091632843,0.5764197111129761,0.4607062339782715
1761915073582496800,0.328496826171875,0.40947824716567993,0.6092128157615662,0.49103257060050964
1761915073592550700,0.338550537109375,0.37205469608306885,0.6511133909225464,0.49500706791877747
1761915073602604800,0.348604736328125,0.3631152808666229,0.5495122075080872,0.42377910017967224
1761915073612659700,0.35865966796875,0.3579639196395874,0.30009254813194275,0.369362473487854
1761915073622713900,0.3687138671875,0.3544664978981018,0.13206514716148376,0.34065747261047363
1761915073632767700,0.378767822265625,0.341259628534317,0.09653086215257645,0.31509774923324585
1761915073642822700,0.38882275390625,0.338920921087265,0.13160176575183868,0.31772008538246155
1761915073652876800,0.398876708984375,0.34237584471702576,0.27748703956604004,0.3288363814353943
1761915073662930700,0.4089306640625,0.36808910965919495,0.4829513132572174,0.31284353137016296
1761915073672985900,0.41898583984375,0.4000893831253052,0.6060681939125061,0.27560243010520935
1761915073683039700,0.429039794921875,0.40534430742263794,0.609835147857666,0.24970678985118866
1761915073693094000,0.439093994140625,0.39674630761146545,0.5540618896484375,0.24573229253292084
1761915073703148800,0.449148681640625,0.3725734353065491,0.5039788484573364,0.2658954858779907
1761915073713202700,0.45920263671875,0.3324558436870575,0.49794650077819824,0.2955052852630615
1761915073723257900,0.4692578125,0.3066876530647278,0.5021479725837708,0.28757113218307495
1761915073733312000,0.47931201171875,0.29628267884254456,0.4908977150917053,0.24483910202980042
1761915073743366000,0.489365966796875,0.30893293023109436,0.4548182785511017,0.1684451550245285
1761915073753420800,0.4994208984375,0.3150422275066376,0.40062692761421204,0.0815933495759964
1761915073763474700,0.509474609375,0.3423878848552704,0.36527979373931885,0.009571517817676067
1761915073773528800,0.51952880859375,0.38288843631744385,0.3802795112133026,-0.028388116508722305
1761915073783584000,0.529583984375,0.41968411207199097,0.4168645441532135,-0.0426308736205101
1761915073793637600,0.5396376953125,0.4382362365722656,0.4006730616092682,-0.02439674362540245
1761915073803691800,0.54969189453125,0.4469517469406128,0.30678725242614746,0.004934945143759251
1761915073813746700,0.55974658203125,0.4532932639122009,0.15777859091758728,0.02432328835129738
1761915073823800800,0.56980078125,0.45923835039138794,-0.025182371959090233,0.02870773710310459
1761915073833854700,0.579854736328125,0.438463032245636,-0.20975087583065033,0.002430061809718609
1761915073843909600,0.58990966796875,0.394214928150177,-0.3482283651828766,-0.0374443456530571
1761915073853963800,0.5999638671875,0.33868348598480225,-0.41119879484176636,-0.09159759432077408
1761915073864018700,0.610018798828125,0.2911473214626312,-0.41837355494499207,-0.14222152531147003
1761915073874072800,0.62007275390625,0.2562474012374878,-0.38054361939430237,-0.17344549298286438
1761915073884126700,0.630126708984375,0.23495012521743774,-0.33293548226356506,-0.17963021993637085
1761915073894181600,0.640181640625,0.2187943160533905,-0.28077080845832825,-0.1655261218547821
1761915073904235800,0.65023583984375,0.19946302473545074,-0.22671902179718018,-0.13332653045654297
1761915073914289700,0.66028955078125,0.16229620575904846,-0.19442659616470337,-0.07861854881048203
1761915073924344800,0.6703447265625,0.11207551509141922,-0.2069084197282791,-0.005746542010456324
1761915073934399000,0.68039892578125,0.04266074672341347,-0.23226383328437805,0.09277177602052689
1761915073944452900,0.690452880859375,-0.027222704142332077,-0.2820488512516022,0.195342019200325
1761915073954507800,0.7005078125,-0.051823653280735016,-0.3366071581840515,0.24799883365631104
1761915073964561700,0.710561767578125,-0.04551436007022858,-0.41679733991622925,0.22942249476909637
1761915073974615800,0.72061572265625,-0.021498505026102066,-0.495831698179245,0.16290977597236633
1761915073984671000,0.7306708984375,-0.006100652273744345,-0.5566193461418152,0.10175935178995132
1761915073994724900,0.740724853515625,-0.008057010360062122,-0.647794783115387,0.06819659471511841
1761915074004779800,0.75077978515625,-0.009975056163966656,-0.8327924013137817,0.08021372556686401
1761915074014833700,0.760833740234375,-0.004798137582838535,-1.066405177116394,0.05957954749464989
1761915074024887800,0.7708876953125,0.031241443008184433,-1.1035655736923218,-0.05267113447189331
1761915074034943000,0.78094287109375,0.09001554548740387,-0.8167598247528076,-0.22830261290073395
1761915074044996900,0.790996826171875,0.12462462484836578,-0.2509990930557251,-0.39881646633148193
1761915074055050800,0.80105078125,0.16469986736774445,0.3348899483680725,-0.5092495083808899
1761915074065105700,0.811105712890625,0.28184688091278076,0.7528722286224365,-0.5782408118247986
1761915074075159800,0.821159912109375,0.38301050662994385,0.8063111901283264,-0.582905650138855
1761915074085213700,0.831213623046875,0.3727889060974121,0.3877861499786377,-0.5155909061431885
1761915074095268600,0.8412685546875,0.23927372694015503,-0.35847580432891846,-0.36395421624183655
1761915074105322800,0.85132275390625,0.03924606740474701,-1.2465635538101196,-0.11567685008049011
1761915074115376600,0.861376708984375,-0.11393017321825027,-1.905997395515442,0.17471078038215637
1761915074125431800,0.871431884765625,-0.19817864894866943,-2.1482372283935547,0.3975852131843567
1761915074135486000,0.88148583984375,-0.21074822545051575,-1.9665042161941528,0.5152889490127563
1761915074145540600,0.89154052734375,-0.177402064204216,-1.3934123516082764,0.5356016159057617
1761915074155594800,0.9015947265625,-0.2141861766576767,-0.5352734327316284,0.5265710949897766
1761915074165648600,0.911648681640625,-0.4177161157131195,0.3774150609970093,0.5926515460014343
1761915074175703800,0.921703857421875,-0.7031843066215515,1.2706464529037476,0.8114156126976013
1761915074185758000,0.931758056640625,-0.9186620116233826,2.1087825298309326,1.1499425172805786
1761915074195811800,0.941811767578125,-1.0319435596466064,2.772357940673828,1.507429838180542
1761915074205866800,0.95186669921875,-1.074836254119873,3.1070237159729004,1.7649569511413574
1761915074215920600,0.961920654296875,-1.0829349756240845,3.0675113201141357,1.830808162689209
1761915074225974800,0.971974853515625,-1.038374423980713,2.731365203857422,1.6487890481948853
1761915074236030000,0.982030029296875,-0.9204356074333191,2.2362020015716553,1.2278892993927002
1761915074246083800,0.992083740234375,-0.7359482645988464,1.661531925201416,0.6633562445640564
1761915074256137700,1.0021376953125,-0.5459498763084412,0.9675273299217224,0.12376921623945236
1761915074266192600,1.012192626953125,-0.40179532766342163,0.20098966360092163,-0.26941055059432983
1761915074276246800,1.022246826171875,-0.2890821099281311,-0.48930540680885315,-0.49725890159606934
1761915074286302000,1.032302001953125,-0.21851828694343567,-0.9192331433296204,-0.5763947367668152
1761915074296355800,1.04235595703125,-0.20831944048404694,-1.1081398725509644,-0.5043655633926392
1761915074306409700,1.05240966796875,-0.2002284824848175,-1.1807787418365479,-0.32105332612991333
1761915074316464600,1.062464599609375,-0.13579383492469788,-1.2545583248138428,-0.072543665766716
1761915074326518800,1.072518798828125,-0.043356623500585556,-1.3889753818511963,0.16255874931812286
1761915074336573000,1.082572998046875,0.054794445633888245,-1.5001349449157715,0.35524216294288635
1761915074346627800,1.0926279296875,0.15235285460948944,-1.5375795364379883,0.5099671483039856
1761915074356681700,1.102681640625,0.21730148792266846,-1.4622807502746582,0.629037618637085
1761915074366735600,1.112735595703125,0.2502206265926361,-1.2979336977005005,0.7274835705757141
1761915074376790800,1.122790771484375,0.26513591408729553,-1.060964584350586,0.804745078086853
1761915074386845000,1.132844970703125,0.2888997197151184,-0.7414498925209045,0.8248449563980103
1761915074396898800,1.14289892578125,0.3146221339702606,-0.3559700846672058,0.7748318314552307
1761915074406953700,1.15295361328125,0.3598228991031647,0.01722107082605362,0.6877792477607727
1761915074417007600,1.163007568359375,0.4173085689544678,0.2798404395580292,0.5801510214805603
1761915074427062800,1.173062744140625,0.508324384689331,0.3741653263568878,0.4502234160900116
1761915074437117000,1.183116943359375,0.6311975717544556,0.24884521961212158,0.31046444177627563
1761915074447170800,1.1931708984375,0.7412700057029724,-0.061408285051584244,0.17980164289474487
1761915074457225700,1.203225830078125,0.8413145542144775,-0.4815509617328644,0.09109308570623398
1761915074467279600,1.213279541015625,0.9505144357681274,-0.8673876523971558,0.03422688692808151
1761915074477333800,1.223333740234375,1.0842570066452026,-1.062072992324829,-0.044229838997125626
1761915074487389000,1.233388916015625,1.2710448503494263,-1.0171419382095337,-0.19688135385513306
1761915074497443000,1.243443115234375,1.4889483451843262,-0.8609959483146667,-0.4022984206676483
1761915074507497000,1.2534970703125,1.5474591255187988,-1.059498906135559,-0.5547007918357849
1761915074517552000,1.26355224609375,1.3516336679458618,-1.615272879600525,-0.518822431564331
1761915074527606300,1.273606201171875,1.24144446849823,-1.8255131244659424,-0.45199254155158997
1761915074537660200,1.28366015625,1.1930694580078125,-1.362582802772522,-0.3277329206466675
1761915074547715000,1.293715087890625,1.133233904838562,-0.6429893374443054,-0.02300935797393322
1761915074557769000,1.30376904296875,1.0355406999588013,-0.20039117336273193,0.41544097661972046
1761915074567824100,1.31382421875,0.9205552935600281,-0.1637289673089981,0.6382464170455933
1761915074577878300,1.323878173828125,0.8661988377571106,0.09481628984212875,0.2762911021709442
1761915074587932200,1.33393212890625,0.9054129719734192,0.707747220993042,-0.5945003032684326
1761915074597987000,1.343987060546875,0.9224185943603516,1.071970820426941,-1.4760849475860596
1761915074608041000,1.354041015625,0.7942046523094177,1.3345006704330444,-2.0237669944763184
1761915074618095000,1.36409521484375,0.6074864268302917,1.693172812461853,-2.2846779823303223
1761915074628150300,1.374150390625,0.4983641505241394,1.9490314722061157,-2.4620463848114014
1761915074638204200,1.3842041015625,0.4732039272785187,2.015958070755005,-2.6933202743530273
1761915074648258300,1.39425830078125,0.5664634108543396,2.0149266719818115,-2.91943621635437
1761915074658313000,1.40431298828125,0.6873243451118469,1.8776096105575562,-2.9900963306427
1761915074668367000,1.4143671875,0.6584565043449402,1.5473246574401855,-2.754340410232544
1761915074678421200,1.424421142578125,0.48914021253585815,1.0828155279159546,-2.2267661094665527
1761915074688476200,1.43447607421875,0.23327909409999847,0.6334771513938904,-1.485788345336914
1761915074698530300,1.4445302734375,-0.07709208130836487,0.48651593923568726,-0.5945785641670227
1761915074708585200,1.454585205078125,-0.3103346526622772,0.708453893661499,0.3661620020866394
1761915074718639000,1.46463916015625,-0.4103408753871918,1.0522586107254028,1.2323734760284424
1761915074728693200,1.474693359375,-0.40409818291664124,1.3477140665054321,1.7760319709777832
1761915074738748200,1.484748046875,-0.39962807297706604,1.6207852363586426,1.8208316564559937
1761915074748802300,1.49480224609375,-0.41182634234428406,1.8977524042129517,1.323660969734192
1761915074758856000,1.50485595703125,-0.38155364990234375,1.9269859790802002,0.40527597069740295
1761915074768911000,1.5149111328125,-0.3134133815765381,1.472416639328003,-0.6024900078773499
1761915074778965200,1.52496533203125,-0.29134857654571533,0.6815556883811951,-1.411487340927124
1761915074789019100,1.53501904296875,-0.32690927386283875,-0.2090449333190918,-1.9166460037231445
1761915074799074000,1.545073974609375,-0.360732764005661,-0.9522431492805481,-2.084617853164673
1761915074809128000,1.5551279296875,-0.3426360487937927,-1.4862780570983887,-1.9560973644256592
1761915074819183000,1.56518310546875,-0.2613057792186737,-1.7339205741882324,-1.6018873453140259
1761915074829237200,1.5752373046875,-0.17023436725139618,-1.6954548358917236,-1.045541763305664
1761915074839291100,1.585291015625,-0.07517097145318985,-1.4962782859802246,-0.3766990303993225
1761915074849346000,1.595345947265625,0.02223818190395832,-1.2317659854888916,0.2990280091762543
1761915074859400000,1.60539990234375,0.07914940267801285,-0.9258377552032471,0.8903528451919556
1761915074869454000,1.6154541015625,0.08056465536355972,-0.6512466669082642,1.3321226835250854
1761915074879509200,1.62550927734375,0.02388007380068302,-0.42515629529953003,1.608068823814392
1761915074889563100,1.635563232421875,-0.06669128686189651,-0.3005135655403137,1.7013789415359497
1761915074899617300,1.6456171875,-0.14296768605709076,-0.3300141990184784,1.635015845298767
1761915074909672200,1.655672119140625,-0.13771505653858185,-0.4663116931915283,1.471318006515503
1761915074919726000,1.66572607421875,-0.039015382528305054,-0.6948623061180115,1.275415301322937
1761915074929780200,1.6757802734375,0.09789322316646576,-0.9748677015304565,1.1179529428482056
1761915074939835100,1.685835205078125,0.2030278891324997,-1.200854778289795,1.0246338844299316
1761915074949889300,1.69588916015625,0.2942790985107422,-1.3530004024505615,0.9840883016586304
1761915074959944200,1.705944091796875,0.367973268032074,-1.406610369682312,0.9584298133850098
1761915074969998000,1.715998046875,0.3450780212879181,-1.3181815147399902,0.9432627558708191
1761915074980052200,1.72605224609375,0.19139713048934937,-1.1906440258026123,0.9649345278739929
1761915074990107100,1.736107177734375,-0.0054376209154725075,-1.135826587677002,1.0148764848709106
1761915075000161300,1.746161376953125,-0.11919774115085602,-1.060571551322937,1.0440056324005127
1761915075010215200,1.756215087890625,-0.06755192577838898,-0.8397822976112366,0.9522469639778137
1761915075020270000,1.76627001953125,0.06459145992994308,-0.46418362855911255,0.6731823086738586
1761915075030324200,1.77632421875,0.18008968234062195,-0.0798448920249939,0.24961599707603455
1761915075040378000,1.786378173828125,0.2676328420639038,0.13528072834014893,-0.22319868206977844
1761915075050433300,1.796433349609375,0.4031867980957031,0.20549646019935608,-0.7440072298049927
1761915075060487000,1.80648681640625,0.7190079092979431,0.20844990015029907,-1.3295221328735352
1761915075070541000,1.816541015625,1.0755641460418701,0.07992323487997055,-1.8414403200149536
1761915075080596200,1.82659619140625,1.099239468574524,-0.14429974555969238,-2.0033485889434814
1761915075090650000,1.836650146484375,0.7412689328193665,-0.31899791955947876,-1.620423436164856
1761915075100704300,1.846704345703125,0.26086103916168213,-0.4045479893684387,-0.7198246121406555
1761915075110759200,1.85675927734375,-0.1103212982416153,-0.14403250813484192,0.49808743596076965
1761915075120813000,1.86681298828125,-0.3192465305328369,0.575922429561615,1.6505860090255737
1761915075130867200,1.8768671875,-0.2799345850944519,1.5550771951675415,2.289825677871704
1761915075140922000,1.886922119140625,-0.028555087745189667,2.4790198802948,2.260676622390747
1761915075150976300,1.896976318359375,0.33894598484039307,3.169084072113037,1.5511691570281982
1761915075161031200,1.90703125,0.685471773147583,3.4068169593811035,0.41031861305236816
1761915075171085000,1.9170849609375,0.7791911363601685,3.049008369445801,-0.7354766130447388
1761915075181139200,1.92713916015625,0.4979962110519409,2.290592908859253,-1.578185796737671
1761915075191194000,1.937194091796875,-0.036590591073036194,1.5449528694152832,-1.9631917476654053
1761915075201248300,1.947248291015625,-0.546238362789154,1.1011685132980347,-1.8699185848236084
1761915075211302100,1.95730224609375,-0.9045542478561401,0.9812604188919067,-1.3437490463256836
1761915075221357000,1.967357177734375,-0.9534432291984558,0.9913697838783264,-0.5325160622596741
1761915075231411200,1.9774111328125,-0.7510902285575867,1.15927255153656,0.34875306487083435
1761915075241465000,1.987465087890625,-0.5136654376983643,1.5590742826461792,1.0885233879089355
1761915075251520300,1.997520263671875,-0.43746671080589294,2.0164849758148193,1.496843695640564
1761915075261574100,2.00757421875,-0.5957026481628418,2.2816171646118164,1.4894866943359375
1761915075271628000,2.0176279296875,-0.9412682056427002,2.2143003940582275,1.1367067098617554
1761915075281683200,2.02768310546875,-1.3368477821350098,1.7483307123184204,0.6348755955696106
1761915075291737000,2.037737060546875,-1.6101510524749756,0.9626722931861877,0.1724165827035904
1761915075301792300,2.047792236328125,-1.7463804483413696,-0.024126924574375153,-0.14644582569599152
1761915075311846100,2.05784619140625,-1.7868468761444092,-1.1402610540390015,-0.36898380517959595
1761915075321900000,2.067900146484375,-1.6986637115478516,-2.183281183242798,-0.5944669842720032
1761915075331955200,2.077955078125,-1.4951273202896118,-2.884328842163086,-0.8211920857429504
1761915075342009000,2.088009033203125,-1.2380257844924927,-3.1286768913269043,-0.9949471354484558
1761915075352063200,2.098063232421875,-1.0236362218856812,-2.886749505996704,-1.0443682670593262
1761915075362118100,2.1081181640625,-0.8973450660705566,-2.3245089054107666,-0.920569896697998
1761915075372172000,2.118172119140625,-0.8209443092346191,-1.6666210889816284,-0.6294633746147156
1761915075382226200,2.12822607421875,-0.7838134765625,-1.1400758028030396,-0.26666468381881714
1761915075392281000,2.138281005859375,-0.815962553024292,-0.8230482339859009,0.11248686909675598
1761915075402335200,2.148335205078125,-0.942308783531189,-0.7544529438018799,0.4719443917274475
1761915075412389000,2.15838916015625,-1.0805271863937378,-0.8771605491638184,0.7791059613227844
1761915075422444000,2.168444091796875,-1.1144253015518188,-1.0900284051895142,1.0016050338745117
1761915075432498200,2.178498291015625,-1.0132131576538086,-1.3024306297302246,1.144740343093872
1761915075442553000,2.188552978515625,-0.7804939150810242,-1.4926762580871582,1.2401419878005981
1761915075452607200,2.198607177734375,-0.43250107765197754,-1.537765383720398,1.335496425628662
1761915075462661400,2.208661376953125,-0.04718293994665146,-1.4830020666122437,1.4382885694503784
1761915075472716000,2.218716064453125,0.1976022571325302,-1.4665833711624146,1.5368458032608032
1761915075482770200,2.228770263671875,0.2816593647003174,-1.4253616333007812,1.6927597522735596
1761915075492824300,2.23882421875,0.27758461236953735,-1.4660365581512451,1.9357432126998901
1761915075502879500,2.24887939453125,0.307535856962204,-1.7085660696029663,2.13155460357666
1761915075512933400,2.258933349609375,0.29736772179603577,-1.795071005821228,2.046807050704956
1761915075522987300,2.2689873046875,0.20464392006397247,-1.656834363937378,1.6092795133590698
1761915075533042400,2.27904248046875,0.15935276448726654,-1.4112869501113892,0.7723267674446106
1761915075543096300,2.289096435546875,0.24142047762870789,-0.9469549059867859,-0.4940640926361084
1761915075553150500,2.299150390625,0.34333351254463196,-0.21422035992145538,-1.8901957273483276
1761915075563205400,2.309205322265625,0.39767584204673767,0.6745417714118958,-2.9148805141448975
1761915075573259300,2.31925927734375,0.3466394543647766,1.4248536825180054,-3.296117067337036
1761915075583314400,2.329314453125,0.13561376929283142,2.112156867980957,-3.2184674739837646
1761915075593368300,2.339368408203125,-0.19032195210456848,2.923252582550049,-3.1007070541381836
1761915075603422500,2.34942236328125,-0.20268568396568298,3.0045623779296875,-3.0762858390808105
1761915075613477400,2.359477294921875,-0.027803029865026474,2.7561726570129395,-3.116785764694214
1761915075623531300,2.36953125,0.0890924334526062,2.521662473678589,-3.1703109741210938
1761915075633585400,2.37958544921875,0.02892427146434784,2.3939051628112793,-3.141836166381836
1761915075643640600,2.389640625,-0.14750242233276367,2.3132948875427246,-2.905701160430908
1761915075653694500,2.399694580078125,-0.2980089783668518,2.2791783809661865,-2.463515043258667
1761915075663748600,2.40974853515625,-0.3323991894721985,2.116450548171997,-1.9190194606781006
1761915075673803300,2.41980322265625,-0.2462509423494339,1.5189969539642334,-1.357421875
1761915075683857400,2.429857421875,-0.24897323548793793,0.9260738492012024,-0.6882675886154175
1761915075693911300,2.439911376953125,-0.32899364829063416,0.012795643880963326,-0.10984230041503906
1761915075703966500,2.449966552734375,-0.5386424660682678,-0.9057251811027527,0.31921371817588806
1761915075714020600,2.4600205078125,-0.8220296502113342,-1.2475563287734985,0.6469122767448425
1761915075724074200,2.47007421875,-0.9571059942245483,-1.2151955366134644,0.7915334105491638
1761915075734129400,2.48012939453125,-1.031383991241455,-1.0167289972305298,0.9070708751678467
1761915075744183300,2.490183349609375,-1.0521513223648071,-1.0536692142486572,1.0382637977600098
1761915075754238500,2.500238525390625,-1.0691877603530884,-1.2694306373596191,1.107110857963562
1761915075764292400,2.510292236328125,-0.9959694743156433,-1.4445006847381592,0.8305405378341675
1761915075774346200,2.52034619140625,-0.6698280572891235,-0.5448243618011475,-0.17445938289165497
1761915075784401400,2.5304013671875,0.02703944593667984,0.5828037858009338,-1.666835904121399
1761915075794455300,2.540455322265625,0.802228569984436,0.9223401546478271,-2.503422975540161
1761915075804509400,2.550509521484375,1.2595568895339966,1.407426118850708,-2.954137086868286
1761915075814564400,2.560564453125,1.4604947566986084,1.8851598501205444,-3.0331993103027344
1761915075824618200,2.5706181640625,1.4295599460601807,1.8297826051712036,-2.7603366374969482
1761915075834672400,2.58067236328125,1.2982275485992432,1.6556743383407593,-2.140049695968628
1761915075844727600,2.5907275390625,1.3173521757125854,0.7054305672645569,-1.5964075326919556
1761915075854781400,2.600781494140625,1.346030354499817,-0.5571742653846741,-1.073483943939209
1761915075864835600,2.610835693359375,1.3576483726501465,-1.47896409034729,-0.5144063234329224
1761915075874890200,2.62089013671875,1.3485835790634155,-1.9592143297195435,0.02426622062921524
1761915075884944400,2.6309443359375,1.3384268283843994,-2.151418447494507,0.5149142146110535
1761915075894999600,2.64099951171875,1.2995376586914062,-2.195199489593506,0.965097963809967
1761915075905053400,2.651053466796875,1.1889456510543823,-2.203007936477661,1.365760087966919
1761915075915107600,2.661107666015625,1.0177712440490723,-2.0847623348236084,1.705930471420288
1761915075925162200,2.671162353515625,0.8116475343704224,-1.8279900550842285,2.0059595108032227
1761915075935216400,2.68121630859375,0.6143062710762024,-1.386200189590454,2.2962167263031006
1761915075945270300,2.691270263671875,0.45773905515670776,-0.6408342123031616,2.5611398220062256
1761915075955325400,2.701325439453125,0.3584935963153839,0.38263022899627686,2.7341535091400146
1761915075965379600,2.711379638671875,0.3510279655456543,1.4232534170150757,2.6630971431732178
1761915075975433500,2.72143359375,0.36773180961608887,2.2714757919311523,2.3875021934509277
1761915075985488400,2.73148828125,0.3404064476490021,2.6795032024383545,2.195763111114502
1761915075995542300,2.741542236328125,0.3037883937358856,2.7569215297698975,2.038409948348999
1761915076005596400,2.751596435546875,0.2664375603199005,2.4578609466552734,1.8310593366622925
1761915076015651600,2.761651611328125,0.11902203410863876,1.8811454772949219,1.645837664604187
1761915076025705200,2.771705322265625,0.1006946936249733,1.2517532110214233,1.5232558250427246
1761915076035760400,2.781760498046875,0.01175948977470398,0.5910964012145996,1.3299095630645752
1761915076045814500,2.791814453125,-0.13317932188510895,-0.11352299898862839,1.0697392225265503
1761915076055868400,2.801868408203125,-0.1833934187889099,-0.6483010053634644,0.7361541986465454
1761915076065923300,2.81192333984375,-0.1368861049413681,-0.7024659514427185,0.38446858525276184
1761915076075977200,2.821977294921875,-0.07579168677330017,-0.2467707097530365,0.03154627978801727
1761915076086031400,2.83203125,-0.017447415739297867,0.7374225854873657,-0.2572871148586273
1761915076096086500,2.84208642578125,-0.0253895353525877,1.6941670179367065,-0.3930559754371643
1761915076106140400,2.852140380859375,-0.15399572253227234,1.7820947170257568,-0.3157244324684143
1761915076116194600,2.862194580078125,-0.4066985249519348,0.8997579216957092,0.01332653034478426
1761915076126249200,2.872249267578125,-0.7426024675369263,-0.5181372165679932,0.5348509550094604
1761915076136303400,2.882303466796875,-1.2074933052062988,-1.904752254486084,1.1909699440002441
1761915076146357200,2.892357177734375,-1.7236613035202026,-2.8560214042663574,1.867081880569458
1761915076156412400,2.902412353515625,-2.047689199447632,-3.200836658477783,2.3393654823303223
1761915076166466600,2.912466552734375,-1.040984034538269,-1.9631426334381104,1.7193278074264526
1761915076176520400,2.9225205078125,0.8652246594429016,-0.6685410141944885,0.4280897080898285
1761915076186575400,2.932575439453125,1.5858707427978516,-0.652734637260437,-0.2360168993473053
1761915076196629200,2.942629150390625,1.6385971307754517,-0.45021089911460876,-0.8343082666397095
1761915076206684400,2.952684326171875,1.5752027034759521,-0.15794014930725098,-1.2202444076538086
1761915076216738600,2.962738525390625,1.2954508066177368,-0.09614790976047516,-1.248646855354309
1761915076226792400,2.97279248046875,0.8127270340919495,-0.29458218812942505,-1.1574122905731201
1761915076236847400,2.982847412109375,0.3911347985267639,-0.8068398237228394,-1.0744484663009644
1761915076246901500,2.992901611328125,0.22491280734539032,-1.1526882648468018,-1.030065894126892
1761915076256955400,3.002955322265625,0.2713857889175415,-0.961028516292572,-0.9849869012832642
1761915076267010600,3.013010498046875,0.3917955458164215,-0.24260355532169342,-0.9434458017349243
1761915076277064400,3.023064453125,0.46703094244003296,0.6634537577629089,-0.8740630745887756
1761915076287118300,3.033118408203125,0.42230260372161865,1.330309271812439,-0.7624220252037048
1761915076297173500,3.043173583984375,0.3209596574306488,1.5477790832519531,-0.6785315275192261
1761915076307227400,3.053227294921875,0.20555344223976135,1.3525761365890503,-0.6340474486351013
1761915076317281500,3.063281494140625,0.1375221610069275,0.997511088848114,-0.5826116800308228
1761915076327336200,3.073336181640625,0.18577569723129272,0.6519994735717773,-0.5083310604095459
1761915076337390300,3.083390380859375,0.27288660407066345,0.25891298055648804,-0.3359198570251465
1761915076347444200,3.0934443359375,0.3413706123828888,-0.010078798048198223,-0.050740037113428116
1761915076357499400,3.10349951171875,0.39797088503837585,-0.3915257155895233,0.35770171880722046
1761915076367553500,3.113553466796875,0.34861263632774353,-0.6769995093345642,0.7638242244720459
1761915076377608200,3.123608154296875,0.2790488600730896,-0.8191958069801331,1.03688645362854
1761915076387662300,3.133662353515625,0.24679450690746307,-1.0226845741271973,1.1720367670059204
1761915076397716200,3.14371630859375,0.2143976390361786,-1.052048921585083,1.2204656600952148
1761915076407771400,3.153771484375,0.11923863738775253,-0.6985347270965576,1.2829008102416992
1761915076417825500,3.163825439453125,0.002668393310159445,-0.2611698508262634,1.271085500717163
1761915076427879400,3.17387939453125,-0.1385262906551361,0.166372150182724,1.124657154083252
1761915076437934300,3.183934326171875,-0.2969056963920593,0.5692607164382935,0.8795915842056274
1761915076447988500,3.193988525390625,-0.5061667561531067,0.9918931722640991,0.5521716475486755
1761915076458042400,3.20404248046875,-0.6646728515625,0.9505387544631958,0.03293996676802635
1761915076468097500,3.21409765625,-0.789810836315155,0.5093153119087219,-0.5907859206199646
1761915076478151400,3.2241513671875,-1.011824131011963,0.6432720422744751,-0.9769497513771057
1761915076488205300,3.234205322265625,-1.147291660308838,0.30205458402633667,-1.0027369260787964
1761915076498260500,3.244260498046875,-1.1299667358398438,0.31259864568710327,-0.6156806945800781
1761915076508314400,3.254314453125,-0.7638838291168213,0.17624960839748383,-0.05108500272035599
1761915076518369500,3.26436962890625,-0.13168193399906158,0.22339747846126556,0.5541232824325562
1761915076528423400,3.27442333984375,0.42917153239250183,0.669609546661377,1.1254605054855347
1761915076538477300,3.284477294921875,0.7078718543052673,1.288901448249817,1.6432390213012695
1761915076548532500,3.294532470703125,0.765877366065979,1.8246791362762451,1.909650206565857
1761915076558586400,3.30458642578125,0.7232785224914551,1.792331576347351,1.7571500539779663
1761915076568640500,3.314640625,0.5786619186401367,1.384602665901184,1.3098281621932983
1761915076578695400,3.3246953125,0.3492659330368042,0.5622859001159668,0.4239415228366852
1761915076588749300,3.334749267578125,0.1522442102432251,-0.3073534071445465,-0.6228001117706299
1761915076598803200,3.34480322265625,0.0625419095158577,-1.26927649974823,-1.2262091636657715
1761915076608858400,3.3548583984375,0.08314678817987442,-2.2177884578704834,-1.1269714832305908
1761915076618912500,3.36491259765625,0.3251062035560608,-2.5564279556274414,-0.5880790948867798
1761915076628966400,3.37496630859375,0.5649840235710144,-2.1544508934020996,-0.06835920363664627
1761915076639021300,3.385021240234375,0.7103490233421326,-1.3334766626358032,0.2719608247280121
1761915076649075500,3.395075439453125,0.858174741268158,-0.19880260527133942,0.4867889881134033
1761915076659130400,3.40513037109375,0.9593467116355896,0.859359085559845,0.6902284026145935
1761915076669184500,3.4151845703125,0.9171518087387085,1.4678300619125366,0.9326117038726807
1761915076679238400,3.42523828125,0.8081737160682678,1.8140822649002075,1.0760265588760376
1761915076689293300,3.435293212890625,0.7026064991950989,2.0418338775634766,1.0778793096542358
1761915076699347500,3.445347412109375,0.5777950882911682,2.206108808517456,0.8944743871688843
1761915076709401300,3.4554013671875,0.3784441649913788,2.2970058917999268,0.5213431715965271
1761915076719456500,3.46545654296875,0.09961890429258347,2.161949634552002,0.11148478090763092
1761915076729510400,3.475510498046875,-0.13337306678295135,1.72734534740448,-0.14274296164512634
1761915076739564500,3.485564453125,-0.21291814744472504,1.0848534107208252,-0.19537898898124695
1761915076749619500,3.495619384765625,-0.1476326286792755,0.44445136189460754,-0.10310764610767365
1761915076759673300,3.50567333984375,0.03215152025222778,0.031056806445121765,0.0651339590549469
1761915076769727500,3.5157275390625,0.24998530745506287,-0.03869990259408951,0.28165215253829956
1761915076779782400,3.525782470703125,0.39254018664360046,0.12996014952659607,0.46835896372795105
1761915076789836300,3.535836181640625,0.4286121726036072,0.4478906989097595,0.46614721417427063
1761915076799890400,3.545890380859375,0.3802769184112549,0.7261040806770325,0.25991907715797424
1761915076809945300,3.5559453125,0.2617103159427643,0.7948474287986755,-0.05825783312320709
1761915076819999500,3.56599951171875,0.12992025911808014,0.5757100582122803,-0.4052688181400299
1761915076830054400,3.576054443359375,0.024346165359020233,0.088918037712574,-0.6813395619392395
1761915076840108300,3.5861083984375,-0.05857063829898834,-0.40468117594718933,-0.7810792922973633
1761915076850162400,3.596162353515625,-0.07969536632299423,-0.7839371562004089,-0.6656999588012695
1761915076860217300,3.60621728515625,0.0024079116992652416,-1.0142285823822021,-0.3574819564819336
1761915076870271500,3.616271484375,0.14805538952350616,-1.0116826295852661,0.03498116135597229
1761915076880325400,3.626325439453125,0.2999995946884155,-0.8567996025085449,0.4358437657356262
1761915076890380300,3.63638037109375,0.4695207178592682,-0.5354461073875427,0.7689487934112549
1761915076900434400,3.646434326171875,0.8115912675857544,0.029826851561665535,0.9509087204933167
1761915076910488300,3.65648828125,1.0492185354232788,0.3307768404483795,1.1961405277252197
1761915076920543500,3.66654345703125,1.0381969213485718,0.44456174969673157,1.4181714057922363
1761915076930597400,3.676597412109375,0.9496540427207947,0.6221610903739929,1.521086573600769
1761915076940651500,3.686651611328125,0.8773308992385864,0.7290523052215576,1.6084219217300415
1761915076950706400,3.69670654296875,0.8143934607505798,0.8339246511459351,1.665095329284668
1761915076960760300,3.70676025390625,0.7713271379470825,0.9604243040084839,1.6414474248886108
1761915076970815500,3.7168154296875,0.7768531441688538,1.0552557706832886,1.5731258392333984
1761915076980869400,3.726869384765625,0.7861288189888,0.9610671997070312,1.4603111743927002
1761915076990923500,3.736923583984375,0.7372305393218994,0.6855916976928711,1.294765591621399
1761915077000978400,3.746978515625,0.6530324220657349,0.3885098397731781,1.075556993484497
1761915077011032300,3.7570322265625,0.6144554615020752,0.21074971556663513,0.8627684712409973
1761915077021086500,3.76708642578125,0.5778178572654724,0.15829774737358093,0.7285732626914978
1761915077031141400,3.777141357421875,0.4809296727180481,0.16425204277038574,0.7477139234542847
1761915077041195500,3.787195556640625,0.40338537096977234,0.1846252679824829,0.9010869860649109
1761915077051249400,3.79724951171875,0.4432488977909088,0.29651716351509094,1.0628527402877808
1761915077061304300,3.80730419921875,0.5485639572143555,0.45346978306770325,1.0980360507965088
1761915077071358500,3.8173583984375,0.5933240056037903,0.5911863446235657,0.9212663173675537
1761915077081412400,3.827412353515625,0.5388582944869995,0.7074935436248779,0.553953230381012
1761915077091467300,3.83746728515625,0.5075986385345459,0.5476884245872498,0.07058684527873993
1761915077101521400,3.847521484375,0.5526836514472961,-0.11146199703216553,-0.3499678373336792
1761915077111576300,3.857576416015625,0.588936984539032,-1.027298092842102,-0.5987544655799866
1761915077121630500,3.86763037109375,0.5216478705406189,-1.7315729856491089,-0.7046135663986206
1761915077131684400,3.877684326171875,0.439533531665802,-2.197628974914551,-0.6973548531532288
1761915077141739300,3.8877392578125,0.3647218644618988,-2.3306729793548584,-0.5478768944740295
1761915077151793400,3.89779345703125,0.35050323605537415,-2.1526858806610107,-0.2786805331707001
1761915077161847300,3.907847412109375,0.42396843433380127,-1.4446274042129517,-0.10393474996089935
1761915077171902500,3.91790234375,0.5429320931434631,-0.5766605734825134,-0.1020902469754219
1761915077181956400,3.927956298828125,0.6282539963722229,0.003203548491001129,-0.274084210395813
1761915077192010500,3.938010498046875,0.6060872077941895,0.2950729727745056,-0.5911439657211304
1761915077202065400,3.9480654296875,0.3832768201828003,0.40238118171691895,-0.9465712904930115
1761915077212119300,3.958119384765625,0.06483466923236847,0.3636077046394348,-1.1812299489974976
1761915077222173400,3.96817333984375,-0.21468056738376617,0.1798156052827835,-1.221798300743103
1761915077232228600,3.978228515625,-0.4001561403274536,-0.03204125910997391,-1.0988825559616089
1761915077242282500,3.988282470703125,-0.3899862766265869,-0.013295365497469902,-1.0621987581253052
1761915077252337400,3.99833740234375,-0.21195927262306213,0.13501422107219696,-1.2742133140563965
1761915077262391300,4.008391357421875,0.062112726271152496,0.2737235128879547,-1.6379855871200562
1761915077272443400,4.018443359375,0.34504324197769165,0.3236631155014038,-1.9628394842147827
1761915077282497300,4.028497314453125,0.5194963812828064,0.20278097689151764,-2.142655372619629
1761915077292552400,4.038552490234375,0.49039071798324585,-0.08413387835025787,-2.1996774673461914
1761915077302606300,4.0486064453125,0.24304737150669098,-0.46658018231391907,-2.1849894523620605
1761915077312660500,4.058660400390625,-0.09323450922966003,-0.7387187480926514,-2.120885133743286
1761915077322715400,4.06871533203125,-0.34982749819755554,-0.8135899305343628,-1.9672821760177612
1761915077332769300,4.078769287109375,-0.47250017523765564,-0.6386790871620178,-1.724549412727356
1761915077342823400,4.088823486328125,-0.4199777841567993,-0.2683528661727905,-1.438828468322754
1761915077352878300,4.09887841796875,-0.15852408111095428,0.01825624145567417,-1.1553618907928467
1761915077362932500,4.108932373046875,0.17151866853237152,0.04868762567639351,-0.9433671832084656
1761915077372986400,4.118986328125,0.3224692940711975,-0.34945762157440186,-0.7642073035240173
1761915077383041300,4.129041259765625,0.17537222802639008,-1.0479652881622314,-0.5457292199134827
1761915077393095400,4.139095458984375,-0.16064172983169556,-1.6914989948272705,-0.23744437098503113
1761915077403150300,4.149150390625,-0.4344905614852905,-2.0263404846191406,0.15880143642425537
1761915077413204500,4.15920458984375,-0.5384986996650696,-1.9130882024765015,0.6019365191459656
1761915077423258400,4.16925830078125,-0.4579804241657257,-1.4484062194824219,1.109883427619934
1761915077433313300,4.179313232421875,-0.21110910177230835,-0.8391178250312805,1.6436536312103271
1761915077443367400,4.189367431640625,0.08892032504081726,-0.393269419670105,2.12542724609375
1761915077453421300,4.19942138671875,0.216765359044075,-0.2857125997543335,2.475013494491577
1761915077463476500,4.2094765625,0.12869210541248322,-0.3726646900177002,2.6574361324310303
1761915077473530400,4.2195302734375,-0.09453805536031723,-0.44713786244392395,2.65820050239563
1761915077483584500,4.22958447265625,-0.3418184220790863,-0.38460254669189453,2.5251874923706055
1761915077493639400,4.239639404296875,-0.5251213908195496,-0.1362191140651703,2.329676866531372
1761915077503693300,4.249693359375,-0.573312520980835,0.21270449459552765,2.10625958442688
1761915077513747500,4.25974755859375,-0.47485172748565674,0.3937232792377472,1.9337915182113647
1761915077523802600,4.269802734375,-0.3004145920276642,0.24170532822608948,1.8600138425827026
1761915077533856500,4.2798564453125,-0.10844540596008301,-0.05932135507464409,1.817988395690918
1761915077543911400,4.289911376953125,-0.015300227329134941,-0.10253837704658508,1.7624661922454834
1761915077553965300,4.29996533203125,-0.06348054111003876,0.15727455914020538,1.6277214288711548
1761915077564019500,4.31001953125,-0.22772395610809326,0.5766344666481018,1.398638367652893
1761915077574074600,4.32007470703125,-0.4501383900642395,0.9544081091880798,1.061363697052002
1761915077584128300,4.330128173828125,-0.741578996181488,1.1913446187973022,0.5606132745742798
1761915077594182400,4.340182373046875,-1.0637767314910889,1.016971468925476,-0.19056436419487
1761915077604237600,4.350237548828125,-1.2942261695861816,0.30347156524658203,-1.1098778247833252
1761915077614291500,4.36029150390625,-1.4031486511230469,-0.772907018661499,-1.963342308998108
1761915077624345600,4.370345703125,-1.4630506038665771,-1.636186122894287,-2.4564921855926514
1761915077634400300,4.380400146484375,-1.5299252271652222,-1.7683913707733154,-2.5002975463867188
1761915077644454400,4.390454345703125,-1.6380126476287842,-1.078426480293274,-2.3191475868225098
1761915077654509600,4.400509521484375,-1.576992392539978,-0.1328631043434143,-2.194547653198242
1761915077664563500,4.4105634765625,-1.2958228588104248,0.49996641278266907,-2.2523696422576904
1761915077674617600,4.42061767578125,-1.059230089187622,0.6072156429290771,-2.3457109928131104
1761915077684672300,4.43067236328125,-0.9460216164588928,0.42954733967781067,-2.3133766651153564
1761915077694726400,4.440726318359375,-0.9588713645935059,0.30868294835090637,-2.201247215270996
1761915077704780300,4.4507802734375,-1.0431125164031982,0.4360833168029785,-2.132843017578125
1761915077714835500,4.46083544921875,-1.1071220636367798,0.6824275851249695,-2.156475067138672
1761915077724889600,4.4708896484375,-1.0885186195373535,0.780081570148468,-2.2314887046813965
1761915077734943500,4.480943603515625,-0.9565297365188599,0.571088433265686,-2.31866717338562
1761915077744998400,4.490998291015625,-0.7074487805366516,0.11408396810293198,-2.376901149749756
1761915077755052300,4.50105224609375,-0.5200871229171753,-0.21792033314704895,-2.304500102996826
1761915077765106400,4.5111064453125,-0.4310797452926636,-0.24218448996543884,-2.0777668952941895
1761915077775161600,4.52116162109375,-0.4072692394256592,-0.07003535330295563,-1.7359637022018433
1761915077785215500,4.531215576171875,-0.381715327501297,0.07633593678474426,-1.3213921785354614
1761915077795270400,4.5412705078125,-0.3590254485607147,0.11923413723707199,-0.8769226670265198
1761915077805324500,4.551324462890625,-0.3601932227611542,0.045355163514614105,-0.4799545407295227
1761915077815378400,4.56137841796875,-0.31264621019363403,-0.09164956212043762,-0.17225398123264313
1761915077825433600,4.57143359375,-0.17779874801635742,-0.24798721075057983,0.10594554990530014
1761915077835487500,4.581487548828125,0.004435240291059017,-0.43967142701148987,0.4652656316757202
1761915077845541400,4.591541259765625,0.16324803233146667,-0.5524500608444214,0.9637795090675354
1761915077855596500,4.601596435546875,0.22662727534770966,-0.497033953666687,1.5761609077453613
1761915077865651500,4.6116513671875,0.23743151128292084,-0.2939605116844177,2.2196900844573975
1761915077875705600,4.62170556640625,0.2582036256790161,0.04063345119357109,2.8136868476867676
1761915077885760500,4.631760498046875,0.3291502892971039,0.4121142029762268,3.2750015258789062
1761915077895814400,4.641814453125,0.3972792625427246,0.7029234170913696,3.547611951828003
1761915077905868500,4.65186865234375,0.4438822567462921,0.8368483781814575,3.6299309730529785
1761915077915923500,4.66192333984375,0.4403328001499176,0.8628994226455688,3.5356898307800293
1761915077925977300,4.671977294921875,0.3805899918079376,0.7643685340881348,3.2697107791900635
1761915077936031200,4.68203125,0.3002661466598511,0.5426275730133057,2.840411901473999
1761915077946086400,4.69208642578125,0.20894205570220947,0.21663440763950348,2.306136131286621
1761915077956140500,4.702140625,0.13484519720077515,-0.17971666157245636,1.7340506315231323
1761915077966194400,4.7121943359375,0.07766879349946976,-0.4745350480079651,1.2528046369552612
1761915077976249300,4.722249267578125,0.013359312899410725,-0.5564258694648743,0.9517825245857239
1761915077986303200,4.73230322265625,-0.06746890395879745,-0.46808862686157227,0.812227189540863
1761915077996358400,4.7423583984375,-0.11756615340709686,-0.3751690685749054,0.7796276807785034
1761915078006412500,4.75241259765625,-0.07440152019262314,-0.4187043607234955,0.8111293315887451
1761915078016466400,4.762466552734375,0.05305923521518707,-0.6126288175582886,0.8834245800971985
1761915078026521300,4.772521240234375,0.21036627888679504,-0.8092067241668701,1.0243865251541138
1761915078036575500,4.782575439453125,0.3344975411891937,-0.7815690040588379,1.2087281942367554
1761915078046629400,4.79262939453125,0.37465065717697144,-0.4108426570892334,1.3166381120681763
1761915078056684500,4.8026845703125,0.3128291070461273,0.09116029739379883,1.3051284551620483
1761915078066738400,4.812738525390625,0.19373440742492676,0.5420026183128357,1.1581820249557495
1761915078076792600,4.82279248046875,0.10830313712358475,0.8602396845817566,0.7850377559661865
1761915078086847500,4.832847412109375,0.04832069203257561,0.7785366773605347,0.19026874005794525
1761915078096901400,4.8429013671875,-0.009093333035707474,0.17819783091545105,-0.47304877638816833
1761915078106956500,4.85295654296875,-0.016392135992646217,-0.689792275428772,-0.9963843822479248
1761915078117010400,4.863010498046875,0.04105677455663681,-1.5701624155044556,-1.1167576313018799
1761915078127064600,4.873064697265625,0.1509058028459549,-1.8797073364257812,-0.8381677865982056
1761915078137119500,4.883119384765625,0.2812984585762024,-1.4223076105117798,-0.40487387776374817
1761915078147173400,4.89317333984375,0.44114911556243896,-0.5635427236557007,-0.10063575208187103
1761915078157227500,4.9032275390625,0.5900882482528687,-0.007059741765260696,-0.009502912871539593
1761915078167282400,4.913282470703125,0.6515016555786133,0.17861203849315643,-0.05358472093939781
1761915078177336600,4.923336669921875,0.6386896967887878,0.30446556210517883,-0.2295842468738556
1761915078187390200,4.93339013671875,0.4628196656703949,0.48255082964897156,-0.5965709090232849
1761915078197445400,4.9434453125,0.07189290970563889,0.600826621055603,-1.16287100315094
1761915078207499500,4.95349951171875,-0.38275620341300964,0.5876016020774841,-1.7843520641326904
1761915078217554400,4.963554443359375,-0.6629013419151306,0.4196416735649109,-2.3192930221557617
1761915078227608300,4.9736083984375,-0.7147286534309387,0.15089279413223267,-2.639322519302368
1761915078237662500,4.983662353515625,-0.6067153215408325,-0.10683169215917587,-2.6399543285369873
1761915078247717400,4.99371728515625,-0.4649941325187683,-0.17548415064811707,-2.244410753250122
1761915078257771500,5.003771484375,-0.3929220736026764,0.12594839930534363,-1.5328383445739746
1761915078267825400,5.013825439453125,-0.43551889061927795,0.753571629524231,-0.6506011486053467
1761915078277880300,5.02388037109375,-0.5176467895507812,1.484180212020874,0.25506800413131714
1761915078287934500,5.0339345703125,-0.5264978408813477,2.0870442390441895,1.036853551864624
1761915078297988400,5.04398828125,-0.4541695713996887,2.4100050926208496,1.594850778579712
1761915078308043500,5.05404345703125,-0.3312404453754425,2.405036687850952,1.9240257740020752
1761915078318097400,5.064097412109375,-0.19580911099910736,2.1523516178131104,2.028430223464966
1761915078328151600,5.074151611328125,-0.05964389070868492,1.71275794506073,1.918081283569336
1761915078338206500,5.08420654296875,0.032986175268888474,1.153029441833496,1.637869954109192
1761915078348260400,5.09426025390625,0.07723207771778107,0.5762985944747925,1.256988763809204
1761915078358315500,5.1043154296875,0.0872759222984314,0.1577463150024414,0.8866817951202393
1761915078368369400,5.114369384765625,0.11325908452272415,-0.041374124586582184,0.6367119550704956
1761915078378423600,5.124423583984375,0.14700372517108917,-0.04845680296421051,0.5522609949111938
1761915078388478500,5.134478515625,0.14096607267856598,0.12164654582738876,0.6414675116539001
1761915078398532400,5.144532470703125,0.0910927802324295,0.4102533161640167,0.8353145122528076
1761915078408586500,5.15458642578125,0.08036892116069794,0.7066347002983093,1.0238693952560425
1761915078418641400,5.164641357421875,0.16014257073402405,0.897639274597168,1.1655809879302979
1761915078428695600,5.174695556640625,0.28060513734817505,0.9990699291229248,1.2601722478866577
1761915078438750500,5.18475048828125,0.39399588108062744,1.0884381532669067,1.2990034818649292
1761915078448804400,5.194804443359375,0.46185562014579773,1.1128915548324585,1.2729215621948242
1761915078458858500,5.2048583984375,0.44837844371795654,0.9832443594932556,1.2053958177566528
1761915078468913700,5.21491357421875,0.37882569432258606,0.7820389866828918,1.1028902530670166
1761915078478967600,5.224967529296875,0.2935803234577179,0.593748152256012,0.994411289691925
1761915078489021400,5.235021484375,0.2418527901172638,0.4393811523914337,0.9191786646842957
1761915078499075800,5.245075927734375,0.24743691086769104,0.2469586879014969,0.8491084575653076
1761915078509130000,5.2551298828125,0.31163883209228516,-0.009540674276649952,0.7742221355438232
1761915078519184000,5.265183837890625,0.42855188250541687,-0.27686506509780884,0.7340081334114075
1761915078529239000,5.275239013671875,0.5532599687576294,-0.3827420175075531,0.7526652216911316
1761915078539293000,5.28529296875,0.5686674118041992,-0.18836745619773865,0.8076184391975403
1761915078549346800,5.295346923828125,0.506242036819458,0.26773980259895325,0.7303426861763
1761915078559402000,5.305402099609375,0.3976958692073822,0.6269587278366089,0.46228939294815063
1761915078569455900,5.315455810546875,0.24961572885513306,0.6704208254814148,0.07288166880607605
1761915078579511000,5.325510986328125,0.11392206698656082,0.5702236890792847,-0.43447422981262207
1761915078589565000,5.33556494140625,0.02913833037018776,0.11312710493803024,-0.9976022243499756
1761915078599618800,5.345618896484375,-0.02320929616689682,-0.7613180875778198,-1.3204249143600464
1761915078609674000,5.355674072265625,-0.025639057159423828,-1.6178447008132935,-1.2362037897109985
1761915078619728000,5.365727783203125,0.03173395246267319,-1.8509522676467896,-0.9380480051040649
1761915078629782000,5.375781982421875,0.08962716162204742,-1.391606092453003,-0.5850954651832581
1761915078639836700,5.385836669921875,0.12501151859760284,-0.5970498919487,-0.2903690040111542
1761915078649890800,5.395890869140625,0.17399002611637115,0.08848907798528671,-0.08442889899015427
1761915078659945000,5.405945068359375,0.23636604845523834,0.5596132278442383,-0.009562382474541664
1761915078669999900,5.415999755859375,0.19463498890399933,0.8915371894836426,-0.1907494217157364
1761915078680054000,5.426053955078125,-0.08861563354730606,1.0147366523742676,-0.59527987241745
1761915078690109000,5.43610888671875,-0.5673398971557617,0.8610102534294128,-1.100942850112915
1761915078700162800,5.446162841796875,-1.0054363012313843,0.4881584048271179,-1.6615911722183228
1761915078710217000,5.456217041015625,-1.1825417280197144,-0.059337716549634933,-2.222099542617798
1761915078720272000,5.46627197265625,-1.0281692743301392,-0.5345918536186218,-2.671160936355591
1761915078730326000,5.476325927734375,-0.7006588578224182,-0.7886137962341309,-2.8744282722473145
1761915078740380000,5.4863798828125,-0.5107932686805725,-0.8184055089950562,-2.714772939682007
1761915078750434800,5.496434814453125,-0.5645051002502441,-0.5891286134719849,-2.232527732849121
1761915078760489000,5.506489013671875,-0.7511810064315796,-0.18256404995918274,-1.5463064908981323
1761915078770542800,5.51654296875,-0.880342423915863,0.28455179929733276,-0.8009694218635559
1761915078780598000,5.526597900390625,-0.8586350083351135,0.6923055052757263,-0.13960693776607513
1761915078790652000,5.53665185546875,-0.7586253881454468,0.8469595313072205,0.39005157351493835
1761915078800705800,5.546705810546875,-0.6346973180770874,0.6781824827194214,0.7851626873016357
1761915078810761000,5.556760986328125,-0.49160993099212646,0.27008554339408875,1.0356839895248413
1761915078820814800,5.56681494140625,-0.32526010274887085,-0.2037704586982727,1.1580466032028198
1761915078830870000,5.5768701171875,-0.1614971160888672,-0.6353365182876587,1.1748247146606445
1761915078840924000,5.586923828125,-0.019497107714414597,-1.0084258317947388,1.142763614654541
1761915078850977800,5.596977783203125,0.05996723473072052,-1.2782496213912964,1.0952873229980469
1761915078861033000,5.607032958984375,0.09199041873216629,-1.34911048412323,1.064062237739563
1761915078871086800,5.6170869140625,0.07471562922000885,-1.1595419645309448,1.059135913848877
1761915078881141000,5.62714111328125,-0.003358136862516403,-0.7568246126174927,1.0886282920837402
1761915078891196000,5.63719580078125,-0.11091524362564087,-0.30760008096694946,1.1674877405166626
1761915078901249800,5.647249755859375,-0.16611485183238983,0.013876477256417274,1.2588751316070557
1761915078911304000,5.657303955078125,-0.1890060305595398,0.13245446979999542,1.317624807357788
1761915078921358800,5.66735888671875,-0.1721639335155487,0.11436867713928223,1.313667893409729
1761915078931413000,5.6774130859375,-0.11726677417755127,-0.012611070647835732,1.2365492582321167
1761915078941468000,5.687468017578125,-0.03662492707371712,-0.19395557045936584,1.1120715141296387
1761915078951521800,5.697521728515625,0.0609360933303833,-0.39951321482658386,0.9628188610076904
1761915078961576000,5.707575927734375,0.15826663374900818,-0.594702422618866,0.8199695348739624
1761915078971630800,5.717630859375,0.2361208200454712,-0.6769270896911621,0.6872326135635376
1761915078981685000,5.72768505859375,0.3150193691253662,-0.6764868497848511,0.5462174415588379
1761915078991739000,5.73773876953125,0.37139832973480225,-0.582037091255188,0.4186224937438965
1761915079001793800,5.747793701171875,0.40317249298095703,-0.4814910590648651,0.3482159674167633
1761915079011848000,5.757847900390625,0.4376668334007263,-0.48800283670425415,0.4091813862323761
1761915079021901800,5.76790185546875,0.4883209764957428,-0.39310136437416077,0.5391870737075806
1761915079031957000,5.77795703125,0.5235381126403809,-0.13405606150627136,0.6133626699447632
1761915079042011000,5.788010986328125,0.5612865686416626,0.1015617847442627,0.4778359830379486
1761915079052065800,5.798065673828125,0.6024050712585449,0.1530744880437851,0.16339991986751556
1761915079062120000,5.808119873046875,0.5940022468566895,0.06746690720319748,-0.18584036827087402
1761915079072173800,5.818173828125,0.5089792013168335,-0.08415433019399643,-0.5716965794563293
1761915079082229000,5.82822900390625,0.37298938632011414,-0.4704040288925171,-0.9168286919593811
1761915079092283100,5.838283203125,0.29339808225631714,-0.9761096239089966,-1.1429117918014526
1761915079102336800,5.848336669921875,0.24478155374526978,-1.2329941987991333,-1.1809828281402588
1761915079112392000,5.858391845703125,0.18824250996112823,-1.153342843055725,-1.061566710472107
1761915079122445800,5.86844580078125,0.1311078518629074,-0.8007800579071045,-0.8721347451210022
1761915079132500000,5.8785,0.15946117043495178,-0.3090485632419586,-0.6959546804428101
1761915079142555000,5.888554931640625,0.24367885291576385,0.07645146548748016,-0.5754522085189819
1761915079152608800,5.89860888671875,0.2669108211994171,0.1889401227235794,-0.583199143409729
1761915079162664000,5.908663818359375,0.16349363327026367,0.03882385790348053,-0.7268178462982178
1761915079172717800,5.9187177734375,-0.054890330880880356,-0.13435286283493042,-0.947509229183197
1761915079182772000,5.92877197265625,-0.3336636424064636,-0.15693753957748413,-1.2046089172363281
1761915079192827000,5.938826904296875,-0.5545311570167542,-0.05678248032927513,-1.4647624492645264
1761915079202880800,5.948880859375,-0.6036417484283447,-0.01989743486046791,-1.71321702003479
1761915079212935000,5.958934814453125,-0.5153918862342834,-0.07084789872169495,-1.9061263799667358
1761915079222989800,5.96898974609375,-0.3589753806591034,-0.15626585483551025,-1.9984856843948364
1761915079233044000,5.9790439453125,-0.21348683536052704,-0.22999341785907745,-1.9996790885925293
1761915079243097900,5.989097900390625,-0.2403930276632309,-0.2249200940132141,-1.9389441013336182
1761915079253152800,5.99915283203125,-0.5028602480888367,-0.07969581335783005,-1.8103587627410889
1761915079263207000,6.00920703125,-0.8475068211555481,0.21389347314834595,-1.5547888278961182
1761915079273261800,6.01926171875,-1.0516204833984375,0.525981068611145,-1.1632800102233887
1761915079283316000,6.02931591796875,-1.0553432703018188,0.7165483236312866,-0.7464657425880432
1761915079293370000,6.0393701171875,-0.8702170252799988,0.7035566568374634,-0.47403132915496826
1761915079303424800,6.0494248046875,-0.533603310585022,0.33156657218933105,-0.3704026937484741
1761915079313479000,6.05947900390625,-0.12080825120210648,-0.27481865882873535,-0.37985360622406006
1761915079323532800,6.06953271484375,0.27436062693595886,-0.8902187347412109,-0.3969593346118927
1761915079333588000,6.079587890625,0.569322943687439,-1.3595855236053467,-0.36158743500709534
1761915079343642000,6.08964208984375,0.7563117146492004,-1.5714764595031738,-0.24918313324451447
1761915079353695700,6.09969580078125,0.8376609086990356,-1.4974029064178467,-0.06901238858699799
1761915079363751000,6.1097509765625,0.8400106430053711,-1.102944254875183,0.14215177297592163
1761915079373804800,6.1198046875,0.7651640772819519,-0.4558260440826416,0.3662668764591217
1761915079383860000,6.12985986328125,0.6528375148773193,0.2203444391489029,0.6013779640197754
1761915079393914000,6.1399140625,0.531606137752533,0.7348581552505493,0.8350136280059814
1761915079403967700,6.1499677734375,0.4472813904285431,1.0649843215942383,1.0701398849487305
1761915079414023000,6.16002294921875,0.4395415484905243,1.1824982166290283,1.2858110666275024
1761915079424076800,6.170076904296875,0.48286399245262146,1.150090217590332,1.4569673538208008
1761915079434131000,6.180130859375,0.5433228611946106,1.0499703884124756,1.579197645187378
1761915079444185900,6.190185791015625,0.5983890295028687,0.9574544429779053,1.6615185737609863
1761915079454239700,6.20023974609375,0.6628753542900085,0.8887497186660767,1.6950663328170776
1761915079464294000,6.2102939453125,0.7446584105491638,0.8928930759429932,1.6677803993225098
1761915079474348800,6.220348876953125,0.8292714357376099,0.9763315916061401,1.5428980588912964
1761915079484403000,6.23040283203125,0.8919204473495483,1.0625269412994385,1.3145743608474731
1761915079494457900,6.240457763671875,0.8823750019073486,1.1317704916000366,1.0166171789169312
1761915079504512500,6.250512451171875,0.7977325320243835,1.0972434282302856,0.7541736364364624
1761915079514566700,6.260566650390625,0.6879612803459167,0.8512749075889587,0.6276251077651978
1761915079524621800,6.270621826171875,0.5678977370262146,0.5665539503097534,0.6010339856147766
1761915079534675700,6.28067578125,0.4509159326553345,0.45196864008903503,0.5819988250732422
1761915079544729600,6.2907294921875,0.36665964126586914,0.5472453832626343,0.4894489645957947
1761915079554784500,6.300784423828125,0.35069000720977783,0.7899263501167297,0.31643715500831604
1761915079564838700,6.310838623046875,0.3722836971282959,1.1413041353225708,0.0686129778623581
1761915079574892800,6.320892822265625,0.3910926580429077,1.6047965288162231,-0.33263900876045227
1761915079584947700,6.33094775390625,0.38617968559265137,1.682579755783081,-0.8528028130531311
1761915079595001600,6.341001708984375,0.3658803403377533,0.9196972846984863,-1.2802690267562866
1761915079605056800,6.351056884765625,0.3401360809803009,-0.20883402228355408,-1.5349433422088623
1761915079615110700,6.361110595703125,0.37916117906570435,-1.0056180953979492,-1.7245049476623535
1761915079625164800,6.371164794921875,0.4569012224674225,-1.3021223545074463,-1.9493753910064697
1761915079635219500,6.381219482421875,0.45963916182518005,-1.0941823720932007,-2.1457395553588867
1761915079645273600,6.391273681640625,0.48213595151901245,-0.5818444490432739,-2.235827684402466
1761915079655327500,6.401327392578125,0.5376019477844238,-0.04860270768404007,-2.1735873222351074
1761915079665382700,6.411382568359375,0.5238972902297974,0.27917224168777466,-2.0097670555114746
1761915079675436800,6.421436767578125,0.39324450492858887,0.3562108278274536,-1.7821940183639526
1761915079685490700,6.43149072265625,0.17092779278755188,0.2540932595729828,-1.5557483434677124
1761915079695545600,6.441545654296875,-0.05915665626525879,0.021900078281760216,-1.35062837600708
1761915079705599500,6.451599609375,-0.25185874104499817,-0.2706713378429413,-1.1655360460281372
1761915079715654700,6.461654541015625,-0.3717939853668213,-0.5552201867103577,-0.974111795425415
1761915079725708800,6.471708740234375,-0.41030994057655334,-0.7148889303207397,-0.8082820773124695
1761915079735762700,6.4817626953125,-0.4315851032733917,-0.7118396162986755,-0.6733883023262024
1761915079745817600,6.491817626953125,-0.5032299757003784,-0.5434396862983704,-0.5745373368263245
1761915079755871500,6.50187158203125,-0.6773239970207214,-0.17904362082481384,-0.4756525456905365
1761915079765925600,6.511925537109375,-0.8921406865119934,0.29935598373413086,-0.29781144857406616
1761915079775980800,6.521980712890625,-1.0130228996276855,0.6633670926094055,-0.016405999660491943
1761915079786034700,6.53203466796875,-0.9967275857925415,0.8689489960670471,0.3200625479221344
1761915079796088600,6.542088623046875,-0.8671776652336121,0.9629002809524536,0.6939443349838257
1761915079806143700,6.552143798828125,-0.6192288398742676,0.9730042815208435,1.0648648738861084
1761915079816197600,6.56219775390625,-0.2771783769130707,0.9221484661102295,1.3565688133239746
1761915079826252800,6.572252685546875,0.09219247102737427,0.7821348905563354,1.4895210266113281
1761915079836306700,6.582306640625,0.3885502219200134,0.5650265216827393,1.4284286499023438
1761915079846360600,6.592360595703125,0.5734875798225403,0.33177170157432556,1.2345374822616577
1761915079856415700,6.602415771484375,0.640504002571106,0.12385886162519455,1.0074331760406494
1761915079866469600,6.6124697265625,0.6123799681663513,-0.02278171293437481,0.8286487460136414
1761915079876523800,6.622523681640625,0.5272891521453857,-0.13399779796600342,0.7390367388725281
1761915079886578400,6.632578369140625,0.41907185316085815,-0.1826809197664261,0.766539990901947
1761915079896632600,6.642632568359375,0.323588103055954,-0.15096183121204376,0.9098346829414368
1761915079906686500,6.6526865234375,0.25390249490737915,0.0007280911086127162,1.1513197422027588
1761915079916741600,6.66274169921875,0.21759793162345886,0.24562998116016388,1.453148603439331
1761915079926795800,6.672795654296875,0.23050227761268616,0.4906008541584015,1.7578049898147583
1761915079936850400,6.682850341796875,0.27898648381233215,0.6907452344894409,2.0124330520629883
1761915079946904600,6.692904541015625,0.36863380670547485,0.8373647332191467,2.1896464824676514
1761915079956958500,6.70295849609375,0.47387179732322693,0.9279915690422058,2.2835872173309326
1761915079967013600,6.713013671875,0.5681015849113464,0.9972097873687744,2.274533987045288
1761915079977067800,6.72306787109375,0.6571064591407776,1.0491849184036255,2.1742515563964844
1761915079987121700,6.73312158203125,0.7217462062835693,1.0038278102874756,2.0080416202545166
1761915079997176600,6.743176513671875,0.7566147446632385,0.7285313010215759,1.7713960409164429
1761915080007230700,6.753230712890625,0.7520844340324402,0.33583059906959534,1.4738881587982178
1761915080017284600,6.76328466796875,0.7304827570915222,0.025083644315600395,1.1634669303894043
1761915080027339800,6.77333984375,0.704423189163208,-0.12181605398654938,0.8827230930328369
1761915080037393700,6.7833935546875,0.6660481691360474,-0.12174691259860992,0.6683381199836731
1761915080047448600,6.793448486328125,0.6069837808609009,-0.01968526467680931,0.5180620551109314
1761915080057502700,6.803502685546875,0.5492419600486755,0.12979671359062195,0.3767399787902832
1761915080067556600,6.813556640625,0.4807710349559784,0.1810535043478012,0.13375261425971985
1761915080077611800,6.82361181640625,0.41423583030700684,0.019963420927524567,-0.17602470517158508
1761915080087665700,6.833665771484375,0.3595094680786133,-0.09340041875839233,-0.569532036781311
1761915080097719600,6.843719482421875,0.3138357996940613,0.21770377457141876,-1.1406983137130737
1761915080107774700,6.853774658203125,0.3330100178718567,0.3563266098499298,-1.7466870546340942
1761915080117828600,6.86382861328125,0.409452885389328,-0.2528395354747772,-2.046363592147827
1761915080127882800,6.8738828125,0.4059303104877472,-0.948453426361084,-1.9440292119979858
1761915080137937700,6.883937744140625,0.3184438645839691,-1.4554883241653442,-1.4740217924118042
1761915080147991600,6.893991455078125,0.1737753450870514,-1.764817714691162,-0.821755588054657
1761915080158046700,6.904046630859375,0.07353542745113373,-1.7404870986938477,-0.36269980669021606
1761915080168100600,6.9141005859375,0.04900399222970009,-1.3637065887451172,-0.21539956331253052
1761915080178154800,6.92415478515625,0.04824649915099144,-0.6501621603965759,-0.2830376923084259
1761915080188209400,6.93420947265625,-0.004645209759473801,0.2810395061969757,-0.47362759709358215
1761915080198263600,6.944263671875,-0.13326267898082733,1.035395860671997,-0.6764262914657593
1761915080208317700,6.954317626953125,-0.28682374954223633,1.4023802280426025,-0.8649972677230835
1761915080218372600,6.96437255859375,-0.5011589527130127,1.3468685150146484,-1.0112255811691284
1761915080228426800,6.9744267578125,-0.7471716403961182,0.9111897349357605,-1.0999915599822998
1761915080238480600,6.984480712890625,-0.9131472706794739,0.30699485540390015,-1.1611063480377197
1761915080248535600,6.99453564453125,-0.9531915783882141,-0.2928917407989502,-1.1718636751174927
1761915080258589700,7.004589599609375,-0.8695616722106934,-0.7380649447441101,-1.0914572477340698
1761915080268643600,7.0146435546875,-0.7617270946502686,-0.9735466837882996,-0.9323160648345947
1761915080278698800,7.02469873046875,-0.7422942519187927,-0.9555923342704773,-0.7151445746421814
1761915080288752600,7.034752685546875,-0.866751492023468,-0.5913097262382507,-0.44504275918006897
1761915080298807600,7.0448076171875,-1.1196473836898804,0.11189509183168411,-0.1035500317811966
1761915080308861700,7.05486181640625,-1.3650989532470703,0.9768216609954834,0.33059367537498474
1761915080318915600,7.06491552734375,-1.4042943716049194,1.7418535947799683,0.7768010497093201
1761915080328970800,7.074970703125,-1.2001060247421265,2.1883091926574707,1.100982904434204
1761915080339024600,7.085024658203125,-0.9261118173599243,2.22092604637146,1.1643568277359009
1761915080349078500,7.09507861328125,-0.7307149171829224,1.840793490409851,0.9293093681335449
1761915080359133700,7.1051337890625,-0.5658170580863953,1.1747090816497803,0.46155983209609985
1761915080369187600,7.1151875,-0.3583725094795227,0.32386404275894165,-0.10922587662935257
1761915080379241700,7.12524169921875,-0.09148851037025452,-0.43761470913887024,-0.6263505816459656
1761915080389296600,7.135296630859375,0.23511116206645966,-0.8335114121437073,-1.0020086765289307
1761915080399350500,7.1453505859375,0.5745074152946472,-0.7678472399711609,-1.181691288948059
1761915080409405700,7.15540576171875,0.7541823387145996,-0.3324388265609741,-1.1085950136184692
1761915080419459600,7.16545947265625,0.7627805471420288,0.4045891761779785,-0.802106499671936
1761915080429513700,7.175513671875,0.7123804688453674,1.1089038848876953,-0.2872689366340637
1761915080439568600,7.185568603515625,0.5813268423080444,1.5002496242523193,0.3354812264442444
1761915080449622500,7.19562255859375,0.4767402410507202,1.6135791540145874,0.8754430413246155
1761915080459676700,7.2056767578125,0.46544668078422546,1.5806286334991455,1.2344732284545898
1761915080469731600,7.215731689453125,0.5130096673965454,1.5294137001037598,1.4009956121444702
1761915080479785700,7.22578564453125,0.5350784659385681,1.4341075420379639,1.4006034135818481
1761915080489839600,7.235839599609375,0.5308381915092468,1.3038296699523926,1.2537330389022827
1761915080499897600,7.245897705078125,0.5212554931640625,1.1243019104003906,0.9782181978225708
1761915080509951200,7.255951171875,0.5146617889404297,0.9773643612861633,0.6280641555786133
1761915080520006400,7.26600634765625,0.4906291961669922,0.8322057127952576,0.2612784504890442
1761915080530060300,7.276060302734375,0.46639284491539,0.7252284288406372,-0.046252477914094925
1761915080540114400,7.286114501953125,0.4583653211593628,0.6177674531936646,-0.2363789826631546
1761915080550169300,7.29616943359375,0.5073301792144775,0.5235578417778015,-0.31355178356170654
1761915080560223200,7.30622314453125,0.5803744792938232,0.44354239106178284,-0.33703407645225525
1761915080570277400,7.31627734375,0.6273345351219177,0.3829410970211029,-0.43054458498954773
1761915080580332500,7.32633251953125,0.6143078804016113,0.24847877025604248,-0.6876131892204285
1761915080590386400,7.336386474609375,0.5042929649353027,0.03412359952926636,-0.9445075988769531
1761915080600440600,7.346440673828125,0.3008488714694977,-0.3445185720920563,-0.9987269639968872
1761915080610495200,7.3564951171875,0.17298837006092072,-0.6032094955444336,-0.9607266187667847
1761915080620549400,7.36654931640625,0.2681160271167755,-0.8468790650367737,-0.8218370676040649
1761915080630604500,7.3766044921875,0.5045485496520996,-1.017877459526062,-0.6645424962043762
1761915080640658400,7.386658447265625,0.7121906876564026,-1.1054474115371704,-0.4354706406593323
1761915080650712600,7.396712646484375,0.6715721487998962,-1.1797720193862915,0.03189123421907425
1761915080660767200,7.406767333984375,0.4371190667152405,-1.1858608722686768,0.6669464707374573
1761915080670821400,7.4168212890625,0.1544998735189438,-0.982546329498291,1.1492773294448853
1761915080680875300,7.426875244140625,-0.06982334703207016,-0.8175970911979675,1.3550782203674316
1761915080690930400,7.436930419921875,-0.1604323387145996,-0.6349726915359497,1.270260214805603
1761915080700984600,7.446984619140625,-0.14242815971374512,-0.4068542420864105,0.9409377574920654
1761915080711038500,7.45703857421875,-0.06895740330219269,-0.375555157661438,0.47626832127571106
1761915080721093400,7.46709326171875,0.00795129407197237,-0.5966173410415649,-0.06889630109071732
1761915080731147300,7.477147216796875,-0.0488363541662693,-0.9695885181427002,-0.5919052362442017
1761915080741202400,7.487202392578125,-0.2989506125450134,-1.3037927150726318,-0.9697582721710205
1761915080751256600,7.497256591796875,-0.6460469961166382,-1.5759737491607666,-1.1197935342788696
1761915080761310500,7.507310546875,-0.9333763122558594,-1.7374805212020874,-1.0591977834701538
1761915080771365400,7.517365478515625,-1.067962884902954,-1.677142858505249,-0.8792263269424438
1761915080781419500,7.52741943359375,-1.100048303604126,-1.3649040460586548,-0.6280551552772522
1761915080791473400,7.537473388671875,-1.0664926767349243,-0.8184792995452881,-0.4323633909225464
1761915080801528600,7.547528564453125,-0.9942508935928345,-0.1957402527332306,-0.34183645248413086
1761915080811582200,7.557582275390625,-0.8984692096710205,0.34829267859458923,-0.33380356431007385
1761915080821636400,7.56763623046875,-0.8011051416397095,0.6987932920455933,-0.3756472170352936
1761915080831691500,7.57769140625,-0.6842621564865112,0.739903450012207,-0.41027095913887024
1761915080841745400,7.587745361328125,-0.5450013875961304,0.4295673668384552,-0.3855341672897339
1761915080851800300,7.59780029296875,-0.4177265167236328,-0.1065693125128746,-0.3034915030002594
1761915080861854200,7.607854248046875,-0.2847726047039032,-0.5785500407218933,-0.1831682175397873
1761915080871908400,7.617908447265625,-0.1695469170808792,-0.8198375105857849,-0.04579837620258331
1761915080881963500,7.627963623046875,-0.1179247573018074,-0.7809565663337708,0.12380336970090866
1761915080892017400,7.638017333984375,-0.05633596330881119,-0.5795449018478394,0.35640519857406616
1761915080902071600,7.648071533203125,0.04440132528543472,-0.2546956241130829,0.6008322238922119
1761915080912126200,7.658126220703125,0.19998691976070404,0.10703913867473602,0.8119726777076721
1761915080922180400,7.668180419921875,0.20455607771873474,0.19858281314373016,1.0595060586929321
1761915080932234200,7.678234130859375,0.1410527378320694,0.305308997631073,1.2021114826202393
1761915080942289400,7.688289306640625,0.0821148231625557,0.34312283992767334,1.2343961000442505
1761915080952343600,7.698343505859375,0.06269451975822449,0.34005194902420044,1.1837563514709473
1761915080962398200,7.708398193359375,0.1030796617269516,0.3209344148635864,1.0574361085891724
1761915080972452400,7.718452392578125,0.16228465735912323,0.2864307761192322,0.8827979564666748
1761915080982506500,7.728506591796875,0.21354998648166656,0.2390243113040924,0.7017571330070496
1761915080992561400,7.7385615234375,0.21925979852676392,0.23772123456001282,0.5386848449707031
1761915081002615600,7.748615478515625,0.17890296876430511,0.26769134402275085,0.4030359089374542
1761915081012669400,7.75866943359375,0.13025234639644623,0.357340544462204,0.2820037603378296
1761915081022724400,7.768724365234375,0.11786845326423645,0.4002511203289032,0.21240615844726562
1761915081032778500,7.778778564453125,0.17121583223342896,0.27895185351371765,0.2420513927936554
1761915081042832400,7.788832275390625,0.28207117319107056,-0.01679662987589836,0.3427548110485077
1761915081052887600,7.798887451171875,0.3834816813468933,-0.34888961911201477,0.4629797637462616
1761915081062941400,7.80894140625,0.47162294387817383,-0.4586838483810425,0.566098153591156
1761915081072996400,7.818996337890625,0.4972478747367859,-0.3281652629375458,0.6562245488166809
1761915081083050500,7.829050537109375,0.46716445684432983,-0.12326890230178833,0.6886815428733826
1761915081093104400,7.8391044921875,0.38180217146873474,0.09568794071674347,0.5825130343437195
1761915081103159600,7.84915966796875,0.30336320400238037,0.4611530900001526,0.2240014374256134
1761915081113213200,7.859213134765625,0.29321202635765076,1.0646504163742065,-0.45688948035240173
1761915081123267300,7.869267333984375,0.35927554965019226,1.045093297958374,-1.0429108142852783
1761915081133322500,7.879322509765625,0.4656621813774109,0.04853226989507675,-1.1273274421691895
1761915081143376400,7.88937646484375,0.5091070532798767,-1.1551642417907715,-0.7219805717468262
1761915081153430500,7.899430419921875,0.46371716260910034,-1.6471781730651855,-0.24406403303146362
1761915081163485200,7.909485107421875,0.4093951880931854,-1.412685513496399,-0.09400861710309982
1761915081173539300,7.919539306640625,0.3843849003314972,-0.7527896165847778,-0.2947086989879608
1761915081183594500,7.929594482421875,0.3365669548511505,0.013856216333806515,-0.6385986804962158
1761915081193648400,7.9396484375,0.1897852122783661,0.5792165398597717,-0.9614281058311462
1761915081203702500,7.94970263671875,0.003583331825211644,0.7947139143943787,-1.1878350973129272
1761915081213757400,7.95975732421875,-0.2019519805908203,0.6261259913444519,-1.292257308959961
1761915081223811300,7.969811279296875,-0.3952827453613281,0.15043167769908905,-1.321198582649231
1761915081233865500,7.979865478515625,-0.5002482533454895,-0.35128122568130493,-1.3386268615722656
1761915081243920400,7.98992041015625,-0.5434562563896179,-0.635115921497345,-1.3685476779937744
1761915081253974500,7.999974609375,-0.5563901662826538,-0.6687116622924805,-1.355272650718689
1761915081264028400,8.0100283203125,-0.49611935019493103,-0.6106006503105164,-1.2170785665512085
1761915081274083300,8.020083251953125,-0.41424843668937683,-0.5299356579780579,-0.9626404047012329
1761915081284136200,8.03013623046875,-0.411092072725296,-0.46212998032569885,-0.6476566791534424
1761915081294191400,8.04019140625,-0.5812888145446777,-0.19209396839141846,-0.29694098234176636
1761915081304245500,8.05024560546875,-0.795017659664154,0.22995945811271667,0.10737654566764832
1761915081314299400,8.06029931640625,-0.8241134881973267,0.5846261978149414,0.5460425615310669
1761915081324354300,8.070354248046876,-0.594545304775238,0.7771396040916443,0.9269281029701233
1761915081334408200,8.080408203125,-0.14958462119102478,0.8150576949119568,1.1275908946990967
1761915081344463400,8.09046337890625,0.3434602618217468,0.6396399736404419,1.0549196004867554
1761915081354517500,8.100517578125,0.6790534257888794,0.22996403276920319,0.6992183327674866
1761915081364571400,8.1105712890625,0.8088032603263855,-0.26700645685195923,0.15266084671020508
1761915081374626300,8.120626220703125,0.7550119161605835,-0.6725488901138306,-0.3447912931442261
1761915081384680400,8.130680419921875,0.59954833984375,-0.9023755788803101,-0.6270942687988281
1761915081394734300,8.140734375,0.3806011378765106,-0.9201551079750061,-0.615230143070221
1761915081404789500,8.15078955078125,0.1340833455324173,-0.6364526748657227,-0.33621788024902344
1761915081414843400,8.160843505859376,-0.07298886775970459,-0.08388378471136093,0.11008477210998535
1761915081424897500,8.1708974609375,-0.1666441261768341,0.5589842200279236,0.6008305549621582
1761915081434952400,8.180952392578124,-0.13119079172611237,1.0956698656082153,1.0379563570022583
1761915081445006300,8.19100634765625,-0.01322131883352995,1.4387177228927612,1.3353856801986694
1761915081455061500,8.2010615234375,0.11648420989513397,1.5028746128082275,1.4622914791107178
1761915081465115400,8.211115478515625,0.18701481819152832,1.2851340770721436,1.3778619766235352
1761915081475169500,8.22116943359375,0.1986144781112671,0.8912945985794067,1.1095980405807495
1761915081485224400,8.231224365234375,0.17642201483249664,0.46202588081359863,0.7624388933181763
1761915081495278300,8.2412783203125,0.1340082436800003,0.08414756506681442,0.43899741768836975
1761915081505329700,8.25132958984375,0.11438573896884918,-0.20230400562286377,0.19795341789722443
1761915081515384600,8.261384521484375,0.15848368406295776,-0.30863603949546814,0.09981540590524673
1761915081525438500,8.2714384765625,0.27295875549316406,-0.227122500538826,0.17838065326213837
1761915081535492600,8.28149267578125,0.44236668944358826,-0.05695983022451401,0.36876097321510315
1761915081545547500,8.291547607421874,0.6042393445968628,0.1405653953552246,0.5959721207618713
1761915081555601700,8.3016015625,0.6800696849822998,0.3255629539489746,0.7925488352775574
1761915081565656600,8.311656494140625,0.6657043099403381,0.431476354598999,0.9194732904434204
1761915081575710500,8.32171044921875,0.5538893938064575,0.4214988052845001,0.9602750539779663
1761915081585764600,8.3317646484375,0.36649054288864136,0.33709439635276794,0.8955695033073425
1761915081595819500,8.341819580078125,0.18753758072853088,0.1775055229663849,0.7711460590362549
1761915081605873700,8.351873779296875,0.0702444389462471,0.08363287150859833,0.5653707385063171
1761915081615927600,8.361927490234375,0.01650717668235302,0.4038207232952118,0.09825096279382706
1761915081625982500,8.371982421875,0.008638754487037659,0.6032009720802307,-0.5645415186882019
1761915081636036600,8.38203662109375,-0.00982094556093216,-0.03976760059595108,-0.8760701417922974
1761915081646090500,8.392090576171874,-0.11181513965129852,-0.7248283624649048,-0.7483408451080322
1761915081656145700,8.402145751953125,-0.23023046553134918,-0.6106078028678894,-0.4656393527984619
1761915081666199800,8.41219970703125,-0.35486823320388794,-0.11095868796110153,-0.13816064596176147
1761915081676254500,8.42225439453125,-0.437502384185791,0.30615144968032837,0.05607888102531433
1761915081686308600,8.43230859375,-0.4745807349681854,0.6839351654052734,0.030101507902145386
1761915081696362500,8.442362548828125,-0.5254760980606079,1.14797842502594,-0.23652805387973785
1761915081706417700,8.452417724609376,-0.6498746275901794,1.3980780839920044,-0.5832260251045227
1761915081716471600,8.462471435546876,-0.7862406969070435,1.1357372999191284,-0.8841017484664917
1761915081726525400,8.472525390625,-0.843193769454956,0.4491887092590332,-1.1832276582717896
1761915081736580600,8.48258056640625,-0.8074416518211365,-0.3074481189250946,-1.445456624031067
1761915081746634500,8.492634521484375,-0.7346777319908142,-0.7695338726043701,-1.5650407075881958
1761915081756688600,8.502688720703125,-0.6998175382614136,-0.9588433504104614,-1.4411453008651733
1761915081766743600,8.51274365234375,-0.6921324133872986,-0.9175959229469299,-1.0741326808929443
1761915081776797400,8.52279736328125,-0.6489681601524353,-0.718925416469574,-0.6178448796272278
1761915081786852600,8.5328525390625,-0.6092926263809204,-0.36947253346443176,-0.1858902871608734
1761915081796906500,8.542906494140626,-0.6294838786125183,0.16428139805793762,0.2172883301973343
1761915081806960600,8.552960693359376,-0.6686956882476807,0.800486147403717,0.6283454895019531
1761915081817015600,8.563015625,-0.5759758353233337,1.2085471153259277,1.004049301147461
1761915081827069400,8.5730693359375,-0.27083104848861694,1.2178757190704346,1.2015317678451538
1761915081837123600,8.58312353515625,0.12646037340164185,0.7882267236709595,1.115513801574707
1761915081847178500,8.593178466796875,0.489764928817749,0.1172575131058693,0.771152913570404
1761915081857234400,8.603234375,0.7350085377693176,-0.5092532634735107,0.3336767852306366
1761915081867289600,8.61328955078125,0.8444753289222717,-0.914016604423523,-0.014216132462024689
1761915081877343700,8.62334375,0.8719876408576965,-1.1118024587631226,-0.19853483140468597
1761915081887398400,8.6333984375,0.8497036695480347,-1.1098442077636719,-0.17313489317893982
1761915081897452500,8.64345263671875,0.779150664806366,-0.9286859035491943,0.02746718004345894
1761915081907506400,8.65350634765625,0.6761361956596375,-0.5986236333847046,0.3077700436115265
1761915081917561600,8.6635615234375,0.5694571733474731,-0.23264510929584503,0.5817094445228577
1761915081927615700,8.67361572265625,0.48223671317100525,0.0627744197845459,0.7508458495140076
1761915081937669600,8.683669677734375,0.42356911301612854,0.2623293399810791,0.818510890007019
1761915081947724500,8.693724609375,0.40345993638038635,0.3342169225215912,0.8316530585289001
1761915081957778400,8.7037783203125,0.39560601115226746,0.24516747891902924,0.7932087182998657
1761915081967832600,8.71383251953125,0.3814333975315094,0.055766720324754715,0.7117630839347839
1761915081977887700,8.7238876953125,0.34979531168937683,-0.16092990338802338,0.6135203838348389
1761915081987941400,8.73394140625,0.2950509488582611,-0.33034399151802063,0.5527112483978271
1761915081997996500,8.74399658203125,0.2521602213382721,-0.40044158697128296,0.5743688941001892
1761915082008050700,8.75405078125,0.2686188817024231,-0.3206319212913513,0.6813661456108093
1761915082018104600,8.7641044921875,0.3423636555671692,-0.14800556004047394,0.8554404973983765
1761915082028159700,8.77415966796875,0.4493265450000763,-0.025962727144360542,1.0568338632583618
1761915082038213400,8.78421337890625,0.5685991048812866,0.04968196526169777,1.1887742280960083
1761915082048267500,8.794267578125,0.6258388161659241,0.15669193863868713,1.2104649543762207
1761915082058322700,8.80432275390625,0.5959932804107666,0.30386513471603394,1.1261202096939087
1761915082068376600,8.81437646484375,0.49639883637428284,0.47732990980148315,0.9248262643814087
1761915082078430700,8.8244306640625,0.3922681510448456,0.5386790037155151,0.6784167885780334
1761915082088485400,8.8344853515625,0.28937792778015137,0.39256617426872253,0.4230248034000397
1761915082098539500,8.84453955078125,0.25108540058135986,0.14435875415802002,0.010444184765219688
1761915082108594700,8.8545947265625,0.2931627631187439,-0.193757101893425,-0.5548482537269592
1761915082118648600,8.864648681640626,0.26953306794166565,-0.779033899307251,-0.893263041973114
1761915082128702700,8.87470263671875,0.030493389815092087,-1.3933022022247314,-0.6360583901405334
1761915082138757400,8.88475732421875,-0.2943962812423706,-1.421789526939392,-0.04041419178247452
1761915082148811500,8.8948115234375,-0.5039513111114502,-0.8977832198143005,0.598629355430603
1761915082158865400,8.904865478515624,-0.5860547423362732,-0.1618596464395523,1.0923032760620117
1761915082168920600,8.914920654296875,-0.5145749449729919,0.5508275628089905,1.3063009977340698
1761915082178974700,8.924974609375,-0.38075053691864014,1.196431040763855,1.211014747619629
1761915082189028600,8.935028564453125,-0.3394903838634491,1.6843113899230957,0.8806551098823547
1761915082199083500,8.94508349609375,-0.4468762278556824,1.6354790925979614,0.4712100327014923
1761915082209137700,8.9551376953125,-0.6298731565475464,1.1021136045455933,0.008950302377343178
1761915082219192600,8.965192626953124,-0.8183277249336243,0.3179831802845001,-0.505218505859375
1761915082229246700,8.975246826171874,-0.9674032330513,-0.5123046636581421,-1.02572762966156
1761915082239300600,8.985300537109374,-1.0088402032852173,-1.2006430625915527,-1.4760154485702515
1761915082249355500,8.99535546875,-0.9098808169364929,-1.6528319120407104,-1.750277042388916
1761915082259409700,9.00540966796875,-0.8077880144119263,-1.744696855545044,-1.7873696088790894
1761915082269463600,9.015463623046875,-0.8879735469818115,-1.3217005729675293,-1.5506632328033447
1761915082279518700,9.025518798828125,-1.0932406187057495,-0.4221745431423187,-1.0607620477676392
1761915082289572400,9.035572265625,-1.2094852924346924,0.5164783000946045,-0.37453359365463257
1761915082299626500,9.04562646484375,-1.116032361984253,1.1814885139465332,0.3559565544128418
1761915082309681700,9.055681640625,-0.7902466058731079,1.5709067583084106,0.9603305459022522
1761915082319735600,9.065735595703124,-0.2753180265426636,1.5269076824188232,1.3101576566696167
1761915082329790700,9.075790771484375,0.279493510723114,1.0521492958068848,1.3600056171417236
1761915082339844400,9.08584423828125,0.7114158868789673,0.35685762763023376,1.155892252922058
1761915082349898500,9.0958984375,0.9877261519432068,-0.3134753704071045,0.8131417036056519
1761915082359953700,9.10595361328125,1.1090123653411865,-0.7903862595558167,0.436148077249527
1761915082370007600,9.116007568359375,1.0923643112182617,-0.9553087949752808,0.13662110269069672
1761915082380061700,9.126061767578125,0.9923304915428162,-0.8609236478805542,-0.04756923392415047
1761915082390116400,9.136116455078126,0.8187904357910156,-0.5372945070266724,-0.09876270592212677
1761915082400170500,9.14617041015625,0.6368864178657532,-0.14614428579807281,-0.018224982544779778
1761915082410224600,9.156224609375,0.47668126225471497,0.1936459243297577,0.15560480952262878
1761915082420279600,9.166279541015625,0.34919068217277527,0.3422178328037262,0.3578817546367645
1761915082430333700,9.176333740234375,0.28993773460388184,0.25466519594192505,0.6067248582839966
1761915082440388600,9.186388671875,0.31362974643707275,-0.01962067000567913,0.8913879990577698
1761915082450442500,9.1964423828125,0.41014766693115234,-0.2997271716594696,1.0657987594604492
1761915082460496600,9.20649658203125,0.5286340713500977,-0.45503073930740356,1.0930397510528564
1761915082470551600,9.216551513671876,0.6624491214752197,-0.49306121468544006,1.0278961658477783
1761915082480605700,9.226605712890626,0.8048651218414307,-0.5721770524978638,0.9132379293441772
1761915082490659600,9.23665966796875,0.886465847492218,-0.7060356736183167,0.759741485118866
1761915082500714200,9.24671435546875,0.888322651386261,-0.8548208475112915,0.5842468738555908
1761915082510768000,9.25676806640625,0.8680331707000732,-0.9257556796073914,0.3933446407318115
1761915082520822300,9.266822265625,0.8463491797447205,-0.8959527611732483,0.2750494182109833
1761915082530877400,9.27687744140625,0.7831127643585205,-0.8993444442749023,0.338549941778183
1761915082540931300,9.286931396484375,0.654635488986969,-0.9292773008346558,0.5595911741256714
1761915082550986200,9.296986328125,0.5165106058120728,-0.9590253233909607,0.7616379857063293
1761915082561040100,9.3070400390625,0.4005246162414551,-0.8885127902030945,0.7917362451553345
1761915082571094300,9.31709423828125,0.3832836151123047,-0.6115769743919373,0.63489830493927
1761915082581149400,9.3271494140625,0.4621528685092926,-0.10159576684236526,0.3905937373638153
1761915082591203300,9.337203369140624,0.560233473777771,0.48204144835472107,0.13130033016204834
1761915082601257200,9.34725732421875,0.553654670715332,0.8162633776664734,-0.11668471992015839
1761915082611312400,9.3573125,0.40604183077812195,0.5683572292327881,-0.2804301679134369
1761915082621366300,9.3673662109375,0.15983232855796814,0.050896476954221725,-0.3230287432670593
1761915082631420400,9.37742041015625,-0.04652168229222298,-0.23955750465393066,-0.31718015670776367
1761915082641475300,9.387475341796875,-0.06975670158863068,-0.3638629615306854,-0.2661460041999817
1761915082651529200,9.397529296875,0.010781862773001194,-0.3020477294921875,-0.17546378076076508
1761915082661584400,9.40758447265625,0.0603528767824173,0.0573599711060524,-0.12473055720329285
1761915082671638300,9.41763818359375,0.03760282322764397,0.5245031714439392,-0.16401857137680054
1761915082681692400,9.4276923828125,-0.09471127390861511,0.9485737681388855,-0.29358670115470886
1761915082691747000,9.4377470703125,-0.34696364402770996,1.2158485651016235,-0.46934840083122253
1761915082701801200,9.44780126953125,-0.6165429353713989,1.3808108568191528,-0.6484947204589844
1761915082711855000,9.457855224609375,-0.8163979649543762,1.4432199001312256,-0.8160433173179626
1761915082721910300,9.46791015625,-0.8804448246955872,1.33635413646698,-0.9280563592910767
1761915082731964400,9.47796435546875,-0.8169217705726624,0.9495100378990173,-0.9615058302879333
1761915082742018300,9.488018310546876,-0.716902494430542,0.533210039138794,-0.9899007081985474
1761915082752073200,9.4980732421875,-0.6485325694084167,0.3041607141494751,-1.0504100322723389
1761915082762127000,9.508127197265624,-0.6140049695968628,0.223003551363945,-1.0615582466125488
1761915082772182300,9.518182373046875,-0.6165578961372375,0.12394141405820847,-0.9390393495559692
1761915082782236400,9.528236328125,-0.674348771572113,0.07075462490320206,-0.7355397939682007
1761915082792290300,9.538290283203125,-0.6569498777389526,0.12726978957653046,-0.5544333457946777
1761915082802345200,9.54834521484375,-0.5138347744941711,0.15889215469360352,-0.3893516957759857
1761915082812399400,9.5583994140625,-0.3263248801231384,0.0736088827252388,-0.2244078367948532
1761915082822453200,9.568453369140625,-0.16299080848693848,-0.08802555501461029,-0.042420994490385056
1761915082832508400,9.57850830078125,-0.0356949158012867,-0.2675420343875885,0.14120915532112122
1761915082842562300,9.588562255859374,0.07483292371034622,-0.45811358094215393,0.3154022693634033
1761915082852616200,9.5986162109375,0.1700669378042221,-0.6528069376945496,0.4785456955432892
1761915082862671400,9.60867138671875,0.22748975455760956,-0.8655703663825989,0.6227473616600037
1761915082872725200,9.618725341796875,0.2143527716398239,-1.1063593626022339,0.7438563108444214
1761915082882780400,9.628780517578125,0.13785026967525482,-1.2738415002822876,0.8248398900032043
1761915082892834300,9.638834228515625,0.03421211242675781,-1.2962183952331543,0.826953113079071
1761915082902888200,9.64888818359375,-0.10464244335889816,-1.1540213823318481,0.8081818222999573
1761915082912943400,9.658943359375,-0.292287677526474,-0.8413864970207214,0.8107138276100159
1761915082922997200,9.668997314453126,-0.39359113574028015,-0.3757306933403015,0.8599050641059875
1761915082933051400,9.679051513671874,-0.4058067798614502,0.11906146258115768,0.9597347378730774
1761915082943106000,9.68910595703125,-0.3491182029247284,0.4258229732513428,1.086132287979126
1761915082953160200,9.69916015625,-0.20590029656887054,0.5247126221656799,1.1988242864608765
1761915082963214000,9.709214111328125,0.016910148784518242,0.4951664209365845,1.2502448558807373
1761915082973269200,9.719269287109375,0.2500913739204407,0.4041196405887604,1.1905304193496704
1761915082983323400,9.729323486328125,0.46394479274749756,0.25052955746650696,1.023171067237854
1761915082993378000,9.7393779296875,0.6544327139854431,0.05682295560836792,0.7933690547943115
1761915083003432200,9.74943212890625,0.7988716959953308,-0.14357993006706238,0.5345686674118042
1761915083013486300,9.759486328125,0.8682443499565125,-0.2948441207408905,0.2728535830974579
1761915083023541200,9.769541259765624,0.8507460355758667,-0.4310317635536194,0.08210334926843643
1761915083033595400,9.779595458984375,0.7481634020805359,-0.6084038615226746,0.039916280657052994
1761915083043649300,9.789649169921875,0.5848376154899597,-0.6732662320137024,0.09312757104635239
1761915083053704200,9.7997041015625,0.43269869685173035,-0.5502323508262634,0.06120545417070389
1761915083063758300,9.80975830078125,0.28281518816947937,-0.3549129366874695,-0.13888874650001526
1761915083073812200,9.819812255859375,0.12455984950065613,-0.26262161135673523,-0.42552563548088074
1761915083083867400,9.829867431640626,-0.022026658058166504,-0.14729130268096924,-0.612924337387085
1761915083093921300,9.83992138671875,-0.1315324306488037,0.20673973858356476,-0.6299719214439392
1761915083103976200,9.84997607421875,-0.12963412702083588,0.4922231435775757,-0.5607571601867676
1761915083114030300,9.8600302734375,-0.041303135454654694,0.21588174998760223,-0.3331167995929718
1761915083124084200,9.870084228515625,-0.04647126421332359,-0.15617144107818604,-0.00813312642276287
1761915083134139400,9.880139404296875,-0.05872253328561783,-0.10937657207250595,0.11422917246818542
1761915083144193300,9.890193359375,-0.0821964368224144,0.057342901825904846,-0.006364623084664345
1761915083154247200,9.9002470703125,-0.2005888819694519,0.09078244119882584,-0.16924361884593964
1761915083164302300,9.91030224609375,-0.35964536666870117,0.01312066987156868,-0.27138540148735046
1761915083174356200,9.920356201171876,-0.47866299748420715,-0.11877024918794632,-0.3445352613925934
1761915083184410400,9.930410400390626,-0.5232547521591187,-0.09074793010950089,-0.44584935903549194
1761915083194465300,9.94046533203125,-0.4668378531932831,0.12182335555553436,-0.5729811787605286
1761915083204519200,9.950519287109374,-0.32946106791496277,0.3985380530357361,-0.7247309684753418
1761915083214573300,9.9605732421875,-0.17655764520168304,0.5929761528968811,-0.8598909378051758
1761915083224628200,9.970628173828125,-0.09816323965787888,0.6919951438903809,-0.9700339436531067
1761915083234682400,9.980682373046875,-0.1349794864654541,0.6703718900680542,-1.033416986465454
1761915083244737300,9.9907373046875,-0.233464777469635,0.5014475584030151,-1.0415756702423096
1761915083254791200,10.000791259765625,-0.3973400294780731,0.2996036410331726,-0.9520140886306763
1761915083264845300,10.01084521484375,-0.5697677135467529,0.02189400978386402,-0.7867580056190491
1761915083274900200,10.020900146484376,-0.6670534014701843,-0.16093860566616058,-0.5737682580947876
1761915083284954400,10.030954345703124,-0.603867769241333,-0.1482643485069275,-0.3576876223087311
1761915083295008300,10.04100830078125,-0.33781275153160095,0.00003835566167254001,-0.11743826419115067
1761915083305063200,10.051063232421875,0.03807830438017845,0.09790446609258652,0.1603882908821106
1761915083315117300,10.061117431640625,0.40873971581459045,0.07455919682979584,0.41932663321495056
1761915083325171200,10.071171142578125,0.661807656288147,-0.02164669893682003,0.6049137711524963
1761915083335226400,10.081226318359375,0.7496753931045532,-0.20616474747657776,0.6826015710830688
1761915083345280300,10.0912802734375,0.7071654796600342,-0.49104148149490356,0.6493170857429504
1761915083355335200,10.101335205078126,0.5729542374610901,-0.8279422521591187,0.5447437763214111
1761915083365389300,10.111389404296874,0.3642934560775757,-1.0721975564956665,0.42973726987838745
1761915083375443200,10.121443115234374,0.1401449292898178,-1.1003745794296265,0.3490397334098816
1761915083385498400,10.131498291015625,-0.022952912375330925,-0.8749145269393921,0.35782602429389954
1761915083395552300,10.14155224609375,-0.09268626570701599,-0.48997846245765686,0.4465363621711731
1761915083405606100,10.151606201171875,-0.10795097053050995,-0.08471190929412842,0.5634283423423767
1761915083415661300,10.161661376953125,-0.05808878690004349,0.14428089559078217,0.6892549395561218
1761915083425715200,10.171715087890625,-0.016119234263896942,0.20782524347305298,0.7681540250778198
1761915083435769300,10.181769287109375,0.03274191543459892,0.10457700490951538,0.7546492218971252
1761915083445824500,10.191824462890626,0.13432127237319946,-0.05208983272314072,0.6340268850326538
1761915083455878100,10.201878173828124,0.267413854598999,-0.19360347092151642,0.47529810667037964
1761915083465933300,10.211933349609374,0.38667047023773193,-0.2788342237472534,0.34753456711769104
1761915083475987200,10.2219873046875,0.46119076013565063,-0.27612513303756714,0.24092230200767517
1761915083486041300,10.232041259765625,0.4167356789112091,-0.20590771734714508,0.16078618168830872
1761915083496096300,10.24209619140625,0.3156226873397827,-0.18344514071941376,0.119635209441185
1761915083506154200,10.252154296875,0.2034929245710373,-0.1729951649904251,0.16858969628810883
1761915083516208400,10.26220849609375,0.09441368281841278,-0.11760593205690384,0.2731214463710785
1761915083526263600,10.272263671875,0.03130209445953369,0.09229429811239243,0.24906539916992188
1761915083536317400,10.2823173828125,-0.04804974049329758,0.27613431215286255,0.10488724708557129
1761915083546371600,10.29237158203125,-0.13738520443439484,0.39241403341293335,-0.10027176141738892
1761915083556426200,10.30242626953125,-0.1324356347322464,0.4355592131614685,-0.3806810975074768
1761915083566480400,10.31248046875,0.11923493444919586,0.4461838901042938,-0.6461766958236694
1761915083576535600,10.32253564453125,0.5158909559249878,0.29297348856925964,-0.7509318590164185
1761915083586589400,10.33258935546875,0.7310146689414978,-0.1134648248553276,-0.5514464378356934
1761915083596643300,10.342643310546874,0.6940515637397766,-0.5201340913772583,-0.1725294440984726
1761915083606698500,10.352698486328125,0.5467643737792969,-0.6633679270744324,0.14851036667823792
1761915083616752400,10.36275244140625,0.350472629070282,-0.5741652250289917,0.3691481351852417
1761915083626806500,10.372806640625,0.18260826170444489,-0.4178161025047302,0.49011021852493286
1761915083636861400,10.382861328125,0.10122935473918915,-0.2786741852760315,0.48510122299194336
1761915083646915300,10.392915283203125,0.07247307896614075,-0.18492375314235687,0.3924922049045563
1761915083656969200,10.40296923828125,0.05777329206466675,-0.1849333792924881,0.24619680643081665
1761915083667024400,10.4130244140625,0.035420581698417664,-0.250446081161499,0.10266760736703873
1761915083677078500,10.42307861328125,0.047337856143713,-0.36457744240760803,-0.013047825545072556
1761915083687133400,10.433133544921875,0.03532273694872856,-0.39919933676719666,-0.03519999980926514
1761915083697187300,10.443187255859375,0.01171899028122425,-0.37986353039741516,0.00043975934386253357
1761915083707241200,10.4532412109375,0.0010666132438927889,-0.359672486782074,-0.0033081071451306343
1761915083717296400,10.46329638671875,0.029152613133192062,-0.3866451680660248,-0.10511025041341782
1761915083727350500,10.4733505859375,0.06455880403518677,-0.3487134873867035,-0.2150508612394333
1761915083737404400,10.483404296875,0.10747573524713516,-0.23653653264045715,-0.24434514343738556
1761915083747459300,10.493459228515626,0.11022358387708664,-0.06145686283707619,-0.11600608378648758
1761915083757513200,10.50351318359375,0.08214760571718216,-0.03920361399650574,0.12214543670415878
1761915083767567400,10.5135673828125,0.07735977321863174,-0.13404303789138794,0.34860947728157043
1761915083777622500,10.52362255859375,0.10843098163604736,-0.25229939818382263,0.45199647545814514
1761915083787676400,10.533676513671875,0.15982574224472046,-0.45444825291633606,0.43616265058517456
1761915083797731300,10.5437314453125,0.21589651703834534,-0.6796685457229614,0.3457273542881012
1761915083807785500,10.553785400390625,0.2039860635995865,-0.7388650178909302,0.32865995168685913
1761915083817839400,10.56383935546875,0.06538379937410355,-0.3789505362510681,0.32315632700920105
