time,seconds_elapsed,z,y,x
1761915624859689200,0.112689208984375,0.052614568856358526,0.04375511670485139,0.24487494255648926
1761915624869743400,0.122743408203125,0.08055880683660507,0.03205854143127799,0.2857257526545785
1761915624879797200,0.13279736328125,0.007055763730406761,-0.010897972241789101,0.36829434667732563
1761915624889852200,0.14285205078125,-0.09651566990315913,-0.1064351525016129,0.43388672625683244
1761915624899906000,0.152906005859375,-0.07127075400948524,-0.20909107872545718,0.4471781329737976
1761915624909960200,0.162960205078125,0.033117841225862504,-0.26994740622639657,0.38829233836084603
1761915624920014300,0.173014404296875,0.12156360192000865,-0.25668387389704583,0.3398666360290721
1761915624930068200,0.183068115234375,0.14994097062051295,-0.29389687548205257,0.22908861375125122
1761915624940122400,0.193122314453125,0.14789046783149243,-0.2311132331803441,0.1976959158175625
1761915624950176300,0.20317626953125,0.17916005084216594,-0.23821882740184663,0.1745684852682054
1761915624960230400,0.21323046875,0.18875906931459902,-0.2684067526556551,0.14688193010976539
1761915624970284300,0.2232841796875,0.24581775809824466,-0.31114085574969647,0.13427456013420597
1761915624980338400,0.23333837890625,0.35314474487304687,-0.2858677366748452,0.0632750973467715
1761915624990392300,0.243392333984375,0.4028372888028621,-0.2076154532149434,-0.016597407726105302
1761915625000446200,0.2534462890625,0.35813889989852904,-0.09475406705811619,-0.031211971071921286
1761915625010500000,0.2635,0.22747020050287245,-0.015827683728933332,-0.020908329727780072
1761915625020554200,0.27355419921875,0.13692717526853085,-0.012314707171916961,-0.02112162541858852
1761915625030608100,0.283608154296875,0.1312339320629835,-0.06400339335501194,0.0000956789268180728
1761915625040662300,0.293662353515625,0.11012743114829063,-0.08771686189770699,0.031795543113537134
1761915625050712000,0.303712158203125,-0.009623568391799927,-0.13042758411616087,-0.036736323983967305
1761915625060767000,0.31376708984375,-0.05623159030973911,-0.055334349209070204,-0.07528448316287249
1761915625070821000,0.323821044921875,-0.10014555083811283,0.040574440842121834,-0.05775110976090654
1761915625080875000,0.333875,-0.09660510175228118,0.1456397662952542,-0.09438450309336185
1761915625090929200,0.34392919921875,-0.09312719650864601,0.21727818457335232,-0.10266458445433527
1761915625100983000,0.353983154296875,-0.09264730403721332,0.21214199072867632,-0.14145058924341575
1761915625111037000,0.364036865234375,-0.0625759909003973,0.1931672411456704,-0.14477337699057533
1761915625121091000,0.374091064453125,0.018128946408629415,0.13170505670607088,-0.1436493596630171
1761915625131145000,0.38414501953125,-0.01044423712491989,0.11771847079917788,-0.1176950168583542
1761915625141199000,0.39419921875,-0.07468085471391678,0.10122136337608098,-0.027250145635707303
1761915625151253000,0.4042529296875,-0.09043781129419803,0.07120119590461253,0.003518977039540186
1761915625161307100,0.41430712890625,-0.04435527455508709,0.07134937220364809,-0.056494360298616805
1761915625171361000,0.424361083984375,-0.07052431955635548,0.13346461372449994,-0.009150455004314426
1761915625181415200,0.434415283203125,0.00040098201632499694,0.19753201222643255,0.09034905529851094
1761915625191469000,0.444468994140625,0.11332008970975875,0.1796453501410782,0.09975435956344007
1761915625201523000,0.45452294921875,0.17932079436182974,0.17626944396719335,0.09541541704367845
1761915625211576800,0.464576904296875,0.18523907849490642,0.20290289160981773,0.15883511049291119
1761915625221631000,0.474630859375,0.24960896707475183,0.2834698817528784,0.2807327666728757
1761915625231686100,0.48468603515625,0.24829729995429514,0.21470131982266902,0.3629135669544339
1761915625241740000,0.494739990234375,0.306957578715682,0.10816825990453362,0.3960889105211943
1761915625251794200,0.504794189453125,0.2361556112617254,-0.0542211272701621,0.5348278479194268
1761915625261848000,0.51484814453125,0.18439269079864024,-0.2294688269741833,0.6380887177664786
1761915625271902200,0.524902099609375,0.2610696877658367,-0.3291580123469233,0.3182799503820017
1761915625281955800,0.534955810546875,0.5450538026511669,-0.11400792584344745,-0.07187018120735883
1761915625292010000,0.545010009765625,0.46907297125458713,0.3369143255621195,-0.12048227295670658
1761915625302063900,0.55506396484375,0.04187631722092628,0.7140611466608942,0.06174414318613708
1761915625312118000,0.565117919921875,-0.26507541627585884,0.83796590487957,0.31280250535160303
1761915625322172000,0.575171875,-0.23951193595230577,0.846964619371295,0.47082748677171765
1761915625332226000,0.58522607421875,-0.11797346847355365,0.7288830143481493,0.47224034924432634
1761915625342280000,0.595280029296875,-0.013326514562964438,0.4592570951610803,0.36223559462763366
1761915625352334000,0.605333984375,0.08350947333574295,0.18520576074719428,0.12678951987475157
1761915625362388200,0.61538818359375,0.21543723288178443,0.09898059871196746,0.036542847238481044
1761915625372442000,0.625442138671875,0.1307166301906109,0.11454320176392793,0.1962531513970345
1761915625382496000,0.63549609375,0.005696165814995766,0.2596209502622485,0.5242040529765188
1761915625392550000,0.6455498046875,-0.12174714179337023,0.4053989559844136,0.8735575888730585
1761915625402605000,0.65560498046875,-0.16863807230591774,0.3765159758493304,0.961632981884852
1761915625412659000,0.665658935546875,0.02541150463223457,0.23999387425035237,0.7205037469290196
1761915625422713000,0.675713134765625,0.42613399323821066,-0.004348258337378502,0.15686170979440212
1761915625432767000,0.68576708984375,0.7229021863728762,-0.3492889462277293,-0.3457143756765872
1761915625442821000,0.695821044921875,0.620851094174385,-0.6437015161469578,-0.4887517043884843
1761915625452875300,0.705875244140625,0.23348434622585773,-0.793511553864181,-0.37053164074271916
1761915625462929000,0.715928955078125,-0.12125088270902633,-0.7848509852856397,-0.18575901071578263
1761915625472983000,0.725983154296875,-0.15475509290397166,-0.5597109812960028,0.007471285728737711
1761915625483037000,0.736036865234375,0.047747255080938335,-0.5060945419207215,0.0037567221850156782
1761915625493091000,0.746091064453125,0.37969197553694245,-0.6049693421706557,-0.25223376262038943
1761915625503145000,0.75614501953125,0.702308895677328,-0.45228024188578125,-0.4576860464520752
1761915625513199000,0.76619921875,0.8042261323630809,-0.07545271586924791,-0.4849065732676536
1761915625523253000,0.7762529296875,0.597322334548831,0.26142303124815225,-0.4094635020095855
1761915625533307100,0.78630712890625,0.3773106333583593,0.4451967133656144,-0.30162739666886623
1761915625543361000,0.796361083984375,0.5528162533462048,0.24377397731095551,-0.39401436926946043
1761915625553415200,0.806415283203125,0.43077860417366026,-0.004799216975271701,-0.3407255544133484
1761915625563469000,0.816468994140625,0.14389759880304337,-0.18860650910139082,-0.20462591601014135
1761915625573524000,0.82652392578125,0.2990992664307356,-0.4031786495864391,-0.1469817554887384
1761915625583578000,0.836578125,0.153708214199543,-0.4556809902399778,-0.14924042113572358
1761915625593632000,0.846632080078125,-0.1720674622327089,-0.2805404041722417,-0.14561368200592695
1761915625603686100,0.85668603515625,-0.47328269790410993,0.07563976287394762,-0.07970292065963148
1761915625613740000,0.866739990234375,-0.6653443158954382,0.2688993584781885,-0.17689875484667716
1761915625623794200,0.876794189453125,-0.6357441274017095,0.2178201824955642,-0.24061149469204246
1761915625633848000,0.88684814453125,-0.6118751760363579,0.1210636895738542,-0.1557605436194688
1761915625643902000,0.89690185546875,-0.44935704791545866,-0.06160816878154873,-0.08637794144414365
1761915625653955800,0.906955810546875,-0.28068799594938754,-0.22341975606828926,-0.04770480417869985
1761915625664010000,0.917010009765625,-0.18581892420947552,-0.31007059616968036,0.02117167510539293
1761915625674064000,0.92706396484375,-0.29516894124448295,-0.3273904181525111,0.08097988179288804
1761915625684118000,0.937117919921875,-0.23915771568715571,-0.2843427190646529,0.11292239562906324
1761915625694172200,0.947172119140625,0.012969371688365936,-0.2056888690665364,0.10522489992901682
1761915625704226000,0.95722607421875,0.1914396867007017,-0.2015991155348718,0.041430838475748896
1761915625714280200,0.9672802734375,0.28467969593405723,-0.30737989578098057,-0.05141995224431157
1761915625724334000,0.977333984375,0.3925210619717836,-0.21945070630684493,-0.12014613633751868
1761915625734389000,0.987388916015625,0.3690682901918888,-0.025126842471957206,-0.25392558816485106
1761915625744443000,0.99744287109375,0.41306642187237735,0.20697496335431934,-0.43829833215400577
1761915625754497000,1.0074970703125,0.30404607518315313,0.4118224131606519,-0.466025858643651
1761915625764551000,1.017551025390625,-0.07016016241908073,0.42497196372151375,-0.43278702138662334
1761915625774605000,1.02760498046875,-0.17888649459779263,0.3432261390574276,-0.3249164292544126
1761915625784659000,1.037658935546875,-0.23619418970644473,0.36158670226484535,-0.2087623582277447
1761915625794713000,1.047713134765625,-0.3853589152574539,0.3684861063897609,-0.11555793176442385
1761915625804767200,1.057767333984375,-0.5326631076335907,0.28998598564863204,-0.14247827005703
1761915625814821000,1.067821044921875,-0.6578127513468265,-0.027169600345939397,-0.3579442906418815
1761915625824875000,1.077875,-0.3727151222616434,-0.30395839689970017,-0.3957659621771425
1761915625834929000,1.087928955078125,-0.01940846482515335,-0.29189751835837957,-0.438515043644607
1761915625844983000,1.097983154296875,0.29659049848020075,-0.16043211562708018,-0.3122366881623864
1761915625855037000,1.108036865234375,0.4393716604739427,-0.0008814590096473693,-0.2526622171655297
1761915625865091000,1.118091064453125,0.3678559917926788,0.2638289233461022,-0.18445625755414366
1761915625875145000,1.12814501953125,0.09087444914579391,0.6386312271453439,-0.007520750893652439
1761915625885199000,1.13819921875,-0.4695306518942117,0.8580946468032896,0.08559508397076278
1761915625895254000,1.14825390625,-0.9258452638626098,0.7929517280243337,0.09013323885705321
1761915625905308000,1.158307861328125,-0.9529448677122593,0.6534509028755128,0.06926737829782069
1761915625915362000,1.168362060546875,-0.6693266635298728,0.4659577618435025,0.048946657465957104
1761915625925416000,1.178416015625,-0.2438853287309408,0.2557012926004827,0.009879223653301596
1761915625935470000,1.188469970703125,0.23221944085657595,0.19592136215940117,0.029532676215469837
1761915625945524000,1.19852392578125,0.57138183760643,0.372906991571933,0.16637549766879528
1761915625955578000,1.208578125,0.3687795363783836,0.5193136505864561,0.26844007040336726
1761915625965632000,1.218632080078125,0.1336433312922716,0.6520933507867157,0.3252956743629649
1761915625975686100,1.22868603515625,-0.1087210714817047,0.6705866004630923,0.2586055626746267
1761915625985740000,1.238739990234375,-0.2848807714641094,0.44189679503738877,0.1742695388542488
1761915625995794200,1.248794189453125,-0.2595926009505987,0.20120733973830937,0.16141729073952882
1761915626005847800,1.258847900390625,-0.06499065082669257,0.020342823065817354,0.1439545531546697
1761915626015902000,1.26890185546875,0.2737432913780212,-0.09915493236556648,0.15882617826778442
1761915626025955800,1.278955810546875,0.6839969939172268,-0.21959303738698363,0.18880714624002576
1761915626036010000,1.289010009765625,0.6365384926497936,-0.3053947133131325,0.23436006961446254
1761915626046064600,1.299064697265625,0.7201736381918191,-0.2585872233003378,0.26080610492620615
1761915626056119800,1.309119873046875,0.6835194395333528,-0.18121449915394186,0.25084563273023813
1761915626066173700,1.319173583984375,0.47708033662140364,-0.11465937548950314,0.2657092571999878
1761915626076227600,1.3292275390625,0.3700128775656223,-0.05917158928439021,0.27495785479955376
1761915626086281700,1.33928173828125,0.34987551394402977,-0.03211114840134978,0.27802827522084117
1761915626096335600,1.349335693359375,0.17845394839942455,-0.11226707352548837,0.2874443748744204
1761915626106389800,1.3593896484375,0.10413257464766502,-0.20285335337966678,0.3539424711219966
1761915626116443600,1.369443603515625,0.13943243608772754,-0.30582842855528,0.3613359789067879
1761915626126497800,1.379497802734375,0.2559101130455732,-0.3814028711080551,0.3022419849032536
1761915626136551700,1.3895517578125,0.3823825297951698,-0.3852016788691282,0.23899132787799462
1761915626146605800,1.399605712890625,0.3102390846043825,-0.2527012340016663,0.2482855364512652
1761915626156659700,1.40965966796875,0.18138415663242338,-0.081268562541157,0.30677692491915076
1761915626166713600,1.419713623046875,0.06839958248734473,0.08594955996423959,0.4272130206465721
1761915626176767500,1.429767578125,-0.029990064594149587,0.060221975120157,0.44800972495973107
1761915626186821600,1.439821533203125,-0.11949322538673877,-0.026310207037627695,0.38469986682683227
1761915626196875800,1.449875732421875,0.07573767029047011,-0.09148775873854756,0.28975404005628075
1761915626206929700,1.4599296875,0.25270576404631134,-0.1466900060005486,0.187066750579793
1761915626216983800,1.46998388671875,0.11637421658337116,-0.2501683545231819,0.11652085851244627
1761915626227038700,1.480038818359375,0.027250995019078253,-0.2574763394489884,0.22905198980160058
1761915626237092600,1.490092529296875,-0.15149112267196177,-0.1953774645410478,0.4608323816537857
1761915626247146500,1.500146484375,-0.41265667202770706,-0.14861395980045197,0.6554031329218298
1761915626257200600,1.51020068359375,-0.6224228735357522,-0.08789879433587193,0.7742992691982538
1761915626267254500,1.520254638671875,-0.5292787258923053,-0.017351970686763522,0.8223503295313567
1761915626277308700,1.53030859375,-0.06865618759691715,0.06754954152926802,0.701758495252952
1761915626287362600,1.540362548828125,0.46133039430379863,0.13310966280698774,0.48715380420517174
1761915626297416700,1.550416748046875,0.6546306141793727,0.027942484414577484,0.27681721893064676
1761915626307470800,1.560470947265625,0.7038479418128728,-0.04665989823564887,0.09715637895949185
1761915626317524700,1.570524658203125,0.5231698876231908,-0.0612022183291614,0.07708090159296989
1761915626327579000,1.580578857421875,0.13147124795019627,-0.06270370893329381,0.20533892311770469
1761915626337632800,1.5906328125,-0.2356383093893528,-0.10738500057235359,0.4169196997670456
1761915626347686700,1.600686767578125,-0.374826999849081,-0.1295009707905352,0.5880526941612363
1761915626357740500,1.610740478515625,-0.29514088419377804,-0.24409751017689704,0.5724254649078473
1761915626367794700,1.620794677734375,-0.13567980555593967,-0.4371965083919465,0.17933197334297
1761915626377848600,1.6308486328125,0.06489186662733555,-0.40194501613825556,-0.1659848543833941
1761915626387903700,1.64090380859375,0.17138766327500343,-0.08467617902755736,-0.18937340182065962
1761915626397958000,1.6509580078125,0.07997954564392566,0.27293884312734007,-0.017771803534030912
1761915626408011800,1.66101171875,-0.04009878615438938,0.5772748411677777,0.18088029876351355
1761915626418065700,1.671065673828125,-0.06705868927240372,0.7902392541952431,0.313342457447201
1761915626428119600,1.68111962890625,-0.08371230243146419,0.8364226209603249,0.35134639021418984
1761915626438173700,1.691173583984375,-0.21975801869034767,0.7303124626293778,0.33153635885082183
1761915626448227600,1.7012275390625,-0.42075756089687344,0.7656031178496777,0.46417665058039126
1761915626458281700,1.71128173828125,-0.5286404279887676,0.7756193388208746,0.6480490438319743
1761915626468335600,1.721335693359375,-0.3971311861157417,0.7084028286382555,0.5746900853715836
1761915626478389800,1.7313896484375,-0.2138221989005804,0.4237660950630903,0.28318244311362506
1761915626488443600,1.741443603515625,-0.2015957545340061,0.045343116548657414,0.1618086646772921
1761915626498497800,1.751497802734375,-0.6115916829198599,-0.20750351727306843,0.35437888977788384
1761915626508551700,1.7615517578125,-0.7029676518470048,-0.21903905676603316,0.5852205394752323
1761915626518605800,1.771605712890625,-0.12791501677334308,-0.39888007560968397,0.1771020953990519
1761915626528659500,1.781659423828125,0.8252262502938509,-0.7976905931144952,-0.5837775010600685
1761915626538713600,1.791713623046875,1.48890877045691,-1.1268462673738597,-1.0293567840024829
1761915626548768800,1.801768798828125,1.5957646325886248,-1.2527379616260528,-0.9872222542367874
1761915626558822700,1.81182275390625,1.37100310652256,-0.9753817404478787,-0.5963615266926586
1761915626568876800,1.821876708984375,1.1622282541394233,-0.46412236310988664,-0.24332667193487284
1761915626578930700,1.8319306640625,1.0246253715664149,-0.12458002713173627,-0.071354194509238
1761915626588984800,1.84198486328125,1.0278910953640936,0.005890811604261398,-0.06915332346409558
1761915626599038700,1.852038818359375,1.2058540453761815,-0.15525778172910212,-0.20451661041676997
1761915626609092600,1.862092529296875,0.7399865921646356,-0.3727078157380223,-0.20500833945646882
1761915626619146500,1.872146484375,0.4079623767316341,-0.5177765041470528,-0.11282879906147718
1761915626629200600,1.88220068359375,0.27747604816555976,-0.4752019755288958,-0.08196019806712865
1761915626639254800,1.8922548828125,0.1029138465076685,-0.2319604976594448,-0.14386464638151228
1761915626649308700,1.90230859375,0.194451143476367,-0.04358487470448017,-0.2237797484871
1761915626659362800,1.91236279296875,0.3236071002215147,-0.014665069690346717,-0.2834272847201675
1761915626669416700,1.922416748046875,0.309011004114151,-0.04958353059738874,-0.271018469524011
1761915626679470800,1.932470947265625,-0.14964754063189029,-0.1256327510550618,-0.16091726879552007
1761915626689524700,1.942524658203125,-0.5174164386630058,-0.1190931201532483,-0.1640425612092018
1761915626699579000,1.952578857421875,-0.5252577998131513,0.039838966174423694,-0.18596563920378684
1761915626709633500,1.962633544921875,-0.37365737154781814,0.257365280289948,-0.17720314462073147
1761915626719687700,1.972687744140625,-0.33767478854060173,0.29461466836258765,-0.17472148387283085
1761915626729741800,1.982741943359375,-0.3386684757530689,0.13042436924576759,-0.15948307127393782
1761915626739795700,1.992795654296875,-0.20398118836581705,-0.009877397022396326,-0.14065489055477082
1761915626749849900,2.002849853515625,-0.036537878802418704,-0.10701280625909566,-0.20984503889791667
1761915626759903700,2.01290380859375,0.11029752701818943,-0.1124009290382266,-0.3142489778328687
1761915626769958000,2.0229580078125,0.3133621850609779,-0.09297609760016202,-0.3660282649088651
1761915626780011800,2.03301171875,0.6011234803974628,-0.14380772856250404,-0.4337397920668125
1761915626790065700,2.043065673828125,0.5188666374713182,-0.29522958539053795,-0.4798562310755253
1761915626800119600,2.05311962890625,0.3197083392173052,-0.45731852831393477,-0.42632012692745774
1761915626810173700,2.063173583984375,0.2614320913374424,-0.5477716833077371,-0.3238169801125303
1761915626820227600,2.0732275390625,0.29075580097734927,-0.5224811747066677,-0.21491711799781768
1761915626830281700,2.08328173828125,0.4382803581058979,-0.3626359190568328,-0.14611205998212098
1761915626840335600,2.093335693359375,0.32847032234370704,-0.2137587782755494,-0.18379171096449717
1761915626850389800,2.1033896484375,0.024658055916428563,0.09762012401372194,0.02740245925374329
1761915626860443600,2.113443603515625,-0.17240706945061682,0.3852313433550298,0.16328370566591618
1761915626870498600,2.12349853515625,-0.36017712772786614,0.5334675558842719,0.23811755898445844
1761915626880552700,2.133552734375,-0.30164369021654125,0.5495233492806554,0.23076794514032078
1761915626890606600,2.143606689453125,-0.15468085862398145,0.45419981177151203,0.14949050517296417
1761915626900660700,2.15366064453125,-0.09525134905576706,0.33299130689948797,0.059616145580960435
1761915626910714600,2.163714599609375,-0.42424774110019203,0.1977320648431778,0.07030932509880512
1761915626920768800,2.173768798828125,-0.9222241507560014,0.21570289808064697,0.29370699719944965
1761915626930822700,2.18382275390625,-1.0195751024395228,0.3250520383328199,0.4793481354229152
1761915626940876800,2.193876708984375,-0.7635743885010481,0.429071654125303,0.5452480100490152
1761915626950930700,2.2039306640625,-0.5552899499833583,0.4493700535275042,0.5009143993364646
1761915626960984800,2.21398486328125,-0.41183074259757996,0.4759643382035196,0.37087749503832307
1761915626971038500,2.22403857421875,-0.24904665701687334,0.5037975170247256,0.2651671314136125
1761915626981092600,2.234092529296875,-0.15320903250575066,0.46739743925780053,0.14290102551374584
1761915626991146800,2.244146728515625,-0.10212415743470192,0.4078817127108574,0.06395449444567784
1761915627001200600,2.25420068359375,-0.1219926409870386,0.27589637775868175,-0.022839368572307284
1761915627011254800,2.2642548828125,-0.11071312208175658,0.1607452732294798,-0.05489139121454209
1761915627021308700,2.27430859375,0.006206453424692154,0.12167393042668699,0.008653988140705041
1761915627031363800,2.28436376953125,0.11182254462838172,0.054906479185819625,0.03274171508958097
1761915627041417500,2.29441748046875,0.2295160271167755,0.01727598284110427,0.059096213360084214
1761915627051475700,2.304475830078125,0.21766893745660781,-0.013181260873377322,0.05812107101788278
1761915627061529900,2.31452978515625,0.14501286656856535,-0.032984277974069116,0.07271743655330501
1761915627071583700,2.324583740234375,0.03464052074849605,-0.08512246149033308,0.07386064263852313
1761915627081638000,2.334637939453125,-0.06340951911509037,-0.11748290847763418,0.07091474821262526
1761915627091691800,2.34469189453125,-0.023157588225603102,-0.08968538549169898,0.08899131141346879
1761915627101746000,2.354745849609375,0.046051557078957556,-0.10501403365731239,0.09194346661679446
1761915627111799800,2.3647998046875,0.1582873586833477,-0.07575769016519189,0.1088236550733447
1761915627121854000,2.37485400390625,0.2680062090307474,-0.08048442642614245,0.15274785386794246
1761915627131907600,2.384907470703125,0.3738946874350309,-0.10104483776539563,0.17648823781702666
1761915627141961700,2.394961669921875,0.40657413724362845,-0.09924202612712979,0.20069794717775657
1761915627152015600,2.405015625,0.33519758477211,-0.09622092474028468,0.23376153746573253
1761915627162069800,2.41506982421875,0.26384499769806863,-0.09796499192863702,0.22283671374963596
1761915627172123600,2.42512353515625,0.23027122939825057,-0.07714154573902487,0.22233495650626717
1761915627182177800,2.435177734375,0.22341829476356506,-0.06706614192649722,0.20389398500639944
1761915627192233000,2.44523291015625,0.2822363944351673,-0.09251037978455423,0.21767686503473668
1761915627202286800,2.455286865234375,0.3184048554033041,-0.1680342611938715,0.19967278711479156
1761915627212340700,2.4653408203125,0.32781741139292714,-0.22030089339539408,0.16761462927600368
1761915627222394600,2.47539453125,0.31517420291900633,-0.20237462995201347,0.22527327498048544
1761915627232448800,2.48544873046875,0.21981880896687506,-0.22055545267835258,0.269185810736753
1761915627242502700,2.495502685546875,0.16164368337392807,-0.19859072749912737,0.2960738907275721
1761915627252556800,2.505556884765625,0.12615969753861428,-0.18504706305414437,0.3107400929290801
1761915627262610700,2.515610595703125,0.11259703613221644,-0.17058233824148772,0.2330611706440337
1761915627272664800,2.525664794921875,0.14021744898557661,-0.13180734803676605,0.17452535851253195
1761915627282718700,2.53571875,0.18401216704845427,-0.11130918827876447,0.09715899104168638
1761915627292772900,2.54577294921875,0.227036485260725,-0.08490545773878692,0.056326881077489815
1761915627302827000,2.555826904296875,0.26584756969213486,-0.06321516558676958,0.04637589822907466
1761915627312880600,2.565880615234375,0.2438771454244852,-0.06746420133337377,0.05174951755881775
1761915627322934800,2.575934814453125,0.22177169660031795,-0.09229103794544935,0.09069493699357845
1761915627332988700,2.58598876953125,0.055226212659478184,-0.13934329649955032,0.10357461197134107
1761915627343043800,2.5960439453125,-0.16000643756091593,-0.0893641907133162,0.16281375006660817
1761915627353097700,2.60609765625,-0.23594050720632076,0.04262815850153565,0.21279387876614927
1761915627363152000,2.61615185546875,-0.21199556799530983,0.09308920258581638,0.16145143047114832
1761915627373205800,2.626205810546875,-0.12192951262295246,0.10728957737386226,0.11588515442479401
1761915627383259600,2.636259765625,-0.023272154515981674,0.07988821409866213,0.09698804578841663
1761915627393313800,2.646313720703125,0.04785071545541286,0.027299071944504975,0.10948853045655414
1761915627403367700,2.65636767578125,0.1133656824171543,-0.05798749406635761,0.09497039495622739
1761915627413421800,2.666421875,0.059902972298860546,-0.11164938001856207,0.0831798303894233
1761915627423475700,2.676475830078125,-0.05367606060802936,-0.10007014751434326,0.08065625759540125
1761915627433529900,2.68652978515625,-0.09938041168451309,-0.044621524275839326,0.11587429510406218
1761915627443583700,2.696583740234375,-0.013479659298062325,-0.008372399286925793,0.12913979106163606
1761915627453638000,2.706637939453125,0.1304933428287506,-0.0005493044458329677,0.08958977963011712
1761915627463691800,2.71669189453125,0.19660569116175172,-0.007514467283338308,0.03587341897774022
1761915627473746000,2.726745849609375,0.18037059567570685,-0.011660627177357673,0.024211997215938752
1761915627483799800,2.7367998046875,0.10512217020690441,-0.03132642776444554,0.053110700076539064
1761915627493854700,2.746854736328125,0.007123568269610405,-0.043507425554096694,0.09137503734538331
1761915627503908900,2.756908935546875,-0.04786825111210346,-0.051365737839043135,0.12584314240273087
1761915627513962800,2.766962646484375,0.007477204012870788,-0.04555485960319638,0.11115335839623584
1761915627524017000,2.777016845703125,0.05406009148955345,-0.02797536377087235,0.05701388152753934
1761915627534070800,2.78707080078125,0.11212708053290843,0.009308364962786435,0.025453932701586746
1761915627544125000,2.797125,0.14053893602490425,0.06032543549463153,0.020310350134898906
1761915627554178800,2.8071787109375,0.13998071762025355,0.104401162455976,0.060283441250119356
1761915627564232700,2.817232666015625,0.14402970075011254,0.08376227905303239,0.0789542942494154
1761915627574286600,2.82728662109375,0.18376491428911684,0.04999401109442114,0.04353155534835532
1761915627584340700,2.8373408203125,0.28157120852470396,0.08939575489535927,0.015825129870598902
1761915627594394600,2.84739453125,0.28628245495557786,0.13038915180191396,0.011649695933033945
1761915627604448800,2.85744873046875,0.2049029793858528,0.13513035497963427,0.0029358605140063446
1761915627614502700,2.867502685546875,0.10708090305924416,0.1120202591575682,0.08752364088054745
1761915627624556800,2.877556884765625,0.03588672141730785,0.03225406400337815,0.09058288232069461
1761915627634611000,2.88761083984375,0.1554945130944252,-0.0007170622281730175,0.07570531152398326
1761915627644665600,2.89766552734375,0.308805836930871,0.03671703476160765,0.06831999161222484
1761915627654719700,2.9077197265625,0.40962066533267494,0.08591419638991356,0.07116116072174627
1761915627664773600,2.917773681640625,0.4043260660558939,0.12724705438390374,0.054789771170704625
1761915627674827800,2.927827880859375,0.17119886270463466,0.08990648089647292,0.05176552341212518
1761915627684881700,2.937881591796875,-0.04516483737230301,0.07185761398673057,0.10411268263710662
1761915627694935800,2.947935791015625,-0.08519172733426093,0.027095804457366465,0.14659229038027113
1761915627704989700,2.95798974609375,0.05894844805300235,-0.025848434744775294,0.1340124294661451
1761915627715043800,2.9680439453125,0.21537468903958795,-0.08022972101271152,0.09870732559538446
1761915627725098000,2.978097900390625,0.2431938393354416,-0.07607932333499193,0.030687506523111367
1761915627735151900,2.98815185546875,0.2348568036228418,-0.028493980817496774,-0.005915124061610549
1761915627745205800,2.998205810546875,0.17018296366035937,-0.01875160835161805,-0.008829456588753963
1761915627755259600,3.008259765625,0.02179740578830242,-0.04722352346777916,0.031113006492762357
1761915627765313800,3.018313720703125,-0.09936521411538124,-0.05403510317876935,0.10512481882171705
1761915627775367700,3.02836767578125,-0.04064297603368759,-0.06311024390757083,0.17320567248240112
1761915627785421800,3.038421875,0.04579729005694389,-0.05320683566108346,0.1570139594803564
1761915627795476700,3.048476806640625,0.07522913624644278,-0.026748452324420212,0.10284243437242693
1761915627805531000,3.05853076171875,0.13356617440283297,0.0043909284353256224,0.04324674249102827
1761915627815584800,3.068584716796875,0.13686521594822407,0.021811142052710054,0.01717358647913206
1761915627825638700,3.078638671875,0.06558101793527603,0.011208061104267836,0.05969073605397716
1761915627835692800,3.08869287109375,-0.04133738803863525,0.002496639121323824,0.09598704291917383
1761915627845746700,3.09874658203125,-0.057037645995616906,-0.016175766514241696,0.12639655676810072
1761915627855800800,3.10880078125,0.007089666000008582,-0.044186639989912506,0.13439065166139044
1761915627865854700,3.118854736328125,0.021688100194931028,-0.07003814347460866,0.11421793359862639
1761915627875908900,3.128908935546875,0.05338204609751701,-0.049495998444408176,0.1124929455700796
1761915627885962800,3.138962646484375,-0.030644144588708875,-0.046644554536044595,0.10673894862062297
1761915627896017000,3.149016845703125,-0.14696224707067013,-0.019473492885380982,0.13771425225930287
1761915627906070800,3.15907080078125,-0.1611006625384092,0.03104761082306504,0.1813430939696729
1761915627916125000,3.169125,-0.024298574954271315,0.04154635461419821,0.1430731124113314
1761915627926178800,3.1791787109375,0.1872258683979511,0.03037555678039789,0.05503363096313551
1761915627936232700,3.189232666015625,0.23123861312568186,0.004359364253282547,-0.021360265613207592
1761915627946287900,3.199287841796875,0.2454711366176605,0.00755275346711278,0.037335824247077105
1761915627956341800,3.209341796875,0.16268997755646705,-0.037112756080925464,0.07621429309258237
1761915627966396000,3.21939599609375,0.07258768182694912,-0.10857567166164517,0.09869836597079411
1761915627976449800,3.22944970703125,0.07622340798079967,-0.1528616803728044,0.12305828832401894
1761915627986504000,3.23950390625,0.135904846483469,-0.1474089679248631,0.13033176819202488
1761915627996557800,3.249557861328125,0.18172668645977974,-0.11334975419566035,0.08667822129866108
1761915628006611700,3.25961181640625,0.20399404784739017,-0.04106792344748974,0.01711420727497898
1761915628016665600,3.26966552734375,0.17339608048796654,0.0073483169361948965,-0.007597706853691488
1761915628026719700,3.2797197265625,0.03372399042546749,0.009133300656825303,-0.04163446215591393
1761915628036773600,3.289773681640625,-0.0865741216033697,0.02070727246403694,-0.01870324829840101
1761915628046827800,3.299827880859375,-0.09523498244285583,0.06212020995691418,0.016980918017821384
1761915628056877600,3.309877685546875,-0.005545359167456626,0.05756020856499672,0.06159445991660468
1761915628066931500,3.319931396484375,0.06368716701269149,0.0071906421564519405,0.045584341426007445
1761915628076985600,3.329985595703125,0.07015314815640449,-0.00936199484616518,0.013974365746136754
1761915628087040500,3.34004052734375,0.04330722680687904,0.011187456707656383,-0.0008337474104017019
1761915628097094700,3.3500947265625,0.042454993891716,0.0609017740778625,0.012393855089042335
1761915628107148300,3.360148193359375,-0.02318915240764618,0.055634208938479424,0.009033283481607214
1761915628117202400,3.370202392578125,-0.13004209192991256,0.059958794139325616,0.010982453921157867
1761915628127256600,3.380256591796875,-0.16289806734919546,0.05772562825977802,0.06365131938117556
1761915628137310500,3.390310546875,-0.09586509703993797,0.04951631058007479,0.08692428674791007
1761915628147364600,3.400364501953125,-0.0034071780949831007,0.006366174031049013,0.06184828854720108
1761915628157418500,3.41041845703125,0.11212123531401157,0.01571487100422382,0.03349120458289981
1761915628167472600,3.42047265625,0.16734394084215162,0.032381197514384986,-0.008217053461587055
1761915628177526500,3.430526611328125,0.19730887099504468,0.06747486885786057,-0.011588100797263905
1761915628187580700,3.44058056640625,0.16739128711521625,0.05399214081987738,-0.03042040970227681
1761915628197634600,3.450634521484375,0.16356676039099693,-0.0018941431835293769,-0.02889228681954555
1761915628207688400,3.4606884765625,0.09682371293902396,-0.0544708642475307,0.014277641275338827
1761915628217742300,3.470742431640625,0.06464286030232906,-0.08384045885577797,0.0737655025678221
1761915628227796500,3.48079638671875,0.0617787030428648,-0.09192176624163985,0.09928568260576576
1761915628237851600,3.4908515625,0.06545300764143466,-0.07323913147300481,0.0642787305645179
1761915628247905500,3.500905517578125,0.10763795242011547,0.006837737065553665,0.020916860094107686
1761915628257959700,3.510959716796875,0.1110129818111658,0.0683007982879877,0.0321835195178166
1761915628268013600,3.521013671875,0.11282149253785609,0.06611512481197715,0.05259377266350202
1761915628278067700,3.531067626953125,0.04036825074553489,-0.01432882347330451,0.07793686996833421
1761915628288121300,3.541121337890625,-0.03353343628942966,-0.03411839657053351,0.13660192536953836
1761915628298175500,3.551175537109375,0.003960135802626609,-0.01741203031092882,0.1576524400469847
1761915628308229400,3.5612294921875,0.08382979133129119,0.002853781995922327,0.1001832159673795
1761915628318283500,3.571283447265625,0.09877952318191528,0.026720249143242836,0.024140863641910253
1761915628328337400,3.58133740234375,0.1458522400021553,0.06300561448931694,0.00045810076473280786
1761915628338391600,3.5913916015625,0.167511114102602,0.06368482892513275,-0.005339991054777056
1761915628348445400,3.601445556640625,0.12131518011689185,0.0169042269192636,0.05009372687553987
1761915628358499600,3.61149951171875,0.018557400953769683,-0.0685404522627592,0.1050350764453411
1761915628368553700,3.6215537109375,-0.0035427871733903884,-0.11058394274413585,0.13823403834970668
1761915628378608400,3.6316083984375,0.08798574196696281,-0.10154328880682587,0.15153260545982047
1761915628388662500,3.64166259765625,0.18257833485305308,-0.06674611619189381,0.0895137004529126
1761915628398716400,3.65171630859375,0.15990648431777954,-0.03921951910182833,0.07448441882636397
1761915628408770600,3.6617705078125,0.066998483517766,-0.038148967260867354,0.06482921318728477
1761915628418824400,3.671824462890625,0.04562368705570698,0.00023059388548135756,0.062477334565203636
1761915628428878600,3.681878662109375,0.10240180533230304,-0.003895107742398977,0.05854492701971903
1761915628438932500,3.691932373046875,0.13614625402390956,-0.0247730605982244,0.03870152310971171
1761915628448986600,3.701986572265625,0.07622516154646873,-0.046962534444034094,0.07569012308800592
1761915628459040800,3.712040771484375,-0.07046352927982807,-0.041353462390601635,0.09291609277492388
1761915628469094400,3.722094482421875,-0.1678986521154642,0.005312719455361366,0.06378059918349609
1761915628479148500,3.7321484375,-0.16053718343675136,0.08329889932498336,0.10037141374954953
1761915628489202400,3.742202392578125,-0.11564005708992481,0.11016454828828573,0.08307119151633233
1761915628499256600,3.752256591796875,-0.06445932042896747,0.054823477077484126,0.036239827437605704
1761915628509310500,3.762310546875,0.04684007710814476,0.03872618262693286,0.0372058594581671
1761915628519365600,3.77236572265625,0.16035013643205165,0.03417071127966046,0.07653086649477481
1761915628529419500,3.78241943359375,0.16959142750799655,0.020120997008681297,0.10658541115988045
1761915628539473400,3.792473388671875,0.17675298970043657,0.016026567301899195,0.06652463719462975
1761915628549527600,3.802527587890625,0.1764946310251951,-0.003759352533519268,0.0328910467326641
1761915628559581400,3.81258154296875,0.1608499026477337,-0.0022179683104157446,0.03827317816242575
1761915628569635600,3.822635498046875,0.13236439739763736,0.013911913235485553,0.03341770095527172
1761915628579689500,3.832689453125,0.07965396695137024,0.07518266675621271,0.05592789465542882
1761915628589743600,3.84274365234375,0.02311141099631786,0.13867986415475606,0.07962147118756548
1761915628599797500,3.852797607421875,-0.0009445873737335205,0.13395678115561604,0.09482291277693584
1761915628609851600,3.8628515625,0.007850713500380515,0.04274608579277992,0.08130701312171294
1761915628619905500,3.872905517578125,0.05516425333917141,-0.013765490502119063,0.06811185158714651
1761915628629959700,3.882959716796875,0.1470242063909769,0.011505436615645884,0.061926185222156344
1761915628640013600,3.893013671875,0.10780337211489677,0.02091317029967904,0.06838880536500364
1761915628650067500,3.9030673828125,0.021880407896637914,0.04315115946233272,0.10658619661116972
1761915628660122600,3.91312255859375,-0.06248597452938556,0.06481821686923503,0.13122805031146853
1761915628670176500,3.923176513671875,-0.033217794468998904,0.056615475060790774,0.124876251865644
1761915628680230700,3.933230712890625,0.0460147321999073,0.005048077169805765,0.09287784312376753
1761915628690284500,3.943284423828125,0.21088030022978782,0.0035898411855101583,0.05302981686005369
1761915628700338700,3.953338623046875,0.3401648517906666,-0.013828764996677637,0.02412862521484494
1761915628710392600,3.963392578125,0.3501321190536022,-0.026633009251207113,-0.006460738713014871
1761915628720446500,3.973446533203125,0.2650719091445207,-0.01029942182675004,0.006612641339097172
1761915628730500400,3.983500244140625,0.16249007107019423,-0.009853139363974332,0.01046211984148249
1761915628740554500,3.993554443359375,0.10543664298355579,-0.005412672698497772,0.010183101970702409
1761915628750608400,4.0036083984375,0.09700199211537837,0.0011506313398480415,0.013997271697688846
1761915628760662500,4.01366259765625,0.06245265678167343,0.02331643204912543,0.03745605309326201
1761915628770716400,4.02371630859375,-0.015070727881789207,0.05431508916392922,0.04539020709339529
1761915628780770600,4.0337705078125,-0.017807459369301795,0.08996800182536244,0.0721670087294653
1761915628790825700,4.04382568359375,-0.10447919612824916,0.07311433604955672,0.045504207128193225
1761915628800879400,4.05387939453125,-0.15618483344614506,0.1124232870005071,0.03013031331505626
1761915628810933500,4.06393359375,-0.006638999623060226,0.14581161573082208,0.05887929180692881
1761915628820987400,4.0739873046875,0.12033610595166683,0.0618023761793971,0.04574934099568054
1761915628831041500,4.08404150390625,0.19840894119143485,-0.037948037861287594,0.03848594413027167
1761915628841095400,4.094095458984375,0.19102467615902421,-0.09641235565915703,0.04869631770038977
1761915628851149600,4.104149658203125,0.10850070672929286,-0.10350611331239343,0.04295718952650204
1761915628861203500,4.114203369140625,0.013960136291384696,-0.0611859978467226,0.04772752746716141
1761915628871257600,4.124257568359375,-0.02503156540393829,-0.006931991220265626,0.06508576349793002
1761915628881311500,4.1343115234375,-0.04579144483804703,0.013135375905036925,0.070433700397145
1761915628891365600,4.14436572265625,-0.043266894796490665,-0.0014988602556288242,0.10642547135781497
1761915628901419500,4.15441943359375,0.00850362445116043,-0.015559972703456878,0.12699249510094524
1761915628911473400,4.164473388671875,0.05686170490682125,-0.06530892299562692,0.12102909318450837
1761915628921527600,4.174527587890625,0.04304185386896133,-0.07112243157997727,0.09581488295635208
1761915628931582500,4.18458251953125,-0.0017658406287431715,0.0050974692694842815,0.11283221486127003
1761915628941636600,4.19463671875,-0.013469137904047966,0.07041121457070112,0.14612212471840902
1761915628951690500,4.2046904296875,-0.09588672434985637,0.07261720018237829,0.08780391912665218
1761915628961744600,4.21474462890625,-0.13713994123637677,0.06569865296557545,0.050912039254792034
1761915628971798500,4.224798583984375,-0.01032265657186508,0.08370061199367046,0.04494282865207642
1761915628981852400,4.234852294921875,0.19838380675017833,0.05489157387763261,0.033831158860679715
1761915628991906600,4.244906494140625,0.3506768934547901,-0.03232318371683359,0.03844763968018815
1761915629001960400,4.25496044921875,0.30968378880918024,-0.12064531803131102,0.044452359987702215
1761915629012014600,4.2650146484375,0.1263227791458368,-0.15844707928970456,0.029726207759883255
1761915629022068500,4.275068359375,-0.0038110827207565303,-0.09471241987347602,0.03001404825793579
1761915629032122600,4.28512255859375,-0.0081955814152956,0.007171645195037126,0.054626602798514064
1761915629042176500,4.295176513671875,0.014589081844687461,0.07833236295878887,0.04134973606355488
1761915629052231400,4.3052314453125,0.03539396946430206,0.10124196777269244,0.012107658558804541
1761915629062286300,4.315286376953125,0.046020577418804165,0.08558890995830297,0.01664862645668909
1761915629072340500,4.325340576171875,0.05626958423256874,0.04853241410925984,0.028653829288017
1761915629082394400,4.335394287109375,0.05861936222910881,-0.007084405303001404,0.02861209077183157
1761915629092448500,4.345448486328125,0.12523556843101977,-0.03881839095503092,0.02303719498263672
1761915629102502400,4.35550244140625,0.15882161169052122,-0.03244315683469176,0.019702168808411805
1761915629112556500,4.365556640625,0.14858254174888133,0.005575315914303064,0.03067981869028881
1761915629122610400,4.3756103515625,0.10470131444633006,-0.00861804461106658,0.03683629549341276
1761915629132664300,4.385664306640625,0.08806231433451175,-0.05305266801267862,0.0419500035116449
1761915629142718200,4.39571826171875,0.0930839418888092,-0.05356076366528868,0.06270164484037086
1761915629152772400,4.4057724609375,0.09081365886926651,-0.06312281112819909,0.10278380865352228
1761915629162826200,4.415826171875,0.04832184009850025,-0.06876096314564346,0.11556664479384197
1761915629172880400,4.42588037109375,0.018765490746498106,-0.024232670111209154,0.1184115858961828
1761915629182934300,4.435934326171875,0.011523264533281325,0.03572641628906131,0.09336053034048528
1761915629192989400,4.445989501953125,0.040860418176651,0.04443286983594298,0.05401106471605598
1761915629203043600,4.456043701171875,0.09833587106764316,0.03278203340023756,0.01936606872184202
1761915629213097200,4.46609716796875,0.10877192488610744,0.002591916189342737,0.016168642653711138
1761915629223151400,4.4761513671875,0.058203767165541646,-0.01270166066288948,0.0548219427075237
1761915629233205200,4.486205322265625,-0.017945991057157516,-0.010927636727690697,0.09394801137223839
1761915629243259400,4.49625927734375,-0.03447860818505287,-0.0043937049143016335,0.10409282715916633
1761915629253313300,4.506313232421875,-0.007606383350491523,0.007837123366445303,0.04138962968252599
1761915629263367400,4.516367431640625,0.004357610687613487,0.0444276091389358,-0.01789038841240108
1761915629273421300,4.52642138671875,-0.012931962287425994,0.07145648583993315,-0.026758535327017306
1761915629283475500,4.536475341796875,-0.05303250200748443,0.12053425887227058,-0.009979871016182005
1761915629293529600,4.546529541015625,-0.1013227779239416,0.1319933721281588,0.008049359611328692
1761915629303583500,4.55658349609375,-0.15824176597595213,0.1140602405525744,0.03319708047453314
1761915629313637400,4.566637451171875,-0.1300660573273897,0.09164514125734567,0.06110816510384902
1761915629323691300,4.576691162109375,-0.05245791698992252,0.04376227709800005,0.09607068434832618
1761915629333746400,4.586746337890625,0.02007598882317543,-0.029497166510671375,0.10630496851699427
1761915629343800300,4.59680029296875,0.06242927590608596,-0.0760271547563374,0.0895184862258844
1761915629353854500,4.6068544921875,0.0944347719758749,-0.06070654376670718,0.09130096746217459
1761915629363908400,4.616908447265625,0.133987614685297,-0.019214695818722247,0.08501182245640083
1761915629373962500,4.62696240234375,0.18193185364305972,-0.022467998526245356,0.06456236067833379
1761915629384016600,4.6370166015625,0.21796061387956142,-0.07070581360310316,0.05144561640853062
1761915629394070300,4.6470703125,0.23477321699261663,-0.08005436444580555,0.044050446389615534
1761915629404124400,4.65712451171875,0.2687017900794744,-0.07651654570847749,0.061959977893903846
1761915629414178300,4.66717822265625,0.25954291658997536,-0.1027215388059616,0.05011586564211175
1761915629424232400,4.677232421875,0.19940496649146078,-0.09047755878269671,0.04949318543281406
1761915629434286300,4.687286376953125,0.16444003609418867,-0.060023237677663564,0.10685962499137967
1761915629444340500,4.697340576171875,0.061759413820505135,-0.04747238366231322,0.08114634266728535
1761915629454394400,4.707394287109375,-0.007558452555537223,-0.015012860214710235,0.07364654323011637
1761915629464448500,4.717448486328125,0.0015115736067295073,0.04215308833569288,0.09632509750081225
1761915629474503400,4.72750341796875,0.061952306044101714,0.06469327531531453,0.09504351499136537
1761915629484557300,4.737557373046875,0.10282324561476706,0.05827420205324888,0.06014722938351333
1761915629494611500,4.747611572265625,0.12960545407831667,0.03400193058401346,0.017036730725131927
1761915629504665300,4.757665283203125,0.13205986149311064,0.021427549562603235,0.0059796954641118645
1761915629514719500,4.767719482421875,0.09730418993234634,0.055415305490791794,0.016627108744625002
1761915629524773400,4.7777734375,0.047986909055709834,0.10221008215248584,0.012967581590078771
1761915629534827500,4.78782763671875,-0.006451952618360519,0.11991291210353373,-0.0012268201149068772
1761915629544881400,4.79788134765625,-0.00871580589711666,0.13067045296132565,0.02351489549698308
1761915629554935600,4.807935546875,0.0572515810072422,0.10359817551001906,0.039837486603390426
1761915629564989400,4.817989501953125,0.14953355886340142,0.07069836094900965,0.03244995190165937
1761915629575043300,4.828043212890625,0.22625030331909654,0.04093962089270353,0.03193277789345011
1761915629585097200,4.83809716796875,0.16850538583695887,-0.0020374971769750116,0.010808065468631684
1761915629595151400,4.8481513671875,0.11191606813073157,0.004492489113658666,0.017312478926591574
1761915629605206500,4.85820654296875,0.1030225675791502,0.03059109922721982,0.001956321699544787
1761915629615260400,4.868260498046875,0.11094225466251373,0.018582389264553783,-0.00046754444651305675
1761915629625314600,4.878314453125,0.09166822987198829,-0.03365107131972909,0.02143549540704116
1761915629635368400,4.888368408203125,0.08529460318684577,-0.07627236168906092,0.038374026454705744
1761915629645422300,4.89842236328125,0.0392570746332407,-0.06838219296112656,0.06589570990763605
1761915629655476200,4.908476318359375,-0.03305471286177635,-0.021084873604774474,0.12550985532775522
1761915629665530400,4.9185302734375,-0.07075462118089199,-0.005014613291621208,0.17296369868637992
1761915629675584300,4.928584228515625,-0.0465548304259777,-0.030663579941540956,0.15484315477991475
1761915629685638400,4.938638427734375,0.07437748785316943,-0.033221886122226714,0.16603755268501116
1761915629695692300,4.9486923828125,0.1665653576850891,-0.0574966418094933,0.14881417681397868
1761915629705746400,4.958746337890625,0.17652268807590007,-0.09215309077948332,0.10336522527066991
1761915629715800300,4.96880029296875,0.15627134268581866,-0.08680281579270958,0.09532622265657409
1761915629725854500,4.9788544921875,0.060707274419069285,-0.07740735706835984,0.08203114441148936
1761915629735909400,4.988909423828125,-0.023231237983703613,-0.0326648367613554,0.12236364799020812
1761915629745963300,4.99896337890625,-0.050938744598627086,0.03266425223946571,0.17227843810226767
1761915629756017400,5.009017333984375,-0.0005289923101663589,0.014442074589431284,0.1659309870379977
1761915629766071300,5.0190712890625,0.13071370758116244,-0.030423341444879768,0.13287784507879988
1761915629776125400,5.02912548828125,0.2689689165830612,-0.0667892246812582,0.10540224752360955
1761915629786179300,5.039179443359375,0.33245676163136956,-0.09104819827750325,0.10879008159730583
1761915629796233500,5.0492333984375,0.29057752180099483,-0.08973945376649499,0.11907971268240362
1761915629806287400,5.059287353515625,0.21372750635445117,-0.06327054903581739,0.10862095384178683
1761915629816341500,5.069341552734375,0.15609657064080237,-0.046439241222292184,0.08964443242680281
1761915629826395400,5.0793955078125,0.15206746125519274,-0.007454699920117855,0.048803961059637364
1761915629836449300,5.08944921875,0.19091127891242504,0.010661387006938456,-0.0026266587091609834
1761915629846503400,5.09950341796875,0.22338263892829416,0.04388195795491338,-0.02332399430107325
1761915629856558300,5.109558349609375,0.2065109991043806,0.06277326703816652,-0.026777039098087697
1761915629866612500,5.119612548828125,0.06785480808615683,0.08240180435478686,-0.011756762761902063
1761915629876666400,5.129666259765625,-0.12905483445823193,0.12774828190430998,0.04415302998125553
1761915629886720500,5.139720458984375,-0.23702947148680686,0.16970730897262692,0.0748650704407133
1761915629896774400,5.1497744140625,-0.22695932837128638,0.1781999736383557,0.06984908717591315
1761915629906828300,5.159828369140625,-0.0804179370611906,0.16423793765082956,0.04933799487110227
1761915629916882400,5.16988232421875,0.03779810799658298,0.059697366724163294,-0.004867971362546086
1761915629926936300,5.179936279296875,0.12431027027964592,-0.011763210768997669,-0.011931078149192035
1761915629936990500,5.189990478515625,0.17689035234451292,0.006767009916901588,0.028414924231916664
1761915629947044400,5.20004443359375,0.21077099463641644,0.008651216228306294,0.06359831968545913
1761915629957098500,5.210098388671875,0.1820160247951746,-0.04647475092709064,0.052548664013296366
1761915629967152400,5.22015234375,0.16376725139915943,-0.07284852472022176,0.053190359450317914
1761915629977206500,5.23020654296875,0.21341069549024103,-0.12273878317922353,0.045405368129909036
1761915629987261200,5.24026123046875,0.2235907287210226,-0.13292963006496428,0.06831449801977724
1761915629997315300,5.2503154296875,0.1581821447432041,-0.11061696823090314,0.09326090589091181
1761915630007369500,5.260369384765625,0.07169862403273582,-0.08800210857987403,0.12567892828434704
1761915630017423400,5.27042333984375,0.008160510101914405,-0.09059665511772036,0.13290526280868797
1761915630027477500,5.2804775390625,-0.04566401906609535,-0.10458528685122728,0.11981803689431399
1761915630037531400,5.290531494140625,0.003475567156076431,-0.07966507286727428,0.10310893068835139
1761915630047585500,5.30058544921875,0.08206804235577583,-0.06479468986317515,0.07454214036297052
1761915630057638700,5.310638671875,0.1502086816459894,-0.07752528435960411,0.05826035619098693
1761915630067692800,5.32069287109375,0.18338029888570306,-0.10237827832624316,0.05567001090422272
1761915630077746700,5.33074658203125,0.14498305595219135,-0.1522298122100532,0.06535374851804227
1761915630087800800,5.34080078125,0.012546762362122535,-0.186555567920953,0.07547890975642949
1761915630097854700,5.350854736328125,-0.13285013508796692,-0.11657353854775428,0.0742206167910248
1761915630107908600,5.36090869140625,-0.15455577093958853,0.003516483688354492,0.06726995740290731
1761915630117963500,5.370963623046875,-0.12376666492223738,0.1234028000459075,0.025178097735159097
1761915630128017700,5.381017578125,-0.08297171319723129,0.1839602907307446,0.006283756444603205
1761915630138071600,5.391071533203125,-0.022941315126419067,0.17259017093256115,0.022358619867637753
1761915630148125700,5.401125732421875,0.02312894665300846,0.08877674621418118,0.03556198297496885
1761915630158179800,5.411179931640625,0.059417234608530996,0.0021720833420753476,0.028246837656013667
1761915630168233700,5.421233642578125,0.12098960142433643,-0.03154766929969191,0.01641505516283214
1761915630178287900,5.431287841796875,0.16770926702320574,-0.0010337269619107247,0.004366451581194997
1761915630188341500,5.441341552734375,0.16325930187702178,0.03384907810986042,0.013235767539590597
1761915630198395600,5.451395751953125,0.11028700562417507,0.055232642400264736,0.02616732796821743
1761915630208449500,5.461449462890625,0.06743745945692062,0.03531856614053249,0.038256921147368846
1761915630218503700,5.471503662109375,0.0580488688647747,0.007995382668077946,0.08046784061752259
1761915630228557600,5.4815576171875,0.08153145126104354,-0.023070932855457065,0.1204939268618822
1761915630238612700,5.49161279296875,0.14055238002836704,-0.049440176603943106,0.1401248387986794
1761915630248667000,5.5016669921875,0.1822106705844402,-0.04284545451402664,0.14413593760356305
1761915630258720500,5.511720458984375,0.16581424705684183,-0.026220482927560806,0.11290778258182108
1761915630268774700,5.521774658203125,0.106616792678833,-0.02828589102476835,0.11109971024654805
1761915630278828500,5.53182861328125,-0.027304771032929418,-0.034955578047037125,0.14523681151755152
1761915630288882700,5.541882568359375,-0.1007218894213438,-0.055836599642783404,0.18167028009742497
1761915630298936600,5.5519365234375,-0.10323767163455486,-0.09728358553573489,0.2083350727263838
1761915630308990700,5.56199072265625,0.008005027279257775,-0.11008286135420202,0.19353563606664537
1761915630319044600,5.572044677734375,0.1664396854788065,-0.09664280341416596,0.15347645127028225
1761915630329098800,5.5820986328125,0.2561947752058506,-0.08966887274831532,0.10490783333647996
1761915630339152600,5.592152587890625,0.22396306916475295,-0.1057081534013152,0.06572291062399745
1761915630349206800,5.602206787109375,0.09575111527144908,-0.08239917400628329,0.07518442032188177
1761915630359260700,5.6122607421875,0.019690204375982283,-0.009641980831325054,0.09266451090034097
1761915630369315600,5.622315673828125,0.01675531996786594,0.002793430110812187,0.07325264854170381
1761915630379369700,5.63236962890625,0.07451485049724578,-0.00105462361946702,0.06059336571581661
1761915630389423600,5.642423583984375,0.1415478208065033,-0.019379823252558707,0.027874095353484153
1761915630399477800,5.652477783203125,0.19682664043605327,-0.0456717639811337,0.0032769393114373086
1761915630409531600,5.66253173828125,0.23372341567873953,-0.02738748088032007,-0.03976191888283938
1761915630419585800,5.672585693359375,0.22275953859388828,0.030813363675773142,-0.06893694076705724
1761915630429639700,5.6826396484375,0.18881985959112643,0.07590922746509313,-0.07793174626864492
1761915630439693600,5.692693603515625,-0.02508183428645134,0.09054083327725529,-0.06065572689492255
1761915630449747500,5.70274755859375,-0.24223346987068653,0.1146881631925702,0.009718991590291262
1761915630459801600,5.712801513671875,-0.28539807333648204,0.1500743877418339,0.05671648774985224
1761915630469855500,5.72285546875,-0.17245090859234333,0.19796192807629703,0.05327350768912583
1761915630479909600,5.73290966796875,-0.05208206941485405,0.20986805444732307,0.023750877943634986
1761915630489963800,5.7429638671875,0.027670097213983533,0.199086548192054,0.013734291646257042
1761915630500018700,5.753018798828125,0.05021744458675384,0.13991831990852951,-0.032529483411274845
1761915630510072800,5.76307275390625,0.08685410758852959,0.08641776199787855,-0.06042319678068161
1761915630520126500,5.77312646484375,0.1489145501822233,0.06480331156104803,-0.04483184255827218
1761915630530180600,5.7831806640625,0.18750819247066974,0.014643734641373156,-0.049319034442305565
1761915630540234500,5.793234375,0.21018238109350204,-0.03352992915809154,-0.01862995473332703
1761915630550288600,5.80328857421875,0.20967326252758503,-0.06971256478205323,0.04008654772732407
1761915630560342500,5.813342529296875,0.20043898571431637,-0.12701821406409144,0.058381461820006364
1761915630570396700,5.823396728515625,0.2081499984830618,-0.17048779182583093,0.051129298734664916
1761915630580450600,5.833450439453125,0.20584522867202756,-0.17825126543417572,0.04177928658723831
1761915630590504700,5.843504638671875,0.1300146194010973,-0.1303603640988469,0.057134530498832464
1761915630600558800,5.853558837890625,-0.024986557218432424,-0.06569543809518218,0.09356409008856863
1761915630610612700,5.86361279296875,-0.15242577317357062,0.0041908758185803885,0.12815503607429563
1761915630620667600,5.873667724609375,-0.1843202100843191,0.054208852310478686,0.16017174765784292
1761915630630721500,5.883721435546875,-0.17451310181915758,0.05017112122699618,0.16226890260018406
1761915630640775700,5.893775634765625,-0.10063304209411143,0.015519056171178817,0.11895550178084521
1761915630650829600,5.90382958984375,0.02463642860651016,-0.0009686989016830921,0.05915712236762046
1761915630660881700,5.913881591796875,0.1292173315435648,-0.02164309200942516,0.03724135089665651
1761915630670935600,5.923935546875,0.13322364457547664,-0.03443140804246068,0.05662490047626197
1761915630680989700,5.93398974609375,0.08473229312896728,-0.05788783308416605,0.09112100778538733
1761915630691044600,5.944044677734375,0.06299041692018509,-0.0785391375772655,0.10513210707902908
1761915630701098800,5.9540986328125,0.10663140572607517,-0.06429375460371374,0.11559084765333681
1761915630711152600,5.964152587890625,0.18703706782758234,-0.057584758484363556,0.10272362116519361
1761915630721206800,5.974206787109375,0.24216332724392411,-0.04927168816924095,0.06226097013447433
1761915630731260400,5.984260498046875,0.22419980053007602,-0.0075334642447531215,0.04804850304983556
1761915630741314600,5.994314453125,0.18320786492824553,0.014903554621338843,0.05290018086470663
1761915630751368700,6.00436865234375,0.11325754586756229,0.021903496511280537,0.029262992428615686
1761915630761422600,6.014422607421875,0.0716559539347887,0.04258095835894346,0.01125157145243138
1761915630771476700,6.024476806640625,0.07453472424149513,0.0756261727400124,0.003888604936376214
1761915630781530600,6.034530517578125,0.1152525190770626,0.11854483862072229,-0.024898878934979437
1761915630791584800,6.044584716796875,0.187369660782814,0.10635594978556036,-0.05054057559389621
1761915630801638700,6.054638671875,0.17071020240485668,0.04744096561074257,-0.03278356777019799
1761915630811693600,6.064693603515625,0.055606736409664154,-0.029935557927936313,0.02904226235002279
1761915630821747500,6.07474755859375,-0.02904138556718826,-0.057661038590967655,0.12288889570701866
1761915630831801600,6.084801513671875,-0.06568740091919899,-0.05014145674109459,0.11666768310461192
1761915630841855700,6.094855712890625,-0.037518122011423106,0.003785802149027586,0.052781705584190784
1761915630851909600,6.10490966796875,0.012586509850621222,0.09665010993778705,0.01068253939282149
1761915630861963800,6.1149638671875,0.039455812075734134,0.13144231411665677,0.021102518859319387
1761915630872017700,6.125017578125,0.035167174971103665,0.08360533492565154,0.042700785346329206
1761915630882071800,6.13507177734375,0.016496376770734785,-0.0004607493795454502,0.04463379923552274
1761915630892125700,6.145125732421875,0.04199439064264297,-0.033550679685175416,0.039971177719347176
1761915630902179800,6.155179931640625,0.14017770149707792,-0.002982084550708532,0.063770863240771
1761915630912233500,6.1652333984375,0.16916472652852535,-0.009931903688609599,0.04014467112272978
1761915630922287600,6.17528759765625,0.12297346871793269,-0.01943973674625158,-0.003279642725177109
1761915630932342800,6.1853427734375,0.07256137834191322,-0.03360723217800259,0.001790719341672957
1761915630942396700,6.195396728515625,0.03249123376011848,-0.010868307755887508,0.033139285872690376
1761915630952450800,6.205450927734375,-0.010420856249332427,0.031196079383045434,0.07051149660740047
1761915630962504700,6.215504638671875,-0.03501578380167484,0.044293315234780306,0.08844404366109519
1761915630972558800,6.225558837890625,0.016561258700489998,0.039383331361413,0.09232121388800442
1761915630982612700,6.23561279296875,0.10012158544063568,-0.0187276429541409,0.07317319009732455
1761915630992666600,6.24566650390625,0.1619692620664835,-0.1119257127419114,0.04437054518945515
1761915631002720500,6.255720458984375,0.19072715451717376,-0.14310440259873866,-0.002110708543658256
1761915631012774700,6.265774658203125,0.1849351271122694,-0.1376683490246534,-0.012535108456946909
1761915631022828500,6.27582861328125,0.1561339800417423,-0.07405746211856604,-0.004501074278913438
1761915631032882700,6.285882568359375,0.12924889572560785,-0.024323124873638153,0.016346373840793967
1761915631042936600,6.2959365234375,0.089537063062191,0.010746288811415433,0.023769765307195483
1761915631052991700,6.30599169921875,0.05148410352170467,0.024404811807721853,0.017160905094072223
1761915631063045400,6.31604541015625,-0.041432080584764476,0.019510317764431236,0.03367766706570983
1761915631073099300,6.326099365234375,-0.11293313621878623,0.02358604277074337,0.06572787906005978
1761915631083153200,6.336153076171875,-0.14975918431282043,0.03443067739009857,0.07104512856006621
1761915631093207000,6.34620703125,-0.19682839400172233,0.07274784082472324,0.06610084055829793
1761915631103261200,6.35626123046875,-0.188904615265131,0.11857391858473419,0.07333535838909447
1761915631113315000,6.366315185546875,-0.14344985503554344,0.15114479345232248,0.05870002624988556
1761915631123369200,6.376369140625,-0.08981704904735088,0.15079422644898294,0.08221479388270526
1761915631133423000,6.386423095703125,-0.08572188868820667,0.11505261259078979,0.10811178047694266
1761915631143477200,6.396477294921875,-0.0905652370661497,0.10076397499740124,0.13803192164003847
1761915631153531100,6.40653125,-0.05165244582593441,0.08106105727031826,0.13317202398609368
1761915631163586000,6.4165859375,0.030366496691107747,0.09050371613726019,0.12530614944919943
1761915631173640200,6.42664013671875,0.10080839866101741,0.06495294916480779,0.1364205774532631
1761915631183694000,6.436694091796875,0.2166974620759487,0.016447423062473536,0.10995970989856868
1761915631193748200,6.446748291015625,0.37123569735884665,-0.10217033466398716,0.047332390669733285
1761915631203802000,6.456802001953125,0.4763777413100004,-0.1605693321406841,0.01521090353745967
1761915631213856300,6.466856201171875,0.4631166931986809,-0.16360080879107117,0.010610058678500353
1761915631223910100,6.47691015625,0.38872283873260016,-0.1369357969664037,0.017075820626504718
1761915631233964300,6.48696435546875,0.3189800249427557,-0.09931085357964038,0.01882047233674675
1761915631244019200,6.497019287109375,0.2933382186859846,-0.061775049781054255,0.006640826253965497
1761915631254073000,6.507072998046875,0.23977321723699568,-0.03703486853912472,-0.015356449487991631
1761915631264127200,6.517127197265625,0.12195289349853992,-0.006378010599315166,-0.005242832556925714
1761915631274181000,6.52718115234375,0.010961538997292518,0.02092924465164542,0.026589973827078936
1761915631284235300,6.5372353515625,-0.051936523464322086,0.03234101163446903,0.023952464930340648
1761915631294289200,6.5472890625,-0.0813636934787035,0.04369271899312734,0.01631762267034501
1761915631304343300,6.55734326171875,-0.0785100576132536,0.045606005268543956,0.01425564863923937
1761915631314398200,6.567398193359375,-0.09031564621925353,0.057351680380851026,0.02795245781932026
1761915631324452000,6.5774521484375,-0.11330664570629596,0.07732844661325215,0.04494246332589537
1761915631334506200,6.58750634765625,-0.09689034843444824,0.08135594856366515,0.045597237440198654
1761915631344560000,6.59756005859375,-0.016467735198140144,0.09274491919279097,0.030398462731949984
1761915631354614300,6.6076142578125,-0.0007809212446212769,0.07426599030271172,0.024536804156936702
1761915631364668200,6.617668212890625,0.009979542222619056,0.06891936857774854,0.006436389723047614
1761915631374722300,6.627722412109375,0.07501987740993499,0.09869155263751744,0.004691153490915894
1761915631384776200,6.637776123046875,0.16682839253544807,0.132091864066571,-0.0034973405964672565
1761915631394830300,6.647830322265625,0.2018307323336601,0.13140358954146503,-0.021241854264773426
1761915631404884200,6.65788427734375,0.1484223827511072,0.07850552756860851,-0.021992380371131003
1761915631414938000,6.667938232421875,0.10971358965039253,0.028330022427439688,0.00658522360920906
1761915631424993300,6.6779931640625,0.15903846931159496,0.025084464634954926,0.036206601021438835
1761915631435047200,6.688047119140625,0.19527648838460443,0.03597133096083999,0.029856702271755783
1761915631445101300,6.698101318359375,0.13270868079066275,0.05768938790261745,0.04323967799600213
1761915631455155200,6.7081552734375,0.06782850460112094,0.07469561389163136,0.06147769253598526
1761915631465209300,6.718209228515625,0.06182604931592941,0.05590674226954579,0.0476396665206179
1761915631475263200,6.72826318359375,0.10891396370530128,-0.000712678314000368,-0.010758910830970853
1761915631485317000,6.738317138671875,0.17606968361139297,-0.05013473473936319,-0.036427440697886046
1761915631495371000,6.74837109375,0.22048574844300745,-0.07392813665047288,-0.014148352339863775
1761915631505425200,6.758425048828125,0.14401508770287036,-0.11791355497986078,0.0434075453761965
1761915631515479000,6.76847900390625,0.03424363038539886,-0.13257087975516915,0.09793026767512783
1761915631525533200,6.778533203125,-0.04628536583483219,-0.13911562522351742,0.12864183321055025
1761915631535588400,6.78858837890625,-0.07626490903496742,-0.1294138770289719,0.11640579903172328
1761915631545642200,6.798642333984375,-0.1318301443904638,-0.07943345606848597,0.10220725087458267
1761915631555696000,6.808696044921875,-0.22792729662060737,0.03231383136659861,0.08503443614700809
1761915631565750000,6.81875,-0.2907195606201887,0.1477025440439582,0.10035751308836043
1761915631575804200,6.82880419921875,-0.2620499309748411,0.23079379196763036,0.11789264005599542
1761915631585858000,6.838858154296875,-0.16973580441474914,0.20626345408409832,0.10402299505965784
1761915631595912200,6.848912109375,-0.057868251600861544,0.10770590308979153,0.08920006792647764
1761915631605966000,6.858966064453125,0.07313947049081325,0.019933365482091903,0.06480928464410826
1761915631616020200,6.869020263671875,0.19045652088224888,-0.021156915927678346,0.03430971789155155
1761915631626074000,6.87907421875,0.19823767627775668,-0.01845394057929516,0.024822891089320183
1761915631636128300,6.889128173828125,0.10704232461452484,0.01580693320184946,0.016151125263329593
1761915631646182400,6.899182373046875,0.03520224628448486,0.06422025097608566,0.041203678656369445
1761915631656237000,6.909237060546875,-0.03407411903738975,0.07781652239114045,0.05863998489202931
1761915631666291200,6.919291259765625,-0.03251870628893375,0.08330430615246295,0.0819703358686529
1761915631676345000,6.929344970703125,0.02605564775466919,0.052593379937857385,0.09134531806055456
1761915631686399200,6.939399169921875,0.11826982107162475,0.0007769757218658923,0.06047942047994583
1761915631696453000,6.949453125,0.2301730297207832,-0.020731530122458933,0.010496789296064525
1761915631706507300,6.95950732421875,0.2736445071786642,-0.04272665043994784,-0.0043183563894592224
1761915631716561200,6.96956103515625,0.22923311852216718,-0.07014759519845247,0.013431545840017496
1761915631726615300,6.979615234375,0.18427870903015137,-0.054396191576123236,0.03349929655781016
1761915631736669200,6.989669189453125,0.1465712019264698,-0.03588847498297691,0.057473242667596784
1761915631746723000,6.99972314453125,0.10058335773348807,-0.029598142667114732,0.06920271556377411
1761915631756777200,7.009777099609375,0.14325228663682937,-0.00689238986223936,0.07334379742387681
1761915631766832000,7.01983203125,0.18401742774546145,-0.004010258554667234,0.0512996685991995
1761915631776886300,7.02988623046875,0.13718787203133107,0.0018866905294358729,0.04751499896133318
1761915631786940200,7.039940185546875,0.05449614481925964,0.03254237942546606,0.10264756025429815
1761915631796994300,7.049994384765625,-0.04320142834484577,0.011059300283342599,0.14306162290293722
1761915631807048200,7.060048095703125,-0.11720423766672611,-0.05582154820412397,0.139179246777948
1761915631817102000,7.07010205078125,-0.08321253621578216,-0.04318754594996571,0.12411721365926787
1761915631827156200,7.08015625,0.021632570615410802,-0.006981237189471721,0.12709639386683702
1761915631837210000,7.090210205078125,0.09821838216781616,0.015511018995195627,0.08025443532885983
1761915631847264300,7.10026416015625,0.12457155156433582,0.03626695290654897,0.04435461696796119
1761915631857318100,7.110318115234375,0.1320271282672882,0.07249342767223715,0.05926777966786176
1761915631867372300,7.120372314453125,0.059602528047561644,0.0874031197734177,0.10006793729094787
1761915631877426200,7.13042626953125,0.00967091466486454,0.03945537368431687,0.10906186600970104
1761915631887481000,7.140481201171875,-0.010512626186013221,-0.04278247228041291,0.0791493784300983
1761915631897535000,7.150534912109375,0.08073357888162136,-0.060859980762749906,0.06821631660861895
1761915631907589000,7.160589111328125,0.19511048416793345,-0.0065688569962978356,0.07931337335277348
1761915631917643300,7.170643310546875,0.20908757159411906,0.021501345451176164,0.07833484717682003
1761915631927697200,7.180697265625,0.1254442427456379,0.036332711619138716,0.07430553686181082
1761915631937751300,7.190751220703125,0.08511690853238105,0.06852130917087197,0.11653010126482695
1761915631947805200,7.20080517578125,0.11118190863728522,0.04856806994453072,0.11370435805330052
1761915631957859300,7.210859375,0.19184768297970295,-0.004141629849374294,0.03638961117183789
1761915631967913200,7.220913330078125,0.22968436942100523,-0.029684213515371084,-0.0016977986275218426
1761915631977967400,7.23096728515625,0.2221785238355398,-0.040767917587608095,-0.00861859260033816
1761915631988021200,7.241021240234375,0.1429980196148157,-0.0551885109975934,-0.015271492884587496
1761915631998076200,7.251076171875,0.01485270121693611,-0.03957914619445801,-0.007262867142446339
1761915632008130300,7.26113037109375,-0.0455137969404459,-0.00021539631634950637,0.03913087270399555
1761915632018184200,7.27118408203125,-0.04336392543017864,0.03373728829845786,0.030552045858465132
1761915632028238300,7.28123828125,-0.011701543709635734,0.048920975035429,0.022933679809235035
1761915632038292200,7.291292236328125,0.04271042995750904,0.06026625265330076,0.04414590612072497
1761915632048346400,7.301346435546875,0.052628597381711,0.03853840496987104,0.0340460985193029
1761915632058400800,7.31140087890625,0.009395020332932472,0.021561697336286306,0.03780643743351102
1761915632068454700,7.32145458984375,-0.029590251621603964,0.022303747875243425,0.0868596605464816
1761915632078508800,7.3315087890625,-0.060356561285257335,0.005897825866937637,0.08837680537747218
1761915632088562700,7.341562744140625,-0.013041852402687073,0.0019420739784836768,0.08757918872637674
1761915632098616800,7.351616943359375,0.0475964484333992,0.008194120110571385,0.10326598441358655
1761915632108672000,7.361672119140625,0.14072481398582457,0.004135346239060163,0.08243824564134701
1761915632118726000,7.371725830078125,0.22719313712716102,-0.01795066723227501,0.0485773492295295
1761915632128779800,7.38177978515625,0.2882370961546898,-0.06272109845951199,0.015899196328874675
1761915632138833700,7.391833740234375,0.30887714860141274,-0.07899170365035534,0.012223795751761645
1761915632148887800,7.4018876953125,0.25518179877102376,-0.05837532434016466,0.025725977408885953
1761915632158941700,7.411941650390625,0.14202011449337004,-0.03980404099151492,0.04746129601271823
1761915632168995800,7.421995849609375,-0.006237433084845543,-0.007040420030802488,0.05583364050071686
1761915632179049700,7.4320498046875,-0.10811024610698222,0.03830649591013789,0.0641377785907127
1761915632189103900,7.442103759765625,-0.12150982590615748,0.06155556181147694,0.05184384021218866
1761915632199157800,7.45215771484375,-0.08080781316161155,0.07272314477488398,0.04381616270970553
1761915632209212000,7.4622119140625,-0.019905892953276633,0.07272767481952905,0.026048048970103262
1761915632219266800,7.472266845703125,0.08779694139659404,0.04745660157129168,0.011643402047920972
1761915632229320700,7.48232080078125,0.1837935558617115,0.011544891843199729,-0.00996673753997311
1761915632239374800,7.492374755859375,0.25313304954767224,-0.021432225737720727,-0.02774791169054806
1761915632249428700,7.5024287109375,0.27695231655240055,-0.02538037884160876,-0.026964524494204667
1761915632259483000,7.51248291015625,0.20981004064977168,-0.01828019144758582,0.0001920702396892011
1761915632269536800,7.522536865234375,0.10269055914580821,0.018992723631113765,0.034734519174881275
1761915632279591000,7.5325908203125,-0.0003542202651500702,0.06981967841833829,0.06242628023140132
1761915632289644800,7.542644775390625,-0.058168111330270764,0.10907573013827204,0.08003036251571029
1761915632299699000,7.552698974609375,-0.08339841417670249,0.13216887482553719,0.0885439969042316
1761915632309752600,7.562752685546875,-0.036837154009938235,0.15126169783025978,0.06344906567418948
1761915632319806700,7.572806640625,-0.0064461073994636535,0.12315686246082186,0.004462514100503176
1761915632329862000,7.58286181640625,0.06320961262881755,0.10097527966052293,-0.00549927326971665
1761915632339915800,7.592915771484375,0.17305530422627924,0.07338380064070224,0.010340721951518207
1761915632349970000,7.602969970703125,0.20889994006752965,0.044365649818629026,0.01777658930700272
1761915632360023800,7.61302392578125,0.2130944691479206,0.0027064824797213075,0.04279153236970305
1761915632370078000,7.623077880859375,0.24901450831294059,-0.039474078384786844,0.06166888599283993
1761915632380131800,7.6331318359375,0.2993202157050371,-0.07064926111027597,0.06893915099045261
1761915632390185700,7.643185791015625,0.33361762210428714,-0.034315088186413045,0.07342902802191674
1761915632400239600,7.653239501953125,0.2599456521719694,-0.002561813312023878,0.08442004884202033
1761915632410293800,7.663293701171875,0.11571195328235626,-0.0031396131999790666,0.0984337236852385
1761915632420348000,7.673347900390625,0.045861587464809415,0.0009966098219156266,0.14286938826646656
1761915632430401800,7.68340185546875,0.08080255246460437,-0.04694602170065045,0.14555289172939956
1761915632440457000,7.69345703125,0.1560690981119871,-0.10411313929483294,0.10860308939153328
1761915632450510800,7.7035107421875,0.2365261981397867,-0.14724866279661655,0.07257772668851539
1761915632460564700,7.713564697265625,0.22544833928644656,-0.15610709203481674,0.035578459185734386
1761915632470618600,7.72361865234375,0.13330138598680497,-0.13094094046577812,0.026053419264964756
1761915632480672800,7.7336728515625,0.007259761869907379,-0.07329948335811495,0.055619449760764834
1761915632490726700,7.7437265625,-0.10992927822768687,-0.03931947234496474,0.0672810815851204
1761915632500780800,7.75378076171875,-0.15184417389333246,-0.018158318633586166,0.07904642951227724
1761915632510835000,7.7638349609375,-0.08498772919476032,-0.01910202922448516,0.06213498740093782
1761915632520888800,7.773888916015625,0.005748772785067558,-0.04443170079216361,0.046513913893699646
1761915632530943000,7.78394287109375,-0.02206803942322731,-0.058057344432175154,0.06115741107305511
1761915632540996900,7.793996826171875,-0.13248714699447153,-0.054312020424008366,0.11576224043117836
1761915632551051800,7.8040517578125,-0.1977051768362522,-0.030909517526626584,0.16845687052011488
1761915632561105700,7.814105712890625,-0.14226269107759,0.012941168507188558,0.16588842653790487
1761915632571159800,7.824159912109375,-0.005899579432606696,0.04889730189889669,0.1206620134377852
1761915632581213700,7.834213623046875,0.1096276649326086,0.04565028280168772,0.07059391419384628
1761915632591267800,7.844267822265625,0.1669447123914957,0.05091346402689814,0.015559424714185296
1761915632601322000,7.854322021484375,0.14759002358019352,0.06941036696508526,0.0030571042819879947
1761915632611375900,7.8643759765625,0.08824000898897648,0.05920446864068508,0.00813745801988989
1761915632621430000,7.874429931640625,0.038843817657232285,0.043052083002030846,0.030361802249681203
1761915632631484000,7.88448388671875,0.02705342662036419,0.015473755724728106,0.030819464622996746
1761915632641537800,7.894537841796875,0.08783727340698241,-0.02213555170148611,0.03206374732935801
1761915632651591700,7.904591796875,0.10686229187250136,-0.04208382249176502,0.03517775116404518
1761915632661646800,7.914646728515625,0.12873627002835272,-0.033373131161183116,0.04154388866247609
1761915632671700700,7.92470068359375,0.11099953780770301,-0.026306846036761998,0.0448718092424795
1761915632681755000,7.9347548828125,0.0903828662365675,-0.004933657009899616,0.05581168439723551
1761915632691808800,7.944808837890625,0.07705752071738242,0.03094721918851137,0.0756345569758676
1761915632701863000,7.95486279296875,0.04463409149646759,0.015909955184906722,0.06398028647406026
1761915632711916800,7.964916748046875,0.04085106582641601,-0.019133008884638546,0.06856456379070877
1761915632721970700,7.974970703125,0.06451309644281863,-0.03359086556509137,0.06506455631311983
1761915632732024800,7.98502490234375,0.05915303071439266,-0.041875586568564174,0.06684077220540494
1761915632742078700,7.99507861328125,0.0906570070028305,-0.04289338530898094,0.06612807562509551
1761915632752132900,8.0051328125,0.14546061033606528,-0.05335720391720533,0.04221923064077273
1761915632762186800,8.015186767578125,0.21587620882093905,-0.045168198373168704,0.034379823985695834
1761915632772242000,8.025241943359376,0.25007073936760427,-0.010360212103277444,0.01632202485082671
1761915632782295800,8.0352958984375,0.16282207950353622,0.006177957982569933,0.02989623056454584
1761915632792349700,8.045349609375,0.0118511813133955,-0.02114317966327071,0.053478090350516136
1761915632802403800,8.05540380859375,-0.06854863556921481,-0.0352146673746407,0.06999158265283331
1761915632812457700,8.065457763671875,-0.028072832795977592,-0.021723463769257066,0.04011898869220167
1761915632822511900,8.075511962890625,0.03947743938565254,0.018973434408754108,0.03521348006455228
1761915632832565800,8.085565673828125,0.10189970102906226,0.06744388919770718,0.02421151772532612
1761915632842620000,8.095619873046875,0.08189093222320079,0.06370046488568186,-0.03740885295066982
1761915632852673800,8.105673828125,0.04695288983285427,0.05554258513227105,-0.05725455841561779
1761915632862728000,8.11572802734375,0.0018143559455871582,0.05468143825829029,-0.03402437987783923
1761915632872782600,8.125782470703125,-0.06747428433597087,0.04734495789036154,-0.015428546609822659
1761915632882836700,8.135836669921876,-0.07924012545347213,0.05978358370289206,-0.008330879966448991
1761915632892891000,8.145890869140626,-0.07762099981904029,0.08055003900825977,-0.0030470943446271118
1761915632902944800,8.15594482421875,-0.05798223336935043,0.10173691168278455,0.0015625183426775037
1761915632912999000,8.1659990234375,0.028525252738595006,0.07985489635095,-0.014867624791432171
1761915632923052800,8.176052734375,0.09230009803473949,0.001005085389316082,-0.04939894954441115
1761915632933107000,8.18610693359375,0.1718897675782442,-0.04109393467158079,-0.05965339971827343
1761915632943160800,8.196160888671875,0.22134791823029518,-0.06874649622887373,-0.039834454396087675
1761915632953215000,8.206215087890625,0.17703882090449333,-0.08348346211165189,-0.029097572733834384
1761915632963268900,8.216268798828125,0.14197101465463638,-0.06575286737084389,0.012325064169149845
1761915632973322800,8.22632275390625,0.13280454238057135,-0.06400690048635005,0.019837065500766037
1761915632983378000,8.2363779296875,0.1147515838176012,-0.0692540073595941,0.021141882755327968
1761915632993431800,8.246431884765625,0.07126724687814712,-0.04386807556003332,0.04553116820035502
1761915633003486000,8.25648583984375,0.03484977958500385,-0.018144874630123375,0.07574086689455434
1761915633013539800,8.266539794921876,0.021536709025502202,0.01525485227704048,0.07428325196476653
1761915633023594000,8.276593994140624,0.019847440764307975,0.04235796325802803,0.07498071444332599
1761915633033647900,8.28664794921875,-0.006265490135550498,0.03168079416006803,0.07904611898502334
1761915633043701800,8.29670166015625,-0.051505146309733386,0.0030818916633725164,0.06431459646234289
1761915633053755600,8.306755615234374,-0.04525777635276317,0.019086685524880884,0.04733182441415265
1761915633063810000,8.31681005859375,0.023756138640642164,0.05073270063251257,0.03919409239962697
1761915633073864000,8.326864013671875,0.0543453381717205,0.05590440418198704,0.050157732022460544
1761915633083918000,8.33691796875,0.03153437142670154,0.04046308942213654,0.048544323742762206
1761915633093973000,8.346972900390625,0.07056991226375102,0.0460647088214755,0.061477765601221465
1761915633104027100,8.357027099609375,0.10499357539117336,0.05215338108539581,0.05823427190165966
1761915633114081000,8.3670810546875,0.13457798179388045,0.040563773317635055,0.05726149961305782
1761915633124135000,8.377135009765626,0.1412380242049694,-0.00305471139550209,0.0610367986343801
1761915633134189000,8.38718896484375,0.13291326345205307,-0.05063523160740733,0.07312907696096226
1761915633144243000,8.397242919921876,0.14665946473181246,-0.0766131379507482,0.09452493447735905
1761915633154297000,8.407297119140624,0.15950082612633704,-0.11696721404045819,0.10346364414384587
1761915633164351000,8.41735107421875,0.1321668289989233,-0.10900281103253363,0.07193880773046984
1761915633174405000,8.427405029296875,0.08549977037012577,-0.035664164707809684,0.06801061970237642
1761915633184459000,8.437458984375,0.033519992285966874,0.0438004171513021,0.07583787926193326
1761915633194513200,8.44751318359375,0.02677577872276306,0.08345423601716756,0.06386431367788463
1761915633204567800,8.45756787109375,0.04539338543117046,0.0860002672381699,0.040464130601752545
1761915633214622000,8.4676220703125,0.07606617159247397,0.047952860655635594,0.03554961668374017
1761915633224676000,8.477676025390625,0.06800853734314441,-0.01926014239564538,0.030618425625562665
1761915633234730000,8.48772998046875,0.06975333518385887,-0.0499916730068624,0.05178631960498169
1761915633244784000,8.4977841796875,0.09074234719872475,-0.04365209472179413,0.07632334295762702
1761915633254838000,8.507838134765626,0.10851356621086597,-0.022369652718305585,0.06065956281982362
1761915633264892200,8.51789208984375,0.10530454103648662,-0.0038872166968882084,0.07764691971158608
1761915633274946000,8.527946044921874,0.08813537957072258,-0.005725976431369781,0.06215361903617158
1761915633285000200,8.538000244140624,0.029227263528108595,-0.015660802729427815,0.059105593109782785
1761915633295054000,8.54805419921875,-0.003551555001735687,0.018456570927798746,0.09049273808551951
1761915633305108000,8.55810791015625,-0.016495207726955414,0.040298692640662194,0.13119560934659094
1761915633315163100,8.5681630859375,-0.036736616244912146,0.0014670038126409052,0.15820735224969684
1761915633325217000,8.578217041015625,-0.054693713217973706,-0.02253507241308689,0.15004064986901358
1761915633335271200,8.588271240234375,0.0072498249977827065,-0.033806261881440876,0.12097643141550943
1761915633345325000,8.598324951171875,0.12099486212134361,-0.01561974006667733,0.09807089998852461
1761915633355379200,8.608379150390626,0.22011633060872554,0.030924276704341173,0.10395645089577883
1761915633365433000,8.61843310546875,0.1997270380526781,0.033586189389973875,0.07634034889135509
1761915633375487000,8.628487060546876,0.14858137270510197,0.008211071245372296,0.060034489724040026
1761915633385540900,8.638540771484376,0.16142565670907497,-0.0386468337804079,0.08725885246451943
1761915633395595000,8.648594970703124,0.1442266846269369,-0.0681596362516284,0.09533245146796107
1761915633405649000,8.65864892578125,0.15803192261755467,-0.08139584218263625,0.07425658315354958
1761915633415703000,8.668703125,0.21696692666709422,-0.05461173402294516,0.016408515824191273
1761915633425758200,8.67875830078125,0.25501462551057336,-0.028940409410744904,-0.02111503128102049
1761915633435812000,8.68881201171875,0.21728899822831152,-0.04171805791929364,-0.045225664181448515
1761915633445866000,8.698865966796875,0.12434943324625491,-0.053812984860688445,-0.03761250403029844
1761915633455919900,8.708919921875,0.09221884949207305,-0.007804828532040118,-0.00854742706026882
1761915633465974000,8.71897412109375,0.08567337337136269,0.049170127490907906,-0.016811580199748277
1761915633476028000,8.72902783203125,0.0869575679630041,0.12076353758350014,-0.048097493290714916
1761915633486082000,8.73908203125,0.10181728344261645,0.21320903543829917,-0.07594163189735263
1761915633496136000,8.749135986328126,0.0324292744398117,0.2831972022913396,-0.07697946877880021
1761915633506190000,8.759190185546874,-0.12757482503354547,0.31432518487423655,-0.04465009278319776
1761915633516244000,8.769243896484374,-0.3114320937812328,0.276078748588264,-0.013048081214074045
1761915633526298000,8.779298095703124,-0.3476262737125158,0.21379501863270997,0.01888095208602026
1761915633536353000,8.78935302734375,-0.26216391274333,0.15409677512571215,0.011572419170942157
1761915633546407000,8.799406982421875,-0.06800152308046817,0.09184417096078396,-0.018718692462705074
1761915633556461000,8.8094609375,0.1505132175505161,0.03378931074663997,-0.024834143135696648
1761915633566515000,8.819514892578125,0.24388708229660985,-0.04393398040309548,-0.02093262391882017
1761915633576569000,8.829569091796875,0.2499023970633745,-0.11283815141171216,0.020056462138798088
1761915633586623000,8.839623046875,0.2588783152014017,-0.15122618812546132,0.06467930158888921
1761915633596677000,8.849677001953125,0.21115736360549925,-0.18212839912846684,0.100707057178393
1761915633606731000,8.85973095703125,0.12439970212876796,-0.19872619044706225,0.11747377532310783
1761915633616785200,8.86978515625,0.122258598446846,-0.18049626788198947,0.14187584718447177
1761915633626839000,8.879839111328126,0.1542085649371147,-0.18336992362216115,0.12999534844504668
1761915633636894000,8.88989404296875,0.18933365433216093,-0.1954464381240308,0.10542911726422607
1761915633646948000,8.899947998046875,0.18288462432324884,-0.22044643934592603,0.11807183254780247
1761915633657002000,8.910001953125,0.12777706960737706,-0.23639336554035542,0.12806364973010495
1761915633667056000,8.92005615234375,0.07256956164836884,-0.21563129414916038,0.12173976220451295
1761915633677110000,8.930110107421875,0.01798106237053871,-0.14998422524034977,0.092023016392719
1761915633687164200,8.9401640625,-0.021894436421990394,-0.07478270765319465,0.05582405068846419
1761915633697218000,8.950218017578125,-0.032737901997566224,-0.015746873577684162,0.02275428638802841
1761915633707272000,8.96027197265625,-0.059002808588743204,0.02010200004726648,0.0019147475801408289
1761915633717325800,8.970325927734375,-0.08588263220787049,0.04502294468358159,0.039473073737788945
1761915633727380000,8.9803798828125,-0.06849427503347397,0.051163054873794314,0.016777732729073614
1761915633737433900,8.990433837890626,-0.014199205744266509,0.05652575095072388,-0.014878292315918952
1761915633747489000,9.000489013671874,0.06145078626275062,0.08637889129221439,-0.007378072753641754
1761915633757543200,9.010543212890624,0.07671323732435703,0.08608969908729196,-0.04170209316518157
1761915633767597000,9.02059716796875,0.09062778090834617,0.09875658069774508,-0.08262510998295619
1761915633777651000,9.03065087890625,0.12308920405209063,0.13772183277755976,-0.12038020082172006
1761915633787704800,9.040704833984375,0.1327981126397848,0.20011545284837484,-0.11806578639950603
1761915633797759000,9.050759033203125,0.04975801038146019,0.21258228184208272,-0.1200726327098906
1761915633807812900,9.060812744140625,-0.044562195304036135,0.20021292187348008,-0.11737252517202869
1761915633817867000,9.070866943359375,-0.07806114480197429,0.17280571337938308,-0.11058787000058218
1761915633827921000,9.0809208984375,0.022983985224366187,0.14273118537217377,-0.09581543094562366
1761915633837975000,9.09097509765625,0.15098317314982412,0.10573343397304415,-0.07602439654367044
1761915633848029200,9.101029296875,0.20442250239253043,0.062342912796884774,-0.07171922842934728
1761915633858083000,9.1110830078125,0.16928689160346985,0.01856616878211498,-0.0430396253792569
1761915633868138000,9.121137939453124,0.11838672544956207,-0.0060942252218723295,0.014497494571097193
1761915633878191900,9.13119189453125,0.11216156732439994,-0.019672668719291686,0.02811868123169988
1761915633888246000,9.14124609375,0.09701251350939273,-0.032868834900856014,0.030116211724467573
1761915633898300000,9.1512998046875,0.12178455119431018,-0.01590367157459259,0.05250402115397155
1761915633908354000,9.16135400390625,0.11707564285099506,-0.008918050470948218,0.06365430592270567
1761915633918408000,9.171407958984375,0.08692600378096103,-0.037473552217334505,0.07400553100192919
1761915633928462000,9.181462158203125,0.08956979628801345,-0.08313231058642268,0.10646815972207113
1761915633938516200,9.19151611328125,0.0976239234060049,-0.13365794433951378,0.12777613802561535
1761915633948570000,9.201570068359375,0.08587912507653236,-0.1531419586189091,0.11335271333772688
1761915633958624000,9.2116240234375,0.058199090990424154,-0.1288144498310983,0.1266033496528864
1761915633968679000,9.221678955078126,0.017945991057157516,-0.09259878872036933,0.13503589989552273
1761915633978733000,9.231733154296874,0.015319734206795691,-0.05364756516590714,0.13964531165342778
1761915633988787000,9.241786865234374,0.005112812969088554,-0.041623219242691994,0.14240810916395857
1761915633998841000,9.251841064453124,-0.0415706122726202,-0.05628229758366942,0.1490809745240025
1761915634008895000,9.26189501953125,-0.08380582593381404,-0.03698547643944621,0.14249470973517744
1761915634018949000,9.27194921875,-0.05981003331840038,0.025223873105645177,0.1235652423323132
1761915634029003300,9.282003173828125,-0.010100538253784179,0.08151260043010115,0.061234659294039005
1761915634039057000,9.292056884765625,-0.01866787559092045,0.0880484319396317,0.01767179549196735
1761915634049111000,9.302111083984375,-0.05311199698448181,0.08287380578070878,0.0063389937631785865
1761915634059164200,9.3121640625,-0.06998129872083664,0.09192045106738805,0.0029492051944136617
1761915634069218000,9.322218017578125,-0.10496025764346122,0.0630782413341105,-0.0019485037192702292
1761915634079273200,9.332273193359375,-0.10519991161823272,0.04443228531405329,0.0186270686564967
1761915634089327400,9.342327392578126,-0.05028057295083999,0.04164470042213797,0.02342363701695576
1761915634099381200,9.35238134765625,0.01868599576950073,0.033624329443275924,0.014409670157171785
1761915634109435400,9.362435302734376,0.12846154474020002,0.018803923060745,0.01603504286929965
1761915634119489300,9.3724892578125,0.21797756501436233,-0.016996873638778925,0.00022337869340553879
1761915634129543400,9.38254345703125,0.2717471491247415,-0.026930530893057584,0.02519073802102357
1761915634139597000,9.39259716796875,0.2342822186052799,-0.018220424084365368,0.04129469967437908
1761915634149651200,9.402651123046875,0.1819587416499853,-0.016289748282730578,0.05431139936950057
1761915634159705000,9.412705078125,0.12831716783344746,-0.017972586803138256,0.059956346453912554
1761915634169759200,9.42275927734375,0.08805296198427677,-0.021757512169331313,0.06126187609452754
1761915634179813400,9.4328134765625,0.07469020706415176,-0.029240707531571385,0.06657275065267458
1761915634189868300,9.442868408203125,0.08206687331199645,-0.025430209332704543,0.0674228646759875
1761915634199922400,9.45292236328125,0.13455752352774142,-0.0036537002019584176,0.06532983791949228
1761915634209976300,9.462976318359376,0.19662264229655266,-0.01992883543744683,0.053042329281754785
1761915634220030200,9.4730302734375,0.2144622503697872,-0.03366027753949165,0.038102972694672645
1761915634230084000,9.483083984375,0.16455986308157444,-0.047060880251973865,0.032551202052738516
1761915634240138200,9.49313818359375,0.10928630414903164,-0.05924260869398713,0.055808834853023286
1761915634250192100,9.503192138671874,0.1273310794055462,-0.05558803170919418,0.027390567886549977
1761915634260246300,9.513246337890624,0.19688509262502193,-0.03655862932950258,-0.007381543352361768
1761915634270300400,9.523300537109375,0.21547464228272437,0.02756868266612291,-0.03197647090470418
1761915634280354300,9.533354248046875,0.08984101444482803,0.11553528154119848,-0.016261234574299305
1761915634290408400,9.543408447265625,-0.09298223508000374,0.13697042988836763,0.02609621722707525
1761915634300463000,9.553463134765625,-0.2096183174699545,0.11618673118725419,0.04178617298575118
1761915634310517200,9.563517333984375,-0.13533669120669364,0.09010916386172176,0.03955393868796527
1761915634320571100,9.573571044921875,0.025695582270622252,0.06848726077079773,0.024418803800456225
1761915634330625300,9.583625244140626,0.1237222412586212,0.05134907896518707,-0.0038300796821713447
1761915634340679200,9.59367919921875,0.15402268697619437,0.0383214012183249,0.002721990576107055
1761915634350733300,9.6037333984375,0.13472586583197116,0.014105097720026969,0.04170830371025949
1761915634360787500,9.613787353515624,0.11913082181513308,-0.01227203707396984,0.05972357887765392
1761915634370841300,9.62384130859375,0.10938099669516085,-0.015785452022403477,0.0345838038588874
1761915634380895500,9.6338955078125,0.08922200576364994,-0.0007101940959692001,0.032430480016209184
1761915634390949400,9.643949462890625,0.05845218896865845,0.016062223137170074,0.035542839883081614
1761915634401003300,9.654003173828125,0.04246025458872318,0.009507833057641982,0.048162630948796865
1761915634411057200,9.66405712890625,0.029790158107876778,0.005072042567282915,0.04643715886306017
1761915634421112300,9.6741123046875,0.04775894551873207,-0.008596271170675754,0.05065128769306466
1761915634431166200,9.684166259765625,0.07970189774632454,-0.05199716761037707,0.06027246319837868
1761915634441220400,9.694220458984375,0.10643909802436828,-0.07414104874879121,0.05323761439183727
1761915634451274500,9.7042744140625,0.15077391431331633,-0.053134647207707164,0.041777222494315355
1761915634461328400,9.714328369140626,0.14755261417925358,-0.034463410615921015,0.054704508606623854
1761915634471382300,9.72438232421875,0.11194470970332622,-0.016375526870042085,0.07145573692126199
1761915634481436200,9.734436279296874,0.09046762191057205,-0.021328326971828935,0.05250953757930547
1761915634491490300,9.744490234375,0.07723872250318527,-0.025320903739333152,0.05555212014559656
1761915634501544200,9.754544189453124,0.08459960666000843,-0.01513590207248926,0.058951242798287416
1761915634511598300,9.764598388671875,0.07005728656649589,0.009030132543295622,0.042816940805595366
1761915634521652200,9.77465234375,0.00580488688647747,0.02124254838451743,0.04114287011353299
1761915634531707400,9.784707275390625,-0.019429507613182066,0.048915422077476976,0.05773938279049471
1761915634541761300,9.79476123046875,0.02337912202179432,0.07382058462277054,0.046052105068229134
1761915634551815200,9.804815185546875,0.07857260145545006,0.07612725412994623,0.03684922804022207
1761915634561869300,9.814869384765625,0.1268681380689144,0.05796411319077015,0.037561595826968545
1761915634571923200,9.824923095703125,0.1259440089613199,0.01905161421149969,0.012253387172427029
1761915634581977300,9.834977294921876,0.08329962997734547,-0.007981208012253046,0.012149159612972289
1761915634592031200,9.84503125,0.06110124217271804,-0.009857523278146981,0.02280289303641766
1761915634602085400,9.85508544921875,0.062464347219467156,-0.005727583866566419,0.011691880832146853
1761915634612139300,9.86513916015625,0.09267653013169765,0.00660202861353755,0.0029311763473786412
1761915634622193400,9.875193359375,0.11127134048640727,0.024337737920880315,0.0265519068390131
1761915634632247300,9.885247314453125,0.07995441120266913,0.015513649343699216,0.04255825333679095
1761915634642302200,9.89530224609375,0.03429097665846348,-0.008893062160164117,0.05754471873492002
1761915634652356400,9.9053564453125,0.08111410263180732,-0.022158932577073572,0.04773063273970037
1761915634662409200,9.9154091796875,0.10187281302213669,-0.01452069278359413,0.026669614934548735
1761915634672463000,9.925463134765625,0.09183423408865928,0.019226970778405666,0.031404881561826914
1761915634682517200,9.935517333984375,0.05308803158700466,0.02962459228262305,0.04510227526379749
1761915634692571100,9.945571044921875,0.033653263276815414,0.03594356617107987,0.058624659458734095
1761915634702625300,9.955625244140625,0.10937807408571243,0.0380675725877285,0.013697905158624053
1761915634712679400,9.965679443359376,0.21096856303513048,0.04012508963942527,-0.02246973382560536
1761915634722734300,9.975734375,0.3016998043179512,0.013078531151264906,-0.05077370849633589
1761915634732788200,9.985788330078124,0.25615736580491066,0.0023139760307967663,-0.08085192629797383
1761915634742842000,9.995842041015624,0.16763620178699493,-0.00655409781858325,-0.029469913177564738
1761915634752896300,10.005896240234375,0.044268180793523786,0.022475158919394014,0.03993868195554241
1761915634762950100,10.0159501953125,-0.060032736158370965,0.05586801769435405,0.06078748178211972
1761915634773004300,10.02600439453125,-0.023916297638416288,0.07897095312327146,0.033917869029752905
1761915634783058200,10.03605810546875,0.09639467387199402,0.06326704190447927,-0.03300630714278668
1761915634793112300,10.0461123046875,0.1804775631815195,0.05620879395604133,-0.07552037427797913
1761915634803166500,10.05616650390625,0.20510639300346373,0.03984934143796563,-0.05652569615179673
1761915634813220400,10.066220458984375,0.1626835478156805,0.02252615845426917,-0.008750804145261646
1761915634823274500,10.0762744140625,0.05857961474061012,0.00859144886508584,0.05984351546289399
1761915634833329200,10.0863291015625,-0.031034605211019514,-0.004612462231516838,0.11831018961463123
1761915634843383300,10.09638330078125,-0.03677110303640366,-0.017226736871898175,0.12927366484068334
1761915634853437200,10.106437255859374,0.03815232826173305,-0.028568799619376656,0.12345337945567443
1761915634863491300,10.1164912109375,0.14191080889999866,-0.038472207865864035,0.06367803385816515
1761915634873545200,10.126545166015624,0.214309690156579,-0.0477780886106193,0.013313052293192594
1761915634883599400,10.136599365234375,0.13209084115326403,-0.028459055634588,0.050437571877148
1761915634893653500,10.146653564453125,-0.23697627999484538,-0.002270575280487537,0.1681672033911571
1761915634903707400,10.156707275390625,-0.5468295801520348,-0.027060294752568007,0.21800280905347316
1761915634913761300,10.16676123046875,-0.5258563502281904,0.022119915740936993,0.261927912030369
1761915634923815200,10.176815185546875,-0.05224222841262817,-0.042752807794511315,0.16453173296563325
1761915634933869300,10.186869384765625,0.5237684380382299,-0.11678352803662419,-0.08598316997289657
1761915634943923200,10.196923095703125,0.7866109806954861,-0.1310584293656051,-0.14601181447803974
1761915634953978400,10.206978271484376,0.5893845272868872,-0.04725406473651528,-0.058865555542521174
1761915634964032300,10.2170322265625,0.007649637970328331,-0.016072452270239592,-0.029825339019112287
1761915634974086400,10.22708642578125,-0.21362930667698382,0.056753422226756806,0.012595862200856208
1761915634984140300,10.237140380859374,-0.04973638307154178,0.15796455646976829,-0.03807455031778663
