time,seconds_elapsed,z,y,x
1761915624813190100,0.066190185546875,-0.9471893310546875,-0.179534912109375,0.0411834716796875
1761915624823244300,0.076244384765625,-0.9660491943359375,-0.18817138671875,0.0476837158203125
1761915624833298200,0.086298095703125,-0.9878692626953125,-0.1906280517578125,0.051971435546875
1761915624843352300,0.096352294921875,-0.9902496337890625,-0.1829376220703125,0.055419921875
1761915624853406200,0.10640625,-0.9825439453125,-0.174591064453125,0.054443359375
1761915624863460400,0.11646044921875,-0.975677490234375,-0.172271728515625,0.055419921875
1761915624873514200,0.12651416015625,-0.97784423828125,-0.175872802734375,0.0629425048828125
1761915624883569200,0.136569091796875,-0.98919677734375,-0.18212890625,0.0712738037109375
1761915624893623300,0.146623291015625,-0.994384765625,-0.1930084228515625,0.0745849609375
1761915624903677200,0.15667724609375,-0.986297607421875,-0.200164794921875,0.0711822509765625
1761915624913731300,0.1667314453125,-0.976593017578125,-0.2014312744140625,0.0636749267578125
1761915624923785200,0.17678515625,-0.9690399169921875,-0.201507568359375,0.0547332763671875
1761915624933839400,0.18683935546875,-0.9702606201171875,-0.198883056640625,0.0450439453125
1761915624943893200,0.196893310546875,-0.967926025390625,-0.1941986083984375,0.042724609375
1761915624953947400,0.206947509765625,-0.9663848876953125,-0.197174072265625,0.0387115478515625
1761915624964001300,0.217001220703125,-0.9636688232421875,-0.2012176513671875,0.035675048828125
1761915624974055200,0.22705517578125,-0.9543304443359375,-0.202880859375,0.0319061279296875
1761915624984109000,0.237109130859375,-0.945098876953125,-0.1973876953125,0.0218658447265625
1761915624994163200,0.2471630859375,-0.944549560546875,-0.187164306640625,0.01776123046875
1761915625004217300,0.25721728515625,-0.954742431640625,-0.1767425537109375,0.01922607421875
1761915625014271200,0.267271240234375,-0.967529296875,-0.171966552734375,0.020477294921875
1761915625024325400,0.277325439453125,-0.97186279296875,-0.1764068603515625,0.021575927734375
1761915625034379300,0.287379150390625,-0.9709320068359375,-0.1802825927734375,0.0262603759765625
1761915625044429000,0.297428955078125,-0.9797210693359375,-0.183624267578125,0.025543212890625
1761915625054483000,0.30748291015625,-0.9893951416015625,-0.182525634765625,0.0164642333984375
1761915625064538000,0.3175380859375,-0.99249267578125,-0.171356201171875,0.0187225341796875
1761915625074592000,0.327592041015625,-0.9963836669921875,-0.1605377197265625,0.01507568359375
1761915625084646000,0.33764599609375,-0.9944305419921875,-0.149688720703125,0.0128173828125
1761915625094700000,0.347699951171875,-0.995269775390625,-0.1456146240234375,0.0085296630859375
1761915625104754000,0.35775390625,-0.99420166015625,-0.1465911865234375,0.0039520263671875
1761915625114808000,0.36780810546875,-0.9877471923828125,-0.1501312255859375,0.0035247802734375
1761915625124862000,0.377862060546875,-0.9842071533203125,-0.15423583984375,0.0006561279296875
1761915625134916000,0.387916015625,-0.9909210205078125,-0.15374755859375,0.0058441162109375
1761915625144970000,0.397969970703125,-0.995361328125,-0.15625,0.0099334716796875
1761915625155024100,0.408024169921875,-0.993499755859375,-0.15899658203125,0.0046844482421875
1761915625165078000,0.418078125,-0.99102783203125,-0.15582275390625,-0.0022430419921875
1761915625175132200,0.428132080078125,-0.9913330078125,-0.1507568359375,0.0048370361328125
1761915625185185800,0.438185791015625,-0.9791717529296875,-0.151336669921875,0.006011962890625
1761915625195240000,0.448239990234375,-0.968231201171875,-0.15753173828125,0.0010223388671875
1761915625205294000,0.458294189453125,-0.9653472900390625,-0.162017822265625,-0.0010833740234375
1761915625215348000,0.468347900390625,-0.9600830078125,-0.1617584228515625,0.0051116943359375
1761915625225402000,0.478402099609375,-0.954833984375,-0.1653594970703125,0.01177978515625
1761915625235457000,0.48845703125,-0.95184326171875,-0.184814453125,0.0102386474609375
1761915625245511200,0.49851123046875,-0.9483642578125,-0.20172119140625,0.011444091796875
1761915625255565000,0.50856494140625,-0.9557952880859375,-0.22637939453125,0.0211029052734375
1761915625265619000,0.518618896484375,-0.9564971923828125,-0.2457427978515625,0.0054168701171875
1761915625275672800,0.5286728515625,-0.9322509765625,-0.245941162109375,-0.0467376708984375
1761915625285727000,0.53872705078125,-0.9151611328125,-0.21136474609375,-0.073822021484375
1761915625295781000,0.548781005859375,-0.9443359375,-0.169189453125,-0.0685882568359375
1761915625305835000,0.5588349609375,-0.986968994140625,-0.148223876953125,-0.0467071533203125
1761915625315889200,0.56888916015625,-0.9975433349609375,-0.1494140625,-0.0277252197265625
1761915625325943000,0.578943115234375,-0.9863128662109375,-0.15972900390625,-0.0245361328125
1761915625335997200,0.5889970703125,-0.9708099365234375,-0.1869964599609375,-0.0333404541015625
1761915625346051000,0.599051025390625,-0.9607696533203125,-0.22357177734375,-0.0565643310546875
1761915625356105200,0.609105224609375,-0.9455718994140625,-0.24853515625,-0.0806884765625
1761915625366158800,0.619158935546875,-0.9395904541015625,-0.2540740966796875,-0.078399658203125
1761915625376213000,0.629212890625,-0.953125,-0.2508544921875,-0.056549072265625
1761915625386267000,0.639266845703125,-0.9632415771484375,-0.2348480224609375,-0.0207061767578125
1761915625396322000,0.649322021484375,-0.974151611328125,-0.232574462890625,-0.00164794921875
1761915625406376200,0.659376220703125,-0.965423583984375,-0.243255615234375,-0.013458251953125
1761915625416430000,0.66943017578125,-0.9333953857421875,-0.2658233642578125,-0.062591552734375
1761915625426484200,0.679484130859375,-0.8900909423828125,-0.2966156005859375,-0.1265106201171875
1761915625436537900,0.689537841796875,-0.8793792724609375,-0.3343505859375,-0.162109375
1761915625446592000,0.699592041015625,-0.9064178466796875,-0.357147216796875,-0.161102294921875
1761915625456646000,0.70964599609375,-0.9489898681640625,-0.3676605224609375,-0.14447021484375
1761915625466700000,0.719699951171875,-0.9698944091796875,-0.3551788330078125,-0.12579345703125
1761915625476754000,0.72975390625,-0.9583892822265625,-0.3353118896484375,-0.11328125
1761915625486808000,0.73980810546875,-0.9298858642578125,-0.344024658203125,-0.13092041015625
1761915625496862000,0.749862060546875,-0.89453125,-0.3437042236328125,-0.1597137451171875
1761915625506916000,0.759916015625,-0.8695526123046875,-0.3118438720703125,-0.1710357666015625
1761915625516970000,0.769969970703125,-0.877349853515625,-0.2719573974609375,-0.166229248046875
1761915625527024000,0.780024169921875,-0.9064178466796875,-0.243560791015625,-0.1538848876953125
1761915625537078000,0.790078125,-0.9082794189453125,-0.240020751953125,-0.1478729248046875
1761915625547132000,0.8001318359375,-0.8954925537109375,-0.2681732177734375,-0.1535186767578125
1761915625557186000,0.81018603515625,-0.931854248046875,-0.2839508056640625,-0.13543701171875
1761915625567241000,0.820240966796875,-0.9353790283203125,-0.301788330078125,-0.124114990234375
1761915625577295000,0.830295166015625,-0.9300689697265625,-0.3127288818359375,-0.118194580078125
1761915625587349000,0.840348876953125,-0.9618682861328125,-0.299346923828125,-0.118438720703125
1761915625597403100,0.850403076171875,-0.993011474609375,-0.266998291015625,-0.113372802734375
1761915625607457000,0.86045703125,-1.0266571044921875,-0.22662353515625,-0.1119232177734375
1761915625617511000,0.870510986328125,-1.0294036865234375,-0.219329833984375,-0.1260223388671875
1761915625627565000,0.88056494140625,-1.030975341796875,-0.2224273681640625,-0.123931884765625
1761915625637619000,0.890618896484375,-1.0206146240234375,-0.233245849609375,-0.11480712890625
1761915625647673000,0.900673095703125,-1.0043182373046875,-0.247772216796875,-0.1117706298828125
1761915625657727000,0.91072705078125,-0.9890594482421875,-0.2561187744140625,-0.1064453125
1761915625667781000,0.920781005859375,-0.992431640625,-0.2567291259765625,-0.1002044677734375
1761915625677835000,0.9308349609375,-1.00146484375,-0.2512664794921875,-0.0953216552734375
1761915625687889200,0.94088916015625,-0.9827880859375,-0.24029541015625,-0.0948333740234375
1761915625697943000,0.950943115234375,-0.9591217041015625,-0.230499267578125,-0.096649169921875
1761915625707997200,0.9609970703125,-0.948974609375,-0.236175537109375,-0.1053009033203125
1761915625718051000,0.971051025390625,-0.9368133544921875,-0.236663818359375,-0.1102752685546875
1761915625728106000,0.98110595703125,-0.9342803955078125,-0.2177581787109375,-0.1173248291015625
1761915625738160000,0.99116015625,-0.93609619140625,-0.194488525390625,-0.130218505859375
1761915625748214000,1.001214111328125,-0.9338531494140625,-0.168792724609375,-0.1369781494140625
1761915625758268200,1.01126806640625,-0.9633026123046875,-0.155914306640625,-0.129119873046875
1761915625768322000,1.021322021484375,-0.9939727783203125,-0.161376953125,-0.11676025390625
1761915625778376200,1.031376220703125,-0.996429443359375,-0.1650543212890625,-0.099029541015625
1761915625788430000,1.04143017578125,-1.008880615234375,-0.160675048828125,-0.0825958251953125
1761915625798484000,1.05148388671875,-1.0261077880859375,-0.1620330810546875,-0.07427978515625
1761915625808537900,1.061537841796875,-1.04052734375,-0.1775665283203125,-0.084381103515625
1761915625818592000,1.071592041015625,-1.0374755859375,-0.214691162109375,-0.1009674072265625
1761915625828646000,1.08164599609375,-0.9995574951171875,-0.2233123779296875,-0.1012725830078125
1761915625838700000,1.091699951171875,-0.965057373046875,-0.2100677490234375,-0.095611572265625
1761915625848754000,1.10175390625,-0.9410552978515625,-0.192474365234375,-0.08099365234375
1761915625858808000,1.11180810546875,-0.93914794921875,-0.1682891845703125,-0.0745697021484375
1761915625868862000,1.121862060546875,-0.9560394287109375,-0.1300201416015625,-0.05682373046875
1761915625878916000,1.131916015625,-1.0014495849609375,-0.0915985107421875,-0.03814697265625
1761915625888970200,1.14197021484375,-1.060577392578125,-0.082763671875,-0.0324554443359375
1761915625899025000,1.15202490234375,-1.0858612060546875,-0.093658447265625,-0.0334625244140625
1761915625909079000,1.1620791015625,-1.0706024169921875,-0.1085205078125,-0.03704833984375
1761915625919133000,1.1721328125,-1.033111572265625,-0.1300201416015625,-0.0419464111328125
1761915625929187000,1.18218701171875,-0.9854278564453125,-0.1464691162109375,-0.0462799072265625
1761915625939241000,1.192240966796875,-0.9392242431640625,-0.139556884765625,-0.037628173828125
1761915625949295000,1.202295166015625,-0.9319915771484375,-0.120697021484375,-0.023162841796875
1761915625959349000,1.212348876953125,-0.9604034423828125,-0.1109466552734375,-0.0131072998046875
1761915625969403100,1.222403076171875,-0.9817657470703125,-0.102386474609375,-0.0113525390625
1761915625979457000,1.23245703125,-1.005096435546875,-0.1201171875,-0.02093505859375
1761915625989511000,1.242510986328125,-1.012725830078125,-0.151947021484375,-0.0248260498046875
1761915625999565000,1.25256494140625,-0.99810791015625,-0.179931640625,-0.0259552001953125
1761915626009619000,1.262618896484375,-0.9727325439453125,-0.1998443603515625,-0.0276336669921875
1761915626019673000,1.272673095703125,-0.9271697998046875,-0.217071533203125,-0.0249176025390625
1761915626029727000,1.28272705078125,-0.9036407470703125,-0.2330322265625,-0.0218048095703125
1761915626039781000,1.292781005859375,-0.9141998291015625,-0.2389068603515625,-0.014190673828125
1761915626049835800,1.302835693359375,-0.8985595703125,-0.2340240478515625,-0.0140838623046875
1761915626059890700,1.312890625,-0.918548583984375,-0.2281646728515625,-0.0102081298828125
1761915626069944600,1.322944580078125,-0.9336395263671875,-0.2254180908203125,-0.006561279296875
1761915626079998700,1.332998779296875,-0.9398193359375,-0.220489501953125,-0.0029449462890625
1761915626090052600,1.343052490234375,-0.9461212158203125,-0.22564697265625,-0.000335693359375
1761915626100106800,1.353106689453125,-0.9637451171875,-0.23577880859375,0.0064544677734375
1761915626110160600,1.36316064453125,-0.963165283203125,-0.247406005859375,0.013214111328125
1761915626120214800,1.37321484375,-0.955718994140625,-0.2572784423828125,0.0121307373046875
1761915626130269000,1.38326904296875,-0.940582275390625,-0.2631072998046875,0.00616455078125
1761915626140322600,1.393322509765625,-0.9370880126953125,-0.2565460205078125,0.0056915283203125
1761915626150376700,1.403376708984375,-0.9501190185546875,-0.2400054931640625,0.011566162109375
1761915626160430600,1.4134306640625,-0.962005615234375,-0.2219085693359375,0.02252197265625
1761915626170484700,1.423484619140625,-0.97320556640625,-0.21270751953125,0.033935546875
1761915626180538600,1.43353857421875,-0.98126220703125,-0.2236328125,0.0299530029296875
1761915626190592800,1.4435927734375,-0.9834136962890625,-0.23046875,0.021820068359375
1761915626200646700,1.453646728515625,-0.95068359375,-0.2365570068359375,0.01220703125
1761915626210700800,1.46370068359375,-0.955352783203125,-0.2454833984375,0.0012664794921875
1761915626220755500,1.47375537109375,-0.9666748046875,-0.2523345947265625,0.002593994140625
1761915626230809600,1.4838095703125,-0.9789886474609375,-0.2478179931640625,0.0210418701171875
1761915626240863700,1.49386376953125,-1.002960205078125,-0.242034912109375,0.0428009033203125
1761915626250917600,1.503917724609375,-1.029052734375,-0.2361907958984375,0.0555877685546875
1761915626260971800,1.5139716796875,-1.0385284423828125,-0.229522705078125,0.0595245361328125
1761915626271025700,1.524025634765625,-1.008148193359375,-0.2234344482421875,0.0534820556640625
1761915626281079800,1.534079833984375,-0.9502105712890625,-0.2140655517578125,0.027099609375
1761915626291133700,1.5441337890625,-0.91314697265625,-0.21881103515625,0.001708984375
1761915626301187800,1.554187744140625,-0.9009857177734375,-0.2322540283203125,-0.0220947265625
1761915626311241700,1.56424169921875,-0.906219482421875,-0.2367706298828125,-0.035247802734375
1761915626321295600,1.574295654296875,-0.937103271484375,-0.2370147705078125,-0.0294036865234375
1761915626331349500,1.584349609375,-0.978973388671875,-0.2404632568359375,-0.0126953125
1761915626341403600,1.594403564453125,-1.0062103271484375,-0.243072509765625,0.0061187744140625
1761915626351457500,1.60445751953125,-1.007354736328125,-0.2477874755859375,0.0130615234375
1761915626361511700,1.61451171875,-0.9944610595703125,-0.2657318115234375,-0.0143280029296875
1761915626371565600,1.624565673828125,-0.9746551513671875,-0.27642822265625,-0.0635986328125
1761915626381620700,1.634620849609375,-0.957366943359375,-0.2542572021484375,-0.0864410400390625
1761915626391675000,1.6446748046875,-0.9571380615234375,-0.216461181640625,-0.0804290771484375
1761915626401728500,1.654728515625,-0.9702606201171875,-0.1822662353515625,-0.0615386962890625
1761915626411782700,1.66478271484375,-0.9771881103515625,-0.1576080322265625,-0.04705810546875
1761915626421836500,1.67483642578125,-0.9759368896484375,-0.1465911865234375,-0.04107666015625
1761915626431890700,1.684890625,-0.98211669921875,-0.1580352783203125,-0.0448760986328125
1761915626441944600,1.694944580078125,-0.998260498046875,-0.169677734375,-0.0453338623046875
1761915626451998700,1.704998779296875,-1.015625,-0.1709747314453125,-0.0300140380859375
1761915626462052600,1.715052490234375,-1.0108184814453125,-0.17987060546875,-0.0286712646484375
1761915626472106800,1.725106689453125,-0.990234375,-0.20172119140625,-0.059234619140625
1761915626482161000,1.735160888671875,-0.9745025634765625,-0.242218017578125,-0.092437744140625
1761915626492214800,1.74521484375,-0.9942169189453125,-0.27783203125,-0.096649169921875
1761915626502268700,1.7552685546875,-1.0313568115234375,-0.2917633056640625,-0.0792083740234375
1761915626512322600,1.765322509765625,-1.0017242431640625,-0.2943115234375,-0.092498779296875
1761915626522376700,1.775376708984375,-0.9169921875,-0.3297119140625,-0.1755523681640625
1761915626532430600,1.7854306640625,-0.8244781494140625,-0.368377685546875,-0.2484588623046875
1761915626542484700,1.795484619140625,-0.785064697265625,-0.3950958251953125,-0.2737884521484375
1761915626552539600,1.80553955078125,-0.7952728271484375,-0.3897705078125,-0.247833251953125
1761915626562593800,1.81559375,-0.819976806640625,-0.3466796875,-0.2048187255859375
1761915626572648000,1.82564794921875,-0.8369140625,-0.3016357421875,-0.17364501953125
1761915626582701600,1.83570166015625,-0.847320556640625,-0.2814178466796875,-0.1607818603515625
1761915626592755700,1.845755615234375,-0.831085205078125,-0.28424072265625,-0.163604736328125
1761915626602809600,1.8558095703125,-0.84228515625,-0.3081207275390625,-0.165924072265625
1761915626612863700,1.86586376953125,-0.9003143310546875,-0.32708740234375,-0.151123046875
1761915626622917600,1.875917724609375,-0.9130859375,-0.333038330078125,-0.1370697021484375
1761915626632971800,1.8859716796875,-0.93756103515625,-0.3148651123046875,-0.133331298828125
1761915626643025700,1.896025634765625,-0.93975830078125,-0.286224365234375,-0.1366119384765625
1761915626653079800,1.906079833984375,-0.93072509765625,-0.2723846435546875,-0.139129638671875
1761915626663133700,1.9161337890625,-0.919830322265625,-0.268157958984375,-0.1392364501953125
1761915626673187800,1.926187744140625,-0.948883056640625,-0.269805908203125,-0.12548828125
1761915626683241700,1.93624169921875,-0.9998779296875,-0.2701873779296875,-0.115509033203125
1761915626693295600,1.946295654296875,-1.019927978515625,-0.2575836181640625,-0.1156005859375
1761915626703349500,1.956349609375,-1.0096435546875,-0.233978271484375,-0.1134796142578125
1761915626713404700,1.96640478515625,-0.998779296875,-0.2143402099609375,-0.108856201171875
1761915626723458800,1.976458740234375,-1.0018310546875,-0.221893310546875,-0.10723876953125
1761915626733512700,1.9865126953125,-0.994964599609375,-0.2353973388671875,-0.1016998291015625
1761915626743566800,1.99656689453125,-0.9805145263671875,-0.2446136474609375,-0.1023101806640625
1761915626753620700,2.006620849609375,-0.9625701904296875,-0.2468414306640625,-0.1092987060546875
1761915626763674600,2.016674560546875,-0.9539947509765625,-0.2412567138671875,-0.1161956787109375
1761915626773728500,2.026728515625,-0.9191741943359375,-0.240264892578125,-0.115631103515625
1761915626783782700,2.03678271484375,-0.9105987548828125,-0.2476348876953125,-0.119659423828125
1761915626793836500,2.04683642578125,-0.93011474609375,-0.26361083984375,-0.111907958984375
1761915626803890700,2.056890625,-0.9459075927734375,-0.2741851806640625,-0.097503662109375
1761915626813944600,2.066944580078125,-0.9456634521484375,-0.2767791748046875,-0.078460693359375
1761915626823998700,2.076998779296875,-0.942291259765625,-0.2646636962890625,-0.0603485107421875
1761915626834052900,2.087052978515625,-0.9252471923828125,-0.2437591552734375,-0.0496368408203125
1761915626844106800,2.097106689453125,-0.964324951171875,-0.2232208251953125,-0.036041259765625
1761915626854161000,2.107160888671875,-0.9816436767578125,-0.1852874755859375,-0.0031585693359375
1761915626864214800,2.11721484375,-1.0082855224609375,-0.16357421875,0.0114288330078125
1761915626874269700,2.127269775390625,-1.01324462890625,-0.1522674560546875,0.0227813720703125
1761915626884323600,2.137323486328125,-1.0025787353515625,-0.156097412109375,0.0224609375
1761915626894377700,2.147377685546875,-0.9879150390625,-0.1632080078125,0.0187225341796875
1761915626904431600,2.157431640625,-1.00079345703125,-0.1724700927734375,0.0173797607421875
1761915626914485800,2.16748583984375,-1.05206298828125,-0.174346923828125,0.0335540771484375
1761915626924540000,2.177539794921875,-1.0881500244140625,-0.1590423583984375,0.0595703125
1761915626934593800,2.18759375,-1.0758514404296875,-0.1414031982421875,0.071014404296875
1761915626944647700,2.197647705078125,-1.0499114990234375,-0.128387451171875,0.0711669921875
1761915626954701600,2.20770166015625,-1.03558349609375,-0.12261962890625,0.05816650390625
1761915626964755700,2.217755615234375,-1.0191497802734375,-0.1136474609375,0.0435028076171875
1761915626974809600,2.2278095703125,-1.0067901611328125,-0.111236572265625,0.0291900634765625
1761915626984863700,2.23786376953125,-1.000091552734375,-0.1125946044921875,0.015167236328125
1761915626994917600,2.247917724609375,-0.9974822998046875,-0.1197357177734375,0.0054779052734375
1761915627004971800,2.2579716796875,-1.0022125244140625,-0.134063720703125,-0.00579833984375
1761915627015025700,2.268025634765625,-0.9931488037109375,-0.1396484375,-0.0035400390625
1761915627025080600,2.27808056640625,-0.9821319580078125,-0.14501953125,-0.00054931640625
1761915627035134700,2.288134765625,-0.969818115234375,-0.15167236328125,0.0015716552734375
1761915627045188600,2.298188720703125,-0.963470458984375,-0.1560821533203125,0.002685546875
1761915627055246800,2.308246826171875,-0.9686279296875,-0.160125732421875,0.003387451171875
1761915627065300700,2.31830078125,-0.9771881103515625,-0.16510009765625,0.005279541015625
1761915627075355000,2.32835498046875,-0.989898681640625,-0.1732330322265625,0.0045928955078125
1761915627085408800,2.33840869140625,-0.9918060302734375,-0.1739044189453125,0.00604248046875
1761915627095463000,2.348462890625,-0.985565185546875,-0.17529296875,0.007476806640625
1761915627105516800,2.358516845703125,-0.9757080078125,-0.176300048828125,0.0082550048828125
1761915627115570700,2.36857080078125,-0.9637603759765625,-0.17578125,0.01275634765625
1761915627125624800,2.378624755859375,-0.952484130859375,-0.1791839599609375,0.0174713134765625
1761915627135678700,2.3886787109375,-0.94384765625,-0.182220458984375,0.0204010009765625
1761915627145732900,2.39873291015625,-0.9462432861328125,-0.182830810546875,0.02545166015625
1761915627155786800,2.408786865234375,-0.954498291015625,-0.1849517822265625,0.028106689453125
1761915627165841000,2.4188408203125,-0.9592742919921875,-0.1855926513671875,0.0278778076171875
1761915627175894800,2.428894775390625,-0.9621429443359375,-0.18548583984375,0.028289794921875
1761915627185949700,2.43894970703125,-0.957855224609375,-0.187652587890625,0.0277557373046875
1761915627196003600,2.449003662109375,-0.9525604248046875,-0.1938629150390625,0.0292816162109375
1761915627206057700,2.4590576171875,-0.9501190185546875,-0.2034149169921875,0.025360107421875
1761915627216111600,2.469111572265625,-0.9496612548828125,-0.2039794921875,0.0268096923828125
1761915627226165800,2.479165771484375,-0.95538330078125,-0.20416259765625,0.0341339111328125
1761915627236220000,2.489219970703125,-0.964385986328125,-0.2042388916015625,0.0364837646484375
1761915627246273800,2.499273681640625,-0.9687042236328125,-0.201385498046875,0.0399169921875
1761915627256328000,2.509327880859375,-0.971923828125,-0.199859619140625,0.034942626953125
1761915627266381800,2.5193818359375,-0.9709930419921875,-0.1963348388671875,0.0266265869140625
1761915627276436000,2.52943603515625,-0.96673583984375,-0.19195556640625,0.0194549560546875
1761915627286489600,2.539489501953125,-0.963104248046875,-0.1896514892578125,0.011749267578125
1761915627296543700,2.549543701171875,-0.9579925537109375,-0.1860809326171875,0.009674072265625
1761915627306597600,2.55959765625,-0.9578857421875,-0.18389892578125,0.0090789794921875
1761915627316651800,2.56965185546875,-0.9599151611328125,-0.1844940185546875,0.0124053955078125
1761915627326705700,2.57970556640625,-0.968048095703125,-0.1876983642578125,0.015533447265625
1761915627336760800,2.5897607421875,-0.9909515380859375,-0.188720703125,0.0191650390625
1761915627346815000,2.59981494140625,-1.0069122314453125,-0.17626953125,0.0268402099609375
1761915627356868900,2.609868896484375,-1.008087158203125,-0.166015625,0.0261383056640625
1761915627366922800,2.6199228515625,-1.0030364990234375,-0.1636810302734375,0.02032470703125
1761915627376976600,2.6299765625,-0.9909820556640625,-0.1638946533203125,0.015869140625
1761915627387030800,2.64003076171875,-0.9836273193359375,-0.1680145263671875,0.015960693359375
1761915627397084700,2.650084716796875,-0.9757843017578125,-0.1745147705078125,0.0157928466796875
1761915627407138800,2.660138916015625,-0.974456787109375,-0.1821441650390625,0.014404296875
1761915627417192700,2.670192626953125,-0.9850616455078125,-0.1840667724609375,0.013671875
1761915627427246800,2.680246826171875,-0.993988037109375,-0.1799163818359375,0.0155487060546875
1761915627437300700,2.69030078125,-0.99267578125,-0.1760101318359375,0.018798828125
1761915627447355000,2.70035498046875,-0.978240966796875,-0.174713134765625,0.017120361328125
1761915627457408800,2.71040869140625,-0.9664154052734375,-0.17620849609375,0.0114898681640625
1761915627467462700,2.720462646484375,-0.9643096923828125,-0.1778106689453125,0.0083160400390625
1761915627477516800,2.730516845703125,-0.9690704345703125,-0.1798858642578125,0.009552001953125
1761915627487571700,2.74057177734375,-0.9779815673828125,-0.1824798583984375,0.01373291015625
1761915627497625900,2.7506259765625,-0.987457275390625,-0.18353271484375,0.0172271728515625
1761915627507679700,2.7606796875,-0.9868927001953125,-0.1843109130859375,0.0182952880859375
1761915627517734000,2.77073388671875,-0.9803314208984375,-0.1827850341796875,0.013519287109375
1761915627527787800,2.780787841796875,-0.97552490234375,-0.18011474609375,0.0081024169921875
1761915627537842000,2.790842041015625,-0.970428466796875,-0.175628662109375,0.005584716796875
1761915627547895600,2.8008955078125,-0.96905517578125,-0.1704254150390625,0.00677490234375
1761915627557949700,2.81094970703125,-0.96923828125,-0.1692352294921875,0.010589599609375
1761915627568003800,2.82100390625,-0.967987060546875,-0.173980712890625,0.008758544921875
1761915627578057700,2.8310576171875,-0.9599151611328125,-0.17364501953125,0.0039520263671875
1761915627588112000,2.84111181640625,-0.9530029296875,-0.1681060791015625,0.003326416015625
1761915627598165800,2.851165771484375,-0.9580535888671875,-0.1661224365234375,0.001007080078125
1761915627608220000,2.861219970703125,-0.96783447265625,-0.1660308837890625,0.0062255859375
1761915627618273800,2.871273681640625,-0.97808837890625,-0.1715850830078125,0.011383056640625
1761915627628328000,2.881327880859375,-0.97613525390625,-0.17987060546875,0.008941650390625
1761915627638381800,2.8913818359375,-0.959197998046875,-0.1788177490234375,0.0074005126953125
1761915627648436700,2.901436767578125,-0.946136474609375,-0.174957275390625,0.0066680908203125
1761915627658490600,2.91149072265625,-0.9394683837890625,-0.1693878173828125,0.006866455078125
1761915627668544800,2.921544677734375,-0.952056884765625,-0.169158935546875,0.00494384765625
1761915627678599000,2.931598876953125,-0.979217529296875,-0.172119140625,0.0081024169921875
1761915627688652800,2.94165283203125,-0.9927215576171875,-0.174224853515625,0.0135955810546875
1761915627698707000,2.95170703125,-0.9867095947265625,-0.1792144775390625,0.0136260986328125
1761915627708760800,2.9617607421875,-0.9688262939453125,-0.1836395263671875,0.0102996826171875
1761915627718815000,2.97181494140625,-0.959564208984375,-0.1866302490234375,0.00347900390625
1761915627728868600,2.98186865234375,-0.959869384765625,-0.1812744140625,-0.0024566650390625
1761915627738922800,2.9919228515625,-0.96270751953125,-0.176910400390625,-0.0047149658203125
1761915627748976600,3.0019765625,-0.97418212890625,-0.1773681640625,-0.0031585693359375
1761915627759030800,3.01203076171875,-0.990325927734375,-0.1789093017578125,0.0029144287109375
1761915627769084700,3.022084716796875,-0.994232177734375,-0.178955078125,0.0109100341796875
1761915627779138800,3.032138916015625,-0.98394775390625,-0.17864990234375,0.01324462890625
1761915627789194000,3.042194091796875,-0.978729248046875,-0.1765289306640625,0.0089263916015625
1761915627799247600,3.05224755859375,-0.9749603271484375,-0.173095703125,0.002838134765625
1761915627809301800,3.0623017578125,-0.969573974609375,-0.170562744140625,-0.0025177001953125
1761915627819355600,3.072355712890625,-0.97442626953125,-0.1706085205078125,-0.0005035400390625
1761915627829409800,3.082409912109375,-0.983734130859375,-0.17138671875,0.0044708251953125
1761915627839463700,3.092463623046875,-0.9922332763671875,-0.1727447509765625,0.0077972412109375
1761915627849517800,3.102517822265625,-0.987213134765625,-0.1741790771484375,0.010040283203125
1761915627859571700,3.11257177734375,-0.9838104248046875,-0.1774444580078125,0.0086212158203125
1761915627869625900,3.1226259765625,-0.9813385009765625,-0.17633056640625,0.0074005126953125
1761915627879679700,3.1326796875,-0.9827117919921875,-0.1732635498046875,0.006378173828125
1761915627889734000,3.14273388671875,-0.9955291748046875,-0.171783447265625,0.0072021484375
1761915627899787800,3.152787841796875,-1.003875732421875,-0.165924072265625,0.0111541748046875
1761915627909841700,3.162841552734375,-0.9972076416015625,-0.161376953125,0.0110015869140625
1761915627919895800,3.172895751953125,-0.9776458740234375,-0.161773681640625,0.0029449462890625
1761915627929949700,3.18294970703125,-0.963134765625,-0.1639404296875,-0.0077667236328125
1761915627940004900,3.1930048828125,-0.961456298828125,-0.16400146484375,-0.008270263671875
1761915627950058800,3.203058837890625,-0.9643707275390625,-0.1659088134765625,-0.00164794921875
1761915627960113000,3.21311279296875,-0.975189208984375,-0.1725006103515625,0.0007781982421875
1761915627970166800,3.223166748046875,-0.9799041748046875,-0.1790313720703125,0.0029144287109375
1761915627980220700,3.233220703125,-0.9755096435546875,-0.1808929443359375,0.004486083984375
1761915627990274600,3.243274658203125,-0.969512939453125,-0.178863525390625,0.002532958984375
1761915628000328700,3.25332861328125,-0.9670562744140625,-0.1720123291015625,-0.004638671875
1761915628010382800,3.2633828125,-0.965362548828125,-0.1640625,-0.0092926025390625
1761915628020436700,3.273436767578125,-0.975677490234375,-0.161163330078125,-0.01141357421875
1761915628030491000,3.283490966796875,-0.990264892578125,-0.1604156494140625,-0.012420654296875
1761915628040544800,3.293544677734375,-0.9981536865234375,-0.1570587158203125,-0.009246826171875
1761915628050594600,3.303594482421875,-0.9921112060546875,-0.1540374755859375,-0.0043792724609375
1761915628060648400,3.3136484375,-0.9832611083984375,-0.1584930419921875,-0.002685546875
1761915628070702600,3.32370263671875,-0.9791717529296875,-0.1628265380859375,-0.0062103271484375
1761915628080756500,3.333756591796875,-0.9808349609375,-0.1630401611328125,-0.00848388671875
1761915628090811400,3.343811279296875,-0.9822540283203125,-0.1592559814453125,-0.0081329345703125
1761915628100865500,3.353865478515625,-0.984344482421875,-0.15655517578125,-0.007049560546875
1761915628110919400,3.36391943359375,-0.9947662353515625,-0.157745361328125,-0.0079193115234375
1761915628120973600,3.3739736328125,-1.002899169921875,-0.15728759765625,-0.00537109375
1761915628131027500,3.38402734375,-1.0003662109375,-0.1575164794921875,-0.00103759765625
1761915628141081600,3.39408154296875,-0.9919281005859375,-0.160186767578125,-0.003204345703125
1761915628151135500,3.404135498046875,-0.9809112548828125,-0.162078857421875,-0.0064544677734375
1761915628161189600,3.414189697265625,-0.971588134765625,-0.1597900390625,-0.011871337890625
1761915628171243500,3.424243408203125,-0.9676513671875,-0.15673828125,-0.01483154296875
1761915628181297700,3.434297607421875,-0.9678955078125,-0.1548004150390625,-0.015411376953125
1761915628191351300,3.444351318359375,-0.96978759765625,-0.1591339111328125,-0.0180511474609375
1761915628201405400,3.454405517578125,-0.9723052978515625,-0.1656494140625,-0.015350341796875
1761915628211459600,3.46445947265625,-0.9795989990234375,-0.170257568359375,-0.00970458984375
1761915628221513500,3.474513427734375,-0.980316162109375,-0.172515869140625,-0.0050048828125
1761915628231568600,3.484568603515625,-0.9801177978515625,-0.1722869873046875,-0.006072998046875
1761915628241622500,3.49462255859375,-0.9779052734375,-0.1679229736328125,-0.0109710693359375
1761915628251676700,3.5046767578125,-0.9748077392578125,-0.1593017578125,-0.0127410888671875
1761915628261730600,3.51473046875,-0.9746246337890625,-0.1554718017578125,-0.0104217529296875
1761915628271784400,3.524784423828125,-0.977691650390625,-0.161346435546875,-0.0088653564453125
1761915628281838300,3.53483837890625,-0.986724853515625,-0.1674041748046875,-0.00469970703125
1761915628291892500,3.544892578125,-0.9893646240234375,-0.167205810546875,-0.00030517578125
1761915628301946600,3.554946533203125,-0.981414794921875,-0.164306640625,-0.002471923828125
1761915628312000500,3.56500048828125,-0.976593017578125,-0.16278076171875,-0.01153564453125
1761915628322054700,3.5750546875,-0.9741363525390625,-0.15899658203125,-0.0162353515625
1761915628332108500,3.585108642578125,-0.9698638916015625,-0.1569976806640625,-0.018096923828125
1761915628342162700,3.59516259765625,-0.9701690673828125,-0.1588134765625,-0.0157470703125
1761915628352216600,3.605216552734375,-0.979522705078125,-0.166717529296875,-0.0088043212890625
1761915628362270700,3.615270751953125,-0.9870758056640625,-0.1738433837890625,-0.00518798828125
1761915628372324400,3.625324462890625,-0.9833221435546875,-0.1751251220703125,-0.0026092529296875
1761915628382379500,3.635379638671875,-0.9715118408203125,-0.172607421875,-0.005950927734375
1761915628392433700,3.64543359375,-0.9674530029296875,-0.16802978515625,-0.01092529296875
1761915628402487600,3.655487548828125,-0.9748077392578125,-0.167510986328125,-0.0111236572265625
1761915628412541700,3.665541748046875,-0.9820709228515625,-0.165130615234375,-0.012664794921875
1761915628422595600,3.675595703125,-0.9790191650390625,-0.1632537841796875,-0.012298583984375
1761915628432649700,3.685649658203125,-0.9736175537109375,-0.1646575927734375,-0.013916015625
1761915628442703400,3.695703369140625,-0.9742584228515625,-0.1671905517578125,-0.0133209228515625
1761915628452757500,3.705757568359375,-0.985504150390625,-0.1681060791015625,-0.0081329345703125
1761915628462811400,3.715811279296875,-0.999969482421875,-0.1658477783203125,-0.01080322265625
1761915628472865500,3.725865478515625,-1.00390625,-0.15863037109375,-0.0105133056640625
1761915628482919400,3.73591943359375,-1.0006561279296875,-0.152374267578125,-0.008880615234375
1761915628492973600,3.7459736328125,-0.9958038330078125,-0.1552581787109375,-0.01513671875
1761915628503027500,3.75602734375,-0.9882354736328125,-0.1590576171875,-0.01837158203125
1761915628513082600,3.76608251953125,-0.974853515625,-0.15899658203125,-0.0175323486328125
1761915628523136500,3.776136474609375,-0.96875,-0.159088134765625,-0.0138397216796875
1761915628533190400,3.7861904296875,-0.969573974609375,-0.159271240234375,-0.0152587890625
1761915628543244500,3.79624462890625,-0.968475341796875,-0.1591033935546875,-0.020904541015625
1761915628553298400,3.80629833984375,-0.9697418212890625,-0.16009521484375,-0.0225067138671875
1761915628563352600,3.8163525390625,-0.9716033935546875,-0.1584014892578125,-0.02252197265625
1761915628573406500,3.826406494140625,-0.976043701171875,-0.1539459228515625,-0.021881103515625
1761915628583460600,3.836460693359375,-0.981903076171875,-0.146453857421875,-0.019134521484375
1761915628593514500,3.846514404296875,-0.98687744140625,-0.1428375244140625,-0.0169525146484375
1761915628603568600,3.856568603515625,-0.9865570068359375,-0.1484832763671875,-0.0173492431640625
1761915628613622500,3.86662255859375,-0.98516845703125,-0.159423828125,-0.019134521484375
1761915628623676400,3.876676513671875,-0.9755401611328125,-0.1603240966796875,-0.0196075439453125
1761915628633730300,3.886730224609375,-0.9721527099609375,-0.159454345703125,-0.0197906494140625
1761915628643784400,3.896784423828125,-0.9795684814453125,-0.158477783203125,-0.01708984375
1761915628653839600,3.906839599609375,-0.9892425537109375,-0.156494140625,-0.0129241943359375
1761915628663893500,3.9168935546875,-0.9926910400390625,-0.1553955078125,-0.012725830078125
1761915628673947600,3.92694775390625,-0.985870361328125,-0.15936279296875,-0.01495361328125
1761915628684001500,3.93700146484375,-0.9745025634765625,-0.1629486083984375,-0.0205230712890625
1761915628694055700,3.9470556640625,-0.95660400390625,-0.162872314453125,-0.0235748291015625
1761915628704109300,3.957109375,-0.9500732421875,-0.165313720703125,-0.0279541015625
1761915628714163500,3.96716357421875,-0.953643798828125,-0.1649932861328125,-0.028289794921875
1761915628724217300,3.97721728515625,-0.96490478515625,-0.163330078125,-0.02642822265625
1761915628734271500,3.987271484375,-0.97357177734375,-0.16436767578125,-0.0264129638671875
1761915628744325600,3.99732568359375,-0.9762115478515625,-0.1628875732421875,-0.0255889892578125
1761915628754379500,4.007379638671875,-0.977142333984375,-0.1621551513671875,-0.023590087890625
1761915628764433700,4.01743359375,-0.98419189453125,-0.1592559814453125,-0.0212554931640625
1761915628774487600,4.027487548828125,-0.9883575439453125,-0.1561279296875,-0.019622802734375
1761915628784541700,4.037541748046875,-0.9903717041015625,-0.15447998046875,-0.0177001953125
1761915628794596400,4.047596435546875,-1.002105712890625,-0.1562347412109375,-0.02239990234375
1761915628804650500,4.057650390625,-0.9954071044921875,-0.150115966796875,-0.020172119140625
1761915628814704400,4.067704345703125,-0.979217529296875,-0.1537628173828125,-0.0197601318359375
1761915628824758500,4.077758544921875,-0.968841552734375,-0.1646575927734375,-0.02105712890625
1761915628834812700,4.087812744140625,-0.9650726318359375,-0.173370361328125,-0.020660400390625
1761915628844866600,4.097866455078125,-0.97003173828125,-0.176483154296875,-0.01934814453125
1761915628854920700,4.107920654296875,-0.9799346923828125,-0.1748199462890625,-0.019989013671875
1761915628864974600,4.117974609375,-0.98712158203125,-0.169189453125,-0.01776123046875
1761915628875028700,4.12802880859375,-0.989288330078125,-0.165130615234375,-0.016448974609375
1761915628885082400,4.138082275390625,-0.9912109375,-0.1657562255859375,-0.0151824951171875
1761915628895136500,4.148136474609375,-0.988006591796875,-0.16668701171875,-0.0115814208984375
1761915628905190400,4.1581904296875,-0.9822998046875,-0.1699066162109375,-0.011505126953125
1761915628915244500,4.16824462890625,-0.9794158935546875,-0.17303466796875,-0.0142364501953125
1761915628925298400,4.17829833984375,-0.984588623046875,-0.1685638427734375,-0.01580810546875
1761915628935353600,4.188353515625,-0.986785888671875,-0.159332275390625,-0.0115966796875
1761915628945407700,4.19840771484375,-0.991058349609375,-0.1548614501953125,-0.0134429931640625
1761915628955461400,4.20846142578125,-0.999755859375,-0.1569061279296875,-0.0201873779296875
1761915628965515500,4.218515625,-0.9961090087890625,-0.155670166015625,-0.0224609375
1761915628975569400,4.2285693359375,-0.97625732421875,-0.15704345703125,-0.024169921875
1761915628985623600,4.23862353515625,-0.9560699462890625,-0.16357421875,-0.024932861328125
1761915628995677400,4.248677490234375,-0.9494781494140625,-0.173675537109375,-0.023895263671875
1761915629005731600,4.258731689453125,-0.962677001953125,-0.1814117431640625,-0.02392578125
1761915629015785500,4.268785400390625,-0.98126220703125,-0.1805419921875,-0.024993896484375
1761915629025839600,4.278839599609375,-0.9875030517578125,-0.170257568359375,-0.0230712890625
1761915629035893500,4.2888935546875,-0.98529052734375,-0.1614227294921875,-0.021759033203125
1761915629045947600,4.29894775390625,-0.982818603515625,-0.156707763671875,-0.025177001953125
1761915629056002300,4.309002197265625,-0.981689453125,-0.156219482421875,-0.02655029296875
1761915629066057500,4.319057373046875,-0.98040771484375,-0.1586761474609375,-0.025390625
1761915629076111400,4.329111328125,-0.9805145263671875,-0.16375732421875,-0.0250701904296875
1761915629086165500,4.33916552734375,-0.976776123046875,-0.1685943603515625,-0.0258026123046875
1761915629096219400,4.349219482421875,-0.9706268310546875,-0.1696624755859375,-0.0264892578125
1761915629106273500,4.3592734375,-0.9698944091796875,-0.1670989990234375,-0.025634765625
1761915629116327200,4.3693271484375,-0.9727020263671875,-0.164825439453125,-0.0243682861328125
1761915629126381300,4.37938134765625,-0.9763641357421875,-0.1689453125,-0.023956298828125
1761915629136435500,4.389435546875,-0.977020263671875,-0.1722564697265625,-0.022613525390625
1761915629146489300,4.3994892578125,-0.9752655029296875,-0.17144775390625,-0.0190582275390625
1761915629156543500,4.40954345703125,-0.978729248046875,-0.1730499267578125,-0.0159149169921875
1761915629166597400,4.419597412109375,-0.982574462890625,-0.1710662841796875,-0.015106201171875
1761915629176651500,4.429651611328125,-0.98486328125,-0.1645965576171875,-0.0162811279296875
1761915629186705400,4.439705322265625,-0.983795166015625,-0.1606597900390625,-0.0198822021484375
1761915629196760300,4.44976025390625,-0.9783782958984375,-0.161529541015625,-0.023681640625
1761915629206814200,4.459814208984375,-0.974700927734375,-0.163543701171875,-0.02642822265625
1761915629216868400,4.469868408203125,-0.97662353515625,-0.1664581298828125,-0.0242462158203125
1761915629226922500,4.479922607421875,-0.9838104248046875,-0.1666107177734375,-0.02020263671875
1761915629236976400,4.489976318359375,-0.989654541015625,-0.165863037109375,-0.0164642333984375
1761915629247030500,4.500030517578125,-0.988250732421875,-0.164764404296875,-0.0201416015625
1761915629257084400,4.51008447265625,-0.9856719970703125,-0.1617889404296875,-0.0266876220703125
1761915629267138600,4.520138671875,-0.9858551025390625,-0.158782958984375,-0.030487060546875
1761915629277192400,4.5301923828125,-0.9894561767578125,-0.154815673828125,-0.028839111328125
1761915629287246600,4.54024658203125,-0.9933013916015625,-0.1514129638671875,-0.027130126953125
1761915629297300200,4.55030029296875,-0.999664306640625,-0.1525115966796875,-0.0247344970703125
1761915629307354400,4.560354248046875,-1.001495361328125,-0.1551513671875,-0.022216796875
1761915629317408300,4.570408203125,-0.9952392578125,-0.158477783203125,-0.01898193359375
1761915629327462400,4.58046240234375,-0.98699951171875,-0.1654510498046875,-0.017333984375
1761915629337517600,4.590517578125,-0.981048583984375,-0.172454833984375,-0.018096923828125
1761915629347571500,4.600571533203125,-0.9775848388671875,-0.174407958984375,-0.019775390625
1761915629357625600,4.61062548828125,-0.973876953125,-0.1710968017578125,-0.019500732421875
1761915629367679200,4.62067919921875,-0.969329833984375,-0.1688995361328125,-0.0214691162109375
1761915629377733400,4.6307333984375,-0.9649505615234375,-0.1729583740234375,-0.023284912109375
1761915629387787300,4.640787353515625,-0.9618988037109375,-0.17657470703125,-0.0250701904296875
1761915629397841400,4.65084130859375,-0.96014404296875,-0.176422119140625,-0.0241241455078125
1761915629407895300,4.660895263671875,-0.9569549560546875,-0.1777496337890625,-0.02301025390625
1761915629417949400,4.670949462890625,-0.9621734619140625,-0.179168701171875,-0.0250396728515625
1761915629428003300,4.68100341796875,-0.9663543701171875,-0.1760711669921875,-0.0196075439453125
1761915629438057500,4.691057373046875,-0.973052978515625,-0.1735076904296875,-0.0176239013671875
1761915629448111400,4.701111328125,-0.9835357666015625,-0.172637939453125,-0.02032470703125
1761915629458165500,4.71116552734375,-0.986663818359375,-0.1668548583984375,-0.018890380859375
1761915629468220400,4.721220458984375,-0.981964111328125,-0.1629180908203125,-0.01727294921875
1761915629478274300,4.7312744140625,-0.9765777587890625,-0.162322998046875,-0.0195465087890625
1761915629488328400,4.741328369140625,-0.973175048828125,-0.1640625,-0.024658203125
1761915629498382300,4.75138232421875,-0.9712982177734375,-0.16693115234375,-0.0272064208984375
1761915629508436500,4.7614365234375,-0.97357177734375,-0.164825439453125,-0.0265045166015625
1761915629518490400,4.771490478515625,-0.9775390625,-0.1602325439453125,-0.026153564453125
1761915629528544500,4.78154443359375,-0.9836578369140625,-0.15673828125,-0.027191162109375
1761915629538598400,4.791598388671875,-0.98687744140625,-0.155181884765625,-0.027099609375
1761915629548652300,4.80165234375,-0.9837646484375,-0.155670166015625,-0.02386474609375
1761915629558706200,4.8117060546875,-0.9750518798828125,-0.1596221923828125,-0.02484130859375
1761915629568760300,4.82176025390625,-0.9647369384765625,-0.1622772216796875,-0.0247650146484375
1761915629578814500,4.831814453125,-0.964019775390625,-0.167022705078125,-0.0258941650390625
1761915629588868400,4.841868408203125,-0.9720916748046875,-0.169525146484375,-0.026824951171875
1761915629598923500,4.851923583984375,-0.9744720458984375,-0.16680908203125,-0.026458740234375
1761915629608977400,4.861977294921875,-0.9747161865234375,-0.16571044921875,-0.0279083251953125
1761915629619031600,4.872031494140625,-0.9742889404296875,-0.1695556640625,-0.0265045166015625
1761915629629085200,4.882085205078125,-0.976531982421875,-0.1745758056640625,-0.024200439453125
1761915629639139300,4.892139404296875,-0.9783172607421875,-0.1763153076171875,-0.0219879150390625
1761915629649193200,4.902193115234375,-0.9854736328125,-0.1725921630859375,-0.017974853515625
1761915629659247400,4.912247314453125,-0.9911956787109375,-0.1683349609375,-0.0110015869140625
1761915629669301500,4.922301513671875,-0.9929962158203125,-0.1687469482421875,-0.0113983154296875
1761915629679355400,4.93235546875,-0.984771728515625,-0.17059326171875,-0.0128631591796875
1761915629689409500,4.942409423828125,-0.971710205078125,-0.1707000732421875,-0.0122222900390625
1761915629699463400,4.95246337890625,-0.9681549072265625,-0.174896240234375,-0.017486572265625
1761915629709517600,4.962517578125,-0.967529296875,-0.1756439208984375,-0.0189666748046875
1761915629719571500,4.972571533203125,-0.973907470703125,-0.175018310546875,-0.0204315185546875
1761915629729626400,4.98262646484375,-0.9846649169921875,-0.1733245849609375,-0.0191650390625
1761915629739680300,4.99268017578125,-0.9900360107421875,-0.166534423828125,-0.013397216796875
1761915629749734400,5.002734375,-0.989013671875,-0.164215087890625,-0.011260986328125
1761915629759788500,5.01278857421875,-0.9796905517578125,-0.168243408203125,-0.0149993896484375
1761915629769842400,5.022842529296875,-0.9642181396484375,-0.1724700927734375,-0.018798828125
1761915629779896600,5.032896484375,-0.9536285400390625,-0.1747283935546875,-0.0206298828125
1761915629789950500,5.042950439453125,-0.952850341796875,-0.1759033203125,-0.01934814453125
1761915629800004600,5.053004638671875,-0.959930419921875,-0.173614501953125,-0.01953125
1761915629810058200,5.063058349609375,-0.9670562744140625,-0.1706390380859375,-0.020843505859375
1761915629820112400,5.0731123046875,-0.9712066650390625,-0.1677398681640625,-0.0238037109375
1761915629830166300,5.083166259765625,-0.9683380126953125,-0.16461181640625,-0.0287322998046875
1761915629840220400,5.093220458984375,-0.964569091796875,-0.1618194580078125,-0.032135009765625
1761915629850274300,5.1032744140625,-0.9629669189453125,-0.1596832275390625,-0.0328369140625
1761915629860329500,5.11332958984375,-0.969940185546875,-0.15771484375,-0.031402587890625
1761915629870383600,5.123383544921875,-0.9892578125,-0.15484619140625,-0.0269622802734375
1761915629880437200,5.133437255859375,-1.00579833984375,-0.1495819091796875,-0.0212860107421875
1761915629890491400,5.143491455078125,-1.0117034912109375,-0.1474609375,-0.021453857421875
1761915629900545300,5.153545166015625,-1.0021209716796875,-0.1464996337890625,-0.0223541259765625
1761915629910599400,5.163599365234375,-0.9873809814453125,-0.152740478515625,-0.028076171875
1761915629920653300,5.1736533203125,-0.97705078125,-0.1631927490234375,-0.03240966796875
1761915629930707500,5.18370751953125,-0.97076416015625,-0.16497802734375,-0.031158447265625
1761915629940761300,5.19376123046875,-0.9657745361328125,-0.161407470703125,-0.026031494140625
1761915629950815500,5.2038154296875,-0.9654693603515625,-0.1648406982421875,-0.0262908935546875
1761915629960869400,5.213869384765625,-0.9693145751953125,-0.168548583984375,-0.0269775390625
1761915629970923500,5.223923583984375,-0.9675140380859375,-0.1724700927734375,-0.027313232421875
1761915629980977400,5.233977294921875,-0.9626312255859375,-0.1760406494140625,-0.0267791748046875
1761915629991032300,5.2440322265625,-0.9665069580078125,-0.1748504638671875,-0.023284912109375
1761915630001086500,5.25408642578125,-0.9744720458984375,-0.17230224609375,-0.0204010009765625
1761915630011140400,5.264140380859375,-0.982177734375,-0.1705474853515625,-0.017913818359375
1761915630021194500,5.274194580078125,-0.9887237548828125,-0.1721649169921875,-0.0184783935546875
1761915630031248400,5.284248291015625,-0.9897308349609375,-0.1718902587890625,-0.0203704833984375
1761915630041302500,5.294302490234375,-0.9820556640625,-0.16912841796875,-0.0227508544921875
1761915630051355600,5.304355712890625,-0.97381591796875,-0.168731689453125,-0.025634765625
1761915630061409800,5.314409912109375,-0.96875,-0.1707916259765625,-0.0265350341796875
1761915630071463700,5.324463623046875,-0.968292236328125,-0.17388916015625,-0.0261993408203125
1761915630081517800,5.334517822265625,-0.9777069091796875,-0.1793365478515625,-0.02435302734375
1761915630091571500,5.344571533203125,-0.99365234375,-0.1767425537109375,-0.023956298828125
1761915630101625600,5.35462548828125,-1.002593994140625,-0.1658172607421875,-0.02423095703125
1761915630111680800,5.3646806640625,-1.0011444091796875,-0.1528472900390625,-0.0268402099609375
1761915630121734700,5.374734619140625,-0.9973907470703125,-0.142974853515625,-0.0314178466796875
1761915630131788800,5.384788818359375,-0.991912841796875,-0.140625,-0.03118896484375
1761915630141842700,5.3948427734375,-0.9864501953125,-0.1462554931640625,-0.0297698974609375
1761915630151896800,5.404896728515625,-0.9822540283203125,-0.1566619873046875,-0.0296630859375
1761915630161950500,5.414950439453125,-0.977630615234375,-0.16400146484375,-0.0318145751953125
1761915630172004600,5.425004638671875,-0.97076416015625,-0.163665771484375,-0.0326690673828125
1761915630182058500,5.43505859375,-0.9688720703125,-0.1602935791015625,-0.0332794189453125
1761915630192112600,5.445112548828125,-0.97161865234375,-0.156982421875,-0.0314483642578125
1761915630202166500,5.45516650390625,-0.9781036376953125,-0.157257080078125,-0.0315093994140625
1761915630212220700,5.465220703125,-0.9800262451171875,-0.1592254638671875,-0.0280609130859375
1761915630222274600,5.475274658203125,-0.97998046875,-0.1622314453125,-0.0242462158203125
1761915630232328700,5.48532861328125,-0.9752960205078125,-0.1650238037109375,-0.0211334228515625
1761915630242383600,5.495383544921875,-0.9690704345703125,-0.1661834716796875,-0.02001953125
1761915630252437500,5.5054375,-0.9683990478515625,-0.1645355224609375,-0.02154541015625
1761915630262491600,5.51549169921875,-0.9709930419921875,-0.1637725830078125,-0.02392578125
1761915630272545500,5.525545654296875,-0.982086181640625,-0.1657257080078125,-0.0211334228515625
1761915630282599700,5.535599609375,-0.9943389892578125,-0.1664276123046875,-0.0171356201171875
1761915630292653600,5.545653564453125,-0.996978759765625,-0.17108154296875,-0.01361083984375
1761915630302707700,5.555707763671875,-0.9923858642578125,-0.1745758056640625,-0.0139923095703125
1761915630312761600,5.56576171875,-0.97674560546875,-0.1736297607421875,-0.017242431640625
1761915630322815700,5.575815673828125,-0.96319580078125,-0.1721649169921875,-0.0226593017578125
1761915630332870000,5.585869873046875,-0.9597930908203125,-0.172332763671875,-0.027191162109375
1761915630342923500,5.595923583984375,-0.9696197509765625,-0.172607421875,-0.029205322265625
1761915630352977700,5.605977783203125,-0.981170654296875,-0.16632080078125,-0.0261688232421875
1761915630363031600,5.616031494140625,-0.9853057861328125,-0.16180419921875,-0.0271453857421875
1761915630373086700,5.626086669921875,-0.981903076171875,-0.1620025634765625,-0.0284271240234375
1761915630383140600,5.636140625,-0.9748992919921875,-0.16326904296875,-0.0311279296875
1761915630393194800,5.64619482421875,-0.968719482421875,-0.166595458984375,-0.0335845947265625
1761915630403248600,5.65624853515625,-0.9637908935546875,-0.1668548583984375,-0.03680419921875
1761915630413302800,5.666302734375,-0.962677001953125,-0.163421630859375,-0.0406036376953125
1761915630423356400,5.6763564453125,-0.9638519287109375,-0.1569061279296875,-0.0408935546875
1761915630433410600,5.68641064453125,-0.9758453369140625,-0.154510498046875,-0.03997802734375
1761915630443464700,5.696464599609375,-1.0011749267578125,-0.1533966064453125,-0.034393310546875
1761915630453518600,5.7065185546875,-1.01544189453125,-0.1508026123046875,-0.0269775390625
1761915630463572700,5.71657275390625,-1.0103912353515625,-0.1464385986328125,-0.0256500244140625
1761915630473626600,5.726626708984375,-0.99627685546875,-0.14300537109375,-0.028533935546875
1761915630483680800,5.7366806640625,-0.9869537353515625,-0.142608642578125,-0.0306549072265625
1761915630493735400,5.7467353515625,-0.9812164306640625,-0.145965576171875,-0.0337982177734375
1761915630503789600,5.75678955078125,-0.979766845703125,-0.152496337890625,-0.0394744873046875
1761915630513843500,5.766843505859375,-0.973724365234375,-0.1556396484375,-0.03955078125
1761915630523897600,5.776897705078125,-0.968475341796875,-0.15936279296875,-0.0393218994140625
1761915630533951700,5.78695166015625,-0.9654693603515625,-0.1653594970703125,-0.0391693115234375
1761915630544005600,5.797005615234375,-0.964141845703125,-0.1695404052734375,-0.033905029296875
1761915630554059800,5.807059814453125,-0.9647674560546875,-0.17462158203125,-0.02972412109375
1761915630564113700,5.81711376953125,-0.9652099609375,-0.1804351806640625,-0.0294036865234375
1761915630574167800,5.827167724609375,-0.964111328125,-0.182769775390625,-0.03076171875
1761915630584221700,5.8372216796875,-0.9674072265625,-0.1802978515625,-0.0302886962890625
1761915630594275800,5.84727587890625,-0.9800872802734375,-0.173248291015625,-0.0270538330078125
1761915630604329500,5.85732958984375,-0.996063232421875,-0.165802001953125,-0.0232086181640625
1761915630614383600,5.867383544921875,-1.0043487548828125,-0.15936279296875,-0.0198516845703125
1761915630624438800,5.877438720703125,-1.0047607421875,-0.156463623046875,-0.0180816650390625
1761915630634492700,5.88749267578125,-1.0010528564453125,-0.1591949462890625,-0.0211639404296875
1761915630644546800,5.897546875,-0.99017333984375,-0.161865234375,-0.02728271484375
1761915630654598700,5.9075986328125,-0.9773406982421875,-0.1638031005859375,-0.032470703125
1761915630664652500,5.917652587890625,-0.9711761474609375,-0.1660308837890625,-0.032470703125
1761915630674706700,5.927706787109375,-0.9747772216796875,-0.1676483154296875,-0.0296173095703125
1761915630684760600,5.937760498046875,-0.9790496826171875,-0.170318603515625,-0.026885986328125
1761915630694814700,5.947814697265625,-0.9782867431640625,-0.17047119140625,-0.0264892578125
1761915630704868600,5.95786865234375,-0.970672607421875,-0.1690673828125,-0.0259552001953125
1761915630714922800,5.9679228515625,-0.9637908935546875,-0.168609619140625,-0.02923583984375
1761915630724976600,5.9779765625,-0.961212158203125,-0.1656494140625,-0.032379150390625
1761915630735030500,5.988030517578125,-0.965179443359375,-0.1621246337890625,-0.0321807861328125
1761915630745084700,5.998084716796875,-0.9706573486328125,-0.160888671875,-0.0322723388671875
1761915630755138600,6.008138671875,-0.97711181640625,-0.1602325439453125,-0.03448486328125
1761915630765192700,6.018192626953125,-0.9788360595703125,-0.15814208984375,-0.0346832275390625
1761915630775247600,6.02824755859375,-0.9765167236328125,-0.154541015625,-0.0355072021484375
1761915630785301800,6.0383017578125,-0.9701385498046875,-0.153839111328125,-0.0384979248046875
1761915630795355600,6.048355712890625,-0.9651641845703125,-0.1583709716796875,-0.03790283203125
1761915630805409800,6.058409912109375,-0.9733123779296875,-0.1668853759765625,-0.033782958984375
1761915630815463400,6.06846337890625,-0.98504638671875,-0.1730499267578125,-0.023284912109375
1761915630825517600,6.078517578125,-0.9907073974609375,-0.1735382080078125,-0.018218994140625
1761915630835571700,6.08857177734375,-0.99151611328125,-0.170440673828125,-0.0235443115234375
1761915630845625600,6.09862548828125,-0.9867095947265625,-0.1610260009765625,-0.0295867919921875
1761915630855679700,6.1086796875,-0.982696533203125,-0.152496337890625,-0.0316619873046875
1761915630865733600,6.118733642578125,-0.9816436767578125,-0.15277099609375,-0.030029296875
1761915630875787800,6.128787841796875,-0.9832611083984375,-0.1597900390625,-0.0287322998046875
1761915630885841700,6.138841552734375,-0.984039306640625,-0.1660919189453125,-0.030059814453125
1761915630895896600,6.148896484375,-0.9774627685546875,-0.1651611328125,-0.02960205078125
1761915630905950500,6.158950439453125,-0.9685516357421875,-0.1633758544921875,-0.0281219482421875
1761915630916004600,6.169004638671875,-0.97100830078125,-0.1642303466796875,-0.0331573486328125
1761915630926058800,6.179058837890625,-0.9758453369140625,-0.166473388671875,-0.034820556640625
1761915630936112600,6.189112548828125,-0.98077392578125,-0.1666259765625,-0.0318450927734375
1761915630946166800,6.199166748046875,-0.9843597412109375,-0.16314697265625,-0.0279388427734375
1761915630956220700,6.209220703125,-0.9887542724609375,-0.16064453125,-0.0252685546875
1761915630966274800,6.21927490234375,-0.98760986328125,-0.1602325439453125,-0.02435302734375
1761915630976328700,6.22932861328125,-0.9802093505859375,-0.1628570556640625,-0.02545166015625
1761915630986382800,6.2393828125,-0.9716796875,-0.1704864501953125,-0.02862548828125
1761915630996436500,6.2494365234375,-0.9678192138671875,-0.1770477294921875,-0.0329742431640625
1761915631006490600,6.25949072265625,-0.96630859375,-0.177276611328125,-0.0362701416015625
1761915631016545500,6.269545654296875,-0.9692230224609375,-0.1728973388671875,-0.0362396240234375
1761915631026599700,6.279599609375,-0.971466064453125,-0.1663055419921875,-0.0341949462890625
1761915631036653800,6.28965380859375,-0.9749755859375,-0.1615753173828125,-0.03253173828125
1761915631046707700,6.299707763671875,-0.978790283203125,-0.159271240234375,-0.0316162109375
1761915631056761300,6.30976123046875,-0.985198974609375,-0.1592864990234375,-0.0318145751953125
1761915631066815200,6.319815185546875,-0.99517822265625,-0.1598052978515625,-0.0283966064453125
1761915631076869400,6.329869384765625,-0.999114990234375,-0.1588287353515625,-0.025970458984375
1761915631086923000,6.339923095703125,-1.004425048828125,-0.15679931640625,-0.026397705078125
1761915631096977200,6.34997705078125,-1.0067596435546875,-0.1515350341796875,-0.0261993408203125
1761915631107031000,6.360031005859375,-1.003265380859375,-0.1481781005859375,-0.0267181396484375
1761915631117085200,6.370085205078125,-0.9983673095703125,-0.145904541015625,-0.0270233154296875
1761915631127139000,6.38013916015625,-0.9939727783203125,-0.1490020751953125,-0.024505615234375
1761915631137194200,6.3901943359375,-0.9959259033203125,-0.151702880859375,-0.0217742919921875
1761915631147248400,6.400248291015625,-0.9937286376953125,-0.154327392578125,-0.0211334228515625
1761915631157302000,6.410302001953125,-0.98687744140625,-0.1558685302734375,-0.0235443115234375
1761915631167356200,6.420356201171875,-0.97900390625,-0.15606689453125,-0.023590087890625
1761915631177410000,6.43041015625,-0.9709014892578125,-0.1602935791015625,-0.0260467529296875
1761915631187464200,6.440464111328125,-0.9553375244140625,-0.1687164306640625,-0.03173828125
1761915631197518000,6.45051806640625,-0.9412689208984375,-0.178741455078125,-0.0385284423828125
1761915631207572200,6.460572265625,-0.93603515625,-0.179840087890625,-0.0402069091796875
1761915631217626000,6.470626220703125,-0.9420623779296875,-0.177947998046875,-0.0400848388671875
1761915631227680300,6.48068017578125,-0.9507293701171875,-0.17340087890625,-0.039093017578125
1761915631237734100,6.490734130859375,-0.9547119140625,-0.1689300537109375,-0.039215087890625
1761915631247790000,6.5007900390625,-0.9584503173828125,-0.1650848388671875,-0.04022216796875
1761915631257844200,6.51084423828125,-0.9673309326171875,-0.1627197265625,-0.040740966796875
1761915631267898000,6.520898193359375,-0.979949951171875,-0.158966064453125,-0.03704833984375
1761915631277952300,6.5309521484375,-0.9893341064453125,-0.157501220703125,-0.0343475341796875
1761915631288006400,6.54100634765625,-0.9933929443359375,-0.156951904296875,-0.0346832275390625
1761915631298060300,6.551060302734375,-0.9944305419921875,-0.157470703125,-0.0345306396484375
1761915631308115200,6.561115234375,-0.9944000244140625,-0.157379150390625,-0.033355712890625
1761915631318169000,6.571169189453125,-0.99627685546875,-0.1556396484375,-0.031646728515625
1761915631328223200,6.58122314453125,-0.998199462890625,-0.154693603515625,-0.0298614501953125
1761915631338277000,6.591277099609375,-0.9913330078125,-0.154052734375,-0.0314178466796875
1761915631348331300,6.601331298828125,-0.986083984375,-0.153594970703125,-0.032012939453125
1761915631358385200,6.61138525390625,-0.9861907958984375,-0.155792236328125,-0.0339813232421875
1761915631368439300,6.621439208984375,-0.9822540283203125,-0.1543121337890625,-0.0345306396484375
1761915631378493200,6.6314931640625,-0.97369384765625,-0.150726318359375,-0.0345458984375
1761915631388547000,6.641547119140625,-0.966217041015625,-0.14910888671875,-0.0355377197265625
1761915631398601200,6.651601318359375,-0.967254638671875,-0.1525115966796875,-0.036041259765625
1761915631408655000,6.661655029296875,-0.9737548828125,-0.15924072265625,-0.033966064453125
1761915631418709200,6.671709228515625,-0.9730377197265625,-0.162750244140625,-0.0293731689453125
1761915631428764200,6.68176416015625,-0.9662322998046875,-0.162078857421875,-0.0277557373046875
1761915631438818300,6.691818359375,-0.9683990478515625,-0.16064453125,-0.0267181396484375
1761915631448872200,6.7018720703125,-0.9759979248046875,-0.158477783203125,-0.02398681640625
1761915631458926000,6.711926025390625,-0.9799346923828125,-0.1580047607421875,-0.021881103515625
1761915631468980200,6.721980224609375,-0.977386474609375,-0.1625213623046875,-0.0262298583984375
1761915631479034000,6.7320341796875,-0.9717559814453125,-0.1679534912109375,-0.0301971435546875
1761915631489088300,6.742088134765625,-0.9645538330078125,-0.1711578369140625,-0.0294342041015625
1761915631499142100,6.75214208984375,-0.9661407470703125,-0.174407958984375,-0.0243988037109375
1761915631509196300,6.7621962890625,-0.9771270751953125,-0.17742919921875,-0.0175628662109375
1761915631519250200,6.772250244140625,-0.987518310546875,-0.1778411865234375,-0.01220703125
1761915631529304300,6.78230419921875,-0.9929351806640625,-0.17706298828125,-0.0111846923828125
1761915631539359000,6.79235888671875,-0.99639892578125,-0.1743927001953125,-0.01226806640625
1761915631549413000,6.8024130859375,-1.004241943359375,-0.165008544921875,-0.0142822265625
1761915631559467000,6.812467041015625,-1.0144195556640625,-0.152679443359375,-0.0142364501953125
1761915631569521200,6.822521240234375,-1.015472412109375,-0.1412506103515625,-0.012115478515625
1761915631579575300,6.8325751953125,-1.0089111328125,-0.138671875,-0.0125274658203125
1761915631589629200,6.842629150390625,-0.998291015625,-0.146575927734375,-0.0145111083984375
1761915631599683300,6.852683349609375,-0.9855499267578125,-0.1574554443359375,-0.01715087890625
1761915631609737200,6.8627373046875,-0.971832275390625,-0.165191650390625,-0.0196380615234375
1761915631619791400,6.872791259765625,-0.96429443359375,-0.16790771484375,-0.02166748046875
1761915631629845200,6.88284521484375,-0.96978759765625,-0.166412353515625,-0.0220489501953125
1761915631639899100,6.892899169921875,-0.9788818359375,-0.1623687744140625,-0.020751953125
1761915631649953000,6.902953125,-0.9856719970703125,-0.15972900390625,-0.0177154541015625
1761915631660008200,6.91300830078125,-0.9902191162109375,-0.159759521484375,-0.01654052734375
1761915631670062300,6.923062255859375,-0.9859161376953125,-0.16094970703125,-0.014068603515625
1761915631680116200,6.9331162109375,-0.9789581298828125,-0.1663360595703125,-0.016265869140625
1761915631690170400,6.94317041015625,-0.9671478271484375,-0.1702880859375,-0.0214996337890625
1761915631700224300,6.953224365234375,-0.9583282470703125,-0.1719512939453125,-0.02545166015625
1761915631710278400,6.9632783203125,-0.9585723876953125,-0.17486572265625,-0.02545166015625
1761915631720332000,6.97333203125,-0.9649810791015625,-0.1755828857421875,-0.0222930908203125
1761915631730386200,6.98338623046875,-0.9680023193359375,-0.1727447509765625,-0.0206298828125
1761915631740440000,6.993440185546875,-0.973358154296875,-0.172271728515625,-0.0179901123046875
1761915631750494200,7.003494140625,-0.9740142822265625,-0.170318603515625,-0.0172271728515625
1761915631760548000,7.013548095703125,-0.9677581787109375,-0.169403076171875,-0.0175323486328125
1761915631770603300,7.023603271484375,-0.967864990234375,-0.1695709228515625,-0.019989013671875
1761915631780657400,7.033657470703125,-0.9751434326171875,-0.1678619384765625,-0.0162811279296875
1761915631790711000,7.0437109375,-0.9848480224609375,-0.165802001953125,-0.010009765625
1761915631800765200,7.05376513671875,-0.9943695068359375,-0.1723480224609375,-0.0085296630859375
1761915631810819000,7.063819091796875,-0.9969482421875,-0.1754150390625,-0.0104827880859375
1761915631820873200,7.073873291015625,-0.9887237548828125,-0.172149658203125,-0.010955810546875
1761915631830927000,7.083927001953125,-0.9782257080078125,-0.1687774658203125,-0.01385498046875
1761915631840981200,7.093981201171875,-0.9736785888671875,-0.16717529296875,-0.0196075439453125
1761915631851035100,7.10403515625,-0.97125244140625,-0.1640777587890625,-0.020172119140625
1761915631861089300,7.11408935546875,-0.9748077392578125,-0.160552978515625,-0.017669677734375
1761915631871143200,7.12414306640625,-0.98223876953125,-0.1620941162109375,-0.013671875
1761915631881198000,7.134197998046875,-0.9862518310546875,-0.1697998046875,-0.016204833984375
1761915631891252200,7.144252197265625,-0.982635498046875,-0.1765899658203125,-0.0188751220703125
1761915631901306000,7.15430615234375,-0.9707183837890625,-0.1738433837890625,-0.01824951171875
1761915631911360300,7.1643603515625,-0.9620513916015625,-0.1686553955078125,-0.0178985595703125
1761915631921414100,7.1744140625,-0.9678955078125,-0.1682281494140625,-0.018218994140625
1761915631931468300,7.18446826171875,-0.975189208984375,-0.1643829345703125,-0.0165252685546875
1761915631941522200,7.194522216796875,-0.975799560546875,-0.1636505126953125,-0.012939453125
1761915631951576300,7.204576416015625,-0.9699554443359375,-0.167572021484375,-0.017669677734375
1761915631961630200,7.214630126953125,-0.962554931640625,-0.172332763671875,-0.025146484375
1761915631971684000,7.22468408203125,-0.961822509765625,-0.1739349365234375,-0.0253143310546875
1761915631981738000,7.234738037109375,-0.9651947021484375,-0.1757049560546875,-0.0257415771484375
1761915631991792000,7.244792236328125,-0.9768218994140625,-0.17669677734375,-0.0256195068359375
1761915632001847300,7.254847412109375,-0.9876556396484375,-0.1739044189453125,-0.0214080810546875
1761915632011901200,7.264901123046875,-0.9892120361328125,-0.170501708984375,-0.019195556640625
1761915632021955300,7.274955322265625,-0.9882965087890625,-0.1685028076171875,-0.021331787109375
1761915632032009200,7.28500927734375,-0.982574462890625,-0.167144775390625,-0.02008056640625
1761915632042063400,7.2950634765625,-0.97894287109375,-0.1669769287109375,-0.0188751220703125
1761915632052117000,7.305116943359375,-0.9816131591796875,-0.1697235107421875,-0.0207061767578125
1761915632062172000,7.315171875,-0.98553466796875,-0.1692962646484375,-0.01751708984375
1761915632072225800,7.325225830078125,-0.9902191162109375,-0.1703643798828125,-0.0142974853515625
1761915632082280000,7.335280029296875,-0.9895172119140625,-0.1718292236328125,-0.015777587890625
1761915632092333800,7.345333740234375,-0.9828643798828125,-0.1717987060546875,-0.0148468017578125
1761915632102388000,7.355387939453125,-0.9759979248046875,-0.1710205078125,-0.015655517578125
1761915632112442600,7.365442626953125,-0.9654693603515625,-0.172607421875,-0.0186004638671875
1761915632122496800,7.375496826171875,-0.958404541015625,-0.1761627197265625,-0.0227813720703125
1761915632132550700,7.385550537109375,-0.9535369873046875,-0.1796875,-0.0242767333984375
1761915632142604800,7.395604736328125,-0.9552001953125,-0.1790008544921875,-0.022796630859375
1761915632152658700,7.40565869140625,-0.96368408203125,-0.1769256591796875,-0.0199737548828125
1761915632162712800,7.415712890625,-0.977996826171875,-0.1751556396484375,-0.0176849365234375
1761915632172767000,7.42576708984375,-0.9912567138671875,-0.171417236328125,-0.016204833984375
1761915632182820900,7.43582080078125,-0.9978179931640625,-0.167724609375,-0.0159454345703125
1761915632192875000,7.445875,-0.9947357177734375,-0.166961669921875,-0.017059326171875
1761915632202929000,7.455928955078125,-0.9904632568359375,-0.1661834716796875,-0.018524169921875
1761915632212982800,7.465982666015625,-0.9813690185546875,-0.1674957275390625,-0.0205535888671875
1761915632223037700,7.47603759765625,-0.9702911376953125,-0.169586181640625,-0.0228271484375
1761915632233091800,7.486091796875,-0.962249755859375,-0.1736297607421875,-0.0248260498046875
1761915632243145700,7.496145751953125,-0.9567108154296875,-0.1755218505859375,-0.0254364013671875
1761915632253200000,7.506199951171875,-0.958892822265625,-0.1750640869140625,-0.0237579345703125
1761915632263254000,7.51625390625,-0.9687042236328125,-0.1735076904296875,-0.019561767578125
1761915632273308000,7.526307861328125,-0.9798126220703125,-0.1689605712890625,-0.0159149169921875
1761915632283361800,7.53636181640625,-0.9878387451171875,-0.1644134521484375,-0.0133514404296875
1761915632293415700,7.546415771484375,-0.9925079345703125,-0.1618804931640625,-0.012054443359375
1761915632303469800,7.5564697265625,-0.9911041259765625,-0.1593170166015625,-0.0126953125
1761915632313523700,7.566523681640625,-0.9860992431640625,-0.1605377197265625,-0.017974853515625
1761915632323577900,7.576577880859375,-0.9828033447265625,-0.163177490234375,-0.022430419921875
1761915632333632800,7.5866328125,-0.9719390869140625,-0.16595458984375,-0.0220947265625
1761915632343687000,7.59668701171875,-0.96392822265625,-0.1678924560546875,-0.021331787109375
1761915632353741000,7.606740966796875,-0.96331787109375,-0.17218017578125,-0.0202178955078125
1761915632363794700,7.616794677734375,-0.96112060546875,-0.17547607421875,-0.0175323486328125
1761915632373848800,7.626848876953125,-0.956329345703125,-0.1798095703125,-0.016510009765625
1761915632383902700,7.63690283203125,-0.9517669677734375,-0.1793060302734375,-0.016082763671875
1761915632393956900,7.646956787109375,-0.9525146484375,-0.174713134765625,-0.014495849609375
1761915632404010800,7.6570107421875,-0.9654541015625,-0.17340087890625,-0.0132293701171875
1761915632414065000,7.66706494140625,-0.9778594970703125,-0.1732330322265625,-0.0100860595703125
1761915632424118800,7.677118896484375,-0.978851318359375,-0.1752777099609375,-0.0070037841796875
1761915632434173000,7.6871728515625,-0.9730377197265625,-0.1807403564453125,-0.009521484375
1761915632444227800,7.697227783203125,-0.96441650390625,-0.1855010986328125,-0.0133514404296875
1761915632454281700,7.70728173828125,-0.9598541259765625,-0.18780517578125,-0.017730712890625
1761915632464336000,7.7173359375,-0.965972900390625,-0.1859283447265625,-0.0201568603515625
1761915632474389800,7.7273896484375,-0.9775390625,-0.180572509765625,-0.0183258056640625
1761915632484444000,7.73744384765625,-0.9914093017578125,-0.175048828125,-0.0150299072265625
1761915632494497800,7.747497802734375,-0.99981689453125,-0.1722259521484375,-0.0148162841796875
1761915632504552000,7.757552001953125,-0.99884033203125,-0.170989990234375,-0.0139007568359375
1761915632514605800,7.767605712890625,-0.9883270263671875,-0.172332763671875,-0.0167694091796875
1761915632524660000,7.777659912109375,-0.985076904296875,-0.1743316650390625,-0.0171661376953125
1761915632534713900,7.7877138671875,-0.992767333984375,-0.17462158203125,-0.013092041015625
1761915632544768800,7.797768798828125,-1.00347900390625,-0.172882080078125,-0.0070953369140625
1761915632554823000,7.807822998046875,-1.0047760009765625,-0.1690826416015625,-0.005035400390625
1761915632564876800,7.817876708984375,-0.992767333984375,-0.164031982421875,-0.0087432861328125
1761915632574931000,7.827930908203125,-0.9801025390625,-0.1624298095703125,-0.0142974853515625
1761915632584984800,7.83798486328125,-0.9705963134765625,-0.1623992919921875,-0.0203704833984375
1761915632595039000,7.8480390625,-0.968902587890625,-0.1606597900390625,-0.023834228515625
1761915632605092900,7.8580927734375,-0.973541259765625,-0.159912109375,-0.0240631103515625
1761915632615146800,7.868146728515625,-0.979095458984375,-0.161865234375,-0.0224609375
1761915632625200600,7.87820068359375,-0.9834136962890625,-0.1635284423828125,-0.0206298828125
1761915632635254800,7.8882548828125,-0.979766845703125,-0.1674652099609375,-0.021026611328125
1761915632645308700,7.89830859375,-0.97479248046875,-0.1708984375,-0.0210113525390625
1761915632655363800,7.90836376953125,-0.9742431640625,-0.171844482421875,-0.0201416015625
1761915632665418000,7.91841796875,-0.9722137451171875,-0.170379638671875,-0.020050048828125
1761915632675472000,7.928471923828125,-0.9759368896484375,-0.1699066162109375,-0.019317626953125
1761915632685526000,7.938526123046875,-0.9769134521484375,-0.16607666015625,-0.0179443359375
1761915632695579600,7.94857958984375,-0.9788055419921875,-0.1646575927734375,-0.016998291015625
1761915632705633800,7.9586337890625,-0.98193359375,-0.1681060791015625,-0.018524169921875
1761915632715687700,7.968687744140625,-0.98004150390625,-0.1703948974609375,-0.0172882080078125
1761915632725741800,7.978741943359375,-0.97918701171875,-0.1714324951171875,-0.0186920166015625
1761915632735795700,7.988795654296875,-0.9785614013671875,-0.171844482421875,-0.0176544189453125
1761915632745849900,7.998849853515625,-0.9735870361328125,-0.1723480224609375,-0.0198822021484375
1761915632755903700,8.00890380859375,-0.967498779296875,-0.172943115234375,-0.0213775634765625
1761915632765959000,8.018958984375,-0.9600372314453125,-0.17047119140625,-0.022613525390625
1761915632776012800,8.0290126953125,-0.963226318359375,-0.1671905517578125,-0.0229644775390625
1761915632786066700,8.039066650390625,-0.97662353515625,-0.168365478515625,-0.019622802734375
1761915632796120800,8.049120849609375,-0.9902191162109375,-0.170928955078125,-0.0176849365234375
1761915632806174700,8.0591748046875,-0.9911651611328125,-0.17071533203125,-0.01849365234375
1761915632816228900,8.069228759765625,-0.985443115234375,-0.1682891845703125,-0.0215606689453125
1761915632826282800,8.07928271484375,-0.9773406982421875,-0.1621551513671875,-0.020843505859375
1761915632836337000,8.0893369140625,-0.9756011962890625,-0.1598968505859375,-0.025482177734375
1761915632846390800,8.099390869140626,-0.979400634765625,-0.16119384765625,-0.0302734375
1761915632856445000,8.10944482421875,-0.982757568359375,-0.1608123779296875,-0.029144287109375
1761915632866498800,8.119498779296874,-0.989013671875,-0.162017822265625,-0.0265350341796875
1761915632876553700,8.1295537109375,-0.9941558837890625,-0.161773681640625,-0.0250701904296875
1761915632886608000,8.13960791015625,-0.99285888671875,-0.1602935791015625,-0.02484130859375
1761915632896661800,8.149661865234375,-0.9936370849609375,-0.1575164794921875,-0.0245208740234375
1761915632906716000,8.1597158203125,-0.987091064453125,-0.157989501953125,-0.02532958984375
1761915632916769800,8.169769775390625,-0.9791717529296875,-0.163238525390625,-0.0286865234375
1761915632926824000,8.179823974609375,-0.9724578857421875,-0.170806884765625,-0.0318145751953125
1761915632936877800,8.1898779296875,-0.9643707275390625,-0.1735076904296875,-0.0310211181640625
1761915632946931700,8.199931640625,-0.964385986328125,-0.1765594482421875,-0.0298004150390625
1761915632956985600,8.209985595703126,-0.96954345703125,-0.1757049560546875,-0.02728271484375
1761915632967039700,8.220039794921876,-0.9715728759765625,-0.17431640625,-0.02392578125
1761915632977094000,8.230093994140624,-0.97235107421875,-0.17449951171875,-0.0241546630859375
1761915632987148800,8.240148681640624,-0.975830078125,-0.173828125,-0.02294921875
1761915632997203000,8.250202880859375,-0.9801788330078125,-0.170867919921875,-0.0189056396484375
1761915633007256800,8.2602568359375,-0.982757568359375,-0.1678924560546875,-0.017822265625
1761915633017311000,8.27031103515625,-0.983489990234375,-0.1649932861328125,-0.01739501953125
1761915633027364600,8.280364501953125,-0.984039306640625,-0.1643218994140625,-0.017333984375
1761915633037418800,8.290418701171875,-0.9883880615234375,-0.1676788330078125,-0.017120361328125
1761915633047472600,8.30047265625,-0.9910888671875,-0.1685638427734375,-0.0198211669921875
1761915633057527000,8.310527099609375,-0.98675537109375,-0.16558837890625,-0.021026611328125
1761915633067581000,8.320580810546875,-0.9800872802734375,-0.1627655029296875,-0.021209716796875
1761915633077635000,8.330635009765626,-0.98101806640625,-0.1639556884765625,-0.0205230712890625
1761915633087689000,8.34068896484375,-0.981048583984375,-0.164581298828125,-0.0212249755859375
1761915633097744000,8.350743896484374,-0.975860595703125,-0.1629638671875,-0.0198516845703125
1761915633107798000,8.360798095703124,-0.9731597900390625,-0.164276123046875,-0.02093505859375
1761915633117852000,8.370851806640625,-0.9710540771484375,-0.1665191650390625,-0.0207977294921875
1761915633127906000,8.380906005859375,-0.970916748046875,-0.1725921630859375,-0.0201568603515625
1761915633137960000,8.3909599609375,-0.9713287353515625,-0.1760406494140625,-0.0185546875
1761915633148014000,8.40101416015625,-0.96923828125,-0.1796112060546875,-0.01617431640625
1761915633158068000,8.41106787109375,-0.9697418212890625,-0.1822967529296875,-0.0171966552734375
1761915633168122000,8.4211220703125,-0.9736785888671875,-0.1779327392578125,-0.0194549560546875
1761915633178176000,8.431176025390625,-0.9796295166015625,-0.169219970703125,-0.0181884765625
1761915633188230100,8.441230224609376,-0.982421875,-0.1634368896484375,-0.01806640625
1761915633198285000,8.45128515625,-0.9819488525390625,-0.1618804931640625,-0.0206756591796875
1761915633208339000,8.4613388671875,-0.9781036376953125,-0.1633148193359375,-0.0219268798828125
1761915633218393000,8.47139306640625,-0.9773406982421875,-0.1703338623046875,-0.0223236083984375
1761915633228447000,8.481447021484374,-0.9783477783203125,-0.1752777099609375,-0.02166748046875
1761915633238501000,8.491501220703125,-0.97686767578125,-0.1761627197265625,-0.0185546875
1761915633248555000,8.501554931640625,-0.9743194580078125,-0.1740570068359375,-0.0188751220703125
1761915633258609200,8.511609130859375,-0.9743194580078125,-0.171966552734375,-0.0186004638671875
1761915633268663000,8.5216630859375,-0.97418212890625,-0.1706390380859375,-0.0175323486328125
1761915633278717000,8.531717041015625,-0.9792327880859375,-0.17254638671875,-0.019500732421875
1761915633288770800,8.541770751953125,-0.983795166015625,-0.1711883544921875,-0.01727294921875
1761915633298825000,8.551824951171875,-0.98626708984375,-0.1671142578125,-0.013580322265625
1761915633308880100,8.561880126953126,-0.9873199462890625,-0.168670654296875,-0.010101318359375
1761915633318934000,8.57193408203125,-0.990142822265625,-0.17205810546875,-0.0088348388671875
1761915633328988200,8.58198828125,-0.9884490966796875,-0.173919677734375,-0.011810302734375
1761915633339042000,8.5920419921875,-0.9790496826171875,-0.1734619140625,-0.0149078369140625
1761915633349096000,8.602095947265624,-0.9662017822265625,-0.17010498046875,-0.01544189453125
1761915633359149800,8.61214990234375,-0.9622802734375,-0.1670989990234375,-0.0156707763671875
1761915633369204000,8.622203857421875,-0.9677734375,-0.16986083984375,-0.0184478759765625
1761915633379257900,8.6322578125,-0.968994140625,-0.174285888671875,-0.0173492431640625
1761915633389312000,8.64231201171875,-0.9688262939453125,-0.1788787841796875,-0.014495849609375
1761915633399366100,8.6523662109375,-0.9697265625,-0.18182373046875,-0.0149993896484375
1761915633409420000,8.662419921875,-0.9658966064453125,-0.180816650390625,-0.0189971923828125
1761915633419475200,8.67247509765625,-0.9600372314453125,-0.177154541015625,-0.0250701904296875
1761915633429528800,8.68252880859375,-0.9593963623046875,-0.17572021484375,-0.0272064208984375
1761915633439583000,8.6925830078125,-0.9676971435546875,-0.177734375,-0.0289459228515625
1761915633449636900,8.702636962890624,-0.9747161865234375,-0.1752471923828125,-0.02630615234375
1761915633459691000,8.71269091796875,-0.9760284423828125,-0.168426513671875,-0.025238037109375
1761915633469745000,8.722744873046874,-0.976898193359375,-0.1617584228515625,-0.027923583984375
1761915633479799000,8.732799072265625,-0.9748992919921875,-0.152008056640625,-0.0306243896484375
1761915633489853200,8.742853271484375,-0.9779052734375,-0.142913818359375,-0.032623291015625
1761915633499907000,8.752906982421875,-0.988922119140625,-0.1370086669921875,-0.0290069580078125
1761915633509961200,8.762961181640625,-1.0090484619140625,-0.137939453125,-0.0261383056640625
1761915633520015000,8.77301513671875,-1.02099609375,-0.1438140869140625,-0.0221405029296875
1761915633530070000,8.783070068359375,-1.017486572265625,-0.1508636474609375,-0.0213775634765625
1761915633540124000,8.7931240234375,-1.0034637451171875,-0.157257080078125,-0.02435302734375
1761915633550178000,8.803177978515626,-0.97998046875,-0.1633758544921875,-0.027557373046875
1761915633560232000,8.81323193359375,-0.9632720947265625,-0.170074462890625,-0.0276947021484375
1761915633570286000,8.8232861328125,-0.9595489501953125,-0.177490234375,-0.0260772705078125
1761915633580340000,8.833340087890624,-0.95904541015625,-0.1828460693359375,-0.020721435546875
1761915633590394000,8.84339404296875,-0.9603729248046875,-0.185516357421875,-0.01690673828125
1761915633600448300,8.8534482421875,-0.968597412109375,-0.1882781982421875,-0.0138397216796875
1761915633610502000,8.863501953125,-0.9739532470703125,-0.1879425048828125,-0.0114593505859375
1761915633620556000,8.87355615234375,-0.97137451171875,-0.186676025390625,-0.0106201171875
1761915633630610000,8.88360986328125,-0.9680328369140625,-0.187713623046875,-0.0131988525390625
1761915633640665000,8.8936650390625,-0.9651947021484375,-0.19000244140625,-0.013427734375
1761915633650719000,8.903718994140625,-0.96929931640625,-0.19287109375,-0.0112152099609375
1761915633660773000,8.913773193359376,-0.9753875732421875,-0.192840576171875,-0.0108184814453125
1761915633670827000,8.923826904296876,-0.9805908203125,-0.1884918212890625,-0.0117645263671875
1761915633680881000,8.933880859375,-0.9854736328125,-0.180267333984375,-0.0155487060546875
1761915633690935000,8.94393505859375,-0.9888916015625,-0.1736907958984375,-0.01849365234375
1761915633700989000,8.953989013671874,-0.9891204833984375,-0.16815185546875,-0.0220184326171875
1761915633711043000,8.96404296875,-0.99395751953125,-0.1654052734375,-0.02081298828125
1761915633721097000,8.974096923828125,-0.9933624267578125,-0.1634521484375,-0.01904296875
1761915633731151000,8.984151123046875,-0.9904022216796875,-0.1635894775390625,-0.0237579345703125
1761915633741205000,8.994205078125,-0.9825286865234375,-0.1612701416015625,-0.0245819091796875
1761915633751260200,9.00426025390625,-0.9776611328125,-0.1597137451171875,-0.02569580078125
1761915633761313800,9.014313720703125,-0.977325439453125,-0.1597900390625,-0.02978515625
1761915633771368000,9.024367919921875,-0.9747314453125,-0.1574554443359375,-0.034210205078125
1761915633781422000,9.034422119140626,-0.9711151123046875,-0.1520233154296875,-0.035369873046875
1761915633791476000,9.04447607421875,-0.97491455078125,-0.148284912109375,-0.0345611572265625
1761915633801530000,9.054530029296876,-0.9855804443359375,-0.1489715576171875,-0.0345458984375
1761915633811584000,9.064583984375,-0.9926300048828125,-0.1519012451171875,-0.0340118408203125
1761915633821638100,9.07463818359375,-0.9892578125,-0.1553192138671875,-0.033203125
1761915633831692000,9.084692138671874,-0.9754180908203125,-0.158355712890625,-0.03155517578125
1761915633841746200,9.09474609375,-0.965576171875,-0.1632232666015625,-0.0302886962890625
1761915633851800000,9.104800048828125,-0.9649810791015625,-0.1670684814453125,-0.0294952392578125
1761915633861855000,9.11485498046875,-0.971038818359375,-0.1713104248046875,-0.0240020751953125
1761915633871909000,9.1249091796875,-0.9732208251953125,-0.1723480224609375,-0.0201873779296875
1761915633881963000,9.134962890625,-0.974822998046875,-0.1737823486328125,-0.0204010009765625
1761915633892017200,9.14501708984375,-0.974151611328125,-0.173553466796875,-0.019012451171875
1761915633902071000,9.155071044921876,-0.9722747802734375,-0.1711273193359375,-0.0170745849609375
1761915633912125200,9.165125244140626,-0.9748992919921875,-0.172332763671875,-0.0163421630859375
1761915633922179000,9.175178955078126,-0.976715087890625,-0.176177978515625,-0.014404296875
1761915633932233200,9.185233154296874,-0.975341796875,-0.181610107421875,-0.010772705078125
1761915633942286800,9.195286865234374,-0.9753265380859375,-0.1851348876953125,-0.01123046875
1761915633952341000,9.205341064453124,-0.9776763916015625,-0.1845703125,-0.01068115234375
1761915633962395000,9.215394775390624,-0.9813995361328125,-0.181121826171875,-0.0091400146484375
1761915633972450000,9.225449951171875,-0.983642578125,-0.177520751953125,-0.0077972412109375
1761915633982504200,9.235504150390625,-0.9839630126953125,-0.173980712890625,-0.007598876953125
1761915633992558000,9.24555810546875,-0.9865264892578125,-0.1761474609375,-0.0066986083984375
1761915634002612200,9.2556123046875,-0.991943359375,-0.1764373779296875,-0.006805419921875
1761915634012666000,9.265666015625,-0.992950439453125,-0.171905517578125,-0.0074005126953125
1761915634022720000,9.275719970703125,-0.9886016845703125,-0.1650543212890625,-0.0118255615234375
1761915634032774000,9.28577392578125,-0.9849853515625,-0.1614990234375,-0.018218994140625
1761915634042828000,9.295828125,-0.9898529052734375,-0.16229248046875,-0.020263671875
1761915634052882000,9.3058818359375,-0.990875244140625,-0.161773681640625,-0.020355224609375
1761915634062935300,9.315935302734376,-0.9937591552734375,-0.1634521484375,-0.021331787109375
1761915634072989200,9.3259892578125,-0.996673583984375,-0.1672821044921875,-0.020660400390625
1761915634083044400,9.33604443359375,-0.9929962158203125,-0.1683807373046875,-0.018768310546875
1761915634093098200,9.34609814453125,-0.9865264892578125,-0.169952392578125,-0.0200958251953125
1761915634103152400,9.35615234375,-0.9772796630859375,-0.1705474853515625,-0.0203399658203125
1761915634113206300,9.366206298828125,-0.96624755859375,-0.173858642578125,-0.0224456787109375
1761915634123260200,9.37626025390625,-0.9586944580078125,-0.176788330078125,-0.0219268798828125
1761915634133314300,9.386314208984375,-0.957733154296875,-0.1761932373046875,-0.0197296142578125
1761915634143368200,9.3963681640625,-0.9633331298828125,-0.1757659912109375,-0.0175933837890625
1761915634153422300,9.40642236328125,-0.968902587890625,-0.17626953125,-0.016357421875
1761915634163476200,9.416476318359376,-0.9735260009765625,-0.1766357421875,-0.01629638671875
1761915634173530400,9.4265302734375,-0.97650146484375,-0.178436279296875,-0.01593017578125
1761915634183584300,9.436584228515626,-0.9765777587890625,-0.1791534423828125,-0.0157318115234375
1761915634193639200,9.44663916015625,-0.973358154296875,-0.177520751953125,-0.01556396484375
1761915634203693300,9.456693359375,-0.9673614501953125,-0.176971435546875,-0.0171051025390625
1761915634213747200,9.466747314453125,-0.962188720703125,-0.1786651611328125,-0.0178070068359375
1761915634223801300,9.47680126953125,-0.964385986328125,-0.179443359375,-0.019927978515625
1761915634233855200,9.486855224609375,-0.970855712890625,-0.1807098388671875,-0.01824951171875
1761915634243909400,9.496909423828125,-0.973419189453125,-0.1812591552734375,-0.018341064453125
1761915634253963300,9.50696337890625,-0.96771240234375,-0.179962158203125,-0.021728515625
1761915634264017400,9.517017333984375,-0.9619293212890625,-0.177093505859375,-0.024658203125
1761915634274071300,9.5270712890625,-0.9669189453125,-0.1678924560546875,-0.02447509765625
1761915634284125400,9.53712548828125,-0.98431396484375,-0.162384033203125,-0.0204010009765625
1761915634294179300,9.547179443359376,-1.0017242431640625,-0.163543701171875,-0.016326904296875
1761915634304234200,9.557234130859374,-1.003875732421875,-0.1663818359375,-0.0166473388671875
1761915634314288400,9.567288330078124,-0.9889984130859375,-0.1690216064453125,-0.017333984375
1761915634324342300,9.57734228515625,-0.97601318359375,-0.17059326171875,-0.0203094482421875
1761915634334396400,9.587396484375,-0.9686737060546875,-0.1723175048828125,-0.02166748046875
1761915634344450300,9.5974501953125,-0.969482421875,-0.1729888916015625,-0.0191497802734375
1761915634354504400,9.60750439453125,-0.9713592529296875,-0.176666259765625,-0.0149383544921875
1761915634364558300,9.617558349609375,-0.97210693359375,-0.177764892578125,-0.016082763671875
1761915634374612200,9.6276123046875,-0.9740447998046875,-0.177825927734375,-0.01690673828125
1761915634384666000,9.637666015625,-0.976165771484375,-0.1766815185546875,-0.0161590576171875
1761915634394720300,9.64772021484375,-0.978607177734375,-0.177001953125,-0.0151519775390625
1761915634404774100,9.657774169921876,-0.9798431396484375,-0.1779327392578125,-0.0144195556640625
1761915634414829300,9.667829345703124,-0.9803619384765625,-0.17938232421875,-0.014373779296875
1761915634424883500,9.677883544921874,-0.9766998291015625,-0.18218994140625,-0.0136871337890625
1761915634434937300,9.687937255859374,-0.97430419921875,-0.1862335205078125,-0.0131683349609375
1761915634444991200,9.6979912109375,-0.9703216552734375,-0.185546875,-0.0150146484375
1761915634455045000,9.708045166015625,-0.9678802490234375,-0.1822509765625,-0.01519775390625
1761915634465099300,9.718099365234375,-0.9709014892578125,-0.18035888671875,-0.01275634765625
1761915634475153200,9.728153076171875,-0.9732818603515625,-0.178985595703125,-0.0134735107421875
1761915634485207300,9.738207275390625,-0.9762725830078125,-0.17987060546875,-0.014495849609375
1761915634495261200,9.74826123046875,-0.975250244140625,-0.17926025390625,-0.0137939453125
1761915634505315300,9.7583154296875,-0.975555419921875,-0.178070068359375,-0.014404296875
1761915634515369200,9.768369140625,-0.9794921875,-0.17645263671875,-0.0152740478515625
1761915634525424000,9.778424072265626,-0.9855194091796875,-0.1747894287109375,-0.0145721435546875
1761915634535478300,9.788478271484376,-0.984375,-0.17138671875,-0.01385498046875
1761915634545532200,9.7985322265625,-0.9779510498046875,-0.1707916259765625,-0.0157928466796875
1761915634555586300,9.80858642578125,-0.9737548828125,-0.1707305908203125,-0.0158233642578125
1761915634565640200,9.81864013671875,-0.9698638916015625,-0.1735687255859375,-0.0169677734375
1761915634575694300,9.8286943359375,-0.9735565185546875,-0.177337646484375,-0.0189666748046875
1761915634585748200,9.838748291015625,-0.9767303466796875,-0.1786346435546875,-0.01763916015625
1761915634595802400,9.84880224609375,-0.9781341552734375,-0.178070068359375,-0.0177001953125
1761915634605856300,9.858856201171875,-0.975982666015625,-0.178070068359375,-0.0190277099609375
1761915634615910400,9.868910400390625,-0.9732818603515625,-0.17669677734375,-0.0180511474609375
1761915634625964300,9.87896435546875,-0.9727783203125,-0.17584228515625,-0.0155029296875
1761915634636019200,9.889019287109376,-0.9794158935546875,-0.17822265625,-0.014495849609375
1761915634646073300,9.8990732421875,-0.9784393310546875,-0.1804046630859375,-0.013427734375
1761915634656127200,9.909127197265626,-0.9733123779296875,-0.180023193359375,-0.0163421630859375
1761915634666179000,9.919178955078126,-0.9741058349609375,-0.17767333984375,-0.017547607421875
1761915634676233200,9.929233154296876,-0.9759063720703125,-0.1745147705078125,-0.01654052734375
1761915634686287000,9.939287109375,-0.9810638427734375,-0.1735382080078125,-0.0155181884765625
1761915634696342300,9.94934228515625,-0.97705078125,-0.172943115234375,-0.0169219970703125
1761915634706396400,9.959396484375,-0.968414306640625,-0.1728057861328125,-0.0229339599609375
1761915634716450300,9.9694501953125,-0.95635986328125,-0.174163818359375,-0.024993896484375
1761915634726504400,9.97950439453125,-0.954132080078125,-0.176971435546875,-0.029541015625
1761915634736558000,9.98955810546875,-0.96209716796875,-0.1789703369140625,-0.0267333984375
1761915634746612200,9.9996123046875,-0.9723052978515625,-0.1787109375,-0.0201416015625
1761915634756666000,10.009666015625,-0.985626220703125,-0.1751861572265625,-0.014129638671875
1761915634766720300,10.01972021484375,-0.98968505859375,-0.172637939453125,-0.015350341796875
1761915634776774100,10.029774169921875,-0.9798736572265625,-0.172576904296875,-0.0209197998046875
1761915634786828300,10.039828369140626,-0.9683837890625,-0.17333984375,-0.027801513671875
1761915634796882400,10.04988232421875,-0.963470458984375,-0.1738433837890625,-0.0290679931640625
1761915634806937300,10.059937255859374,-0.9638824462890625,-0.1753692626953125,-0.0253448486328125
1761915634816991200,10.0699912109375,-0.9719696044921875,-0.1757965087890625,-0.0195770263671875
1761915634827045000,10.080045166015625,-0.9835968017578125,-0.177093505859375,-0.01220703125
1761915634837099300,10.090099365234375,-0.988739013671875,-0.177734375,-0.0096282958984375
1761915634847153200,10.100153076171875,-0.9843902587890625,-0.1793975830078125,-0.0102996826171875
1761915634857207300,10.110207275390625,-0.975067138671875,-0.179779052734375,-0.0143585205078125
1761915634867261200,10.12026123046875,-0.9645538330078125,-0.1818695068359375,-0.021514892578125
1761915634877315300,10.1303154296875,-0.9635162353515625,-0.180419921875,-0.022979736328125
1761915634887369500,10.140369384765625,-0.9871368408203125,-0.1783294677734375,-0.01483154296875
1761915634897423400,10.15042333984375,-1.02655029296875,-0.177490234375,-0.0049896240234375
1761915634907477500,10.1604775390625,-1.043792724609375,-0.1771240234375,-0.004119873046875
1761915634917531100,10.17053125,-1.0193023681640625,-0.1744232177734375,-0.0061798095703125
1761915634927586300,10.18058642578125,-0.9566192626953125,-0.185150146484375,-0.0302581787109375
1761915634937640200,10.19064013671875,-0.9132080078125,-0.189849853515625,-0.0508575439453125
1761915634947694300,10.2006943359375,-0.905731201171875,-0.18463134765625,-0.043060302734375
1761915634957748200,10.210748291015625,-0.954010009765625,-0.179412841796875,-0.0369415283203125
1761915634967802400,10.22080224609375,-1.000640869140625,-0.1753997802734375,-0.0305633544921875
1761915634977856300,10.230856201171875,-1.000640869140625,-0.1660614013671875,-0.030487060546875
