time,seconds_elapsed,z,y,x
1761915624813190100,0.066190185546875,0.005139634478837252,0.03979108855128288,-0.02930595725774765
1761915624823244300,0.076244384765625,0.035537488758563995,0.05194175988435745,0.019831495359539986
1761915624833298200,0.086298095703125,0.06270359456539154,0.04117513447999954,0.05145573243498802
1761915624843352300,0.096352294921875,0.06892260909080505,0.03642165660858154,0.06415821611881256
1761915624853406200,0.10640625,0.06017705425620079,0.044670797884464264,0.06211130693554878
1761915624863460400,0.11646044921875,0.0479145273566246,0.0552281029522419,0.04237275570631027
1761915624873514200,0.12651416015625,0.03556012362241745,0.03431030362844467,0.012941897846758366
1761915624883569200,0.136569091796875,0.028623921796679497,-0.025786323472857475,-0.027640415355563164
1761915624893623300,0.146623291015625,0.022035794332623482,-0.08705926686525345,-0.0700688362121582
1761915624903677200,0.15667724609375,0.028499284759163857,-0.11851199716329575,-0.10169760137796402
1761915624913731300,0.1667314453125,0.039559926837682724,-0.11452604830265045,-0.11945156008005142
1761915624923785200,0.17678515625,0.06303329765796661,-0.10093620419502258,-0.10543454438447952
1761915624933839400,0.18683935546875,0.07528010755777359,-0.09213525056838989,-0.06958919763565063
1761915624943893200,0.196893310546875,0.07868549227714539,-0.0897354781627655,-0.02484063431620598
1761915624953947400,0.206947509765625,0.08570504933595657,-0.08982549607753754,0.011050786823034286
1761915624964001300,0.217001220703125,0.10485903918743134,-0.08145783841609955,0.02847212180495262
1761915624974055200,0.22705517578125,0.13092179596424103,-0.030104106292128563,0.02070661075413227
1761915624984109000,0.237109130859375,0.1477886587381363,0.032696161419153214,0.013315006159245968
1761915624994163200,0.2471630859375,0.14383919537067413,0.09434807300567627,0.012860405258834362
1761915625004217300,0.25721728515625,0.1321236789226532,0.11057444661855698,0.02287202700972557
1761915625014271200,0.267271240234375,0.11797643452882767,0.10554080456495285,0.03476863354444504
1761915625024325400,0.277325439453125,0.11532073467969894,0.08712770789861679,0.029921680688858032
1761915625034379300,0.287379150390625,0.1234942376613617,0.07890360057353973,0.006313289515674114
1761915625044429000,0.297428955078125,0.14261546730995178,0.054365769028663635,-0.024150077253580093
1761915625054483000,0.30748291015625,0.14613643288612366,0.019353192299604416,-0.05510799214243889
1761915625064538000,0.3175380859375,0.14793699979782104,-0.021044299006462097,-0.0785781666636467
1761915625074592000,0.327592041015625,0.13541720807552338,-0.059833772480487823,-0.08423418551683426
1761915625084646000,0.33764599609375,0.11356331408023834,-0.09418641775846481,-0.07879681140184402
1761915625094700000,0.347699951171875,0.08849257975816727,-0.13077585399150848,-0.06440988183021545
1761915625104754000,0.35775390625,0.06654760241508484,-0.17217309772968292,-0.05715649574995041
1761915625114808000,0.36780810546875,0.048402152955532074,-0.18413680791854858,-0.06336645781993866
1761915625124862000,0.377862060546875,0.028243089094758034,-0.2073340117931366,-0.06205112114548683
1761915625134916000,0.387916015625,0.004292216617614031,-0.2632902264595032,-0.050165966153144836
1761915625144970000,0.397969970703125,-0.019535884261131287,-0.31543970108032227,-0.021762020885944366
1761915625155024100,0.408024169921875,-0.054905060678720474,-0.33349329233169556,0.049664225429296494
1761915625165078000,0.418078125,-0.08613595366477966,-0.3805300295352936,0.15155969560146332
1761915625175132200,0.428132080078125,-0.10932915657758713,-0.4262668788433075,0.2568299174308777
1761915625185185800,0.438185791015625,-0.1313319206237793,-0.43323877453804016,0.3611384928226471
1761915625195240000,0.448239990234375,-0.16636741161346436,-0.43249228596687317,0.4678896963596344
1761915625205294000,0.458294189453125,-0.2176484316587448,-0.4597873091697693,0.5767669081687927
1761915625215348000,0.468347900390625,-0.2821936011314392,-0.5129637122154236,0.6641774773597717
1761915625225402000,0.478402099609375,-0.33397477865219116,-0.6065157651901245,0.696144163608551
1761915625235457000,0.48845703125,-0.3766665756702423,-0.6938802003860474,0.6607366800308228
1761915625245511200,0.49851123046875,-0.40411126613616943,-0.7790853977203369,0.5716440677642822
1761915625255565000,0.50856494140625,-0.36418062448501587,-0.8407623171806335,0.4688867926597595
1761915625265619000,0.518618896484375,-0.2787485420703888,-0.8137621283531189,0.3727453351020813
1761915625275672800,0.5286728515625,-0.20744746923446655,-0.632026195526123,0.31878677010536194
1761915625285727000,0.53872705078125,-0.22304639220237732,-0.43283024430274963,0.32784125208854675
1761915625295781000,0.548781005859375,-0.3043029010295868,-0.3774554133415222,0.407287061214447
1761915625305835000,0.5588349609375,-0.4061296582221985,-0.4277215003967285,0.5155360698699951
1761915625315889200,0.56888916015625,-0.5071580410003662,-0.49813202023506165,0.6110865473747253
1761915625325943000,0.578943115234375,-0.583458662033081,-0.5549556016921997,0.6567406058311462
1761915625335997200,0.5889970703125,-0.6254652142524719,-0.5902246832847595,0.634950578212738
1761915625346051000,0.599051025390625,-0.6270527243614197,-0.5645238161087036,0.5567852258682251
1761915625356105200,0.609105224609375,-0.6236529350280762,-0.48746660351753235,0.44872960448265076
1761915625366158800,0.619158935546875,-0.6071703433990479,-0.4461663067340851,0.3515918552875519
1761915625376213000,0.629212890625,-0.635689914226532,-0.48444443941116333,0.29141560196876526
1761915625386267000,0.639266845703125,-0.6872106194496155,-0.5995010137557983,0.255678653717041
1761915625396322000,0.649322021484375,-0.7379305362701416,-0.724982500076294,0.22497107088565826
1761915625406376200,0.659376220703125,-0.7504838705062866,-0.7958148717880249,0.1797143667936325
1761915625416430000,0.66943017578125,-0.6998347640037537,-0.7092607617378235,0.1262596696615219
1761915625426484200,0.679484130859375,-0.6130391955375671,-0.4816854000091553,0.0868624597787857
1761915625436537900,0.689537841796875,-0.49953871965408325,-0.2670663297176361,0.0838184654712677
1761915625446592000,0.699592041015625,-0.37954065203666687,-0.14830903708934784,0.10229095071554184
1761915625456646000,0.70964599609375,-0.2610752582550049,-0.12893587350845337,0.11822038143873215
1761915625466700000,0.719699951171875,-0.14283572137355804,-0.15385161340236664,0.10512242466211319
1761915625476754000,0.72975390625,-0.0667601227760315,-0.1877581775188446,0.05861058086156845
1761915625486808000,0.73980810546875,0.008591357618570328,-0.17147961258888245,-0.006043777801096439
1761915625496862000,0.749862060546875,0.07001850008964539,-0.06987947970628738,-0.06479310989379883
1761915625506916000,0.759916015625,0.08410076051950455,0.08351913094520569,-0.10600952059030533
1761915625516970000,0.769969970703125,0.050939347594976425,0.19878153502941132,-0.11777190864086151
1761915625527024000,0.780024169921875,0.0006340986583381891,0.21145844459533691,-0.11383655667304993
1761915625537078000,0.790078125,-0.055085357278585434,0.29751449823379517,-0.16828061640262604
1761915625547132000,0.8001318359375,-0.0287054143846035,0.34705597162246704,-0.25484907627105713
1761915625557186000,0.81018603515625,0.026324814185500145,0.29067257046699524,-0.3476399779319763
1761915625567241000,0.820240966796875,0.09571321308612823,0.29363587498664856,-0.4591588079929352
1761915625577295000,0.830295166015625,0.17885762453079224,0.2714381515979767,-0.5473701357841492
1761915625587349000,0.840348876953125,0.23318451642990112,0.19235186278820038,-0.5665550231933594
1761915625597403100,0.850403076171875,0.21953634917736053,0.09840113669633865,-0.5136284232139587
1761915625607457000,0.86045703125,0.19387413561344147,0.04030294716358185,-0.45753026008605957
1761915625617511000,0.870510986328125,0.16735969483852386,-0.0021667478140443563,-0.4163189232349396
1761915625627565000,0.88056494140625,0.14034965634346008,-0.045937664806842804,-0.39127108454704285
1761915625637619000,0.890618896484375,0.1383080780506134,-0.06339175254106522,-0.39772099256515503
1761915625647673000,0.900673095703125,0.17448870837688446,-0.0405423678457737,-0.41859325766563416
1761915625657727000,0.91072705078125,0.21951104700565338,0.009824667125940323,-0.43091943860054016
1761915625667781000,0.920781005859375,0.26181164383888245,0.018552912399172783,-0.4120354950428009
1761915625677835000,0.9308349609375,0.30060988664627075,0.027236415073275566,-0.3797513246536255
1761915625687889200,0.94088916015625,0.31844615936279297,0.07381962984800339,-0.3336600065231323
1761915625697943000,0.950943115234375,0.32820558547973633,0.15375015139579773,-0.2716858386993408
1761915625707997200,0.9609970703125,0.3368227779865265,0.2310183048248291,-0.21350589394569397
1761915625718051000,0.971051025390625,0.3643782138824463,0.3398723602294922,-0.16990728676319122
1761915625728106000,0.98110595703125,0.3721088469028473,0.4308893382549286,-0.13993819057941437
1761915625738160000,0.99116015625,0.3355039656162262,0.5625629425048828,-0.11349619925022125
1761915625748214000,1.001214111328125,0.28912633657455444,0.6675484776496887,-0.08107247948646545
1761915625758268200,1.01126806640625,0.2620401382446289,0.6572582721710205,-0.045577071607112885
1761915625768322000,1.021322021484375,0.24167680740356445,0.6272508502006531,-0.02792910300195217
1761915625778376200,1.031376220703125,0.2376841902732849,0.5832261443138123,-0.05071963742375374
1761915625788430000,1.04143017578125,0.22985637187957764,0.5085556507110596,-0.09696169942617416
1761915625798484000,1.05148388671875,0.21483373641967773,0.39772897958755493,-0.1541469544172287
1761915625808537900,1.061537841796875,0.2865087389945984,0.22570183873176575,-0.18504175543785095
1761915625818592000,1.071592041015625,0.35152316093444824,0.1755358725786209,-0.21430057287216187
1761915625828646000,1.08164599609375,0.3912005126476288,0.221163809299469,-0.24977627396583557
1761915625838700000,1.091699951171875,0.40556347370147705,0.3011268079280853,-0.2959064841270447
1761915625848754000,1.10175390625,0.4083547294139862,0.37232908606529236,-0.3368123769760132
1761915625858808000,1.11180810546875,0.37140604853630066,0.4121913015842438,-0.37885782122612
1761915625868862000,1.121862060546875,0.28011634945869446,0.42226308584213257,-0.3781435787677765
1761915625878916000,1.131916015625,0.15012824535369873,0.31449881196022034,-0.321845680475235
1761915625888970200,1.14197021484375,0.0340554378926754,0.1193556860089302,-0.23291847109794617
1761915625899025000,1.15202490234375,-0.045650310814380646,-0.06784030050039291,-0.13566061854362488
1761915625909079000,1.1620791015625,-0.08791520446538925,-0.18930627405643463,-0.05669230595231056
1761915625919133000,1.1721328125,-0.10208535194396973,-0.21763858199119568,-0.005368932615965605
1761915625929187000,1.18218701171875,-0.11066446453332901,-0.14829865097999573,0.028500083833932877
1761915625939241000,1.192240966796875,-0.1343226581811905,0.006589192897081375,0.06457260251045227
1761915625949295000,1.202295166015625,-0.18867351114749908,0.10693390667438507,0.13919144868850708
1761915625959349000,1.212348876953125,-0.2670215666294098,0.12897822260856628,0.2691134810447693
1761915625969403100,1.222403076171875,-0.34008699655532837,0.08666698634624481,0.41424164175987244
1761915625979457000,1.23245703125,-0.380350798368454,0.00490181427448988,0.5326974391937256
1761915625989511000,1.242510986328125,-0.3968842327594757,-0.06871648132801056,0.5970543622970581
1761915625999565000,1.25256494140625,-0.3897799849510193,-0.1318158209323883,0.6009436249732971
1761915626009619000,1.262618896484375,-0.3786833882331848,-0.13944098353385925,0.5570885539054871
1761915626019673000,1.272673095703125,-0.3494725227355957,-0.060379721224308014,0.47197631001472473
1761915626029727000,1.28272705078125,-0.3064613938331604,-0.018928684294223785,0.40165793895721436
1761915626039781000,1.292781005859375,-0.26100867986679077,0.09962060302495956,0.33269086480140686
1761915626049835800,1.302835693359375,-0.234988272190094,0.18133597075939178,0.27288877964019775
1761915626059890700,1.312890625,-0.23758326470851898,0.2053571492433548,0.2244083434343338
1761915626069944600,1.322944580078125,-0.25454652309417725,0.21315622329711914,0.18684950470924377
1761915626079998700,1.332998779296875,-0.2674729824066162,0.23317094147205353,0.1572335660457611
1761915626090052600,1.343052490234375,-0.2592589855194092,0.22060666978359222,0.13465581834316254
1761915626100106800,1.353106689453125,-0.23336242139339447,0.17802725732326508,0.1305215209722519
1761915626110160600,1.36316064453125,-0.1849176585674286,0.1333782970905304,0.11495321989059448
1761915626120214800,1.37321484375,-0.13092392683029175,0.14173556864261627,0.08268182724714279
1761915626130269000,1.38326904296875,-0.0735170915722847,0.19069911539554596,0.04526255279779434
1761915626140322600,1.393322509765625,-0.028204739093780518,0.2270485907793045,0.023015037178993225
1761915626150376700,1.403376708984375,-0.016753412783145905,0.2183419167995453,0.02600204013288021
1761915626160430600,1.4134306640625,-0.030759509652853012,0.1766221672296524,0.04030214995145798
1761915626170484700,1.423484619140625,-0.04586735740303993,0.09874735027551651,0.06151342764496803
1761915626180538600,1.43353857421875,-0.054837148636579514,-0.0007129282457754016,0.06539445370435715
1761915626190592800,1.4435927734375,-0.05407681688666344,-0.02652774751186371,0.061698783189058304
1761915626200646700,1.453646728515625,-0.04797365143895149,0.0002681803307496011,0.04357703775167465
1761915626210700800,1.46370068359375,-0.026799922809004784,-0.008868859149515629,0.020362263545393944
1761915626220755500,1.47375537109375,-0.01330142468214035,-0.04436400160193443,0.0007904262165538967
1761915626230809600,1.4838095703125,0.0015515576815232635,-0.1112666055560112,-0.01623542793095112
1761915626240863700,1.49386376953125,0.004708468914031982,-0.21942263841629028,-0.03178402781486511
1761915626250917600,1.503917724609375,0.00015659387281630188,-0.365555077791214,-0.014672419987618923
1761915626260971800,1.5139716796875,-0.022725818678736687,-0.5037848353385925,0.04213200882077217
1761915626271025700,1.524025634765625,-0.08305493742227554,-0.574941873550415,0.11441872268915176
1761915626281079800,1.534079833984375,-0.12105851620435715,-0.5179169178009033,0.18130721151828766
1761915626291133700,1.5441337890625,-0.13083525002002716,-0.41799989342689514,0.19423605501651764
1761915626301187800,1.554187744140625,-0.12516164779663086,-0.2629051208496094,0.1559043824672699
1761915626311241700,1.56424169921875,-0.1304118037223816,-0.13762524724006653,0.09680004417896271
1761915626321295600,1.574295654296875,-0.13622309267520905,-0.12205933034420013,0.04139910638332367
1761915626331349500,1.584349609375,-0.135165274143219,-0.20976947247982025,0.006997455842792988
1761915626341403600,1.594403564453125,-0.1430990993976593,-0.36220693588256836,-0.017017066478729248
1761915626351457500,1.60445751953125,-0.11418969184160233,-0.5085596442222595,-0.041481662541627884
1761915626361511700,1.61451171875,-0.04200843721628189,-0.547761082649231,-0.08332151919603348
1761915626371565600,1.624565673828125,0.028295287862420082,-0.4680095314979553,-0.1319633573293686
1761915626381620700,1.634620849609375,0.05975760519504547,-0.3651718497276306,-0.13584518432617188
1761915626391675000,1.6446748046875,0.032695893198251724,-0.3037335276603699,-0.06541202962398529
1761915626401728500,1.654728515625,-0.047202132642269135,-0.28431668877601624,0.07997925579547882
1761915626411782700,1.66478271484375,-0.15279807150363922,-0.3020155131816864,0.2755889594554901
1761915626421836500,1.67483642578125,-0.24485422670841217,-0.3512842655181885,0.4621537923812866
1761915626431890700,1.684890625,-0.310146689414978,-0.42374274134635925,0.588776171207428
1761915626441944600,1.694944580078125,-0.393312931060791,-0.549915075302124,0.6610578298568726
1761915626451998700,1.704998779296875,-0.5043123960494995,-0.7406501173973083,0.6617920398712158
1761915626462052600,1.715052490234375,-0.5954849720001221,-0.9001753330230713,0.5708917379379272
1761915626472106800,1.725106689453125,-0.6356411576271057,-0.9860575199127197,0.39622750878334045
1761915626482161000,1.735160888671875,-0.6075688004493713,-1.0061619281768799,0.1978078931570053
1761915626492214800,1.74521484375,-0.5557170510292053,-1.1340997219085693,0.058334145694971085
1761915626502268700,1.7552685546875,-0.5152023434638977,-1.3250845670700073,-0.001139300293289125
1761915626512322600,1.765322509765625,-0.4529573619365692,-1.36771559715271,-0.015626363456249237
1761915626522376700,1.775376708984375,-0.331857293844223,-1.1201673746109009,-0.001597630325704813
1761915626532430600,1.7854306640625,-0.18825699388980865,-0.7143956422805786,0.03248843550682068
1761915626542484700,1.795484619140625,-0.05612745136022568,-0.2952348291873932,0.09737022966146469
1761915626552539600,1.80553955078125,0.03765629976987839,0.034397389739751816,0.1870388686656952
1761915626562593800,1.81559375,0.0859503298997879,0.27740123867988586,0.260049432516098
1761915626572648000,1.82564794921875,0.09737075865268707,0.4514247179031372,0.28973859548568726
1761915626582701600,1.83570166015625,0.09255629777908325,0.5540218949317932,0.25903528928756714
1761915626592755700,1.845755615234375,0.08971630036830902,0.741649866104126,0.16295109689235687
1761915626602809600,1.8558095703125,0.1195807233452797,0.7986931800842285,0.07593764364719391
1761915626612863700,1.86586376953125,0.17366527020931244,0.7941240072250366,-0.00029348034877330065
1761915626622917600,1.875917724609375,0.2353757619857788,0.7462848424911499,-0.08017046749591827
1761915626632971800,1.8859716796875,0.27695730328559875,0.6472136378288269,-0.17995671927928925
1761915626643025700,1.896025634765625,0.2939535975456238,0.5697097778320312,-0.29961201548576355
1761915626653079800,1.906079833984375,0.2978058457374573,0.5436345338821411,-0.4237877428531647
1761915626663133700,1.9161337890625,0.30368584394454956,0.5714504718780518,-0.497060090303421
1761915626673187800,1.926187744140625,0.3341822326183319,0.5340966582298279,-0.47123169898986816
1761915626683241700,1.93624169921875,0.3703157305717468,0.4581209719181061,-0.38733893632888794
1761915626693295600,1.946295654296875,0.3808671832084656,0.40898722410202026,-0.3006165623664856
1761915626703349500,1.956349609375,0.34971484541893005,0.38471758365631104,-0.2344156950712204
1761915626713404700,1.96640478515625,0.3031790554523468,0.3473859131336212,-0.21563029289245605
1761915626723458800,1.976458740234375,0.282731831073761,0.29737550020217896,-0.24211250245571136
1761915626733512700,1.9865126953125,0.29100894927978516,0.27208131551742554,-0.2858293652534485
1761915626743566800,1.99656689453125,0.30931949615478516,0.2896091938018799,-0.29863250255584717
1761915626753620700,2.006620849609375,0.3273043632507324,0.3314026892185211,-0.28275978565216064
1761915626763674600,2.016674560546875,0.3350943624973297,0.3944613039493561,-0.24799010157585144
1761915626773728500,2.026728515625,0.3526323437690735,0.5301546454429626,-0.21878108382225037
1761915626783782700,2.03678271484375,0.4003410339355469,0.6643465757369995,-0.19569173455238342
1761915626793836500,2.04683642578125,0.4781322181224823,0.7441937327384949,-0.1770046055316925
1761915626803890700,2.056890625,0.576292872428894,0.8279858231544495,-0.17294993996620178
1761915626813944600,2.066944580078125,0.6678597927093506,0.926875114440918,-0.1757792830467224
1761915626823998700,2.076998779296875,0.7351434826850891,1.0829507112503052,-0.1847621202468872
1761915626834052900,2.087052978515625,0.7928922772407532,1.138022780418396,-0.1718953251838684
1761915626844106800,2.097106689453125,0.7664247155189514,1.0856668949127197,-0.13123205304145813
1761915626854161000,2.107160888671875,0.6846718192100525,0.9614748954772949,-0.10211332142353058
1761915626864214800,2.11721484375,0.5889114737510681,0.8088845610618591,-0.10596824437379837
1761915626874269700,2.127269775390625,0.5020652413368225,0.6887885332107544,-0.16030073165893555
1761915626884323600,2.137323486328125,0.43291813135147095,0.6390718221664429,-0.272534042596817
1761915626894377700,2.147377685546875,0.38107943534851074,0.6325441598892212,-0.41777992248535156
1761915626904431600,2.157431640625,0.34088408946990967,0.5654873847961426,-0.5448002219200134
1761915626914485800,2.16748583984375,0.2996532917022705,0.3387961685657501,-0.6171143651008606
1761915626924540000,2.177539794921875,0.25947096943855286,0.0868251770734787,-0.6428769826889038
1761915626934593800,2.18759375,0.2113093137741089,-0.07093196362257004,-0.6265944242477417
1761915626944647700,2.197647705078125,0.15901228785514832,-0.17057733237743378,-0.5748254656791687
1761915626954701600,2.20770166015625,0.09528391063213348,-0.23414751887321472,-0.4980233609676361
1761915626964755700,2.217755615234375,0.028597556054592133,-0.2646907866001129,-0.4129500091075897
1761915626974809600,2.2278095703125,-0.04075435549020767,-0.2943357527256012,-0.3284527063369751
1761915626984863700,2.23786376953125,-0.10590726137161255,-0.29577547311782837,-0.2394525408744812
1761915626994917600,2.247917724609375,-0.1469484269618988,-0.29133570194244385,-0.15829190611839294
1761915627004971800,2.2579716796875,-0.15955157577991486,-0.25245195627212524,-0.08467280864715576
1761915627015025700,2.268025634765625,-0.15727616846561432,-0.1888042688369751,-0.021931132301688194
1761915627025080600,2.27808056640625,-0.14765790104866028,-0.12487509101629257,0.0435730442404747
1761915627035134700,2.288134765625,-0.14196859300136566,-0.0474972128868103,0.10630806535482407
1761915627045188600,2.298188720703125,-0.14257259666919708,-0.008117581717669964,0.16470958292484283
1761915627055246800,2.308246826171875,-0.14548556506633759,0.01344683300703764,0.19751201570034027
1761915627065300700,2.31830078125,-0.14656999707221985,0.015116368420422077,0.2113516628742218
1761915627075355000,2.32835498046875,-0.1462687999010086,0.0022037657909095287,0.20333394408226013
1761915627085408800,2.33840869140625,-0.13758982717990875,-0.005056277383118868,0.1895797848701477
1761915627095463000,2.348462890625,-0.13135536015033722,0.005071457475423813,0.17347218096256256
1761915627105516800,2.358516845703125,-0.12564288079738617,0.03543549031019211,0.1647878885269165
1761915627115570700,2.36857080078125,-0.11619691550731659,0.06527620553970337,0.16199076175689697
1761915627125624800,2.378624755859375,-0.11311990022659302,0.09638246148824692,0.1643359512090683
1761915627135678700,2.3886787109375,-0.12164946645498276,0.12195999175310135,0.17402133345603943
1761915627145732900,2.39873291015625,-0.13157719373703003,0.11671382933855057,0.18373015522956848
1761915627155786800,2.408786865234375,-0.13569338619709015,0.10255274176597595,0.1903531700372696
1761915627165841000,2.4188408203125,-0.13661590218544006,0.07507078349590302,0.19440196454524994
1761915627175894800,2.428894775390625,-0.14321547746658325,0.040341299027204514,0.19110257923603058
1761915627185949700,2.43894970703125,-0.14730316400527954,0.014671620912849903,0.16656741499900818
1761915627196003600,2.449003662109375,-0.1367810219526291,0.006484264507889748,0.12918834388256073
1761915627206057700,2.4590576171875,-0.10560338944196701,0.015335546806454659,0.08489278703927994
1761915627216111600,2.469111572265625,-0.07451604306697845,0.026166623458266258,0.04290192574262619
1761915627226165800,2.479165771484375,-0.04910549521446228,0.010040650144219398,0.0070219566114246845
1761915627236220000,2.489219970703125,-0.03575027361512184,-0.020561467856168747,-0.020649084821343422
1761915627246273800,2.499273681640625,-0.01631079614162445,-0.06090595945715904,-0.04008004069328308
1761915627256328000,2.509327880859375,-0.0021470405627042055,-0.07932731509208679,-0.055027831345796585
1761915627266381800,2.5193818359375,0.008539692498743534,-0.08351673185825348,-0.056833188980817795
1761915627276436000,2.52943603515625,0.01589241437613964,-0.06922860443592072,-0.05880472809076309
1761915627286489600,2.539489501953125,0.026922959834337234,-0.039811328053474426,-0.06563413888216019
1761915627296543700,2.549543701171875,0.02978852204978466,-0.0012634035665541887,-0.07728573679924011
1761915627306597600,2.55959765625,0.02509310282766819,0.029152026399970055,-0.0870337039232254
1761915627316651800,2.56965185546875,0.03178376331925392,0.06161889061331749,-0.08771120756864548
1761915627326705700,2.57970556640625,0.05355057492852211,0.07568996399641037,-0.07995608448982239
1761915627336760800,2.5897607421875,0.07407848536968231,0.06323569267988205,-0.06079703941941261
1761915627346815000,2.59981494140625,0.0788159891963005,0.028985045850276947,-0.03105458803474903
1761915627356868900,2.609868896484375,0.07360577583312988,-0.008668589405715466,-0.005533515941351652
1761915627366922800,2.6199228515625,0.05795224756002426,-0.032405078411102295,0.00640916358679533
1761915627376976600,2.6299765625,0.034528948366642,-0.0404486246407032,-0.0003454120014794171
1761915627387030800,2.64003076171875,0.017840515822172165,-0.035716984421014786,-0.02985483407974243
1761915627397084700,2.650084716796875,0.01902029663324356,0.004797418136149645,-0.04896674305200577
1761915627407138800,2.660138916015625,0.036384906619787216,0.04192774370312691,-0.037521276623010635
1761915627417192700,2.670192626953125,0.04711158573627472,0.03610740229487419,0.011964251287281513
1761915627427246800,2.680246826171875,0.051658399403095245,0.0035723643377423286,0.07050985097885132
1761915627437300700,2.69030078125,0.04398263618350029,-0.01785968989133835,0.11120188981294632
1761915627447355000,2.70035498046875,0.03816496208310127,-0.005768673028796911,0.13423264026641846
1761915627457408800,2.71040869140625,0.031438082456588745,0.020307667553424835,0.12763120234012604
1761915627467462700,2.720462646484375,0.03208230063319206,0.03981665521860123,0.11099043488502502
1761915627477516800,2.730516845703125,0.028911275789141655,0.035644546151161194,0.08836688101291656
1761915627487571700,2.74057177734375,0.03205380588769913,0.010926417075097561,0.06628528237342834
1761915627497625900,2.7506259765625,0.03319497033953667,-0.029518743976950645,0.03832581639289856
1761915627507679700,2.7606796875,0.04017804563045502,-0.04238287732005119,0.014418354257941246
1761915627517734000,2.77073388671875,0.04891880601644516,-0.056715477257966995,0.008390555158257484
1761915627527787800,2.780787841796875,0.05434153601527214,-0.05093002691864967,0.017765413969755173
1761915627537842000,2.790842041015625,0.05861297994852066,-0.0442766509950161,0.0378941185772419
1761915627547895600,2.8008955078125,0.04687483236193657,-0.044667068868875504,0.0529463067650795
1761915627557949700,2.81094970703125,0.03461603447794914,-0.04614672064781189,0.050825364887714386
1761915627568003800,2.82100390625,0.03653723746538162,-0.04832438752055168,0.02767344005405903
1761915627578057700,2.8310576171875,0.03534041345119476,-0.02311117760837078,-0.0023499734234064817
1761915627588112000,2.84111181640625,0.024592427536845207,-0.002397910226136446,-0.01648123934864998
1761915627598165800,2.851165771484375,0.008358864113688469,0.010078732855618,-0.016339825466275215
1761915627608220000,2.861219970703125,-0.006021673325449228,-0.006195577792823315,0.0029345371294766665
1761915627618273800,2.871273681640625,0.0021877868566662073,-0.0504424013197422,0.04428330808877945
1761915627628328000,2.881327880859375,0.025492843240499496,-0.06529591232538223,0.06712178140878677
1761915627638381800,2.8913818359375,0.03965580090880394,-0.047563258558511734,0.0688009038567543
1761915627648436700,2.901436767578125,0.04194718226790428,-0.004622448701411486,0.04402711242437363
1761915627658490600,2.91149072265625,0.03476570174098015,0.04321884363889694,0.002478870330378413
1761915627668544800,2.921544677734375,0.02274099923670292,0.04808683693408966,-0.02677115984261036
1761915627678599000,2.931598876953125,0.010485930368304253,-0.003061569994315505,-0.04561914876103401
1761915627688652800,2.94165283203125,0.005887716542929411,-0.07831238210201263,-0.050156645476818085
1761915627698707000,2.95170703125,0.008905877359211445,-0.1086958572268486,-0.0583256259560585
1761915627708760800,2.9617607421875,0.019780894741415977,-0.09498430043458939,-0.06878465414047241
1761915627718815000,2.97181494140625,0.03207937255501747,-0.06974392384290695,-0.0832754522562027
1761915627728868600,2.98186865234375,0.03677985072135925,-0.03328604996204376,-0.09327135980129242
1761915627738922800,2.9919228515625,0.03044925257563591,0.0032229574862867594,-0.10144513100385666
1761915627748976600,3.0019765625,0.0252185370773077,0.005050951149314642,-0.09181301295757294
1761915627759030800,3.01203076171875,0.023197731003165245,-0.023144733160734177,-0.0668187141418457
1761915627769084700,3.022084716796875,0.02941834181547165,-0.03795510530471802,-0.0379529744386673
1761915627779138800,3.032138916015625,0.03995753452181816,-0.03183276578783989,-0.013095295988023281
1761915627789194000,3.042194091796875,0.03970427066087723,-0.00683180708438158,0.00290444353595376
1761915627799247600,3.05224755859375,0.03722726181149483,0.018453575670719147,0.013342170976102352
1761915627809301800,3.0623017578125,0.03133128955960274,0.04532646760344505,0.010548514313995838
1761915627819355600,3.072355712890625,0.026761040091514587,0.05373380333185196,0.008190285414457321
1761915627829409800,3.082409912109375,0.026271285489201546,0.027515247464179993,-0.0010191916953772306
1761915627839463700,3.092463623046875,0.023395603522658348,-0.004166781902313232,-0.012503541074693203
1761915627849517800,3.102517822265625,0.024169784039258957,-0.01829778030514717,-0.03413533419370651
1761915627859571700,3.11257177734375,0.03008493222296238,-0.025005750358104706,-0.057625479996204376
1761915627869625900,3.1226259765625,0.0327313132584095,-0.014089453965425491,-0.08979220688343048
1761915627879679700,3.1326796875,0.0359787717461586,-0.012553875334560871,-0.10953075438737869
1761915627889734000,3.14273388671875,0.03178828954696655,-0.042086731642484665,-0.10724789649248123
1761915627899787800,3.152787841796875,0.02166641317307949,-0.08876289427280426,-0.081788070499897
1761915627909841700,3.162841552734375,0.01420689933001995,-0.11413216590881348,-0.05047249421477318
1761915627919895800,3.172895751953125,0.012820723466575146,-0.08121921867132187,-0.025668611750006676
1761915627929949700,3.18294970703125,0.010537062771618366,-0.0385788157582283,-0.010146910324692726
1761915627940004900,3.1930048828125,0.009133843705058098,-0.002430667169392109,0.0006237123161554337
1761915627950058800,3.203058837890625,0.011086473241448402,0.013795441016554832,0.013320865109562874
1761915627960113000,3.21311279296875,0.025530127808451653,-0.0043894220143556595,0.024212928488850594
1761915627970166800,3.223166748046875,0.04875848442316055,-0.027849208563566208,0.019569972530007362
1761915627980220700,3.233220703125,0.06668341904878616,-0.03338325768709183,-0.002314287004992366
1761915627990274600,3.243274658203125,0.07336529344320297,-0.022131135687232018,-0.034208036959171295
1761915628000328700,3.25332861328125,0.06793590635061264,0.004057059530168772,-0.06643654406070709
1761915628010382800,3.2633828125,0.05754159018397331,0.03999615088105202,-0.08619613945484161
1761915628020436700,3.273436767578125,0.051354799419641495,0.049554768949747086,-0.07968311011791229
1761915628030491000,3.283490966796875,0.04610544443130493,0.023299196735024452,-0.050690073519945145
1761915628040544800,3.293544677734375,0.041434258222579956,-0.00691889226436615,-0.004227501805871725
1761915628050594600,3.303594482421875,0.03449832275509834,-0.00897032581269741,0.03203010559082031
1761915628060648400,3.3136484375,0.03327326849102974,0.001986984396353364,0.06216590106487274
1761915628070702600,3.32370263671875,0.03056350164115429,0.007189469411969185,0.06763576716184616
1761915628080756500,3.333756591796875,0.026208167895674706,0.020537232980132103,0.05817994847893715
1761915628090811400,3.343811279296875,0.020290890708565712,0.03209295496344566,0.037932734936475754
1761915628100865500,3.353865478515625,0.014373079873621464,0.022957246750593185,0.02996508963406086
1761915628110919400,3.36391943359375,0.015264973044395447,-0.010893127880990505,0.020186761394143105
1761915628120973600,3.3739736328125,0.006204366218298674,-0.059844158589839935,0.01333071943372488
1761915628131027500,3.38402734375,-0.002632800955325365,-0.10188881307840347,-0.00011824435205198824
1761915628141081600,3.39408154296875,-0.004795021377503872,-0.11941001564264297,-0.02069329470396042
1761915628151135500,3.404135498046875,-0.004501008428633213,-0.10855124145746231,-0.03530339524149895
1761915628161189600,3.414189697265625,-0.006476275157183409,-0.08584140241146088,-0.033910296857357025
1761915628171243500,3.424243408203125,-0.020231768488883972,-0.05627578869462013,-0.01715661585330963
1761915628181297700,3.434297607421875,-0.025115473195910454,-0.03675322234630585,0.012748019769787788
1761915628191351300,3.444351318359375,-0.02634558640420437,-0.025016136467456818,0.03993729501962662
1761915628201405400,3.454405517578125,-0.013734987005591393,-0.01829778030514717,0.056715209037065506
1761915628211459600,3.46445947265625,-0.0008647284121252596,-0.015126221813261509,0.059180498123168945
1761915628221513500,3.474513427734375,0.01357333268970251,-0.012800483964383602,0.05012734979391098
1761915628231568600,3.484568603515625,0.023727167397737503,-0.010525611229240894,0.0360269770026207
1761915628241622500,3.49462255859375,0.01599867455661297,-0.005293032620102167,0.02267761528491974
1761915628251676700,3.5046767578125,-0.0004340952436905354,0.0005094627267681062,0.015332616865634918
1761915628261730600,3.51473046875,-0.016323046758770943,-0.0019536949694156647,0.01829138956964016
1761915628271784400,3.524784423828125,-0.017833326011896133,-0.029040439054369926,0.028746958822011948
1761915628281838300,3.53483837890625,-0.010470218025147915,-0.05662279948592186,0.024754881858825684
1761915628291892500,3.544892578125,-0.004052798729389906,-0.06431160867214203,0.01212697010487318
1761915628301946600,3.554946533203125,0.0017441042000427842,-0.0466439351439476,0.0025100293569266796
1761915628312000500,3.56500048828125,-0.0001627191377338022,-0.033702302724123,-0.005602492019534111
1761915628322054700,3.5750546875,-0.014334730803966522,-0.01829112321138382,0.0018761969404295087
1761915628332108500,3.585108642578125,-0.029111811891198158,-0.007114102132618427,0.014169881120324135
1761915628342162700,3.59516259765625,-0.03472469002008438,-0.0028415927663445473,0.020892232656478882
1761915628352216600,3.605216552734375,-0.029768016189336777,-0.022434202954173088,0.01534806378185749
1761915628362270700,3.615270751953125,-0.013863883912563324,-0.05164668336510658,0.0034562505315989256
1761915628372324400,3.625324462890625,0.0013899037148803473,-0.058575160801410675,-0.007169762160629034
1761915628382379500,3.635379638671875,0.011932026594877243,-0.026128539815545082,-0.010549579747021198
1761915628392433700,3.64543359375,0.011753861792385578,-0.0017710020765662193,-0.006310360040515661
1761915628402487600,3.655487548828125,0.018572619184851646,0.00152306177187711,0.010365821421146393
1761915628412541700,3.665541748046875,0.020140955224633217,-0.004026965703815222,0.017580591142177582
1761915628422595600,3.675595703125,0.01980086974799633,-0.0012897689593955874,0.0201561339199543
1761915628432649700,3.685649658203125,0.01649615168571472,0.019535085186362267,0.008137821219861507
1761915628442703400,3.695703369140625,0.0234035924077034,0.031384553760290146,-0.003614175831899047
1761915628452757500,3.705757568359375,0.03231453150510788,0.018430938944220543,0.0008878979133442044
1761915628462811400,3.715811279296875,0.03455052152276039,-0.019059712067246437,0.01576405018568039
1761915628472865500,3.725865478515625,0.020318854600191116,-0.055935438722372055,0.0289448332041502
1761915628482919400,3.73591943359375,0.005772934295237064,-0.09376803785562515,0.028691299259662628
1761915628492973600,3.7459736328125,-0.004790760576725006,-0.12041056901216507,0.00959696713835001
1761915628503027500,3.75602734375,-0.011333348229527473,-0.12912176549434662,-0.024507740512490273
1761915628513082600,3.76608251953125,-0.012652944773435593,-0.11109376698732376,-0.06356033682823181
1761915628523136500,3.776136474609375,-0.013765347190201283,-0.09145108610391617,-0.0837273895740509
1761915628533190400,3.7861904296875,-0.014597051776945591,-0.07541672885417938,-0.08479505032300949
1761915628543244500,3.79624462890625,-0.013080115430057049,-0.054786283522844315,-0.07614030689001083
1761915628553298400,3.80629833984375,-0.008672317489981651,-0.036967337131500244,-0.06443838030099869
1761915628563352600,3.8163525390625,-0.003453853540122509,-0.019206451252102852,-0.054240334779024124
1761915628573406500,3.826406494140625,-0.004251470323652029,-0.006332997232675552,-0.04115382954478264
1761915628583460600,3.836460693359375,-0.015573366545140743,-0.00817830115556717,-0.009375126101076603
1761915628593514500,3.846514404296875,-0.023183083161711693,-0.012574381195008755,0.03994075953960419
1761915628603568600,3.856568603515625,-0.022045914083719254,-0.02088584005832672,0.08432846516370773
1761915628613622500,3.86662255859375,-0.009209210984408855,-0.010391121730208397,0.10505104809999466
1761915628623676400,3.876676513671875,0.005141764879226685,0.02148984558880329,0.10170931369066238
1761915628633730300,3.886730224609375,0.007691741921007633,0.04303615167737007,0.08902627974748611
1761915628643784400,3.896784423828125,0.006396380253136158,0.0339912548661232,0.06539604812860489
1761915628653839600,3.906839599609375,-0.003397394670173526,-0.006389455869793892,0.04791639372706413
1761915628663893500,3.9168935546875,-0.020379573106765747,-0.05300143361091614,0.03497662767767906
1761915628673947600,3.92694775390625,-0.027104854583740234,-0.08561956137418747,0.030464431270956993
1761915628684001500,3.93700146484375,-0.028441760689020157,-0.08674980700016022,0.02707689069211483
1761915628694055700,3.9470556640625,-0.02166428230702877,-0.04813716933131218,0.02563425712287426
1761915628704109300,3.957109375,-0.012173575349152088,-0.006440056022256613,0.01507002953439951
1761915628714163500,3.96716357421875,-0.0052235242910683155,0.02990064024925232,0.011120561510324478
1761915628724217300,3.97721728515625,0.0029403960797935724,0.04439622536301613,0.013520868495106697
1761915628734271500,3.987271484375,0.006365221459418535,0.04596349596977234,0.020963605493307114
1761915628744325600,3.99732568359375,0.015549665316939354,0.053153231739997864,0.025003619492053986
1761915628754379500,4.007379638671875,0.016474580392241478,0.06069823354482651,0.021677598357200623
1761915628764433700,4.01743359375,0.01577523536980152,0.04712862893939018,0.020329240709543228
1761915628774487600,4.027487548828125,0.011406851932406425,0.050869572907686234,0.028729116544127464
1761915628784541700,4.037541748046875,0.0032565132714807987,0.027791151776909828,0.0512663833796978
1761915628794596400,4.047596435546875,-0.010901383124291897,-0.01708843931555748,0.07226567715406418
1761915628804650500,4.057650390625,-0.0344993881881237,-0.03231453150510788,0.07199802994728088
1761915628814704400,4.067704345703125,-0.050151318311691284,-0.02257508412003517,0.05284936726093292
1761915628824758500,4.077758544921875,-0.04420927166938782,0.00774820102378726,0.026252375915646553
1761915628834812700,4.087812744140625,-0.026262231171131134,0.03828240931034088,0.012222577817738056
1761915628844866600,4.097866455078125,-0.008870457299053669,0.04687989130616188,0.013685718178749084
1761915628854920700,4.107920654296875,-0.0026162895374000072,0.044020988047122955,0.022962840273976326
1761915628864974600,4.117974609375,-0.010291785933077335,0.0258686151355505,0.03857455775141716
1761915628875028700,4.12802880859375,-0.015963520854711533,-0.000734766130335629,0.04000254347920418
1761915628885082400,4.138082275390625,-0.01822667382657528,-0.027055852115154266,0.02088717184960842
1761915628895136500,4.148136474609375,-0.01810869574546814,-0.047027695924043655,-0.00945022702217102
1761915628905190400,4.1581904296875,-0.00827790331095457,-0.04913851618766785,-0.039689354598522186
1761915628915244500,4.16824462890625,0.0034266894217580557,-0.05341928079724312,-0.0666368156671524
1761915628925298400,4.17829833984375,-0.0003576625313144177,-0.04682236537337303,-0.07587771862745285
1761915628935353600,4.188353515625,-0.011378088966012001,-0.025534920394420624,-0.06280799210071564
1761915628945407700,4.19840771484375,-0.01353551633656025,-0.0348980613052845,-0.012200740166008472
1761915628955461400,4.20846142578125,-0.012467321939766407,-0.07209523022174835,0.04427558556199074
1761915628965515500,4.218515625,-0.019780362024903297,-0.08715860545635223,0.08609840273857117
1761915628975569400,4.2285693359375,-0.03604907914996147,-0.06739262491464615,0.08941616863012314
1761915628985623600,4.23862353515625,-0.02822524681687355,-0.011777563951909542,0.07081717997789383
1761915628995677400,4.248677490234375,-0.007929296232759953,0.0365164652466774,0.04873238503932953
1761915629005731600,4.258731689453125,0.014779478311538696,0.045828208327293396,0.0333251990377903
1761915629015785500,4.268785400390625,0.021471204236149788,0.023566046729683876,0.02293061651289463
1761915629025839600,4.278839599609375,0.016218651086091995,0.004933505784720182,0.01522902026772499
1761915629035893500,4.2888935546875,0.0032088428270071745,-0.007138070650398731,0.007505054119974375
1761915629045947600,4.29894775390625,-0.011452391743659973,-0.008709868416190147,0.0006671218434348702
1761915629056002300,4.309002197265625,-0.02491946518421173,-0.017372332513332367,-0.0020716730505228043
1761915629066057500,4.319057373046875,-0.03671780228614807,-0.0307504553347826,0.003254915354773402
1761915629076111400,4.329111328125,-0.03525572642683983,-0.04159324988722801,-0.0007683219737373292
1761915629086165500,4.33916552734375,-0.026074210181832314,-0.026093652471899986,-0.005117796827107668
1761915629096219400,4.349219482421875,-0.02190236933529377,-0.003061037277802825,-0.0036077843979001045
1761915629106273500,4.3592734375,-0.022298913449048996,0.018994197249412537,0.009249690920114517
1761915629116327200,4.3693271484375,-0.02520415559411049,0.02062857896089554,0.025317873805761337
1761915629126381300,4.37938134765625,-0.02377430535852909,0.014658304862678051,0.037219006568193436
1761915629136435500,4.389435546875,-0.0204557403922081,0.014977351762354374,0.030646326020359993
1761915629146489300,4.3994892578125,-0.013920342549681664,0.015132613480091095,0.013377591036260128
1761915629156543500,4.40954345703125,-0.003911917097866535,0.016150208190083504,-0.0033569145016372204
1761915629166597400,4.419597412109375,0.0021201425697654486,0.005314870737493038,-0.010150372050702572
1761915629176651500,4.429651611328125,-0.004098338540643454,-0.003026682650670409,-0.008625978603959084
1761915629186705400,4.439705322265625,-0.017546769231557846,-0.01859072782099247,0.007214503362774849
1761915629196760300,4.44976025390625,-0.021997977048158646,-0.01817740499973297,0.017853032797574997
1761915629206814200,4.459814208984375,-0.020851751789450645,-0.008494950830936432,0.010730674490332603
1761915629216868400,4.469868408203125,-0.019639747217297554,-0.002002697205170989,-0.0029489181470125914
1761915629226922500,4.479922607421875,-0.009548497386276722,-0.01013785507529974,-0.014115818776190281
1761915629236976400,4.489976318359375,0.00018695391190703958,-0.016633305698633194,-0.018065819516777992
1761915629247030500,4.500030517578125,0.006174805108457804,-0.0009174589649774134,-0.014009025879204273
1761915629257084400,4.51008447265625,0.0082089276984334,0.015859656035900116,0.0003020024741999805
1761915629267138600,4.520138671875,-0.001079911831766367,0.029399966821074486,0.010062221437692642
1761915629277192400,4.5301923828125,-0.014563762582838535,0.037454430013895035,0.025950640439987183
1761915629287246600,4.54024658203125,-0.029926739633083344,0.02160702459514141,0.036913011223077774
1761915629297300200,4.55030029296875,-0.04880588874220848,-0.014706508256494999,0.049247175455093384
1761915629307354400,4.560354248046875,-0.060266271233558655,-0.04952866956591606,0.04797524958848953
1761915629317408300,4.570408203125,-0.06679900735616684,-0.05974721908569336,0.04344494640827179
1761915629327462400,4.58046240234375,-0.05712400749325752,-0.05901218578219414,0.04402950778603554
1761915629337517600,4.590517578125,-0.03862861916422844,-0.04753982275724411,0.04168166592717171
1761915629347571500,4.600571533203125,-0.02467498555779457,-0.04091707244515419,0.0443996898829937
1761915629357625600,4.61062548828125,-0.02443663403391838,-0.03389458358287811,0.05387361720204353
1761915629367679200,4.62067919921875,-0.0308708306401968,-0.03187990188598633,0.05687659978866577
1761915629377733400,4.6307333984375,-0.031198931857943535,-0.024579377844929695,0.055933039635419846
1761915629387787300,4.640787353515625,-0.030219154432415962,-0.014169082045555115,0.043000463396310806
1761915629397841400,4.65084130859375,-0.02869928814470768,0.0036879454273730516,0.028435369953513145
1761915629407895300,4.660895263671875,-0.017349163070321083,0.02725985087454319,0.01119459792971611
1761915629417949400,4.670949462890625,-0.0070280819199979305,0.0443890355527401,0.000999750685878098
1761915629428003300,4.68100341796875,0.0018873822409659624,0.05979195982217789,-0.001499625970609486
1761915629438057500,4.691057373046875,0.008139952085912228,0.047149669378995895,0.010024404153227806
1761915629448111400,4.701111328125,0.010807373560965061,0.018392322584986687,0.026275012642145157
1761915629458165500,4.71116552734375,0.007213171571493149,-0.0070736221969127655,0.03333771601319313
1761915629468220400,4.721220458984375,-0.0005938849062658846,-0.023446204140782356,0.027345336973667145
1761915629478274300,4.7312744140625,-0.012664129957556725,-0.02225603722035885,0.01594807393848896
1761915629488328400,4.741328369140625,-0.0044195158407092094,-0.008582303300499916,-0.001014131703414023
1761915629498382300,4.75138232421875,-0.0013520868960767984,0.007516505662351847,-0.010692325420677662
1761915629508436500,4.7614365234375,0.004788363818079233,0.016886305063962936,-0.014426076784729958
1761915629518490400,4.771490478515625,0.005169728305190802,0.01943734660744667,-0.010670487768948078
1761915629528544500,4.78154443359375,-0.007184942252933979,0.0021435783710330725,0.00026312030968256295
1761915629538598400,4.791598388671875,-0.031927306205034256,-0.020532172173261642,0.010464625433087349
1761915629548652300,4.80165234375,-0.04366891831159592,-0.046940878033638,0.01834198832511902
1761915629558706200,4.8117060546875,-0.05338812246918678,-0.036378245800733566,0.018376344814896584
1761915629568760300,4.82176025390625,-0.05332101136445999,-0.009018261916935444,0.022010227665305138
1761915629578814500,4.831814453125,-0.04534883797168732,0.006417152937501669,0.028728051111102104
1761915629588868400,4.841868408203125,-0.03843900188803673,0.011483816429972649,0.03377633914351463
1761915629598923500,4.851923583984375,-0.04252375662326813,0.010882475413382053,0.03117815963923931
1761915629608977400,4.861977294921875,-0.049908705055713654,0.014429273083806038,0.01980379782617092
1761915629619031600,4.872031494140625,-0.04625724256038666,0.008192149922251701,-0.0012034825049340725
1761915629629085200,4.882085205078125,-0.04103238880634308,0.009332248941063881,-0.020566260442137718
1761915629639139300,4.892139404296875,-0.03027188591659069,0.007252586539834738,-0.03221333026885986
1761915629649193200,4.902193115234375,-0.03442561626434326,-0.02226429246366024,-0.03813859820365906
1761915629659247400,4.912247314453125,-0.03698411583900452,-0.05674823373556137,-0.028979720547795296
1761915629669301500,4.922301513671875,-0.035959597676992416,-0.0825558602809906,-0.017838917672634125
1761915629679355400,4.93235546875,-0.03405916690826416,-0.07313919067382812,-0.009975402615964413
1761915629689409500,4.942409423828125,-0.024827584624290466,-0.03870531916618347,-0.005537244491279125
1761915629699463400,4.95246337890625,-0.010972489602863789,-0.00939030572772026,0.0035151063930243254
1761915629709517600,4.962517578125,0.0070704263634979725,0.021515145897865295,0.018670890480279922
1761915629719571500,4.972571533203125,0.015898272395133972,0.03201013058423996,0.0323781780898571
1761915629729626400,4.98262646484375,0.01672784797847271,0.01320821326225996,0.039506129920482635
1761915629739680300,4.99268017578125,0.008100003935396671,-0.020295683294534683,0.03954554349184036
1761915629749734400,5.002734375,-0.001683384063653648,-0.05324937403202057,0.02316736988723278
1761915629759788500,5.01278857421875,-0.009950368665158749,-0.06756546348333359,0.003573163179680705
1761915629769842400,5.022842529296875,-0.005822202656418085,-0.048043157905340195,-0.022710638120770454
1761915629779896600,5.032896484375,0.005471197888255119,-0.024865401908755302,-0.039688557386398315
1761915629789950500,5.042950439453125,0.01624341867864132,-0.004274906124919653,-0.043840423226356506
1761915629800004600,5.053004638671875,0.030552050098776817,0.007168430835008621,-0.039378829300403595
1761915629810058200,5.063058349609375,0.036821398884058,0.010604707524180412,-0.02334580197930336
1761915629820112400,5.0731123046875,0.04116101935505867,0.012284362688660622,-0.008449943736195564
1761915629830166300,5.083166259765625,0.04324307665228844,0.02346271462738514,0.008599081076681614
1761915629840220400,5.093220458984375,0.041066475212574005,0.04957634210586548,0.020915135741233826
1761915629850274300,5.1032744140625,0.03881663829088211,0.07809560000896454,0.023328492417931557
1761915629860329500,5.11332958984375,0.043783966451883316,0.09368734061717987,0.02491120807826519
1761915629870383600,5.123383544921875,0.04223746806383133,0.06442772597074509,0.02153964713215828
1761915629880437200,5.133437255859375,0.035832300782203674,0.010978881269693375,0.01938381791114807
1761915629890491400,5.143491455078125,0.011716310866177082,-0.04463298246264458,0.012324044480919838
1761915629900545300,5.153545166015625,-0.009874202311038971,-0.07388833910226822,0.00039281626231968403
1761915629910599400,5.163599365234375,-0.017299361526966095,-0.08538680523633957,-0.01757420040667057
1761915629920653300,5.1736533203125,-0.014781076461076736,-0.07491738349199295,-0.038484275341033936
1761915629930707500,5.18370751953125,-0.013836187310516834,-0.058160774409770966,-0.05092070624232292
1761915629940761300,5.19376123046875,-0.011950668878853321,-0.040284574031829834,-0.04819522425532341
1761915629950815500,5.2038154296875,-0.011860387399792671,-0.0289435014128685,-0.029286516830325127
1761915629960869400,5.213869384765625,-0.013119264505803585,-0.018861571326851845,-0.013465741649270058
1761915629970923500,5.223923583984375,-0.00771757448092103,-0.006227003410458565,0.005583583377301693
1761915629980977400,5.233977294921875,0.005648031830787659,0.023721307516098022,0.008733037859201431
1761915629991032300,5.2440322265625,0.017414676025509834,0.03894180804491043,0.0020999026019126177
1761915630001086500,5.25408642578125,0.01696513406932354,0.034454911947250366,-0.004577707499265671
1761915630011140400,5.264140380859375,0.011374627240002155,0.01281699538230896,0.00014540860138367862
1761915630021194500,5.274194580078125,0.014819692820310593,-0.007413441315293312,0.0076025258749723434
1761915630031248400,5.284248291015625,0.014414358884096146,-0.022334333509206772,0.00890827365219593
1761915630041302500,5.294302490234375,0.00827870238572359,-0.02743348851799965,0.013045228086411953
1761915630051355600,5.304355712890625,0.0041217743419110775,-0.015725966542959213,0.003828826593235135
1761915630061409800,5.314409912109375,0.006015548016875982,0.0023467775899916887,-0.012255067937076092
1761915630071463700,5.324463623046875,0.01798459328711033,0.023996679112315178,-0.03653537482023239
1761915630081517800,5.334517822265625,0.03889600187540054,0.03223543241620064,-0.05077502876520157
1761915630091571500,5.344571533203125,0.05566086620092392,0.013976535759866238,-0.05154814571142197
1761915630101625600,5.35462548828125,0.05458974093198776,-0.008869391866028309,-0.0339377261698246
1761915630111680800,5.3646806640625,0.03707599639892578,-0.02726704068481922,-0.007963118143379688
1761915630121734700,5.374734619140625,0.01053440012037754,-0.039191342890262604,0.021641112864017487
1761915630131788800,5.384788818359375,-0.007201720029115677,-0.038475487381219864,0.039322104305028915
1761915630141842700,5.3948427734375,-0.008885903283953667,-0.04006566107273102,0.055092547088861465
1761915630151896800,5.404896728515625,-0.0017065536230802536,-0.037334587424993515,0.06112540513277054
1761915630161950500,5.414950439453125,0.008356466889381409,-0.02443876303732395,0.056767676025629044
1761915630172004600,5.425004638671875,0.01623915694653988,-0.010095776990056038,0.044369328767061234
1761915630182058500,5.43505859375,0.014620753936469555,-0.002020540414378047,0.029352029785513878
1761915630192112600,5.445112548828125,0.003949201665818691,-0.007243265397846699,0.015478026121854782
1761915630202166500,5.45516650390625,-0.002939863596111536,-0.016243951395154,0.0008607336785644293
1761915630212220700,5.465220703125,-0.004584631882607937,-0.02870168536901474,-0.008213454857468605
1761915630222274600,5.475274658203125,-0.004480768460780382,-0.038204375654459,-0.01050537172704935
1761915630232328700,5.48532861328125,0.0014556838432326913,-0.03196272626519203,-0.0052384380251169205
1761915630242383600,5.495383544921875,0.008242483250796795,0.0003251719754189253,0.0022245384752750397
1761915630252437500,5.5054375,0.01709855906665325,0.03139813616871834,0.02990623377263546
1761915630262491600,5.51549169921875,0.019472766667604446,0.05078994482755661,0.054076019674539566
1761915630272545500,5.525545654296875,0.02166641317307949,0.03688478097319603,0.06755321472883224
1761915630282599700,5.535599609375,0.022815566509962082,0.00495161535218358,0.06559951603412628
1761915630292653600,5.545653564453125,0.026496855542063713,-0.040161535143852234,0.05115559697151184
1761915630302707700,5.555707763671875,0.03519260883331299,-0.06572628021240234,0.025078987702727318
1761915630312761600,5.56576171875,0.03586478903889656,-0.05666647478938103,-0.0018849853659048676
1761915630322815700,5.575815673828125,0.04079936072230339,-0.018805911764502525,-0.026910442858934402
1761915630332870000,5.585869873046875,0.05026024207472801,0.016695622354745865,-0.0288753230124712
1761915630342923500,5.595923583984375,0.06282210350036621,0.025896046310663223,-0.016566725447773933
1761915630352977700,5.605977783203125,0.0654573068022728,0.016319051384925842,0.0038780951872467995
1761915630363031600,5.616031494140625,0.05739378556609154,0.0027808728627860546,0.028479577973484993
1761915630373086700,5.626086669921875,0.05188263952732086,0.0016335829859599471,0.041141312569379807
1761915630383140600,5.636140625,0.048596031963825226,0.006213953718543053,0.04152986779808998
1761915630393194800,5.64619482421875,0.056297626346349716,0.023727167397737503,0.033424269407987595
1761915630403248600,5.65624853515625,0.06795268505811691,0.06081221625208855,0.02365073375403881
1761915630413302800,5.666302734375,0.06719714403152466,0.09661495685577393,0.016416257247328758
1761915630423356400,5.6763564453125,0.06145616993308067,0.12709297239780426,0.02580496482551098
1761915630433410600,5.68641064453125,0.05886118486523628,0.11852984130382538,0.04598799720406532
1761915630443464700,5.696464599609375,0.051602207124233246,0.05742387846112251,0.06168333813548088
1761915630453518600,5.7065185546875,0.043775178492069244,-0.008430236019194126,0.05379372462630272
1761915630463572700,5.71657275390625,0.03520885482430458,-0.041068606078624725,0.029344839975237846
1761915630473626600,5.726626708984375,0.016863135620951653,-0.05393034219741821,-0.0008700547041371465
1761915630483680800,5.7366806640625,-0.004853344522416592,-0.05572664365172386,-0.01786554977297783
1761915630493735400,5.7467353515625,-0.0185257475823164,-0.05944761261343956,-0.015221030451357365
1761915630503789600,5.75678955078125,-0.027776503935456276,-0.0548107847571373,0.0003611246356740594
1761915630513843500,5.766843505859375,-0.034940142184495926,-0.04429769143462181,0.022278940305113792
1761915630523897600,5.776897705078125,-0.03688158467411995,-0.03265275061130524,0.038412902504205704
1761915630533951700,5.78695166015625,-0.03219309076666832,-0.022953785955905914,0.047876179218292236
1761915630544005600,5.797005615234375,-0.023266173899173737,-0.01804265007376671,0.04059296473860741
1761915630554059800,5.807059814453125,-0.011083277873694897,-0.018280470743775368,0.026623887941241264
1761915630564113700,5.81711376953125,0.0025917883031070232,-0.006199839059263468,-0.00039974047103896737
1761915630574167800,5.827167724609375,0.015106515027582645,0.021020330488681793,-0.025419872254133224
1761915630584221700,5.8372216796875,0.021685587242245674,0.03729863464832306,-0.03947789967060089
1761915630594275800,5.84727587890625,0.024988973513245583,0.031269773840904236,-0.043355729430913925
1761915630604329500,5.85732958984375,0.02021206170320511,0.0008143946761265397,-0.02961515076458454
1761915630614383600,5.867383544921875,0.010382333770394325,-0.026932016015052795,-0.010980213060975075
1761915630624438800,5.877438720703125,0.0070342072285711765,-0.05463714525103569,0.0019084211671724916
1761915630634492700,5.88749267578125,0.005067463032901287,-0.06270971894264221,0.018430938944220543
1761915630644546800,5.897546875,0.00703793577849865,-0.0548267625272274,0.028185831382870674
1761915630654598700,5.9075986328125,0.00012383698776829988,-0.032582975924015045,0.027402596548199654
1761915630664652500,5.917652587890625,0.002124137245118618,-0.015986423939466476,0.0273237656801939
1761915630674706700,5.927706787109375,0.005252286326140165,-0.016536898910999298,0.01582903042435646
1761915630684760600,5.937760498046875,0.01731986738741398,-0.027236947789788246,0.011271030642092228
1761915630694814700,5.947814697265625,0.02611469104886055,-0.029135780408978462,0.006749515421688557
1761915630704868600,5.95786865234375,0.027722707018256187,-0.01601465232670307,-0.000764593540225178
1761915630714922800,5.9679228515625,0.031018635258078575,0.0051894355565309525,0.001975000137463212
1761915630724976600,5.9779765625,0.030173614621162415,0.02485288493335247,0.008101602084934711
1761915630735030500,5.988030517578125,0.02544970065355301,0.04779708385467529,0.01919872872531414
1761915630745084700,5.998084716796875,0.0255154799669981,0.05585367977619171,0.035172633826732635
1761915630755138600,6.008138671875,0.02214817889034748,0.06319840997457504,0.05601400136947632
1761915630765192700,6.018192626953125,0.01792520470917225,0.06449110805988312,0.08305999636650085
1761915630775247600,6.02824755859375,0.007655522786080837,0.0684826523065567,0.10754323750734329
1761915630785301800,6.0383017578125,0.000007190534688561456,0.08052573353052139,0.1213245615363121
1761915630795355600,6.048355712890625,0.001942243310622871,0.08759855479001999,0.11011292040348053
1761915630805409800,6.058409912109375,0.008331432938575745,0.0770668238401413,0.06945923715829849
1761915630815463400,6.06846337890625,0.016201606020331383,0.045105691999197006,0.022852584719657898
1761915630825517600,6.078517578125,0.032466329634189606,0.002427737694233656,-0.02232661098241806
1761915630835571700,6.08857177734375,0.03344663977622986,-0.02237614616751671,-0.05642732232809067
1761915630845625600,6.09862548828125,0.013318202458322048,-0.03476916626095772,-0.0742499977350235
1761915630855679700,6.1086796875,-0.013322196900844574,-0.041920553892850876,-0.07768334448337555
1761915630865733600,6.118733642578125,-0.029329393059015274,-0.047865793108940125,-0.0697130337357521
1761915630875787800,6.128787841796875,-0.01817207969725132,-0.05078994482755661,-0.05095319449901581
1761915630885841700,6.138841552734375,-0.0032293491531163454,-0.05106984078884125,-0.030894799157977104
1761915630895896600,6.148896484375,0.007655789144337177,-0.02364540845155716,-0.014942198060452938
1761915630905950500,6.158950439453125,0.009101885370910168,0.01161431148648262,0.0067961206659674644
1761915630916004600,6.169004638671875,0.006560164503753185,0.032284170389175415,0.0319046713411808
1761915630926058800,6.179058837890625,0.00692102313041687,0.03982118144631386,0.054188136011362076
1761915630936112600,6.189112548828125,0.008411328308284283,0.037341780960559845,0.06420242041349411
1761915630946166800,6.199166748046875,0.008136489428579807,0.015907060354948044,0.05966998636722565
1761915630956220700,6.209220703125,0.001972869737073779,-0.013807158917188644,0.04284653440117836
1761915630966274800,6.21927490234375,-0.010727745480835438,-0.04447745159268379,0.012317919172346592
1761915630976328700,6.22932861328125,-0.01589268073439598,-0.0545833520591259,-0.02774640917778015
1761915630986382800,6.2393828125,-0.005387042183429003,-0.046729154884815216,-0.06308548897504807
1761915630996436500,6.2494365234375,0.01053253561258316,-0.022097578272223473,-0.07872916758060455
1761915631006490600,6.25949072265625,0.0214240662753582,-0.00033396040089428425,-0.0691433846950531
1761915631016545500,6.269545654296875,0.018696988001465797,0.014795724302530289,-0.03999082371592522
1761915631026599700,6.279599609375,0.017113739624619484,0.025309350341558456,-0.0075513930059969425
1761915631036653800,6.28965380859375,0.012557603418827057,0.0353286974132061,0.02286323718726635
1761915631046707700,6.299707763671875,0.007384412921965122,0.03925153240561485,0.034691400825977325
1761915631056761300,6.30976123046875,0.0041638524271547794,0.03681021183729172,0.03032514825463295
1761915631066815200,6.319815185546875,0.005516471806913614,0.026391394436359406,0.018980082124471664
1761915631076869400,6.329869384765625,0.014959774911403656,0.01841442659497261,0.008688297122716904
1761915631086923000,6.339923095703125,0.015921974554657936,0.0022535668686032295,0.008028099313378334
1761915631096977200,6.34997705078125,0.011004181578755379,-0.014253770932555199,0.015002385713160038
1761915631107031000,6.360031005859375,-0.0014588796766474843,-0.021680261939764023,0.024475781247019768
1761915631117085200,6.370085205078125,-0.015340340323746204,-0.024144483730196953,0.03923289105296135
1761915631127139000,6.38013916015625,-0.019689282402396202,-0.037282124161720276,0.057252369821071625
1761915631137194200,6.3901943359375,-0.018134528771042824,-0.056531187146902084,0.06891807913780212
1761915631147248400,6.400248291015625,-0.017949972301721573,-0.09038875252008438,0.0751860961318016
1761915631157302000,6.410302001953125,-0.03162983059883118,-0.1163276731967926,0.07058548927307129
1761915631167356200,6.420356201171875,-0.04771505668759346,-0.1412748396396637,0.05066237971186638
1761915631177410000,6.43041015625,-0.05163736268877983,-0.1497410237789154,0.015735553577542305
1761915631187464200,6.440464111328125,-0.0373750701546669,-0.12375815957784653,-0.02611628919839859
1761915631197518000,6.45051806640625,-0.01630759984254837,-0.06444663554430008,-0.06144125759601593
1761915631207572200,6.460572265625,-0.0009872338268905878,-0.020358001813292503,-0.0801563560962677
1761915631217626000,6.470626220703125,0.0139581598341465,0.010792193934321404,-0.07872091233730316
1761915631227680300,6.48068017578125,0.019650666043162346,0.03609169274568558,-0.06384263187646866
1761915631237734100,6.490734130859375,0.020126307383179665,0.06042179837822914,-0.044704619795084
1761915631247790000,6.5007900390625,0.020798223093152046,0.08518413454294205,-0.026554379612207413
1761915631257844200,6.51084423828125,0.020613133907318115,0.09999290853738785,-0.0015731292078271508
1761915631267898000,6.520898193359375,0.019211778417229652,0.09752549231052399,0.02708195149898529
1761915631277952300,6.5309521484375,0.013919544406235218,0.08171989768743515,0.06241970136761665
1761915631288006400,6.54100634765625,0.016282565891742706,0.07469021528959274,0.08158860355615616
1761915631298060300,6.551060302734375,0.013866014778614044,0.06706292182207108,0.08339768648147583
1761915631308115200,6.561115234375,0.010762899182736874,0.04596029967069626,0.07292374223470688
1761915631318169000,6.571169189453125,0.004140949342399836,0.0220847949385643,0.042816706001758575
1761915631328223200,6.58122314453125,-0.007155381143093109,0.0014303837670013309,0.01555552426725626
1761915631338277000,6.591277099609375,-0.015239672735333443,-0.0024780714884400368,-0.0037766287568956614
1761915631348331300,6.601331298828125,-0.018688999116420746,-0.0034815503749996424,-0.00968778133392334
1761915631358385200,6.61138525390625,-0.019708456471562386,-0.005151352379471064,0.0011608719360083342
1761915631368439300,6.621439208984375,-0.02333754673600197,0.006490389816462994,0.01691426895558834
1761915631378493200,6.6314931640625,-0.03503761067986488,0.02971954643726349,0.03945872560143471
1761915631388547000,6.641547119140625,-0.05060858279466629,0.054972704499959946,0.05955547094345093
1761915631398601200,6.651601318359375,-0.05499427765607834,0.06509404629468918,0.07071597874164581
1761915631408655000,6.661655029296875,-0.05461983382701874,0.06245938315987587,0.07109201699495316
1761915631418709200,6.671709228515625,-0.04314187914133072,0.07192399352788925,0.0589035302400589
1761915631428764200,6.68176416015625,-0.033917754888534546,0.08871681988239288,0.038786277174949646
1761915631438818300,6.691818359375,-0.03272359073162079,0.10060277581214905,0.023751402273774147
1761915631448872200,6.7018720703125,-0.042698994278907776,0.08275266736745834,0.01528574526309967
1761915631458926000,6.711926025390625,-0.052621930837631226,0.05892962962388992,0.006370281334966421
1761915631468980200,6.721980224609375,-0.058819375932216644,0.05103948339819908,-0.004138285759836435
1761915631479034000,6.7320341796875,-0.06043298542499542,0.056587111204862595,-0.013148026540875435
1761915631489088300,6.742088134765625,-0.05643504485487938,0.0756811797618866,-0.020850686356425285
1761915631499142100,6.75214208984375,-0.0453304648399353,0.08215319365262985,-0.02094549499452114
1761915631509196300,6.7621962890625,-0.025771675631403923,0.06667303293943405,-0.027274232357740402
1761915631519250200,6.772250244140625,-0.009387376718223095,0.045824479311704636,-0.0363478884100914
1761915631529304300,6.78230419921875,0.00018349179299548268,0.031031684949994087,-0.04349048435688019
1761915631539359000,6.79235888671875,0.010781275108456612,0.03057948127388954,-0.04724341258406639
1761915631549413000,6.8024130859375,0.012013785541057587,0.016702014952898026,-0.03539900481700897
1761915631559467000,6.812467041015625,-0.0024319987278431654,-0.014545120298862457,-0.008330900222063065
1761915631569521200,6.822521240234375,-0.03147696703672409,-0.041312020272016525,0.023203322663903236
1761915631579575300,6.8325751953125,-0.05516338720917702,-0.05092177167534828,0.05914880707859993
1761915631589629200,6.842629150390625,-0.06727757304906845,-0.04814169555902481,0.08126290142536163
1761915631599683300,6.852683349609375,-0.06356193125247955,-0.030713703483343124,0.09543491154909134
1761915631609737200,6.8627373046875,-0.04712916165590286,0.004114849958568811,0.09779553860425949
1761915631619791400,6.872791259765625,-0.0332929752767086,0.04108458757400513,0.09284285455942154
1761915631629845200,6.88284521484375,-0.02490668185055256,0.04758536070585251,0.08664941042661667
1761915631639899100,6.892899169921875,-0.030000243335962296,0.03602804243564606,0.08289781212806702
1761915631649953000,6.902953125,-0.04039056599140167,0.007765245158225298,0.07589343190193176
1761915631660008200,6.91300830078125,-0.05042216181755066,-0.028495557606220245,0.07089388370513916
1761915631670062300,6.923062255859375,-0.05681907385587692,-0.05976160243153572,0.0534786693751812
1761915631680116200,6.9331162109375,-0.059306997805833817,-0.07617359608411789,0.03862675279378891
1761915631690170400,6.94317041015625,-0.06490709632635117,-0.06286364793777466,0.014992797747254372
1761915631700224300,6.953224365234375,-0.05908968672156334,-0.025681395083665848,-0.0044259075075387955
1761915631710278400,6.9632783203125,-0.0505896732211113,-0.001585646066814661,-0.009416138753294945
1761915631720332000,6.97333203125,-0.037034451961517334,0.009705890901386738,-0.0023523701820522547
1761915631730386200,6.98338623046875,-0.03213157132267952,0.011782623827457428,0.01392700057476759
1761915631740440000,6.993440185546875,-0.03162769973278046,0.004340952727943659,0.022819828242063522
1761915631750494200,7.003494140625,-0.034384071826934814,0.011780492961406708,0.029756298288702965
1761915631760548000,7.013548095703125,-0.03333105891942978,0.026165824383497238,0.03086310811340809
1761915631770603300,7.023603271484375,-0.033238112926483154,0.0356711782515049,0.027770377695560455
1761915631780657400,7.033657470703125,-0.030548321083188057,0.03400377184152603,0.019589679315686226
1761915631790711000,7.0437109375,-0.027342142537236214,0.01877741515636444,0.01751561090350151
1761915631800765200,7.05376513671875,-0.011778628453612328,-0.01895424909889698,0.02124004065990448
1761915631810819000,7.063819091796875,-0.004051200579851866,-0.0475803017616272,0.021944712847471237
1761915631820873200,7.073873291015625,-0.004823251161724329,-0.0548400804400444,0.016711069270968437
1761915631830927000,7.083927001953125,-0.011025486513972282,-0.05240302160382271,0.00765871861949563
1761915631840981200,7.093981201171875,-0.015926502645015717,-0.03478754311800003,-0.005264536943286657
1761915631851035100,7.10403515625,-0.023981232196092606,-0.018700450658798218,-0.009061405435204506
1761915631861089300,7.11408935546875,-0.029376264661550522,-0.012538961134850979,-0.0013225257862359285
1761915631871143200,7.12414306640625,-0.03238243982195854,-0.020200610160827637,0.020726051181554794
1761915631881198000,7.134197998046875,-0.021735921502113342,-0.027872910723090172,0.04073651134967804
1761915631891252200,7.144252197265625,-0.006834470201283693,-0.029947778210043907,0.04562074691057205
1761915631901306000,7.15430615234375,-0.003594202222302556,-0.010759969241917133,0.03546345233917236
1761915631911360300,7.1643603515625,0.0018301242962479591,0.0134465666487813,0.020351078361272812
1761915631921414100,7.1744140625,-0.0054544201120734215,0.009606554172933102,0.0028663603588938713
1761915631931468300,7.18446826171875,-0.01438453234732151,-0.005967877805233002,0.0001651159836910665
1761915631941522200,7.194522216796875,-0.02093297801911831,-0.013665478676557541,0.0013723268639296293
1761915631951576300,7.204576416015625,-0.015625564381480217,0.0041345576755702496,0.011856925673782825
1761915631961630200,7.214630126953125,-0.011180482804775238,0.03382507339119911,0.027591148391366005
1761915631971684000,7.22468408203125,-0.008218248374760151,0.054730355739593506,0.04520422965288162
1761915631981738000,7.234738037109375,0.002752643311396241,0.06391266733407974,0.06335899978876114
1761915631991792000,7.244792236328125,0.010001234710216522,0.05493808165192604,0.07591713219881058
1761915632001847300,7.254847412109375,0.010645720176398754,0.028622856363654137,0.07632726430892944
1761915632011901200,7.264901123046875,0.0006697850185446441,0.005024852231144905,0.059054531157016754
1761915632021955300,7.274955322265625,-0.006988401059061289,-0.0076062544248998165,0.029743248596787453
1761915632032009200,7.28500927734375,-0.015357917174696922,-0.010611898265779018,-0.0014737932942807674
1761915632042063400,7.2950634765625,-0.0160593930631876,-0.00589623861014843,-0.020188625901937485
1761915632052117000,7.305116943359375,-0.014075072482228279,-0.007099454756826162,-0.021254155784845352
1761915632062172000,7.315171875,-0.012949087657034397,-0.01776248589158058,-0.009040633216500282
1761915632072225800,7.325225830078125,-0.0075934710912406445,-0.03278005123138428,0.012265454977750778
1761915632082280000,7.335280029296875,-0.00020506340661086142,-0.042441997677087784,0.022294387221336365
1761915632092333800,7.345333740234375,-0.0020088222809135914,-0.04813503846526146,0.02339906617999077
1761915632102388000,7.355387939453125,-0.0031515848822891712,-0.04333602264523506,0.013687849044799805
1761915632112442600,7.365442626953125,-0.004607534967362881,-0.027179423719644547,0.002843723399564624
1761915632122496800,7.375496826171875,-0.005252552684396505,0.0016671388875693083,-0.0016847157385200262
1761915632132550700,7.385550537109375,0.004992894362658262,0.03995194286108017,-0.00004873584839515388
1761915632142604800,7.395604736328125,0.017435980960726738,0.08300327509641647,0.01979873888194561
1761915632152658700,7.40565869140625,0.027758926153182983,0.09483197331428528,0.0441616028547287
1761915632162712800,7.415712890625,0.03221173211932182,0.0853191614151001,0.06349615007638931
1761915632172767000,7.42576708984375,0.029920348897576332,0.05401982367038727,0.07280869036912918
1761915632182820900,7.43582080078125,0.019536949694156647,0.024211863055825233,0.059303801506757736
1761915632192875000,7.445875,0.003772101365029812,-0.005354018881917,0.031627435237169266
1761915632202929000,7.455928955078125,-0.011470767669379711,-0.027541080489754677,0.003698331769555807
1761915632212982800,7.465982666015625,-0.017910556867718697,-0.031852737069129944,-0.023870978504419327
1761915632223037700,7.47603759765625,-0.017407486215233803,-0.019278090447187424,-0.032345954328775406
1761915632233091800,7.486091796875,-0.010611631907522678,0.004692756105214357,-0.020808342844247818
1761915632243145700,7.496145751953125,0.0021489046048372984,0.04024622216820717,0.0034061830956488848
1761915632253200000,7.506199951171875,0.018676215782761574,0.06221197545528412,0.032994434237480164
1761915632263254000,7.51625390625,0.0252813883125782,0.057130929082632065,0.05283711478114128
1761915632273308000,7.526307861328125,0.026258768513798714,0.038531944155693054,0.058279287070035934
1761915632283361800,7.53636181640625,0.01781095564365387,0.015413044951856136,0.05523449182510376
1761915632293415700,7.546415771484375,0.007448328658938408,-0.011463310569524765,0.0416417196393013
1761915632303469800,7.5564697265625,-0.00788269005715847,-0.031942218542099,0.035287681967020035
1761915632313523700,7.566523681640625,-0.014182930812239647,-0.04557414352893829,0.024947160854935646
1761915632323577900,7.576577880859375,-0.023426495492458344,-0.055624645203351974,0.010645187459886074
1761915632333632800,7.5866328125,-0.028301145881414413,-0.04583326727151871,-0.0029979203827679157
1761915632343687000,7.59668701171875,-0.030374150723218918,-0.03561259061098099,-0.013431652449071407
1761915632353741000,7.606740966796875,-0.026033997535705566,-0.03201545774936676,-0.018246648833155632
1761915632363794700,7.616794677734375,-0.022428875789046288,-0.026194851845502853,-0.019877834245562553
1761915632373848800,7.626848876953125,-0.008836634457111359,0.0013600763631984591,-0.013250024989247322
1761915632383902700,7.63690283203125,0.004532699938863516,0.035594746470451355,-0.00162399560213089
1761915632393956900,7.646956787109375,0.00618093041703105,0.05127597227692604,0.013408483006060123
1761915632404010800,7.6570107421875,0.00044128578156232834,0.03164820745587349,0.02743854932487011
1761915632414065000,7.66706494140625,-0.01210060529410839,-0.010194581001996994,0.022299446165561676
1761915632424118800,7.677118896484375,-0.012320049107074738,-0.03684696555137634,-0.001017593895085156
1761915632434173000,7.6871728515625,-0.00917272549122572,-0.035226695239543915,-0.03290468826889992
1761915632444227800,7.697227783203125,0.0028913940768688917,-0.013428989797830582,-0.06553027033805847
1761915632454281700,7.70728173828125,0.015780027955770493,0.024473650380969048,-0.07624177634716034
1761915632464336000,7.7173359375,0.024774588644504547,0.04235304892063141,-0.06849916279315948
1761915632474389800,7.7273896484375,0.026374083012342453,0.04114104434847832,-0.04522952809929848
1761915632484444000,7.73744384765625,0.01978888548910618,0.024714933708310127,-0.02051006816327572
1761915632494497800,7.747497802734375,0.017977135255932808,-0.00495161535218358,-0.0031497206073254347
1761915632504552000,7.757552001953125,0.013709686696529388,-0.009316802956163883,-0.0040972731076180935
1761915632514605800,7.767605712890625,0.011300858110189438,0.006916761863976717,-0.012605806812644005
1761915632524660000,7.777659912109375,0.019481556490063667,0.018159562721848488,-0.02099796012043953
1761915632534713900,7.7877138671875,0.03026149980723858,0.00028069718973711133,-0.02340013161301613
1761915632544768800,7.797768798828125,0.03681367263197899,-0.03785177320241928,-0.02105548419058323
1761915632554823000,7.807822998046875,0.0394802987575531,-0.06534837931394577,-0.01925651915371418
1761915632564876800,7.817876708984375,0.033971548080444336,-0.06560590863227844,-0.018450113013386726
1761915632574931000,7.827930908203125,0.03297818824648857,-0.04866820201277733,-0.014412228949368
1761915632584984800,7.83798486328125,0.02725558914244175,-0.016408268362283707,-0.010544519871473312
1761915632595039000,7.8480390625,0.02256762608885765,0.007567904889583588,-0.0032477248460054398
1761915632605092900,7.8580927734375,0.013964285142719746,0.012321647256612778,0.009321330115199089
1761915632615146800,7.868146728515625,0.01302472222596407,0.004463457968086004,0.02052018791437149
1761915632625200600,7.87820068359375,0.015381885692477226,0.0014599448768422008,0.03062102571129799
1761915632635254800,7.8882548828125,0.019768910482525826,-0.00015046859334688634,0.030766168609261513
1761915632645308700,7.89830859375,0.02599671296775341,-0.0004463458026293665,0.029919017106294632
1761915632655363800,7.90836376953125,0.029194636270403862,-0.0028594359755516052,0.0297286007553339
1761915632665418000,7.91841796875,0.030650854110717773,-0.0025832662358880043,0.026639865711331367
1761915632675472000,7.928471923828125,0.02875574864447117,-0.0035185683518648148,0.020552679896354675
1761915632685526000,7.938526123046875,0.021639781072735786,0.0004069310089107603,0.01338531356304884
1761915632695579600,7.94857958984375,0.019517775624990463,-0.00541367381811142,0.008525577373802662
1761915632705633800,7.9586337890625,0.018864767625927925,-0.008962602354586124,0.005869074258953333
1761915632715687700,7.968687744140625,0.02550988644361496,-0.006848052144050598,-0.0020631509833037853
1761915632725741800,7.978741943359375,0.026194585487246513,-0.009632120840251446,0.004580636974424124
1761915632735795700,7.988795654296875,0.027629496529698372,-0.014663098379969597,0.010953049175441265
1761915632745849900,7.998849853515625,0.03111610747873783,-0.012853214517235756,0.015138206072151661
1761915632755903700,8.00890380859375,0.03154487535357475,0.001116130850277841,0.018009893596172333
1761915632765959000,8.018958984375,0.02887905202805996,0.026670759543776512,0.01338531356304884
1761915632776012800,8.0290126953125,0.0231146402657032,0.04813450574874878,0.007632619701325893
1761915632786066700,8.039066650390625,0.020069316029548645,0.03020717017352581,0.0150990579277277
1761915632796120800,8.049120849609375,0.02461027167737484,-0.004054662771522999,0.014459899626672268
1761915632806174700,8.0591748046875,0.032940905541181564,-0.016171246767044067,0.00726350536569953
1761915632816228900,8.069228759765625,0.032159000635147095,-0.014507037587463856,-0.003655987558886409
1761915632826282800,8.07928271484375,0.024762870743870735,-0.0032413334120064974,-0.011708054691553116
1761915632836337000,8.0893369140625,0.015393869951367378,0.015717709437012672,-0.01203722134232521
1761915632846390800,8.099390869140626,0.00942093227058649,0.025914421305060387,-0.0023009711876511574
1761915632856445000,8.10944482421875,0.0010271812789142132,0.02430613897740841,0.008334096521139145
1761915632866498800,8.119498779296874,0.00863396842032671,0.010791394859552383,0.023184681311249733
1761915632876553700,8.1295537109375,0.011302721686661243,-0.0032495891209691763,0.02436046674847603
1761915632886608000,8.13960791015625,0.007162305526435375,-0.016759006306529045,0.0275591891258955
1761915632896661800,8.149661865234375,-0.007873902097344398,-0.04032052308320999,0.030042320489883423
1761915632906716000,8.1597158203125,-0.019173162057995796,-0.0464753583073616,0.03196405991911888
1761915632916769800,8.169769775390625,-0.028004735708236694,-0.0494820661842823,0.03213796392083168
1761915632926824000,8.179823974609375,-0.027908863499760628,-0.04412884637713432,0.030006900429725647
1761915632936877800,8.1898779296875,-0.020265057682991028,-0.020414993166923523,0.018126273527741432
1761915632946931700,8.199931640625,-0.012467588298022747,-0.005395297892391682,0.0067934575490653515
1761915632956985600,8.209985595703126,-0.0084864292293787,-0.00011771172285079956,-0.0015872439835220575
1761915632967039700,8.220039794921876,-0.0027395938523113728,0.007665909361094236,0.000056459015468135476
1761915632977094000,8.230093994140624,-0.002240251051262021,0.016235163435339928,0.005328719038516283
1761915632987148800,8.240148681640624,-0.0010543455136939883,0.0190820824354887,0.013684652745723724
1761915632997203000,8.250202880859375,0.0014900385867804289,0.021743111312389374,0.024380972608923912
1761915633007256800,8.2602568359375,0.0018764632986858487,0.018934275954961777,0.03844911977648735
1761915633017311000,8.27031103515625,-0.002172074280679226,0.022696522995829582,0.049205098301172256
1761915633027364600,8.280364501953125,-0.005870938766747713,0.017006147652864456,0.05384059622883797
1761915633037418800,8.290418701171875,-0.003569700988009572,-0.0020748688839375973,0.04206090047955513
1761915633047472600,8.30047265625,0.0003664509567897767,-0.02190423384308815,0.020177707076072693
1761915633057527000,8.310527099609375,-0.005379585549235344,-0.026265691965818405,-0.00415319949388504
1761915633067581000,8.320580810546875,-0.011896872892975807,-0.023390278220176697,-0.016873788088560104
1761915633077635000,8.330635009765626,-0.01176424790173769,-0.03524986654520035,-0.009904029779136181
1761915633087689000,8.34068896484375,-0.013074789196252823,-0.04001958668231964,0.009021458216011524
1761915633097744000,8.350743896484374,-0.018320949748158455,-0.03285754844546318,0.023749537765979767
1761915633107798000,8.360798095703124,-0.024772990494966507,-0.024348216131329536,0.037518881261348724
1761915633117852000,8.370851806640625,-0.02484862506389618,-0.014514227397739887,0.04234372824430466
1761915633127906000,8.380906005859375,-0.01822560839354992,-0.007421431131660938,0.03675401955842972
1761915633137960000,8.3909599609375,-0.011122958734631538,0.0026498453225940466,0.0248467605561018
1761915633148014000,8.40101416015625,0.005298358853906393,0.018012024462223053,0.020378241315484047
1761915633158068000,8.41106787109375,0.02256469801068306,0.03413080424070358,0.02286776527762413
1761915633168122000,8.4211220703125,0.029452962800860405,0.03615880385041237,0.034865304827690125
1761915633178176000,8.431176025390625,0.02124403603374958,0.029288379475474358,0.04631130397319794
1761915633188230100,8.441230224609376,0.006823018658906221,0.019104186445474625,0.04868737980723381
1761915633198285000,8.45128515625,-0.007170028518885374,0.0018232000293210149,0.045222073793411255
1761915633208339000,8.4613388671875,-0.01429504994302988,-0.00152306177187711,0.03015390783548355
1761915633218393000,8.47139306640625,-0.011830826289951801,-0.005486910697072744,0.00862970668822527
1761915633228447000,8.481447021484374,-0.0014761901693418622,-0.009942378848791122,-0.00666322885081172
1761915633238501000,8.491501220703125,0.010484598577022552,-0.005905559752136469,-0.009726929478347301
1761915633248555000,8.501554931640625,0.015594139695167542,0.0039854203350842,-0.006087719928473234
1761915633258609200,8.511609130859375,0.019931096583604813,0.019996078684926033,0.007831557653844357
1761915633268663000,8.5216630859375,0.019648535177111626,0.03020424209535122,0.022545255720615387
1761915633278717000,8.531717041015625,0.020801419392228127,0.025225196033716202,0.0324130654335022
1761915633288770800,8.541770751953125,0.019052520394325256,0.015488678589463234,0.028198348358273506
1761915633298825000,8.551824951171875,0.011848137713968754,0.004206729121506214,0.009252088144421577
1761915633308880100,8.561880126953126,0.007218764163553715,-0.0143520412966609,-0.0062821307219564915
1761915633318934000,8.57193408203125,0.009462211281061172,-0.030407972633838654,-0.013273194432258606
1761915633328988200,8.58198828125,0.015176023356616497,-0.03140532597899437,-0.007102117873728275
1761915633339042000,8.5920419921875,0.01955585740506649,-0.0065223476849496365,0.01697205938398838
1761915633349096000,8.602095947265624,0.02430294267833233,0.023737020790576935,0.043109387159347534
1761915633359149800,8.61214990234375,0.02231649123132229,0.0424870066344738,0.07269018143415451
1761915633369204000,8.622203857421875,0.021761221811175346,0.043778106570243835,0.08639401197433472
1761915633379257900,8.6322578125,0.02233300171792507,0.035360388457775116,0.0866861566901207
1761915633389312000,8.64231201171875,0.03128548339009285,0.021861888468265533,0.06347458064556122
1761915633399366100,8.6523662109375,0.04499676823616028,0.010586864314973354,0.03224875032901764
1761915633409420000,8.662419921875,0.0451861210167408,0.013289174064993858,-0.0001893507578643039
1761915633419475200,8.67247509765625,0.041245441883802414,0.01459039468318224,-0.02105042338371277
1761915633429528800,8.68252880859375,0.039451535791158676,0.012655341066420078,-0.037090644240379333
1761915633439583000,8.6925830078125,0.046240199357271194,-0.002296443795785308,-0.04717789962887764
1761915633449636900,8.702636962890624,0.055318381637334824,-0.01016555167734623,-0.06205325201153755
1761915633459691000,8.71269091796875,0.059595152735710144,-0.01323857344686985,-0.07071438431739807
1761915633469745000,8.722744873046874,0.055261123925447464,0.004670385736972094,-0.07466891407966614
1761915633479799000,8.732799072265625,0.040938377380371094,0.038370292633771896,-0.060628458857536316
1761915633489853200,8.742853271484375,0.023566046729683876,0.06488551944494247,-0.031187480315566063
1761915633499907000,8.752906982421875,0.003926298581063747,0.06670313328504562,0.009349293075501919
1761915633509961200,8.762961181640625,-0.011639345437288284,0.025479793548583984,0.04459622874855995
1761915633520015000,8.77301513671875,-0.02725958451628685,-0.026327744126319885,0.06105456501245499
1761915633530070000,8.783070068359375,-0.0306314118206501,-0.07037962228059769,0.05601106956601143
1761915633540124000,8.7931240234375,-0.04055461660027504,-0.0868840292096138,0.03598383441567421
1761915633550178000,8.803177978515626,-0.04560743272304535,-0.06795055419206619,0.0014117417158558965
1761915633560232000,8.81323193359375,-0.045997586101293564,-0.0395205095410347,-0.021317007020115852
1761915633570286000,8.8232861328125,-0.04121294990181923,-0.018315358087420464,-0.02918638102710247
1761915633580340000,8.833340087890624,-0.026022279635071754,0.0005094627267681062,-0.023426495492458344
1761915633590394000,8.84339404296875,-0.016874054446816444,0.01429238636046648,-0.014871890656650066
1761915633600448300,8.8534482421875,-0.006113552488386631,0.009874468669295311,0.0016261261189356446
1761915633610502000,8.863501953125,-0.0007696535321883857,0.009127718396484852,0.01441329438239336
1761915633620556000,8.87355615234375,0.0023212111555039883,0.009272327646613121,0.026585005223751068
1761915633630610000,8.88360986328125,0.00705737667158246,0.020064255222678185,0.03393746167421341
1761915633640665000,8.8936650390625,0.018977154046297073,0.04320313036441803,0.037754304707050323
1761915633650719000,8.903718994140625,0.041261155158281326,0.048285242170095444,0.03202051669359207
1761915633660773000,8.913773193359376,0.0599200576543808,0.05632638931274414,0.02076173759996891
1761915633670827000,8.923826904296876,0.06690126657485962,0.05601639673113823,0.009542105719447136
1761915633680881000,8.933880859375,0.06656597554683685,0.03982917219400406,0.005284776911139488
1761915633690935000,8.94393505859375,0.05248105153441429,0.026792731136083603,0.0014772554859519005
1761915633700989000,8.953989013671874,0.04319141432642937,0.012713930569589138,0.0014479606179520488
1761915633711043000,8.96404296875,0.03510366007685661,-0.009077650494873524,-0.0012412993237376213
1761915633721097000,8.974096923828125,0.033055420964956284,-0.024564199149608612,0.00024474450037814677
1761915633731151000,8.984151123046875,0.0286438949406147,-0.035892754793167114,0.001910285442136228
1761915633741205000,8.994205078125,0.026912307366728783,-0.021572669968008995,0.006984406150877476
1761915633751260200,9.00426025390625,0.025591380894184113,-0.009121859446167946,0.012370383366942406
1761915633761313800,9.014313720703125,0.03175606578588486,0.010822554118931293,0.02701989933848381
1761915633771368000,9.024367919921875,0.029146166518330574,0.028741633519530296,0.042506713420152664
1761915633781422000,9.034422119140626,0.017596570774912834,0.04671051353216171,0.05529388040304184
1761915633791476000,9.04447607421875,0.00009454221435589716,0.04285478964447975,0.0609096884727478
1761915633801530000,9.054530029296876,-0.02594185248017311,0.018457837402820587,0.06214939057826996
1761915633811584000,9.064583984375,-0.045218877494335175,-0.019590744748711586,0.05555087700486183
1761915633821638100,9.07463818359375,-0.05312367156147957,-0.04328302666544914,0.04025954008102417
1761915633831692000,9.084692138671874,-0.05296467989683151,-0.028355475515127182,0.023899206891655922
1761915633841746200,9.09474609375,-0.050456248223781586,-0.012012188322842121,0.009827597066760063
1761915633851800000,9.104800048828125,-0.04271524026989937,-0.0037175065372139215,0.0023907197173684835
1761915633861855000,9.11485498046875,-0.04170750081539154,-0.009730657562613487,-0.005477589555084705
1761915633871909000,9.1249091796875,-0.04256743565201759,-0.018018415197730064,-0.012779977172613144
1761915633881963000,9.134962890625,-0.04825541377067566,-0.021203288808465004,-0.016558736562728882
1761915633892017200,9.14501708984375,-0.052493300288915634,-0.019771041348576546,-0.014507570303976536
1761915633902071000,9.155071044921876,-0.05745210871100426,-0.01215626485645771,-0.004867193289101124
1761915633912125200,9.165125244140626,-0.05813121423125267,-0.019026421010494232,0.0038418760523200035
1761915633922179000,9.175178955078126,-0.05672586336731911,-0.013462012633681297,0.005641906522214413
1761915633932233200,9.185233154296874,-0.043602339923381805,0.0013022858183830976,-0.001942509668879211
1761915633942286800,9.195286865234374,-0.029350697994232178,0.018975555896759033,-0.007404386531561613
1761915633952341000,9.205341064453124,-0.020167851820588112,0.03415903449058533,-0.003433080855756998
1761915633962395000,9.215394775390624,-0.01702079549431801,0.03303997591137886,0.015097726136446
1761915633972450000,9.225449951171875,-0.017777131870388985,0.03014032542705536,0.03525971993803978
1761915633982504200,9.235504150390625,-0.015186143107712269,0.02183419279754162,0.052930593490600586
1761915633992558000,9.24555810546875,-0.006851780693978071,0.01480318047106266,0.04817764833569527
1761915634002612200,9.2556123046875,0.0016173376934602857,-0.0029289445374161005,0.03281334042549133
1761915634012666000,9.265666015625,0.00224903947673738,-0.006676012184470892,0.00765898497775197
1761915634022720000,9.275719970703125,-0.0033507891930639744,0.004800880327820778,-0.01290487963706255
1761915634032774000,9.28577392578125,-0.011021225713193417,0.017597636207938194,-0.0076211681589484215
1761915634042828000,9.295828125,-0.017678596079349518,0.013499297201633453,0.017644774168729782
1761915634052882000,9.3058818359375,-0.021820077672600746,0.008496282622218132,0.05126531794667244
1761915634062935300,9.315935302734376,-0.02281183935701847,-0.009639045223593712,0.07616427540779114
1761915634072989200,9.3259892578125,-0.020671190693974495,-0.025909096002578735,0.08418465405702591
1761915634083044400,9.33604443359375,-0.021936457604169846,-0.04236769676208496,0.0794743224978447
1761915634093098200,9.34609814453125,-0.026497121900320053,-0.05902949720621109,0.0634322389960289
1761915634103152400,9.35615234375,-0.03146258369088173,-0.05988730117678642,0.039436887949705124
1761915634113206300,9.366206298828125,-0.030105438083410263,-0.04085928201675415,0.018629077821969986
1761915634123260200,9.37626025390625,-0.021347632631659508,-0.012270514853298664,0.009493104182183743
1761915634133314300,9.386314208984375,-0.013313408941030502,0.008153533563017845,0.016711335629224777
1761915634143368200,9.3963681640625,-0.010605506598949432,0.021216072142124176,0.03705548867583275
1761915634153422300,9.40642236328125,-0.004541754722595215,0.02209065482020378,0.05892430245876312
1761915634163476200,9.416476318359376,-0.0026434536557644606,0.012557603418827057,0.07778134942054749
1761915634173530400,9.4265302734375,-0.0022069616243243217,-0.0012956279097124934,0.06960171461105347
1761915634183584300,9.436584228515626,-0.0005352954030968249,-0.013551495037972927,0.045229796320199966
1761915634193639200,9.44663916015625,-0.003369697602465749,-0.018987806513905525,0.015837019309401512
1761915634203693300,9.456693359375,-0.006384395994246006,-0.018016017973423004,-0.01413685828447342
1761915634213747200,9.466747314453125,-0.0023007048293948174,-0.0014540859265252948,-0.027227891609072685
1761915634223801300,9.47680126953125,-0.0006657902849838138,0.002558498876169324,-0.020008062943816185
1761915634233855200,9.486855224609375,0.0073327478021383286,-0.0024977787397801876,-0.00566933723166585
1761915634243909400,9.496909423828125,0.017772072926163673,-0.0011669971281662583,0.014319018460810184
1761915634253963300,9.50696337890625,0.024685904383659363,0.028662005439400673,0.02485581487417221
1761915634264017400,9.517017333984375,0.025469940155744553,0.07051784545183182,0.03359471261501312
1761915634274071300,9.5270712890625,0.011521900072693825,0.08446002006530762,0.04385081306099892
1761915634284125400,9.53712548828125,-0.005026184022426605,0.057264089584350586,0.050985418260097504
1761915634294179300,9.547179443359376,-0.01829724758863449,0.006086654495447874,0.05221926048398018
1761915634304234200,9.557234130859374,-0.020958011969923973,-0.03466343879699707,0.04115542769432068
1761915634314288400,9.567288330078124,-0.02076599933207035,-0.03712419793009758,0.0163643267005682
1761915634324342300,9.57734228515625,-0.019892215728759766,-0.01696380414068699,-0.010550645180046558
1761915634334396400,9.587396484375,-0.02220277301967144,-0.0012271846644580364,-0.019238142296671867
1761915634344450300,9.5974501953125,-0.02497139573097229,0.014083595015108585,-0.01546471007168293
1761915634354504400,9.60750439453125,-0.01528574526309967,0.021439777687191963,0.004450408276170492
1761915634364558300,9.617558349609375,-0.010209227912127972,0.03514307364821434,0.04356025904417038
1761915634374612200,9.6276123046875,-0.006748982705175877,0.04228860139846802,0.0748625248670578
1761915634384666000,9.637666015625,-0.009605489671230316,0.043239615857601166,0.0934191644191742
1761915634394720300,9.64772021484375,-0.014859906397759914,0.03377287834882736,0.09372702240943909
1761915634404774100,9.657774169921876,-0.016396816819906235,0.011469169519841671,0.07370484620332718
1761915634414829300,9.667829345703124,-0.01792627014219761,-0.0070464578457176685,0.04032851383090019
1761915634424883500,9.677883544921874,-0.015180284157395363,-0.017009343951940536,0.0011627360945567489
1761915634434937300,9.687937255859374,-0.007198524195700884,-0.018928684294223785,-0.028834577649831772
1761915634444991200,9.6979912109375,-0.001600826159119606,-0.014580007642507553,-0.043295808136463165
1761915634455045000,9.708045166015625,0.00580702256411314,-0.008684301748871803,-0.043834298849105835
1761915634465099300,9.718099365234375,0.0016351809026673436,-0.004343615844845772,-0.03363998606801033
1761915634475153200,9.728153076171875,0.00926327332854271,-0.0028873991686850786,-0.010247577913105488
1761915634485207300,9.738207275390625,0.013678262010216713,-0.0018748653819784522,0.013896108604967594
1761915634495261200,9.74826123046875,0.0252800565212965,0.01233150064945221,0.022952187806367874
1761915634505315300,9.7583154296875,0.03045085072517395,0.02725718729197979,0.036506347358226776
1761915634515369200,9.768369140625,0.029158949851989746,0.01805836334824562,0.03765816241502762
1761915634525424000,9.778424072265626,0.02219558320939541,-0.0030181603506207466,0.03292732313275337
1761915634535478300,9.788478271484376,0.008823851123452187,-0.02225470542907715,0.01871483214199543
1761915634545532200,9.7985322265625,-0.0013334447285160422,-0.025668878108263016,-0.005870406050235033
1761915634555586300,9.80858642578125,-0.00885021686553955,-0.014551778323948383,-0.022278141230344772
1761915634565640200,9.81864013671875,-0.008826514706015587,-0.0008796420879662037,-0.02430027909576893
1761915634575694300,9.8286943359375,-0.0036850159522145987,0.00213638786226511,-0.009957825765013695
1761915634585748200,9.838748291015625,0.00541447289288044,0.007961519993841648,0.01375389564782381
1761915634595802400,9.84880224609375,0.008075769990682602,0.00720491586253047,0.037166010588407516
1761915634605856300,9.858856201171875,0.006073338910937309,0.0068326061591506,0.050454117357730865
1761915634615910400,9.868910400390625,-0.0006223807577043772,0.012429771944880486,0.05236067622900009
1761915634625964300,9.87896435546875,-0.0009914948605000973,0.005100752227008343,0.03829386085271835
1761915634636019200,9.889019287109376,0.00022210762836039066,-0.013966947793960571,0.017830129712820053
1761915634646073300,9.8990732421875,0.004334294702857733,-0.02712935581803322,-0.0036908749025315046
1761915634656127200,9.909127197265626,0.005573463626205921,-0.031196534633636475,-0.02287096157670021
1761915634666179000,9.919178955078126,0.007327155210077763,-0.031005851924419403,-0.03597318008542061
1761915634676233200,9.929233154296876,0.005934854503720999,-0.03813700005412102,-0.02977866865694523
1761915634686287000,9.939287109375,0.004700212739408016,-0.05291301757097244,-0.015139271505177021
1761915634696342300,9.94934228515625,0.00956634059548378,-0.05205361545085907,0.002659166231751442
1761915634706396400,9.959396484375,0.004324707202613354,-0.03197071701288223,0.021026987582445145
1761915634716450300,9.9694501953125,0.0060323262587189674,0.014873221516609192,0.05109008029103279
1761915634726504400,9.97950439453125,0.010468619875609875,0.048944905400276184,0.07010931521654129
1761915634736558000,9.98955810546875,0.015726232901215553,0.05878102406859398,0.0807129517197609
1761915634746612200,9.9996123046875,0.01931324414908886,0.037282392382621765,0.08188607543706894
1761915634756666000,10.009666015625,0.02058703452348709,0.0012892362428829074,0.06643521785736084
1761915634766720300,10.01972021484375,0.00723474333062768,-0.036751888692379,0.033361420035362244
1761915634776774100,10.029774169921875,-0.006351639050990343,-0.03997324779629707,-0.006412891671061516
1761915634786828300,10.039828369140626,-0.016173643991351128,-0.027955468744039536,-0.03730316460132599
1761915634796882400,10.04988232421875,-0.02058383822441101,-0.010447581298649311,-0.05459027364850044
1761915634806937300,10.059937255859374,-0.016872722655534744,-0.0070760189555585384,-0.05445658415555954
1761915634816991200,10.0699912109375,-0.015871107578277588,-0.016105998307466507,-0.04640078917145729
1761915634827045000,10.080045166015625,-0.015380553901195526,-0.03943289443850517,-0.032286833971738815
1761915634837099300,10.090099365234375,-0.016465526074171066,-0.07312454283237457,-0.011901666410267353
1761915634847153200,10.100153076171875,-0.01468493603169918,-0.09142658859491348,0.0012000204296782613
1761915634857207300,10.110207275390625,-0.014055631123483181,-0.07522684335708618,0.017598435282707214
1761915634867261200,10.12026123046875,-0.004165183752775192,-0.03285328671336174,0.01774410903453827
1761915634877315300,10.1303154296875,-0.003838680451735854,-0.0019467707024887204,0.008993228897452354
1761915634887369500,10.140369384765625,-0.013627128675580025,-0.04446014389395714,-0.00833729188889265
1761915634897423400,10.15042333984375,-0.017973674461245537,-0.14691194891929626,-0.02208133414387703
1761915634907477500,10.1604775390625,-0.0264851376414299,-0.2711747884750366,-0.033664219081401825
1761915634917531100,10.17053125,-0.016935573890805244,-0.3301563262939453,0.006853645201772451
1761915634927586300,10.18058642578125,0.002522812457755208,-0.21240094304084778,0.018882611766457558
1761915634937640200,10.19064013671875,0.009461145848035812,0.01513074990361929,0.015119032002985477
1761915634947694300,10.2006943359375,0.004519117996096611,0.1719675064086914,0.032217059284448624
1761915634957748200,10.210748291015625,0.007399859372526407,0.1615782380104065,0.06223248317837715
1761915634967802400,10.22080224609375,0.000749679864384234,0.09871485829353333,0.06667143851518631
1761915634977856300,10.230856201171875,-0.003358246060088277,0.04307955875992775,0.07892251014709473
1761915634987910100,10.24091015625,-0.01101776398718357,0.0416952483355999,0.1129225566983223
