time,seconds_elapsed,z,y,x
1761916057798875400,0.04687548828125,-1.0043792724609375,0.000518798828125,-0.062042236328125
1761916057808929500,0.056929443359375,-0.9853668212890625,0.0014495849609375,-0.0687255859375
1761916057818983400,0.0669833984375,-0.9732818603515625,0.00225830078125,-0.0709228515625
1761916057829038300,0.077038330078125,-0.987030029296875,0.0024261474609375,-0.0668182373046875
1761916057839092500,0.087092529296875,-1.002471923828125,0.0013427734375,-0.062957763671875
1761916057849146400,0.097146484375,-0.99505615234375,0.0013427734375,-0.0650177001953125
1761916057859201500,0.107201416015625,-0.978118896484375,0.0032196044921875,-0.069427490234375
1761916057869255400,0.11725537109375,-0.980316162109375,0.0028533935546875,-0.068817138671875
1761916057879309300,0.127309326171875,-0.99505615234375,0.0026092529296875,-0.064849853515625
1761916057889364500,0.137364501953125,-0.9986114501953125,0.0025787353515625,-0.063629150390625
1761916057899418400,0.14741845703125,-0.9839630126953125,0.003173828125,-0.0675048828125
1761916057909472500,0.157472412109375,-0.9748077392578125,0.003997802734375,-0.0692901611328125
1761916057919526400,0.1675263671875,-0.9886932373046875,0.0022735595703125,-0.0670623779296875
1761916057929581300,0.177581298828125,-0.998870849609375,0.0014495849609375,-0.0647430419921875
1761916057939635200,0.18763525390625,-0.9918975830078125,0.001556396484375,-0.0664520263671875
1761916057949689300,0.197689453125,-0.9822540283203125,0.0026702880859375,-0.0687103271484375
1761916057959744500,0.20774462890625,-0.983795166015625,0.000762939453125,-0.0695343017578125
1761916057969798400,0.21779833984375,-0.9929962158203125,0.0002288818359375,-0.06744384765625
1761916057979852500,0.2278525390625,-0.9948883056640625,0.001617431640625,-0.066162109375
1761916057989907200,0.2379072265625,-0.987396240234375,0.00323486328125,-0.068267822265625
1761916057999961300,0.24796142578125,-0.9820556640625,0.0037689208984375,-0.068695068359375
1761916058010015500,0.258015380859375,-0.98822021484375,0.003662109375,-0.0673675537109375
1761916058020070400,0.2680703125,-0.9927978515625,0.0034332275390625,-0.0658111572265625
1761916058030124500,0.27812451171875,-0.9908905029296875,0.0038909912109375,-0.0660552978515625
1761916058040178200,0.28817822265625,-0.9857177734375,0.00421142578125,-0.0669097900390625
1761916058050232300,0.298232421875,-0.986480712890625,0.0040435791015625,-0.0671539306640625
1761916058060287500,0.30828759765625,-0.9897918701171875,0.0030059814453125,-0.0658416748046875
1761916058070341400,0.31834130859375,-0.9906463623046875,0.00238037109375,-0.065887451171875
1761916058080395500,0.3283955078125,-0.9875946044921875,0.0066680908203125,-0.066497802734375
1761916058090450200,0.3384501953125,-0.98480224609375,0.00433349609375,-0.0689849853515625
1761916058100504300,0.34850439453125,-0.9877471923828125,0.0026702880859375,-0.06439208984375
1761916058110558200,0.35855810546875,-0.9949188232421875,-0.00262451171875,-0.0695648193359375
1761916058120613400,0.36861328125,-0.99053955078125,-0.0037384033203125,-0.0774993896484375
1761916058130667500,0.37866748046875,-0.9759979248046875,0.0047149658203125,-0.06011962890625
1761916058140721400,0.388721435546875,-0.9972991943359375,0.0040283203125,-0.0637359619140625
1761916058150775600,0.398775634765625,-0.999755859375,0.0040740966796875,-0.071624755859375
1761916058160830500,0.40883056640625,-0.9753570556640625,-0.0040283203125,-0.0660858154296875
1761916058170884400,0.41888427734375,-0.9860076904296875,0.0045623779296875,-0.071197509765625
1761916058180938500,0.4289384765625,-0.9924774169921875,0.0060882568359375,-0.06817626953125
1761916058190993400,0.438993408203125,-0.9882049560546875,0.0032501220703125,-0.0584259033203125
1761916058201047300,0.44904736328125,-0.9972991943359375,0.002105712890625,-0.0683135986328125
1761916058211101200,0.45910107421875,-0.9813079833984375,0.001190185546875,-0.0702056884765625
1761916058221156400,0.46915625,-0.9785003662109375,0.00634765625,-0.0635223388671875
1761916058231210500,0.47921044921875,-0.9999542236328125,0.007476806640625,-0.0665435791015625
1761916058241264400,0.489264404296875,-0.98931884765625,0.00006103515625,-0.065093994140625
1761916058251319300,0.4993193359375,-0.9839324951171875,-0.0016937255859375,-0.066802978515625
1761916058261373200,0.509373291015625,-0.9887237548828125,0.000274658203125,-0.0691375732421875
1761916058271427300,0.51942724609375,-0.9866180419921875,0.0023040771484375,-0.0649566650390625
1761916058281481200,0.529481201171875,-0.9936370849609375,0.002410888671875,-0.0651092529296875
1761916058291536400,0.539536376953125,-0.9924163818359375,0.0023956298828125,-0.068359375
1761916058301590500,0.549590576171875,-0.9801788330078125,0.0001220703125,-0.068115234375
1761916058311644400,0.55964453125,-0.9873199462890625,0.0037689208984375,-0.06689453125
1761916058321699300,0.56969921875,-0.9944000244140625,0.004364013671875,-0.06793212890625
1761916058331753500,0.57975341796875,-0.9881744384765625,0.0027008056640625,-0.06591796875
1761916058341807400,0.589807373046875,-0.988677978515625,0.0019989013671875,-0.0678253173828125
1761916058351862500,0.599862548828125,-0.986572265625,0.0021820068359375,-0.067535400390625
1761916058361916400,0.60991650390625,-0.98638916015625,0.005340576171875,-0.066192626953125
1761916058371970300,0.61997021484375,-0.99212646484375,0.006134033203125,-0.06689453125
1761916058382025500,0.630025390625,-0.988494873046875,0.0029754638671875,-0.0663604736328125
1761916058392079400,0.640079345703125,-0.9867095947265625,0.000274658203125,-0.0676116943359375
1761916058402133500,0.650133544921875,-0.989776611328125,0.0008697509765625,-0.0680084228515625
1761916058412188400,0.6601884765625,-0.99005126953125,0.0034637451171875,-0.06658935546875
1761916058422242300,0.6702421875,-0.9877471923828125,0.0045318603515625,-0.065704345703125
1761916058432296200,0.680296142578125,-0.9896087646484375,0.00439453125,-0.068145751953125
1761916058442350300,0.690350341796875,-0.9872894287109375,0.0034637451171875,-0.06756591796875
1761916058452405500,0.700405517578125,-0.9894866943359375,0.0038604736328125,-0.0674896240234375
1761916058462459400,0.71045947265625,-0.98944091796875,0.0052947998046875,-0.0668792724609375
1761916058472513500,0.720513427734375,-0.987701416015625,0.002899169921875,-0.0662384033203125
1761916058482568200,0.730568115234375,-0.9897613525390625,-0.0000762939453125,-0.0677947998046875
1761916058492622800,0.740622802734375,-0.989349365234375,-0.000457763671875,-0.06805419921875
1761916058502676700,0.7506767578125,-0.9880218505859375,-0.000213623046875,-0.0684814453125
1761916058512732000,0.76073193359375,-0.9886627197265625,0.001251220703125,-0.0673828125
1761916058522785500,0.77078564453125,-0.99029541015625,0.0013427734375,-0.0677642822265625
1761916058532839700,0.780839599609375,-0.98980712890625,-0.000152587890625,-0.0679779052734375
1761916058542894800,0.790894775390625,-0.988677978515625,0.000701904296875,-0.06817626953125
1761916058552948700,0.80094873046875,-0.9877777099609375,0.0035400390625,-0.0674591064453125
1761916058563003000,0.8110029296875,-0.9889678955078125,0.0046539306640625,-0.0658416748046875
1761916058573057500,0.8210576171875,-0.989898681640625,0.005340576171875,-0.0661468505859375
1761916058583111700,0.831111572265625,-0.9892730712890625,0.004638671875,-0.067230224609375
1761916058593165800,0.841165771484375,-0.9864654541015625,0.005096435546875,-0.0655059814453125
1761916058603219700,0.8512197265625,-0.9882659912109375,0.005340576171875,-0.06549072265625
1761916058613275000,0.86127490234375,-0.9898681640625,0.00262451171875,-0.0664825439453125
1761916058623328800,0.871328857421875,-0.9894561767578125,-0.0000152587890625,-0.0679473876953125
1761916058633383000,0.8813828125,-0.987701416015625,-0.001556396484375,-0.06787109375
1761916058643437800,0.891437744140625,-0.9877471923828125,0.0006866455078125,-0.066619873046875
1761916058653491700,0.90149169921875,-0.9894561767578125,0.002410888671875,-0.0666961669921875
1761916058663545900,0.9115458984375,-0.9893951416015625,0.0029449462890625,-0.0673065185546875
1761916058673600800,0.921600830078125,-0.9880828857421875,0.003387451171875,-0.067413330078125
1761916058683655000,0.931655029296875,-0.9882659912109375,0.00396728515625,-0.0673065185546875
1761916058693708500,0.94170849609375,-0.9602203369140625,0.006988525390625,-0.0654144287109375
1761916058703763700,0.951763671875,-0.971099853515625,0.0100250244140625,-0.066192626953125
1761916058713817900,0.96181787109375,-1.06988525390625,-0.0030364990234375,-0.06756591796875
1761916058723871700,0.971871826171875,-1.01800537109375,-0.01416015625,-0.0720062255859375
1761916058733926700,0.9819267578125,-0.9225311279296875,0.001953125,-0.0702667236328125
1761916058743980500,0.99198046875,-0.9680328369140625,0.0177154541015625,-0.0615234375
1761916058754034700,1.00203466796875,-1.0077972412109375,0.0032501220703125,-0.0643463134765625
1761916058764089900,1.01208984375,-1.0036773681640625,-0.009552001953125,-0.0719146728515625
1761916058774143700,1.022143798828125,-0.9922027587890625,0.004608154296875,-0.067962646484375
1761916058784198000,1.032197998046875,-0.96563720703125,0.010498046875,-0.0662841796875
1761916058794252800,1.042252685546875,-0.9749908447265625,0.0004730224609375,-0.0685882568359375
1761916058804306700,1.052306640625,-1.0174102783203125,0.0007476806640625,-0.065399169921875
1761916058814360800,1.06236083984375,-1.0003662109375,0.0041961669921875,-0.065338134765625
1761916058824415700,1.072415771484375,-0.9605712890625,0.0032806396484375,-0.0682830810546875
1761916058834470000,1.082469970703125,-0.983551025390625,0.0039825439453125,-0.0686492919921875
1761916058844523800,1.092523681640625,-1.008056640625,0.0022125244140625,-0.06683349609375
1761916058854578700,1.10257861328125,-0.990692138671875,0.001861572265625,-0.0660858154296875
1761916058864632800,1.1126328125,-0.9795379638671875,0.004180908203125,-0.06658935546875
1761916058874686700,1.122686767578125,-0.98638916015625,0.00262451171875,-0.06854248046875
1761916058884742000,1.132741943359375,-0.991668701171875,0.0003204345703125,-0.06781005859375
1761916058894795800,1.142795654296875,-0.993316650390625,0.003753662109375,-0.0657196044921875
1761916058904849700,1.152849609375,-0.9892730712890625,0.0042724609375,-0.0657501220703125
1761916058914904800,1.16290478515625,-0.9832916259765625,0.00177001953125,-0.069488525390625
1761916058924958700,1.172958740234375,-0.9889678955078125,0.00091552734375,-0.0694427490234375
1761916058935012900,1.183012939453125,-0.9921417236328125,0.00372314453125,-0.06640625
1761916058945066800,1.193066650390625,-0.987274169921875,0.0019378662109375,-0.0666656494140625
1761916058955121700,1.20312158203125,-0.988037109375,0.001617431640625,-0.0678253173828125
1761916058965175800,1.21317578125,-0.989959716796875,0.002716064453125,-0.0683746337890625
1761916058975229700,1.223229736328125,-0.9875030517578125,0.0033721923828125,-0.06732177734375
1761916058985284900,1.233284912109375,-0.988433837890625,0.003204345703125,-0.0654754638671875
1761916058995338800,1.2433388671875,-0.9908599853515625,0.0033111572265625,-0.06573486328125
1761916059005393000,1.253392822265625,-0.9881591796875,0.0028076171875,-0.0677642822265625
1761916059015447800,1.26344775390625,-0.987274169921875,0.0032806396484375,-0.067779541015625
1761916059025501700,1.273501708984375,-0.9799957275390625,0.0057525634765625,-0.0648956298828125
1761916059035555800,1.283555908203125,-0.9414215087890625,-0.000396728515625,-0.0719757080078125
1761916059045610800,1.29361083984375,-1.01416015625,0.0045166015625,-0.0686798095703125
1761916059055665000,1.303664794921875,-1.0798187255859375,-0.00164794921875,-0.0590972900390625
1761916059065718500,1.313718505859375,-1.0018463134765625,-0.003509521484375,-0.06195068359375
1761916059075773700,1.323773681640625,-0.9168243408203125,0.006988525390625,-0.072174072265625
1761916059085827800,1.333827880859375,-0.9398651123046875,0.0088043212890625,-0.0775146484375
1761916059095881700,1.3438818359375,-1.0162506103515625,-0.0045623779296875,-0.0707855224609375
1761916059105936600,1.3539365234375,-1.0352020263671875,-0.0051727294921875,-0.058197021484375
1761916059115990500,1.363990478515625,-0.9874420166015625,0.00775146484375,-0.059844970703125
1761916059126044700,1.374044677734375,-0.951812744140625,0.0087738037109375,-0.0737457275390625
1761916059136099800,1.384099853515625,-0.97662353515625,0.0002593994140625,-0.0770416259765625
1761916059146153700,1.39415380859375,-1.0141143798828125,0.000640869140625,-0.063385009765625
1761916059156207900,1.404207763671875,-1.0033111572265625,0.0047149658203125,-0.0571136474609375
1761916059166262800,1.4142626953125,-0.9756011962890625,0.0048980712890625,-0.0670928955078125
1761916059176316700,1.424316650390625,-0.9770355224609375,0.00177001953125,-0.0750579833984375
1761916059186370800,1.434370849609375,-0.989715576171875,0.00128173828125,-0.069915771484375
1761916059196425700,1.44442578125,-0.9964141845703125,0.0023956298828125,-0.0604705810546875
1761916059206480000,1.45447998046875,-0.99615478515625,0.002227783203125,-0.0624237060546875
1761916059216533800,1.46453369140625,-0.98504638671875,0.00115966796875,-0.070281982421875
1761916059226588700,1.474588623046875,-0.9776153564453125,0.00250244140625,-0.07220458984375
1761916059236642800,1.484642822265625,-0.9871673583984375,0.003814697265625,-0.065948486328125
1761916059246696700,1.49469677734375,-0.9978485107421875,0.0023651123046875,-0.063232421875
1761916059256751900,1.504751953125,-0.9937286376953125,0.0010833740234375,-0.0667266845703125
1761916059266805800,1.5148056640625,-0.9821014404296875,0.002716064453125,-0.071441650390625
1761916059276859600,1.524859619140625,-0.980621337890625,0.003631591796875,-0.0686492919921875
1761916059286914800,1.534914794921875,-0.9914398193359375,0.002593994140625,-0.0654296875
1761916059296968700,1.54496875,-0.9986724853515625,0.0018768310546875,-0.0644073486328125
1761916059307022800,1.55502294921875,-0.9888153076171875,0.001708984375,-0.069244384765625
1761916059317077800,1.565077880859375,-0.9796600341796875,0.00372314453125,-0.0701446533203125
1761916059327131600,1.575131591796875,-0.985992431640625,0.0030364990234375,-0.067840576171875
1761916059337185800,1.585185791015625,-0.9969635009765625,0.000823974609375,-0.0643768310546875
1761916059347240700,1.59524072265625,-0.9921722412109375,0.0016326904296875,-0.0656585693359375
1761916059357294800,1.605294921875,-0.9832305908203125,0.0027313232421875,-0.068634033203125
1761916059367348700,1.6153486328125,-0.983062744140625,0.0033111572265625,-0.0676727294921875
1761916059377403600,1.625403564453125,-0.9920654296875,0.00250244140625,-0.0662689208984375
1761916059387457800,1.635457763671875,-0.9934234619140625,0.002166748046875,-0.06573486328125
1761916059397511700,1.64551171875,-0.9871826171875,0.0023193359375,-0.0677490234375
1761916059407566800,1.65556689453125,-0.9836883544921875,0.0023956298828125,-0.068389892578125
1761916059417620700,1.665620849609375,-0.9886016845703125,0.0026702880859375,-0.0677337646484375
1761916059427675000,1.6756748046875,-0.9934234619140625,0.001953125,-0.0659942626953125
1761916059437729800,1.685729736328125,-0.9906463623046875,0.002899169921875,-0.066009521484375
1761916059447783700,1.69578369140625,-0.9861602783203125,0.003814697265625,-0.067840576171875
1761916059457837800,1.705837890625,-0.9855499267578125,0.0025177001953125,-0.06817626953125
1761916059467892700,1.715892822265625,-0.989715576171875,0.0026092529296875,-0.066375732421875
1761916059477947000,1.72594677734375,-0.99139404296875,0.002197265625,-0.0657501220703125
1761916059488001800,1.736001708984375,-0.987945556640625,0.0030517578125,-0.0669403076171875
1761916059498060000,1.74606005859375,-0.9860076904296875,0.002899169921875,-0.06793212890625
1761916059508114000,1.756114013671875,-0.989532470703125,0.0024566650390625,-0.0671234130859375
1761916059518168800,1.7661689453125,-0.991180419921875,0.001922607421875,-0.066192626953125
1761916059528223000,1.776222900390625,-0.989715576171875,0.002532958984375,-0.0666351318359375
1761916059538276900,1.78627685546875,-0.9864349365234375,0.003570556640625,-0.067047119140625
1761916059548332000,1.79633203125,-0.9862518310546875,0.0028533935546875,-0.0679473876953125
1761916059558386000,1.806385986328125,-0.989715576171875,0.002777099609375,-0.0666046142578125
1761916059568440000,1.816440185546875,-0.990325927734375,0.0027923583984375,-0.0658416748046875
1761916059578495000,1.826494873046875,-0.9880828857421875,0.002716064453125,-0.0669403076171875
1761916059588548900,1.836548828125,-0.9873809814453125,0.0023956298828125,-0.0676727294921875
1761916059598603000,1.84660302734375,-0.9879302978515625,0.0025177001953125,-0.0678863525390625
1761916059608658000,1.856657958984375,-0.9885101318359375,0.00274658203125,-0.0666046142578125
1761916059618712000,1.866712158203125,-0.988739013671875,0.0027923583984375,-0.067352294921875
1761916059628765700,1.876765625,-0.9866180419921875,0.0033416748046875,-0.06793212890625
1761916059638820900,1.88682080078125,-0.986297607421875,0.002288818359375,-0.0672607421875
1761916059648875000,1.896875,-0.988800048828125,0.0023040771484375,-0.0668487548828125
1761916059658929000,1.906928955078125,-0.9893951416015625,0.002410888671875,-0.066680908203125
1761916059668984000,1.916984130859375,-0.9874420166015625,0.002899169921875,-0.0676727294921875
1761916059679037700,1.92703759765625,-0.9886322021484375,0.002685546875,-0.068023681640625
1761916059689091800,1.937091796875,-0.988128662109375,0.002655029296875,-0.066925048828125
1761916059699147000,1.94714697265625,-0.9894866943359375,0.0017852783203125,-0.0668792724609375
1761916059709201000,1.957200927734375,-0.9893798828125,0.002105712890625,-0.0672454833984375
1761916059719255000,1.967255126953125,-0.98577880859375,0.002105712890625,-0.066558837890625
1761916059729310000,1.97731005859375,-0.98797607421875,0.00238037109375,-0.0677947998046875
1761916059739363800,1.98736376953125,-0.9886016845703125,0.0031890869140625,-0.06787109375
1761916059749419000,1.9974189453125,-0.98797607421875,0.0030975341796875,-0.065765380859375
1761916059759473000,2.007472900390625,-0.98931884765625,0.002471923828125,-0.06671142578125
1761916059769527000,2.017527099609375,-0.9884185791015625,0.0026092529296875,-0.0683135986328125
1761916059779582000,2.02758203125,-0.9880218505859375,0.0030364990234375,-0.0682373046875
1761916059789635800,2.0376357421875,-0.9874725341796875,0.00311279296875,-0.06658935546875
1761916059799690000,2.04768994140625,-0.988983154296875,0.0017852783203125,-0.0659332275390625
1761916059809745000,2.057744873046875,-0.9890594482421875,0.00103759765625,-0.0670623779296875
1761916059819799000,2.067799072265625,-0.989044189453125,0.0031585693359375,-0.069427490234375
1761916059829853000,2.07785302734375,-0.98577880859375,0.0043792724609375,-0.069244384765625
1761916059839907800,2.087907958984375,-0.98565673828125,0.0030670166015625,-0.0651092529296875
1761916059849962000,2.0979619140625,-0.9934234619140625,0.0016021728515625,-0.0657501220703125
1761916059860015900,2.108015869140625,-0.9897918701171875,0.0021514892578125,-0.0672454833984375
1761916059870071000,2.118071044921875,-0.983367919921875,0.0023040771484375,-0.06634521484375
1761916059880125000,2.128125,-0.98895263671875,0.005615234375,-0.069305419921875
1761916059890179800,2.138179931640625,-0.9862518310546875,0.0027008056640625,-0.065673828125
1761916059900234000,2.14823388671875,-0.9896697998046875,0.0015716552734375,-0.063751220703125
1761916059910288000,2.158287841796875,-0.991180419921875,0.0020904541015625,-0.0672607421875
1761916059920343000,2.168343017578125,-0.98419189453125,0.00347900390625,-0.0670318603515625
1761916059930397000,2.17839697265625,-0.9868011474609375,0.00347900390625,-0.0673065185546875
1761916059940450800,2.188450927734375,-0.99212646484375,0.0018768310546875,-0.0671234130859375
1761916059950506000,2.198506103515625,-0.989776611328125,0.0023956298828125,-0.0686187744140625
1761916059960559900,2.208559814453125,-0.9875640869140625,0.003875732421875,-0.06878662109375
1761916059970614000,2.218614013671875,-0.984832763671875,0.0008544921875,-0.0663604736328125
1761916059980669000,2.2286689453125,-0.9897308349609375,-0.0009765625,-0.0654754638671875
1761916059990722800,2.238722900390625,-0.9942474365234375,0.00335693359375,-0.0698699951171875
1761916060000777000,2.24877685546875,-0.9839324951171875,0.00408935546875,-0.0695953369140625
1761916060010832000,2.258831787109375,-0.9822998046875,0.0030517578125,-0.0657958984375
1761916060020886000,2.268885986328125,-0.99285888671875,0.0037689208984375,-0.0655364990234375
1761916060030941000,2.27894091796875,-0.9930267333984375,0.004364013671875,-0.068084716796875
1761916060040994800,2.288994873046875,-0.9838409423828125,0.003204345703125,-0.067596435546875
1761916060051049000,2.299049072265625,-0.9846038818359375,0.0012359619140625,-0.0671234130859375
1761916060061103900,2.309103759765625,-0.9923095703125,0.001678466796875,-0.0672149658203125
1761916060071158000,2.319157958984375,-0.9924163818359375,0.00518798828125,-0.067047119140625
1761916060081212000,2.3292119140625,-0.9855194091796875,0.004913330078125,-0.0667572021484375
1761916060091266800,2.339266845703125,-0.9838409423828125,0.004058837890625,-0.067474365234375
1761916060101321000,2.349321044921875,-0.99078369140625,0.0027313232421875,-0.0673675537109375
1761916060111374800,2.359374755859375,-0.9918975830078125,0.0022125244140625,-0.0671234130859375
1761916060121430000,2.369429931640625,-0.98760986328125,0.0005950927734375,-0.066864013671875
1761916060131484000,2.37948388671875,-0.9868927001953125,0.0018157958984375,-0.067138671875
1761916060141538800,2.389538818359375,-0.9896392822265625,0.00213623046875,-0.0683441162109375
1761916060151593000,2.399593017578125,-0.9890289306640625,0.0025482177734375,-0.0672149658203125
1761916060161646800,2.409646728515625,-0.987213134765625,0.00238037109375,-0.0667572021484375
1761916060171702000,2.419701904296875,-0.9885101318359375,0.0030670166015625,-0.0666656494140625
1761916060181756000,2.429755859375,-0.9878692626953125,0.00286865234375,-0.0670318603515625
1761916060191809800,2.439809814453125,-0.9887237548828125,0.0023193359375,-0.0669097900390625
1761916060201865000,2.449864990234375,-0.9895782470703125,0.0026702880859375,-0.065643310546875
1761916060211918800,2.4599189453125,-0.988983154296875,0.0031890869140625,-0.0673370361328125
1761916060221974000,2.46997412109375,-0.9884185791015625,0.0035858154296875,-0.0676422119140625
1761916060232028000,2.48002783203125,-0.9882049560546875,0.00341796875,-0.06744384765625
1761916060242081800,2.490081787109375,-0.9894256591796875,0.00238037109375,-0.0665740966796875
1761916060252137000,2.500136962890625,-0.989898681640625,0.00128173828125,-0.066650390625
1761916060262190800,2.51019091796875,-0.98834228515625,0.0024261474609375,-0.0672454833984375
1761916060272245000,2.520244873046875,-0.98675537109375,0.0028076171875,-0.06756591796875
1761916060282300000,2.5302998046875,-0.98846435546875,0.00299072265625,-0.0665130615234375
1761916060292353800,2.540353759765625,-0.9893798828125,0.001434326171875,-0.0665130615234375
1761916060302409000,2.550408935546875,-0.988250732421875,0.002838134765625,-0.066986083984375
1761916060312462800,2.560462890625,-0.988372802734375,0.002777099609375,-0.0672454833984375
1761916060322517000,2.57051708984375,-0.988555908203125,0.0026397705078125,-0.06787109375
1761916060332572000,2.580572021484375,-0.9896087646484375,0.001922607421875,-0.06719970703125
1761916060342625800,2.590625732421875,-0.989227294921875,0.00189208984375,-0.0677947998046875
1761916060352680000,2.600679931640625,-0.9876556396484375,0.0028228759765625,-0.0667877197265625
1761916060362735000,2.610735107421875,-0.988983154296875,0.0033416748046875,-0.0665435791015625
1761916060372789000,2.6207890625,-0.98980712890625,0.0033416748046875,-0.0675506591796875
1761916060382844000,2.630843994140625,-0.987884521484375,0.00201416015625,-0.066497802734375
1761916060392897800,2.640897705078125,-0.9878997802734375,0.00103759765625,-0.06719970703125
1761916060402952000,2.650951904296875,-0.9896087646484375,0.003021240234375,-0.0668487548828125
1761916060413007000,2.661007080078125,-0.988800048828125,0.0030364990234375,-0.0672454833984375
1761916060423061000,2.67106103515625,-0.988006591796875,0.00286865234375,-0.0671539306640625
1761916060433115000,2.681114990234375,-0.9890899658203125,0.0024261474609375,-0.0678863525390625
1761916060443169800,2.691169677734375,-0.98748779296875,0.0021514892578125,-0.0675811767578125
1761916060453224000,2.701223876953125,-0.9873199462890625,0.003692626953125,-0.0670013427734375
1761916060463279000,2.711279052734375,-0.9884490966796875,0.003387451171875,-0.0669708251953125
1761916060473333000,2.7213330078125,-0.988250732421875,0.0026397705078125,-0.067535400390625
1761916060483387000,2.731386962890625,-0.9891204833984375,0.002716064453125,-0.06695556640625
1761916060493442000,2.741442138671875,-0.98834228515625,0.0029754638671875,-0.0673065185546875
1761916060503496200,2.75149609375,-0.9891357421875,0.00360107421875,-0.06695556640625
1761916060513551400,2.76155126953125,-0.98992919921875,0.0029296875,-0.0667724609375
1761916060523605000,2.77160498046875,-0.9890899658203125,0.0021514892578125,-0.06719970703125
1761916060533659100,2.7816591796875,-0.988250732421875,0.001861572265625,-0.0666656494140625
1761916060543714000,2.791714111328125,-0.988433837890625,0.002288818359375,-0.0667572021484375
1761916060553768200,2.801768310546875,-0.988525390625,0.0029449462890625,-0.067535400390625
1761916060563822000,2.811822021484375,-0.988800048828125,0.00335693359375,-0.067474365234375
1761916060573877000,2.821876953125,-0.98651123046875,0.0022430419921875,-0.066619873046875
1761916060583931100,2.83193115234375,-0.9886932373046875,0.002105712890625,-0.0667877197265625
1761916060593986000,2.841986083984375,-0.988983154296875,0.002777099609375,-0.0677032470703125
1761916060604040200,2.852040283203125,-0.988250732421875,0.0028839111328125,-0.0666046142578125
1761916060614094000,2.862093994140625,-0.9870452880859375,0.003387451171875,-0.0673675537109375
1761916060624149000,2.87214892578125,-0.9880523681640625,0.0026092529296875,-0.06781005859375
1761916060634203100,2.882203125,-0.989776611328125,0.0027313232421875,-0.066986083984375
1761916060644258000,2.892258056640625,-0.988800048828125,0.0029296875,-0.06695556640625
1761916060654312200,2.902312255859375,-0.988006591796875,0.0029144287109375,-0.06695556640625
1761916060664366300,2.912366455078125,-0.98895263671875,0.0033721923828125,-0.0662078857421875
1761916060674421000,2.9224208984375,-0.9904632568359375,0.003631591796875,-0.0666961669921875
1761916060684475100,2.93247509765625,-0.9888458251953125,0.0028228759765625,-0.0673370361328125
1761916060694529000,2.942529052734375,-0.98712158203125,0.0024566650390625,-0.067230224609375
1761916060704584200,2.952584228515625,-0.988616943359375,0.002288818359375,-0.06781005859375
1761916060714638300,2.962638427734375,-0.98870849609375,0.00213623046875,-0.0672607421875
1761916060724693000,2.97269287109375,-0.98895263671875,0.0027618408203125,-0.0665283203125
1761916060734747100,2.9827470703125,-0.988616943359375,0.0036773681640625,-0.06732177734375
1761916060744801000,2.992801025390625,-0.9880523681640625,0.002899169921875,-0.0662689208984375
1761916060754856200,3.002856201171875,-0.9893646240234375,0.0024871826171875,-0.066009521484375
1761916060764910300,3.012910400390625,-0.9896240234375,0.001800537109375,-0.065948486328125
1761916060774965000,3.022965087890625,-0.9888458251953125,0.001129150390625,-0.0658416748046875
1761916060785019100,3.03301904296875,-0.9886016845703125,0.00115966796875,-0.0670166015625
1761916060795073000,3.043072998046875,-0.98760986328125,0.0018310546875,-0.0668182373046875
1761916060805128200,3.053128173828125,-0.9895477294921875,0.0039215087890625,-0.06512451171875
1761916060815182300,3.063182373046875,-0.989776611328125,0.0049285888671875,-0.0655517578125
1761916060825236000,3.073236083984375,-0.98748779296875,0.005126953125,-0.0667266845703125
1761916060835291100,3.083291015625,-0.9869537353515625,0.0027313232421875,-0.067047119140625
1761916060845345000,3.093344970703125,-0.988311767578125,0.0020294189453125,-0.0671539306640625
1761916060855400200,3.103400146484375,-0.98944091796875,0.0014495849609375,-0.0675811767578125
1761916060865454000,3.1134541015625,-0.9901885986328125,0.002655029296875,-0.0670166015625
1761916060875508000,3.123508056640625,-0.9876861572265625,0.0030059814453125,-0.06793212890625
1761916060885563100,3.133563232421875,-0.9882354736328125,0.0043487548828125,-0.0681610107421875
1761916060895617300,3.1436171875,-0.9907684326171875,0.00286865234375,-0.0670928955078125
1761916060905672200,3.153672119140625,-0.988983154296875,0.0047760009765625,-0.0677337646484375
1761916060915726000,3.16372607421875,-0.9867095947265625,0.0037994384765625,-0.0672607421875
1761916060925780000,3.173780029296875,-0.9876556396484375,0.0021209716796875,-0.066925048828125
1761916060935835100,3.183835205078125,-0.98797607421875,0.000946044921875,-0.0663604736328125
1761916060945889300,3.19388916015625,-0.9893341064453125,0.0023956298828125,-0.066986083984375
1761916060955944000,3.20394384765625,-0.9884185791015625,0.002716064453125,-0.0669097900390625
1761916060965998000,3.213998046875,-0.987945556640625,0.0037384033203125,-0.066864013671875
1761916060976052000,3.224052001953125,-0.9894561767578125,0.003753662109375,-0.0676727294921875
1761916060986107100,3.234107177734375,-0.9883270263671875,0.0025177001953125,-0.0667266845703125
1761916060996161300,3.244161376953125,-0.990570068359375,0.0002288818359375,-0.0673828125
1761916061006216000,3.2542158203125,-0.988250732421875,0.0018157958984375,-0.0660858154296875
1761916061016270000,3.26427001953125,-0.987518310546875,0.0012359619140625,-0.06695556640625
1761916061026324000,3.274323974609375,-0.9884490966796875,0.00244140625,-0.06732177734375
1761916061036379100,3.284379150390625,-0.9892730712890625,0.0032958984375,-0.0671539306640625
1761916061046433300,3.294433349609375,-0.9883880615234375,0.0040283203125,-0.066375732421875
1761916061056488000,3.304488037109375,-0.989349365234375,0.00384521484375,-0.066741943359375
1761916061066542000,3.3145419921875,-0.9869384765625,0.001556396484375,-0.0674285888671875
1761916061076596000,3.324595947265625,-0.9886627197265625,0.0014190673828125,-0.06689453125
1761916061086651100,3.334651123046875,-0.9883575439453125,0.002532958984375,-0.0670318603515625
1761916061096705300,3.344705322265625,-0.9867401123046875,0.0005950927734375,-0.06109619140625
1761916061106760000,3.354760009765625,-0.9950714111328125,0.0030059814453125,-0.07012939453125
1761916061116814000,3.36481396484375,-0.985076904296875,0.0043182373046875,-0.0659637451171875
1761916061126868200,3.3748681640625,-0.9871368408203125,0.004058837890625,-0.0706329345703125
1761916061136923100,3.384923095703125,-0.984283447265625,-0.0011749267578125,-0.061737060546875
1761916061146977300,3.394977294921875,-0.995147705078125,0.0009002685546875,-0.0656585693359375
1761916061157032000,3.405031982421875,-0.99151611328125,-0.0011138916015625,-0.06744384765625
1761916061167086000,3.415086181640625,-0.9836578369140625,0.00335693359375,-0.069488525390625
1761916061177140200,3.42514013671875,-0.984130859375,0.0075836181640625,-0.0656585693359375
1761916061187195100,3.435195068359375,-0.9929046630859375,0.00714111328125,-0.06402587890625
1761916061197249300,3.445249267578125,-0.994781494140625,0.00201416015625,-0.06768798828125
1761916061207304200,3.45530419921875,-0.9833831787109375,0.0019989013671875,-0.0678253173828125
1761916061217358000,3.465358154296875,-0.9822540283203125,-0.000457763671875,-0.0679779052734375
1761916061227412200,3.475412109375,-0.9921875,0.0033111572265625,-0.0670928955078125
1761916061237467100,3.485467041015625,-0.992828369140625,0.004150390625,-0.063995361328125
1761916061247521300,3.495521240234375,-0.9886627197265625,0.005767822265625,-0.0682525634765625
1761916061257576200,3.505576171875,-0.9825286865234375,0.0055694580078125,-0.0672454833984375
1761916061267630000,3.515630126953125,-0.98797607421875,0.0041351318359375,-0.067047119140625
1761916061277684200,3.525684326171875,-0.9927215576171875,0.0019378662109375,-0.066162109375
1761916061287739100,3.5357392578125,-0.989471435546875,0.001556396484375,-0.0667724609375
1761916061297793000,3.54579296875,-0.985076904296875,0.00201416015625,-0.06732177734375
1761916061307848200,3.55584814453125,-0.9879150390625,0.00201416015625,-0.068328857421875
1761916061317902000,3.565902099609375,-0.988861083984375,0.0036468505859375,-0.06646728515625
1761916061327957200,3.575957275390625,-0.9903411865234375,0.004974365234375,-0.0663604736328125
1761916061338011100,3.58601123046875,-0.9885101318359375,0.0030517578125,-0.0669708251953125
1761916061348065000,3.59606494140625,-0.987274169921875,0.0021514892578125,-0.0670928955078125
1761916061358120200,3.6061201171875,-0.988555908203125,0.0021820068359375,-0.0665130615234375
1761916061368174000,3.616174072265625,-0.9900665283203125,0.00347900390625,-0.0658111572265625
1761916061378229200,3.626229248046875,-0.988433837890625,0.0033721923828125,-0.065460205078125
1761916061388283100,3.636283203125,-0.9866790771484375,0.0021820068359375,-0.0673370361328125
1761916061398337000,3.6463369140625,-0.9876708984375,0.0030059814453125,-0.068817138671875
1761916061408392200,3.65639208984375,-0.9874114990234375,0.0027923583984375,-0.065338134765625
1761916061418446000,3.666446044921875,-0.99066162109375,0.00177001953125,-0.0677642822265625
1761916061428501200,3.676501220703125,-0.9878082275390625,0.0033721923828125,-0.0648956298828125
1761916061438555100,3.68655517578125,-0.989349365234375,0.00067138671875,-0.067535400390625
1761916061448609000,3.696609130859375,-0.9890289306640625,0.0022735595703125,-0.067840576171875
1761916061458664200,3.706664306640625,-0.9879913330078125,0.0008392333984375,-0.0666961669921875
1761916061468718000,3.716718017578125,-0.9893646240234375,0.0042877197265625,-0.0657806396484375
1761916061478773000,3.72677294921875,-0.989715576171875,0.0002593994140625,-0.0673370361328125
1761916061488827100,3.7368271484375,-0.9867095947265625,0.0034942626953125,-0.06719970703125
1761916061498881800,3.7468818359375,-0.9887237548828125,0.002471923828125,-0.0699920654296875
1761916061508936000,3.75693603515625,-0.987579345703125,0.0063323974609375,-0.0650177001953125
1761916061518989800,3.76698974609375,-0.9890594482421875,0.001556396484375,-0.0670166015625
1761916061529045000,3.777044921875,-0.988189697265625,0.000274658203125,-0.065643310546875
1761916061539099000,3.787098876953125,-0.9892425537109375,0.0006103515625,-0.0665740966796875
1761916061549153800,3.79715380859375,-0.98980712890625,0.003387451171875,-0.0679779052734375
1761916061559208000,3.8072080078125,-0.98541259765625,0.002838134765625,-0.0661468505859375
1761916061569261800,3.81726171875,-0.9876708984375,0.0029754638671875,-0.065948486328125
1761916061579316700,3.827316650390625,-0.99078369140625,0.0029296875,-0.065582275390625
1761916061589371000,3.837370849609375,-0.9886016845703125,0.001800537109375,-0.0663604736328125
1761916061599425800,3.84742578125,-0.986785888671875,0.0031280517578125,-0.068145751953125
1761916061609480000,3.85747998046875,-0.9873504638671875,0.0044403076171875,-0.066741943359375
1761916061619534800,3.867534912109375,-0.988494873046875,0.0026702880859375,-0.064788818359375
1761916061629588700,3.877588623046875,-0.9913330078125,0.0011444091796875,-0.0654296875
1761916061639643000,3.887642822265625,-0.98944091796875,0.000823974609375,-0.0675048828125
1761916061649697800,3.89769775390625,-0.9854278564453125,0.0013885498046875,-0.0670013427734375
1761916061659752000,3.907751953125,-0.9889678955078125,0.0027313232421875,-0.067779541015625
1761916061669806800,3.917806884765625,-0.9891510009765625,0.00482177734375,-0.06634521484375
1761916061679860700,3.92786083984375,-0.9901580810546875,0.002777099609375,-0.064544677734375
1761916061689915000,3.937914794921875,-0.989654541015625,0.00262451171875,-0.067626953125
1761916061699969800,3.9479697265625,-0.985931396484375,0.0012969970703125,-0.0677642822265625
1761916061710024000,3.95802392578125,-0.9884185791015625,0.0028228759765625,-0.0654754638671875
1761916061720078800,3.968078857421875,-0.990966796875,0.00299072265625,-0.065948486328125
1761916061730132700,3.9781328125,-0.99041748046875,0.0034027099609375,-0.06622314453125
1761916061740188000,3.98818798828125,-0.9876861572265625,0.0040740966796875,-0.0682830810546875
1761916061750242000,3.998241943359375,-0.9860076904296875,0.0031890869140625,-0.068572998046875
1761916061760296000,4.0082958984375,-0.9877166748046875,0.0025634765625,-0.06634521484375
1761916061770350800,4.018350830078125,-0.9906768798828125,0.002593994140625,-0.0648651123046875
1761916061780404700,4.02840478515625,-0.9890289306640625,0.001373291015625,-0.066375732421875
1761916061790460000,4.0384599609375,-0.986419677734375,0.0025482177734375,-0.0662841796875
1761916061800514000,4.04851416015625,-0.9875030517578125,0.00421142578125,-0.067169189453125
1761916061810568700,4.058568603515625,-0.9901275634765625,0.004547119140625,-0.065948486328125
1761916061820622800,4.068622802734375,-0.9903717041015625,0.0050811767578125,-0.0672760009765625
1761916061830676700,4.0786767578125,-0.9877471923828125,0.003173828125,-0.06787109375
1761916061840732000,4.08873193359375,-0.9869537353515625,0.002349853515625,-0.0660400390625
1761916061850786000,4.0987861328125,-0.989898681640625,0.0016632080078125,-0.06768798828125
1761916061860840700,4.1088408203125,-0.989776611328125,0.002227783203125,-0.06744384765625
1761916061870894800,4.118894775390625,-0.9867401123046875,0.0020294189453125,-0.066009521484375
1761916061880950000,4.128949951171875,-0.98876953125,0.003997802734375,-0.06768798828125
1761916061891004000,4.13900390625,-0.9891357421875,0.0042572021484375,-0.0666351318359375
1761916061901058000,4.14905810546875,-0.988311767578125,0.005279541015625,-0.0656280517578125
1761916061911112700,4.15911279296875,-0.9886932373046875,0.0030364990234375,-0.066925048828125
1761916061921166800,4.169166748046875,-0.9871826171875,0.0022735595703125,-0.0668182373046875
1761916061931222000,4.179221923828125,-0.98858642578125,0.0014495849609375,-0.066802978515625
1761916061941276000,4.18927587890625,-0.98870849609375,0.003326416015625,-0.066253662109375
1761916061951330800,4.199330810546875,-0.990234375,0.0047607421875,-0.0682373046875
1761916061961384700,4.209384765625,-0.987579345703125,0.0032196044921875,-0.06536865234375
1761916061971438800,4.21943896484375,-0.9900360107421875,0.00311279296875,-0.067657470703125
1761916061981494000,4.229493896484375,-0.9899749755859375,0.0028228759765625,-0.06707763671875
1761916061991548000,4.2395478515625,-0.987945556640625,0.0027923583984375,-0.066680908203125
1761916062001602800,4.249602783203125,-0.9893341064453125,0.00244140625,-0.0673675537109375
1761916062011657000,4.259656982421875,-0.9873809814453125,0.0037689208984375,-0.0665130615234375
1761916062021712000,4.2697119140625,-0.987701416015625,0.001678466796875,-0.0666351318359375
1761916062031766000,4.27976611328125,-0.9872589111328125,0.0012969970703125,-0.0630035400390625
1761916062041820000,4.28981982421875,-0.9928741455078125,0.0029296875,-0.06915283203125
1761916062051874800,4.299874755859375,-0.9867095947265625,0.0034332275390625,-0.0652618408203125
1761916062061929000,4.309928955078125,-0.9902191162109375,0.0026092529296875,-0.0719451904296875
1761916062071983900,4.31998388671875,-0.9821014404296875,0.0009765625,-0.0584869384765625
1761916062082038000,4.3300380859375,-0.996673583984375,-0.00079345703125,-0.07177734375
1761916062092093000,4.340093017578125,-0.9874725341796875,0.0040130615234375,-0.0631561279296875
1761916062102146800,4.350146728515625,-0.98699951171875,0.0013885498046875,-0.0702667236328125
1761916062112201000,4.360200927734375,-0.9861907958984375,0.007415771484375,-0.0671539306640625
1761916062122256000,4.370255859375,-0.9897613525390625,0.002593994140625,-0.062957763671875
1761916062132310000,4.38031005859375,-0.99603271484375,0.0017242431640625,-0.0725250244140625
1761916062142365000,4.390364990234375,-0.9823455810546875,0.00225830078125,-0.06146240234375
1761916062152418800,4.400418701171875,-0.9876708984375,0.00030517578125,-0.06951904296875
1761916062162474000,4.410473876953125,-0.990875244140625,0.0047149658203125,-0.0689544677734375
1761916062172527900,4.42052783203125,-0.988555908203125,0.0036163330078125,-0.0630340576171875
1761916062182582800,4.430582763671875,-0.990509033203125,0.005035400390625,-0.06768798828125
1761916062192637000,4.440636962890625,-0.98309326171875,-0.0001373291015625,-0.063690185546875
1761916062202690800,4.45069091796875,-0.989013671875,0.0014801025390625,-0.0697174072265625
1761916062212746000,4.46074609375,-0.9860076904296875,0.0019073486328125,-0.06146240234375
1761916062222800000,4.4707998046875,-0.9952239990234375,0.0034332275390625,-0.071319580078125
1761916062232854800,4.480854736328125,-0.9818267822265625,0.0048980712890625,-0.0618438720703125
1761916062242909000,4.490908935546875,-0.989288330078125,0.0014801025390625,-0.070587158203125
1761916062252963800,4.5009638671875,-0.990264892578125,0.0041351318359375,-0.0685577392578125
1761916062263018000,4.51101806640625,-0.986541748046875,0.0015716552734375,-0.0679473876953125
1761916062273071900,4.52107177734375,-0.9889984130859375,0.0030059814453125,-0.07110595703125
1761916062283126800,4.531126708984375,-0.982757568359375,-0.002166748046875,-0.0694427490234375
1761916062293181000,4.541180908203125,-0.9873504638671875,-0.0022735595703125,-0.0557403564453125
1761916062303235800,4.55123583984375,-1.002960205078125,0.0050506591796875,-0.0693359375
1761916062313290000,4.5612900390625,-0.981842041015625,0.006195068359375,-0.063995361328125
1761916062323345000,4.571344970703125,-0.98486328125,0.0086669921875,-0.0772705078125
1761916062333398800,4.581398681640625,-0.97894287109375,0.0030517578125,-0.0623016357421875
1761916062343454000,4.591453857421875,-1.0037841796875,0.00299072265625,-0.0694732666015625
1761916062353508000,4.601508056640625,-0.9933013916015625,0.00238037109375,-0.063873291015625
1761916062363562000,4.61156201171875,-0.9771575927734375,-0.002044677734375,-0.0685577392578125
1761916062373617000,4.621616943359375,-0.98345947265625,0.0015106201171875,-0.0690765380859375
1761916062383670800,4.6316708984375,-0.9959259033203125,0.004150390625,-0.0634918212890625
1761916062393726000,4.641725830078125,-0.9974212646484375,0.0077667236328125,-0.0658111572265625
1761916062403780000,4.651780029296875,-0.9813690185546875,0.0042266845703125,-0.0650787353515625
1761916062413834800,4.661834716796875,-0.981536865234375,-0.000701904296875,-0.068359375
1761916062423889000,4.671888916015625,-0.9909210205078125,0.0020751953125,-0.0665130615234375
1761916062433944000,4.681944091796875,-0.9948272705078125,0.002197265625,-0.06439208984375
1761916062443998000,4.691998046875,-0.987213134765625,0.006195068359375,-0.06707763671875
1761916062454052900,4.702052978515625,-0.982147216796875,0.006622314453125,-0.0684356689453125
1761916062464106800,4.712106689453125,-0.987945556640625,0.003448486328125,-0.0687713623046875
1761916062474161000,4.722160888671875,-0.993988037109375,0.00128173828125,-0.066925048828125
1761916062484216000,4.732216064453125,-0.98822021484375,0.000396728515625,-0.06500244140625
1761916062494270000,4.74227001953125,-0.986236572265625,0.0009002685546875,-0.0673980712890625
1761916062504321300,4.7523212890625,-0.986358642578125,0.002838134765625,-0.0694122314453125
1761916062514375200,4.762375244140625,-0.9875946044921875,0.000579833984375,-0.0659942626953125
1761916062524430300,4.772430419921875,-0.9927520751953125,0.0020599365234375,-0.067535400390625
1761916062534484200,4.782484130859375,-0.989166259765625,0.0024261474609375,-0.0679473876953125
1761916062544539100,4.7925390625,-0.985992431640625,0.0042572021484375,-0.065826416015625
1761916062554593300,4.80259326171875,-0.98736572265625,0.000701904296875,-0.0653076171875
1761916062564648200,4.812648193359375,-0.9923248291015625,-0.002899169921875,-0.066192626953125
1761916062574702300,4.822702392578125,-0.989776611328125,0.0028839111328125,-0.072174072265625
1761916062584756500,4.832756591796875,-0.9813079833984375,0.0051727294921875,-0.063446044921875
1761916062594811100,4.84281103515625,-0.9919891357421875,0.00970458984375,-0.0712890625
1761916062604865300,4.852865234375,-0.9844818115234375,-0.0012664794921875,-0.059722900390625
1761916062614920200,4.862920166015625,-0.9962921142578125,-0.004425048828125,-0.068939208984375
1761916062624974300,4.872974365234375,-0.9862060546875,-0.00140380859375,-0.0698089599609375
1761916062635029200,4.883029296875,-0.9806365966796875,0.00390625,-0.068450927734375
1761916062645083100,4.893083251953125,-0.990997314453125,0.01263427734375,-0.0680084228515625
1761916062655138300,4.90313818359375,-0.991241455078125,0.0058441162109375,-0.0633544921875
1761916062665192400,4.9131923828125,-0.9894561767578125,0.0029296875,-0.06744384765625
1761916062675247000,4.9232470703125,-0.9860076904296875,0.00177001953125,-0.0660552978515625
1761916062685301200,4.93330126953125,-0.9886322021484375,0.0029754638671875,-0.0694732666015625
1761916062695355100,4.943355224609375,-0.9871368408203125,0.00634765625,-0.063018798828125
1761916062705410300,4.953410400390625,-0.9926605224609375,0.0067291259765625,-0.065155029296875
1761916062715464400,4.96346435546875,-0.9892578125,0.0054473876953125,-0.0672760009765625
1761916062725519000,4.97351904296875,-0.9848175048828125,0.0010528564453125,-0.0672607421875
1761916062735573200,4.9835732421875,-0.988555908203125,0.0038909912109375,-0.0670623779296875
1761916062745628400,4.99362841796875,-0.9930267333984375,0.00341796875,-0.06610107421875
1761916062755682300,5.003682373046875,-0.988616943359375,0.00250244140625,-0.065704345703125
1761916062765737200,5.0137373046875,-0.987884521484375,0.0037384033203125,-0.0671539306640625
1761916062775791000,5.023791015625,-0.987548828125,0.00054931640625,-0.0682373046875
1761916062785846300,5.03384619140625,-0.9874725341796875,0.0062408447265625,-0.0642852783203125
1761916062795900400,5.043900390625,-0.992401123046875,0.002166748046875,-0.066558837890625
1761916062805955000,5.053955078125,-0.9873504638671875,-0.0000152587890625,-0.065948486328125
1761916062816009200,5.06400927734375,-0.9867401123046875,-0.0027923583984375,-0.0676116943359375
1761916062826063000,5.07406298828125,-0.989776611328125,0.0020904541015625,-0.067626953125
1761916062836118300,5.0841181640625,-0.9892578125,0.0067596435546875,-0.066497802734375
1761916062846172400,5.09417236328125,-0.9884490966796875,0.006256103515625,-0.06585693359375
1761916062856227000,5.10422705078125,-0.9880523681640625,0.003265380859375,-0.06805419921875
1761916062866281200,5.11428125,-0.9878692626953125,-0.0001678466796875,-0.067718505859375
1761916062876336400,5.12433642578125,-0.98779296875,0.0028533935546875,-0.0647125244140625
1761916062886390300,5.134390380859375,-0.9923858642578125,0.0030059814453125,-0.065582275390625
1761916062896445200,5.144445068359375,-0.98809814453125,0.0026702880859375,-0.06573486328125
1761916062906499000,5.1544990234375,-0.986968994140625,0.0010223388671875,-0.0672149658203125
1761916062916554200,5.16455419921875,-0.9883880615234375,0.002685546875,-0.0664520263671875
1761916062926608400,5.1746083984375,-0.9885101318359375,0.0046539306640625,-0.0667266845703125
1761916062936663000,5.1846630859375,-0.9900360107421875,0.004791259765625,-0.066436767578125
1761916062946717200,5.19471728515625,-0.988372802734375,0.0033111572265625,-0.0666961669921875
1761916062956772400,5.2047724609375,-0.987548828125,0.001953125,-0.0674896240234375
1761916062966826200,5.214826171875,-0.9885711669921875,0.00152587890625,-0.067535400390625
1761916062976881200,5.224881103515625,-0.9894866943359375,0.0019683837890625,-0.0677947998046875
1761916062986935000,5.23493505859375,-0.989288330078125,0.002410888671875,-0.0679931640625
1761916062996989200,5.2449892578125,-0.9891815185546875,0.00189208984375,-0.0675048828125
1761916063007044400,5.25504443359375,-0.9884185791015625,0.00311279296875,-0.0671234130859375
1761916063017098200,5.26509814453125,-0.9896240234375,0.003509521484375,-0.0667266845703125
1761916063027153200,5.275153076171875,-0.9899749755859375,0.0037078857421875,-0.0674591064453125
1761916063037207300,5.285207275390625,-0.9881744384765625,0.0030975341796875,-0.066619873046875
1761916063047262200,5.29526220703125,-0.98760986328125,0.00274658203125,-0.0660400390625
1761916063057316400,5.30531640625,-0.9885101318359375,0.001708984375,-0.0655059814453125
1761916063067371300,5.315371337890625,-0.9898223876953125,0.000457763671875,-0.0663299560546875
1761916063077425200,5.325425048828125,-0.9890899658203125,0.000701904296875,-0.067626953125
1761916063087480300,5.335480224609375,-0.9875946044921875,-0.001007080078125,-0.0672454833984375
1761916063097532200,5.3455322265625,-0.987884521484375,-0.0000152587890625,-0.0665130615234375
1761916063107586000,5.3555859375,-0.9896240234375,0.0030364990234375,-0.0668182373046875
1761916063117641200,5.36564111328125,-0.989105224609375,0.00372314453125,-0.06646728515625
1761916063127695400,5.3756953125,-0.9883880615234375,0.0049896240234375,-0.0676116943359375
1761916063137750300,5.385750244140625,-0.98834228515625,0.00390625,-0.0679931640625
1761916063147804200,5.39580419921875,-0.9899139404296875,0.0030517578125,-0.0668792724609375
1761916063157859300,5.405859375,-0.9899444580078125,0.0040130615234375,-0.0660247802734375
1761916063167913200,5.415913330078125,-0.9896697998046875,0.0027008056640625,-0.0665130615234375
1761916063177968400,5.425968505859375,-0.9879913330078125,0.0018157958984375,-0.067047119140625
1761916063188022300,5.436022216796875,-0.9885406494140625,0.001983642578125,-0.0661468505859375
1761916063198077200,5.4460771484375,-0.9896392822265625,0.0039520263671875,-0.0647125244140625
1761916063208131300,5.45613134765625,-0.9898681640625,0.0039520263671875,-0.0667877197265625
1761916063218185200,5.466185302734375,-0.988311767578125,0.004669189453125,-0.0673828125
1761916063228240100,5.476240234375,-0.988433837890625,0.0045623779296875,-0.0667266845703125
1761916063238294300,5.486294189453125,-0.9894866943359375,0.0040130615234375,-0.0660247802734375
1761916063248349200,5.49634912109375,-0.992095947265625,0.0042724609375,-0.066497802734375
1761916063258403300,5.5064033203125,-0.9886474609375,0.003692626953125,-0.0679931640625
1761916063268458200,5.516458251953125,-0.9853363037109375,0.00164794921875,-0.0665435791015625
1761916063278512000,5.52651220703125,-0.988525390625,0.002105712890625,-0.0664520263671875
1761916063288567300,5.5365673828125,-0.990570068359375,0.002777099609375,-0.0653839111328125
1761916063298621200,5.54662109375,-0.9902191162109375,0.00286865234375,-0.066131591796875
1761916063308676400,5.55667626953125,-0.9868011474609375,0.004150390625,-0.06683349609375
1761916063318730200,5.566730224609375,-0.9875335693359375,0.0033416748046875,-0.0661163330078125
1761916063328785200,5.57678515625,-0.989898681640625,0.0013885498046875,-0.0658721923828125
1761916063338839300,5.58683935546875,-0.989776611328125,0.000823974609375,-0.0654296875
1761916063348894500,5.59689453125,-0.9873504638671875,0.0018310546875,-0.067474365234375
1761916063358948400,5.6069482421875,-0.9873046875,0.002105712890625,-0.068267822265625
1761916063369003300,5.617003173828125,-0.989532470703125,0.001922607421875,-0.0675506591796875
1761916063379057200,5.62705712890625,-0.9904632568359375,0.002655029296875,-0.06695556640625
1761916063389112300,5.6371123046875,-0.98968505859375,0.003631591796875,-0.06695556640625
1761916063399166500,5.64716650390625,-0.9885101318359375,0.003448486328125,-0.0680389404296875
1761916063409221000,5.65722119140625,-0.9883575439453125,0.0023193359375,-0.068359375
1761916063419275300,5.667275146484375,-0.98834228515625,0.002227783203125,-0.0671234130859375
1761916063429330400,5.677330322265625,-0.9894561767578125,0.0028076171875,-0.06646728515625
1761916063439384300,5.68738427734375,-0.9887237548828125,0.0024871826171875,-0.0663909912109375
1761916063449439200,5.697439208984375,-0.98822021484375,0.0028228759765625,-0.0665283203125
1761916063459493000,5.7074931640625,-0.98785400390625,0.0035552978515625,-0.066070556640625
1761916063469548300,5.71754833984375,-0.98992919921875,0.0037384033203125,-0.0656585693359375
1761916063479602400,5.7276025390625,-0.9896697998046875,0.0042724609375,-0.06597900390625
1761916063489656300,5.73765625,-0.987640380859375,0.0028228759765625,-0.066162109375
1761916063499711200,5.747711181640625,-0.987060546875,0.0017547607421875,-0.0666351318359375
1761916063509765000,5.75776513671875,-0.9889068603515625,0.003173828125,-0.0656280517578125
1761916063519820300,5.7678203125,-0.9888916015625,0.0028533935546875,-0.0656890869140625
1761916063529874200,5.777874267578125,-0.9888153076171875,0.00341796875,-0.0655975341796875
1761916063539929000,5.78792919921875,-0.988677978515625,0.004302978515625,-0.0662841796875
1761916063549983000,5.79798291015625,-0.988555908203125,0.0032958984375,-0.0664825439453125
1761916063560038100,5.8080380859375,-0.9885711669921875,0.003387451171875,-0.066925048828125
1761916063570092300,5.81809228515625,-0.98895263671875,0.00311279296875,-0.067413330078125
1761916063580147000,5.82814697265625,-0.988006591796875,0.002685546875,-0.067901611328125
1761916063590201000,5.838201171875,-0.9876861572265625,0.0038604736328125,-0.0670623779296875
1761916063600256300,5.84825634765625,-0.98797607421875,0.0029449462890625,-0.0666961669921875
1761916063610310100,5.85831005859375,-0.98858642578125,0.0034332275390625,-0.067108154296875
1761916063620365000,5.868364990234375,-0.9893341064453125,0.002655029296875,-0.066986083984375
1761916063630419000,5.8784189453125,-0.9875640869140625,0.003204345703125,-0.067047119140625
1761916063640474000,5.88847412109375,-0.98876953125,0.0033721923828125,-0.0666656494140625
1761916063650528300,5.8985283203125,-0.9893341064453125,0.0028533935546875,-0.0672760009765625
1761916063660585200,5.908585205078125,-0.9887542724609375,0.0032501220703125,-0.0668182373046875
1761916063670640000,5.91864013671875,-0.98931884765625,0.0028533935546875,-0.067047119140625
1761916063680694000,5.928694091796875,-0.9888458251953125,0.00335693359375,-0.067047119140625
1761916063690749200,5.938749267578125,-0.989044189453125,0.002838134765625,-0.0669403076171875
1761916063700803000,5.948802978515625,-0.989013671875,0.0020599365234375,-0.066680908203125
1761916063710858000,5.95885791015625,-0.98895263671875,0.00311279296875,-0.0664215087890625
1761916063720912100,5.968912109375,-0.9886474609375,0.0029449462890625,-0.0663299560546875
1761916063730967000,5.978967041015625,-0.9893341064453125,0.002655029296875,-0.0666046142578125
1761916063741021200,5.989021240234375,-0.988922119140625,0.0021820068359375,-0.0664215087890625
1761916063751076000,5.999076171875,-0.98870849609375,0.0016937255859375,-0.0662994384765625
1761916063761130000,6.0091298828125,-0.9896697998046875,0.002899169921875,-0.0657806396484375
1761916063771185200,6.01918505859375,-0.988372802734375,0.0028839111328125,-0.06732177734375
1761916063781239000,6.029239013671875,-0.9889373779296875,0.00311279296875,-0.0662689208984375
1761916063791294200,6.039294189453125,-0.990020751953125,0.0033721923828125,-0.06573486328125
1761916063801348000,6.04934814453125,-0.989593505859375,0.00299072265625,-0.0667724609375
1761916063811403000,6.059403076171875,-0.9880218505859375,0.0028228759765625,-0.0673828125
1761916063821457200,6.06945703125,-0.9873046875,0.0026397705078125,-0.0670928955078125
1761916063831512300,6.07951220703125,-0.989715576171875,0.0026397705078125,-0.066314697265625
1761916063841566200,6.089566162109375,-0.9909820556640625,0.003692626953125,-0.0665283203125
1761916063851621000,6.09962109375,-0.98828125,0.0032501220703125,-0.067718505859375
1761916063861675000,6.109675048828125,-0.9864044189453125,0.003082275390625,-0.06768798828125
1761916063871730200,6.119730224609375,-0.9894256591796875,0.0026092529296875,-0.0682525634765625
1761916063881784300,6.129784423828125,-0.9901275634765625,0.0027923583984375,-0.066925048828125
1761916063891839000,6.1398388671875,-0.988311767578125,0.0042572021484375,-0.0652618408203125
1761916063901893000,6.14989306640625,-0.989105224609375,0.00347900390625,-0.0682220458984375
1761916063911948300,6.1599482421875,-0.9890289306640625,0.0038299560546875,-0.0682830810546875
1761916063922002200,6.170002197265625,-0.988037109375,0.002105712890625,-0.06707763671875
1761916063932057000,6.18005712890625,-0.9893798828125,0.0027313232421875,-0.0662689208984375
1761916063942111000,6.190111083984375,-0.989013671875,0.003448486328125,-0.0662994384765625
1761916063952166100,6.200166259765625,-0.9893341064453125,0.0028839111328125,-0.065948486328125
1761916063962220300,6.21022021484375,-0.9887847900390625,0.002593994140625,-0.0673675537109375
1761916063972275000,6.22027490234375,-0.9876861572265625,0.0027313232421875,-0.06689453125
1761916063982329000,6.2303291015625,-0.988983154296875,0.002349853515625,-0.0673065185546875
1761916063992384300,6.24038427734375,-0.9897308349609375,0.003570556640625,-0.0666656494140625
1761916064002438100,6.250438232421875,-0.988311767578125,0.00323486328125,-0.06658935546875
1761916064012493000,6.2604931640625,-0.9880828857421875,0.001708984375,-0.067291259765625
1761916064022547200,6.270547119140625,-0.9882965087890625,0.0018310546875,-0.06793212890625
1761916064032602000,6.28060205078125,-0.9898681640625,0.0038909912109375,-0.067474365234375
1761916064042656300,6.29065625,-0.9884033203125,0.0027313232421875,-0.0680999755859375
1761916064052711200,6.300711181640625,-0.98748779296875,0.002838134765625,-0.0681610107421875
1761916064062765000,6.31076513671875,-0.9893646240234375,0.0021209716796875,-0.06707763671875
1761916064072820200,6.3208203125,-0.98883056640625,0.0032806396484375,-0.0659332275390625
1761916064082874000,6.3308740234375,-0.988128662109375,0.0038299560546875,-0.065399169921875
1761916064092929000,6.340928955078125,-0.988861083984375,0.0022735595703125,-0.066619873046875
1761916064102983200,6.350983154296875,-0.988616943359375,0.002044677734375,-0.067596435546875
1761916064113038000,6.3610380859375,-0.987945556640625,0.0026092529296875,-0.065673828125
1761916064123092200,6.37109228515625,-0.9897613525390625,0.005096435546875,-0.0661468505859375
1761916064133147100,6.381147216796875,-0.987213134765625,0.004913330078125,-0.0670013427734375
1761916064143201000,6.391200927734375,-0.988006591796875,0.0032196044921875,-0.0676116943359375
1761916064153256200,6.401256103515625,-0.9886322021484375,0.0020904541015625,-0.0672149658203125
1761916064163310000,6.41131005859375,-0.98876953125,0.000579833984375,-0.0676116943359375
1761916064173365000,6.421364990234375,-0.98895263671875,0.00213623046875,-0.067901611328125
1761916064183419100,6.431419189453125,-0.989013671875,0.0026092529296875,-0.06756591796875
1761916064193474000,6.44147412109375,-0.98828125,0.002349853515625,-0.0675811767578125
1761916064203528200,6.451528076171875,-0.9885711669921875,0.003204345703125,-0.0664825439453125
1761916064213583000,6.4615830078125,-0.989959716796875,0.002655029296875,-0.06756591796875
1761916064223637000,6.471636962890625,-0.9900054931640625,0.0028228759765625,-0.067108154296875
1761916064233692200,6.481692138671875,-0.9890594482421875,0.002777099609375,-0.0671539306640625
1761916064243746000,6.49174609375,-0.9891510009765625,0.00311279296875,-0.06622314453125
1761916064253801200,6.50180126953125,-0.98846435546875,0.0024871826171875,-0.0666656494140625
1761916064263855000,6.511855224609375,-0.99017333984375,0.0039215087890625,-0.066802978515625
1761916064273910000,6.521909912109375,-0.9893951416015625,0.0033721923828125,-0.06781005859375
1761916064283964200,6.531964111328125,-0.989776611328125,0.003692626953125,-0.067596435546875
1761916064294019300,6.542019287109375,-0.9893341064453125,0.0039215087890625,-0.067138671875
1761916064304073200,6.5520732421875,-0.9875640869140625,0.0032958984375,-0.0669097900390625
1761916064314128100,6.562128173828125,-0.9887237548828125,0.003387451171875,-0.0671234130859375
1761916064324182000,6.57218212890625,-0.9891357421875,0.0034027099609375,-0.0668792724609375
1761916064334237200,6.5822373046875,-0.9886322021484375,0.0030364990234375,-0.06768798828125
1761916064344291300,6.592291259765625,-0.9893341064453125,0.0030059814453125,-0.0678863525390625
1761916064354346000,6.602345947265625,-0.988006591796875,0.00347900390625,-0.06744384765625
1761916064364401200,6.612401123046875,-0.9884490966796875,0.003387451171875,-0.0666046142578125
1761916064374455300,6.622455322265625,-0.98773193359375,0.0037078857421875,-0.0667724609375
1761916064384510000,6.632510009765625,-0.988494873046875,0.001861572265625,-0.066497802734375
1761916064394564000,6.642564208984375,-0.988861083984375,0.0018768310546875,-0.0673370361328125
1761916064404619300,6.652619384765625,-0.98724365234375,0.00262451171875,-0.0682525634765625
1761916064414673200,6.662673095703125,-0.988494873046875,0.002349853515625,-0.067352294921875
1761916064424728000,6.67272802734375,-0.9899139404296875,0.0029754638671875,-0.0662841796875
1761916064434782000,6.682781982421875,-0.99005126953125,0.00274658203125,-0.0675811767578125
1761916064444837000,6.692837158203125,-0.9891510009765625,0.003387451171875,-0.0669708251953125
1761916064454891300,6.702891357421875,-0.9886016845703125,0.002655029296875,-0.0668182373046875
1761916064464946000,6.71294580078125,-0.9879608154296875,0.001983642578125,-0.0665740966796875
1761916064475000000,6.723,-0.9884490966796875,0.003387451171875,-0.0659637451171875
1761916064485055200,6.73305517578125,-0.989013671875,0.0054473876953125,-0.066650390625
1761916064495109000,6.743109130859375,-0.9891357421875,0.0048980712890625,-0.0663604736328125
1761916064505164300,6.753164306640625,-0.9897308349609375,0.0031585693359375,-0.067352294921875
1761916064515218400,6.763218505859375,-0.98883056640625,0.0025787353515625,-0.0675201416015625
1761916064525273300,6.7732734375,-0.987335205078125,0.000701904296875,-0.0676422119140625
1761916064535327500,6.783327392578125,-0.9883270263671875,0.00140380859375,-0.066864013671875
1761916064545382400,6.79338232421875,-0.9894866943359375,0.002349853515625,-0.066558837890625
1761916064555436300,6.803436279296875,-0.9899749755859375,0.0027923583984375,-0.0670166015625
1761916064565491500,6.813491455078125,-0.98944091796875,0.0041961669921875,-0.0680389404296875
1761916064575545300,6.82354541015625,-0.987884521484375,0.0055389404296875,-0.0670928955078125
1761916064585600300,6.833600341796875,-0.9881591796875,0.00323486328125,-0.067108154296875
1761916064595654400,6.843654296875,-0.9900970458984375,0.0016326904296875,-0.0668182373046875
1761916064605709300,6.853709228515625,-0.9879302978515625,0.0014801025390625,-0.0676116943359375
1761916064615763500,6.863763427734375,-0.9876556396484375,0.0010223388671875,-0.06707763671875
1761916064625818400,6.873818359375,-0.9886322021484375,0.001983642578125,-0.066986083984375
1761916064635873300,6.883873291015625,-0.9888763427734375,0.0030059814453125,-0.0665740966796875
1761916064645927400,6.893927490234375,-0.99005126953125,0.0027313232421875,-0.06671142578125
1761916064655982600,6.903982666015625,-0.987548828125,0.0038604736328125,-0.067718505859375
1761916064666036500,6.914036376953125,-0.9876708984375,0.004241943359375,-0.0669403076171875
1761916064676091400,6.92409130859375,-0.989105224609375,0.00396728515625,-0.065643310546875
1761916064686145300,6.934145263671875,-0.9887237548828125,0.002716064453125,-0.067169189453125
1761916064696200400,6.944200439453125,-0.98748779296875,0.002777099609375,-0.068084716796875
1761916064706254600,6.954254638671875,-0.9881591796875,0.0029144287109375,-0.06732177734375
1761916064716309200,6.964309326171875,-0.9886016845703125,0.0026092529296875,-0.067138671875
1761916064726363400,6.97436328125,-0.989288330078125,0.0022125244140625,-0.0672607421875
1761916064736418600,6.98441845703125,-0.988739013671875,0.001251220703125,-0.0669708251953125
1761916064746472400,6.994472412109375,-0.988861083984375,0.0020294189453125,-0.0682525634765625
1761916064756527400,7.00452734375,-0.9881744384765625,0.001312255859375,-0.067535400390625
1761916064766581200,7.014581298828125,-0.98907470703125,0.0032806396484375,-0.0672454833984375
1761916064776636400,7.024636474609375,-0.98895263671875,0.003997802734375,-0.0667877197265625
1761916064786690600,7.034690673828125,-0.98876953125,0.0041656494140625,-0.0667266845703125
1761916064796745200,7.0447451171875,-0.9884185791015625,0.0026702880859375,-0.0675506591796875
1761916064806799400,7.05479931640625,-0.988067626953125,0.0020904541015625,-0.0675506591796875
1761916064816854500,7.0648544921875,-0.9891357421875,0.0016326904296875,-0.0675811767578125
1761916064826908400,7.074908447265625,-0.988922119140625,0.002685546875,-0.0669097900390625
1761916064836963300,7.08496337890625,-0.9899444580078125,0.003143310546875,-0.0667266845703125
1761916064847018500,7.0950185546875,-0.989166259765625,0.002593994140625,-0.0669097900390625
1761916064857072400,7.105072265625,-0.9891510009765625,0.0026397705078125,-0.06756591796875
1761916064867127300,7.115127197265625,-0.9887237548828125,0.0029144287109375,-0.0675506591796875
1761916064877181200,7.12518115234375,-0.989593505859375,0.0030517578125,-0.0661468505859375
1761916064887236400,7.135236328125,-0.99017333984375,0.003326416015625,-0.0661163330078125
1761916064897290500,7.14529052734375,-0.988983154296875,0.0021820068359375,-0.067108154296875
1761916064907345400,7.155345458984375,-0.9889373779296875,0.002288818359375,-0.0678558349609375
1761916064917399300,7.1653994140625,-0.9875946044921875,0.0027313232421875,-0.0667572021484375
1761916064927454500,7.175454345703125,-0.9893798828125,0.0036468505859375,-0.0670166015625
1761916064937508400,7.18550830078125,-0.98992919921875,0.00323486328125,-0.0673675537109375
1761916064947563500,7.1955634765625,-0.988037109375,0.0030975341796875,-0.0668487548828125
1761916064957617400,7.205617431640625,-0.9883270263671875,0.00341796875,-0.0668487548828125
1761916064967672300,7.21567236328125,-0.988739013671875,0.0036773681640625,-0.0670623779296875
1761916064977726500,7.2257265625,-0.9886322021484375,0.0037841796875,-0.0670318603515625
1761916064987781400,7.235781494140625,-0.9885406494140625,0.0022430419921875,-0.06756591796875
1761916064997835500,7.24583544921875,-0.9879608154296875,0.0011749267578125,-0.0672607421875
1761916065007890400,7.255890380859375,-0.987945556640625,0.002685546875,-0.0669708251953125
1761916065017945300,7.2659453125,-0.98834228515625,0.003265380859375,-0.067840576171875
1761916065027999500,7.27599951171875,-0.988555908203125,0.0041046142578125,-0.068084716796875
1761916065038054400,7.286054443359375,-0.9883270263671875,0.004180908203125,-0.067291259765625
1761916065048108300,7.2961083984375,-0.9893341064453125,0.0018310546875,-0.067962646484375
1761916065058163500,7.30616357421875,-0.9878082275390625,0.002471923828125,-0.0679473876953125
1761916065068217300,7.31621728515625,-0.9882354736328125,0.0032806396484375,-0.0669403076171875
1761916065078272300,7.326272216796875,-0.9888153076171875,0.0026397705078125,-0.06683349609375
1761916065088326400,7.336326416015625,-0.9884185791015625,0.0036773681640625,-0.0669403076171875
1761916065098381300,7.34638134765625,-0.988250732421875,0.003143310546875,-0.0671539306640625
1761916065108435500,7.356435546875,-0.9890899658203125,0.0020599365234375,-0.0672607421875
1761916065118490400,7.366490478515625,-0.9885711669921875,0.0025634765625,-0.0675811767578125
1761916065128544300,7.376544189453125,-0.9893035888671875,0.0028076171875,-0.06561279296875
1761916065138599400,7.386599365234375,-0.9886627197265625,0.00238037109375,-0.0666656494140625
1761916065148653300,7.3966533203125,-0.9881134033203125,0.003143310546875,-0.0671844482421875
1761916065158708200,7.406708251953125,-0.98907470703125,0.003021240234375,-0.067626953125
1761916065168762400,7.416762451171875,-0.9877471923828125,0.003143310546875,-0.0669403076171875
1761916065178817300,7.4268173828125,-0.988311767578125,0.0018157958984375,-0.0676422119140625
1761916065188872400,7.43687255859375,-0.9882049560546875,0.00244140625,-0.06610107421875
1761916065198926300,7.44692626953125,-0.989288330078125,0.00311279296875,-0.0662994384765625
1761916065208981200,7.456981201171875,-0.9886474609375,0.0032958984375,-0.0675201416015625
1761916065219035400,7.467035400390625,-0.9881134033203125,0.004638671875,-0.06787109375
1761916065229090600,7.477090576171875,-0.9884033203125,0.003143310546875,-0.0667877197265625
1761916065239144400,7.48714453125,-0.9886322021484375,0.0032196044921875,-0.06719970703125
1761916065249199400,7.497199462890625,-0.98992919921875,0.002685546875,-0.0677642822265625
1761916065259253200,7.507253173828125,-0.9890289306640625,0.00262451171875,-0.067413330078125
1761916065269308400,7.517308349609375,-0.9878692626953125,0.0028533935546875,-0.0679931640625
1761916065279362600,7.527362548828125,-0.9886932373046875,0.0019683837890625,-0.067474365234375
1761916065289417200,7.537417236328125,-0.988189697265625,0.0029754638671875,-0.066986083984375
1761916065299471400,7.547471435546875,-0.9880218505859375,0.0046234130859375,-0.0673980712890625
1761916065309526500,7.557526611328125,-0.9887847900390625,0.0036773681640625,-0.067352294921875
1761916065319581200,7.567581298828125,-0.9886016845703125,0.002197265625,-0.06719970703125
1761916065329635300,7.57763525390625,-0.987396240234375,0.002471923828125,-0.06634521484375
1761916065339690500,7.5876904296875,-0.988494873046875,0.002655029296875,-0.0670318603515625
1761916065349744400,7.597744384765625,-0.987945556640625,0.0029449462890625,-0.0668182373046875
1761916065359799300,7.60779931640625,-0.9884796142578125,0.00274658203125,-0.067474365234375
1761916065369853400,7.617853515625,-0.9889373779296875,0.002655029296875,-0.067230224609375
1761916065379908400,7.627908447265625,-0.9886016845703125,0.0034637451171875,-0.0677642822265625
1761916065389962500,7.63796240234375,-0.98895263671875,0.0026092529296875,-0.0670166015625
1761916065400017400,7.648017333984375,-0.98883056640625,0.002777099609375,-0.0670318603515625
1761916065410071300,7.6580712890625,-0.9889678955078125,0.0026702880859375,-0.0676727294921875
1761916065420126500,7.66812646484375,-0.9882354736328125,0.0039215087890625,-0.0672149658203125
1761916065430181400,7.678181396484375,-0.9892120361328125,0.003692626953125,-0.0667266845703125
1761916065440235300,7.6882353515625,-0.990203857421875,0.0041961669921875,-0.067352294921875
1761916065450290400,7.69829052734375,-0.988372802734375,0.0030364990234375,-0.0675811767578125
1761916065460344300,7.70834423828125,-0.9884490966796875,0.002532958984375,-0.0672607421875
1761916065470399500,7.7183994140625,-0.9895782470703125,0.002349853515625,-0.0672149658203125
1761916065480453400,7.728453369140625,-0.9888763427734375,0.0028533935546875,-0.0667572021484375
1761916065490508300,7.73850830078125,-0.989227294921875,0.0034637451171875,-0.067474365234375
1761916065500562700,7.748562744140625,-0.987701416015625,0.0031890869140625,-0.067535400390625
1761916065510617900,7.758617919921875,-0.989227294921875,0.0034027099609375,-0.067352294921875
1761916065520671700,7.768671630859375,-0.9901275634765625,0.003570556640625,-0.06695556640625
1761916065530726700,7.7787265625,-0.989990234375,0.0024566650390625,-0.0670928955078125
1761916065540780800,7.78878076171875,-0.9889678955078125,0.0016632080078125,-0.0675506591796875
1761916065550836000,7.7988359375,-0.988189697265625,0.00262451171875,-0.06781005859375
1761916065560890600,7.808890625,-0.9893646240234375,0.0028533935546875,-0.0668487548828125
1761916065570944800,7.81894482421875,-0.990447998046875,0.00262451171875,-0.067535400390625
1761916065581000000,7.829,-0.9896392822265625,0.0027618408203125,-0.067138671875
1761916065591053800,7.8390537109375,-0.9880828857421875,0.0025482177734375,-0.067169189453125
1761916065601108700,7.849108642578125,-0.9884033203125,0.0029449462890625,-0.06707763671875
1761916065611162600,7.85916259765625,-0.98907470703125,0.0029144287109375,-0.0664215087890625
1761916065621217800,7.8692177734375,-0.9894256591796875,0.0035247802734375,-0.0669403076171875
1761916065631272000,7.87927197265625,-0.988922119140625,0.0023040771484375,-0.0672607421875
1761916065641326600,7.88932666015625,-0.9876556396484375,0.0023193359375,-0.0674285888671875
1761916065651381800,7.8993818359375,-0.98797607421875,0.002960205078125,-0.0670318603515625
1761916065661436000,7.909435791015625,-0.9889373779296875,0.0029754638671875,-0.0663909912109375
1761916065671490600,7.919490478515625,-0.9891815185546875,0.0019989013671875,-0.0665130615234375
1761916065681544700,7.929544677734375,-0.9879302978515625,0.002838134765625,-0.066680908203125
1761916065691600000,7.939599853515625,-0.9886627197265625,0.003265380859375,-0.0673675537109375
1761916065701653800,7.94965380859375,-0.988983154296875,0.0032958984375,-0.06732177734375
1761916065711708700,7.959708740234375,-0.988433837890625,0.0034637451171875,-0.06817626953125
1761916065721762600,7.969762451171875,-0.98876953125,0.002105712890625,-0.0674285888671875
1761916065731817700,7.979817626953125,-0.98870849609375,0.0035552978515625,-0.067352294921875
1761916065741871900,7.989871826171875,-0.98907470703125,0.00390625,-0.0671539306640625
1761916065751926800,7.9999267578125,-0.988739013671875,0.0029296875,-0.0677032470703125
1761916065761981700,8.009981689453125,-0.9885406494140625,0.0025482177734375,-0.068023681640625
1761916065772035800,8.020035888671876,-0.9884185791015625,0.0028076171875,-0.066802978515625
1761916065782090800,8.0300908203125,-0.988250732421875,0.003265380859375,-0.0666351318359375
1761916065792145000,8.040144775390624,-0.989532470703125,0.00250244140625,-0.06585693359375
1761916065802199800,8.05019970703125,-0.987823486328125,0.0026092529296875,-0.06707763671875
1761916065812253700,8.060253662109375,-0.9874267578125,0.0030364990234375,-0.0670318603515625
1761916065822308900,8.070308837890625,-0.989044189453125,0.0032196044921875,-0.0679473876953125
1761916065832362800,8.08036279296875,-0.9896087646484375,0.002471923828125,-0.06707763671875
1761916065842417700,8.090417724609376,-0.9886932373046875,0.0029449462890625,-0.0665435791015625
1761916065852472800,8.100472900390624,-0.989715576171875,0.002716064453125,-0.0669097900390625
1761916065862526700,8.110526611328124,-0.9882049560546875,0.0035247802734375,-0.0673675537109375
1761916065872581600,8.12058154296875,-0.9875946044921875,0.0035400390625,-0.0661163330078125
1761916065882635800,8.1306357421875,-0.9886627197265625,0.0028076171875,-0.0662078857421875
1761916065892690700,8.140690673828125,-0.989227294921875,0.0021514892578125,-0.0665740966796875
1761916065902744800,8.150744873046875,-0.98779296875,0.0028076171875,-0.0668487548828125
1761916065912799700,8.1607998046875,-0.98828125,0.0031890869140625,-0.0670623779296875
1761916065922853600,8.170853515625,-0.9892578125,0.003692626953125,-0.066619873046875
1761916065932908800,8.18090869140625,-0.9886322021484375,0.0035552978515625,-0.0673370361328125
1761916065942963700,8.190963623046875,-0.988128662109375,0.003570556640625,-0.0669403076171875
1761916065953017600,8.201017578125,-0.9890594482421875,0.00262451171875,-0.0677337646484375
1761916065963072800,8.21107275390625,-0.9884490966796875,0.002288818359375,-0.0674591064453125
1761916065973126700,8.221126708984375,-0.9885101318359375,0.0027618408203125,-0.0677032470703125
1761916065983181800,8.231181884765626,-0.989105224609375,0.002593994140625,-0.0677642822265625
1761916065993235700,8.241235595703126,-0.98944091796875,0.00286865234375,-0.0671234130859375
1761916066003290600,8.25129052734375,-0.98834228515625,0.002838134765625,-0.067291259765625
1761916066013344800,8.2613447265625,-0.9884796142578125,0.0038909912109375,-0.066497802734375
1761916066023400000,8.27139990234375,-0.9887542724609375,0.0042724609375,-0.066497802734375
1761916066033454600,8.28145458984375,-0.988677978515625,0.00274658203125,-0.0668487548828125
1761916066043508700,8.2915087890625,-0.9870758056640625,0.0019683837890625,-0.067779541015625
1761916066053564000,8.30156396484375,-0.9878997802734375,0.0034637451171875,-0.067626953125
1761916066063617800,8.31161767578125,-0.988616943359375,0.0029449462890625,-0.0667877197265625
1761916066073672700,8.321672607421876,-0.9882659912109375,0.002593994140625,-0.067230224609375
1761916066083726600,8.3317265625,-0.98809814453125,0.0021209716796875,-0.0673980712890625
1761916066093781800,8.34178173828125,-0.9886627197265625,0.0027008056640625,-0.0666351318359375
1761916066103836000,8.3518359375,-0.9889678955078125,0.0029449462890625,-0.0670013427734375
1761916066113890600,8.361890625,-0.989532470703125,0.002655029296875,-0.0674591064453125
1761916066123945700,8.37194580078125,-0.9893035888671875,0.0035858154296875,-0.0668792724609375
1761916066133999900,8.381999755859376,-0.9895782470703125,0.0024566650390625,-0.0666046142578125
1761916066144054500,8.392054443359376,-0.9876708984375,0.00323486328125,-0.067108154296875
1761916066154108700,8.402108642578124,-0.98809814453125,0.002532958984375,-0.0662384033203125
1761916066164163800,8.412163818359375,-0.9886322021484375,0.002349853515625,-0.0664215087890625
1761916066174217700,8.4222177734375,-0.988372802734375,0.0025634765625,-0.0671234130859375
1761916066184272600,8.432272705078125,-0.988800048828125,0.0024566650390625,-0.0670928955078125
1761916066194327800,8.442327880859375,-0.9896087646484375,0.0033416748046875,-0.0666351318359375
1761916066204381700,8.452381591796875,-0.9878387451171875,0.0022430419921875,-0.066802978515625
1761916066214436900,8.462436767578126,-0.9881134033203125,0.0025177001953125,-0.0679931640625
1761916066224490800,8.47249072265625,-0.9895172119140625,0.0017242431640625,-0.0674591064453125
1761916066234545700,8.482545654296874,-0.9880828857421875,0.0024871826171875,-0.067138671875
1761916066244599800,8.492599853515625,-0.9884033203125,0.003662109375,-0.06805419921875
1761916066254654700,8.50265478515625,-0.9884490966796875,0.0028839111328125,-0.06744384765625
1761916066264709600,8.512709716796875,-0.9893951416015625,0.0029449462890625,-0.06719970703125
1761916066274763800,8.522763671875,-0.989227294921875,0.0030975341796875,-0.0672454833984375
1761916066284818700,8.532818603515626,-0.9887847900390625,0.0025177001953125,-0.06732177734375
1761916066294872800,8.542872802734376,-0.9884796142578125,0.0025177001953125,-0.0676422119140625
1761916066304927700,8.552927734375,-0.9886322021484375,0.0025634765625,-0.0673370361328125
1761916066314981600,8.562981689453125,-0.98956298828125,0.003265380859375,-0.066650390625
1761916066325036800,8.573036865234375,-0.98870849609375,0.00323486328125,-0.068115234375
1761916066335091000,8.583091064453125,-0.9883880615234375,0.003509521484375,-0.0673065185546875
1761916066345145600,8.5931455078125,-0.98809814453125,0.002716064453125,-0.0665435791015625
1761916066355200800,8.60320068359375,-0.9887847900390625,0.0030059814453125,-0.0671234130859375
1761916066365254700,8.613254638671876,-0.9882354736328125,0.0038909912109375,-0.0667877197265625
1761916066375309800,8.623309814453124,-0.9885406494140625,0.0041351318359375,-0.06671142578125
1761916066385363700,8.63336376953125,-0.9871368408203125,0.00244140625,-0.067718505859375
1761916066395418600,8.643418701171875,-0.9873504638671875,0.0034027099609375,-0.066925048828125
1761916066405472800,8.65347265625,-0.9877777099609375,0.00341796875,-0.066802978515625
1761916066415528000,8.66352783203125,-0.9889678955078125,0.00213623046875,-0.066986083984375
1761916066425582600,8.67358251953125,-0.98919677734375,0.00323486328125,-0.0670623779296875
1761916066435636700,8.68363671875,-0.9892578125,0.003326416015625,-0.06719970703125
1761916066445692000,8.69369189453125,-0.988067626953125,0.0028228759765625,-0.066802978515625
1761916066455745800,8.703745849609374,-0.9886322021484375,0.0031585693359375,-0.066680908203125
1761916066465800700,8.71380078125,-0.98809814453125,0.0033416748046875,-0.066802978515625
1761916066475854800,8.723854736328125,-0.989013671875,0.0027923583984375,-0.0673828125
1761916066485909800,8.73390966796875,-0.9888153076171875,0.0022430419921875,-0.0672454833984375
1761916066495964700,8.743964599609376,-0.98876953125,0.0034637451171875,-0.0672607421875
1761916066506018600,8.7540185546875,-0.98876953125,0.0034637451171875,-0.0678253173828125
1761916066516073700,8.76407373046875,-0.9889678955078125,0.0034637451171875,-0.0668182373046875
1761916066526127900,8.7741279296875,-0.9896697998046875,0.0040130615234375,-0.0670623779296875
1761916066536182500,8.7841826171875,-0.9878387451171875,0.0024566650390625,-0.067230224609375
1761916066546236700,8.794236572265625,-0.9875335693359375,0.00238037109375,-0.066864013671875
1761916066556291800,8.804291748046875,-0.98931884765625,0.0026702880859375,-0.06695556640625
1761916066566346800,8.8143466796875,-0.9890899658203125,0.0032806396484375,-0.066986083984375
1761916066576400600,8.824400634765626,-0.98822021484375,0.0032806396484375,-0.0674896240234375
1761916066586455800,8.834455810546874,-0.9886322021484375,0.0029754638671875,-0.0676116943359375
1761916066596509700,8.844509765625,-0.9887847900390625,0.002166748046875,-0.0667724609375
1761916066606564900,8.85456494140625,-0.9885711669921875,0.00286865234375,-0.067138671875
1761916066616618800,8.86461865234375,-0.9885711669921875,0.0024871826171875,-0.067047119140625
1761916066626673700,8.874673583984375,-0.9879150390625,0.0030670166015625,-0.0674285888671875
1761916066636728800,8.884728759765625,-0.98846435546875,0.002288818359375,-0.067291259765625
1761916066646783000,8.894782958984376,-0.9881591796875,0.003082275390625,-0.0677032470703125
1761916066656837600,8.904837646484374,-0.988372802734375,0.003936767578125,-0.0675506591796875
1761916066666891800,8.914891845703124,-0.9881134033203125,0.0028228759765625,-0.0673980712890625
1761916066676946700,8.92494677734375,-0.98907470703125,0.00341796875,-0.0671539306640625
1761916066687001600,8.935001708984375,-0.98883056640625,0.002838134765625,-0.0670318603515625
1761916066697055700,8.9450556640625,-0.989166259765625,0.00311279296875,-0.0656890869140625
1761916066707110700,8.955110595703125,-0.988983154296875,0.00262451171875,-0.0672607421875
1761916066717164800,8.965164794921876,-0.9889373779296875,0.0025634765625,-0.067291259765625
1761916066727219700,8.9752197265625,-0.9891815185546875,0.00299072265625,-0.0668182373046875
1761916066737273600,8.985273681640624,-0.9883575439453125,0.0020294189453125,-0.0670166015625
1761916066747328800,8.995328857421875,-0.988433837890625,0.002410888671875,-0.06689453125
1761916066757384000,9.005384033203125,-0.989105224609375,0.00274658203125,-0.0667877197265625
1761916066767437800,9.015437744140625,-0.98944091796875,0.0024871826171875,-0.0670623779296875
1761916066777492700,9.02549267578125,-0.9888458251953125,0.001434326171875,-0.0670928955078125
1761916066787547000,9.035546875,-0.989227294921875,0.0032501220703125,-0.0670013427734375
1761916066797601800,9.045601806640626,-0.988739013671875,0.00341796875,-0.066162109375
1761916066807656000,9.055656005859374,-0.9896240234375,0.0030670166015625,-0.0668792724609375
1761916066817710600,9.065710693359375,-0.988067626953125,0.0019989013671875,-0.0667266845703125
1761916066827765800,9.075765869140625,-0.9891357421875,0.002288818359375,-0.066864013671875
1761916066837820000,9.08581982421875,-0.9889373779296875,0.0032806396484375,-0.066802978515625
1761916066847874600,9.09587451171875,-0.9878997802734375,0.0026092529296875,-0.067962646484375
1761916066857928700,9.1059287109375,-0.9881439208984375,0.0025177001953125,-0.0674896240234375
1761916066867984000,9.11598388671875,-0.9888916015625,0.0025177001953125,-0.06781005859375
1761916066878037800,9.126037841796874,-0.9888763427734375,0.0033721923828125,-0.0673828125
1761916066888092700,9.1360927734375,-0.9886474609375,0.002838134765625,-0.0674896240234375
1761916066898147800,9.14614794921875,-0.9883880615234375,0.0030517578125,-0.066619873046875
1761916066908201700,9.15620166015625,-0.9884796142578125,0.00323486328125,-0.06732177734375
1761916066918256600,9.166256591796875,-0.9888763427734375,0.002655029296875,-0.0663909912109375
1761916066928310800,9.176310791015625,-0.988189697265625,0.002044677734375,-0.066864013671875
1761916066938365700,9.18636572265625,-0.98834228515625,0.0027313232421875,-0.0671539306640625
1761916066948420900,9.1964208984375,-0.9881744384765625,0.00311279296875,-0.0679779052734375
1761916066958474800,9.206474853515624,-0.98883056640625,0.0028839111328125,-0.0662689208984375
1761916066968529700,9.21652978515625,-0.988922119140625,0.002532958984375,-0.0670318603515625
1761916066978583800,9.226583740234375,-0.98828125,0.003204345703125,-0.06646728515625
1761916066988638700,9.236638671875,-0.9893951416015625,0.00286865234375,-0.0673828125
1761916066998693600,9.246693603515626,-0.9886627197265625,0.0035247802734375,-0.0666656494140625
1761916067008747800,9.256747802734376,-0.9888916015625,0.0023040771484375,-0.067108154296875
1761916067018802700,9.266802734375,-0.9884490966796875,0.0023956298828125,-0.068115234375
1761916067028856800,9.27685693359375,-0.9887542724609375,0.0027313232421875,-0.066986083984375
1761916067038911700,9.286911865234375,-0.9882659912109375,0.003692626953125,-0.06695556640625
1761916067048965600,9.296965576171875,-0.9886016845703125,0.0028839111328125,-0.067108154296875
1761916067059020800,9.307020751953125,-0.988525390625,0.003814697265625,-0.0672607421875
1761916067069075700,9.31707568359375,-0.98870849609375,0.003204345703125,-0.0668487548828125
1761916067079129600,9.327129638671876,-0.988983154296875,0.00335693359375,-0.0672149658203125
1761916067089181700,9.337181640625,-0.988250732421875,0.00286865234375,-0.0672149658203125
1761916067099236600,9.347236572265626,-0.9887237548828125,0.0025634765625,-0.0668182373046875
1761916067109291800,9.357291748046874,-0.98968505859375,0.0026397705078125,-0.0668792724609375
1761916067119345700,9.367345703125,-0.9888153076171875,0.002349853515625,-0.0673828125
1761916067129400800,9.37740087890625,-0.9877471923828125,0.00335693359375,-0.06732177734375
1761916067139454700,9.387454833984375,-0.988677978515625,0.0029296875,-0.06695556640625
1761916067149509600,9.397509521484375,-0.9886932373046875,0.002471923828125,-0.0669403076171875
1761916067159563800,9.407563720703125,-0.9877777099609375,0.002899169921875,-0.0670013427734375
1761916067169619000,9.417618896484376,-0.9896240234375,0.0028839111328125,-0.066986083984375
1761916067179673600,9.427673583984374,-0.988189697265625,0.0021514892578125,-0.0670928955078125
1761916067189727700,9.437727783203124,-0.9893646240234375,0.00262451171875,-0.067138671875
1761916067199783000,9.447782958984375,-0.9880828857421875,0.002960205078125,-0.0677490234375
1761916067209836800,9.4578369140625,-0.988525390625,0.00311279296875,-0.0673828125
1761916067219891700,9.4678916015625,-0.988677978515625,0.0028533935546875,-0.0678863525390625
1761916067229947000,9.47794677734375,-0.9889678955078125,0.002593994140625,-0.0673828125
1761916067240000800,9.488000732421876,-0.988189697265625,0.0024871826171875,-0.0670166015625
1761916067250055700,9.4980556640625,-0.9888153076171875,0.003631591796875,-0.0672149658203125
1761916067260109600,9.508109619140624,-0.98846435546875,0.002685546875,-0.0667877197265625
1761916067270164700,9.518164794921875,-0.9884490966796875,0.003265380859375,-0.06756591796875
1761916067280220000,9.528219970703125,-0.9884033203125,0.0037841796875,-0.067138671875
1761916067290273800,9.538273681640625,-0.9891815185546875,0.0034027099609375,-0.0670318603515625
1761916067300328700,9.54832861328125,-0.9893798828125,0.002349853515625,-0.066925048828125
1761916067310382800,9.5583828125,-0.9886932373046875,0.0026702880859375,-0.0676116943359375
1761916067320437800,9.568437744140626,-0.9888763427734375,0.00274658203125,-0.067962646484375
1761916067330492700,9.57849267578125,-0.9882049560546875,0.0021820068359375,-0.067962646484375
1761916067340546800,9.588546875,-0.9889373779296875,0.0035552978515625,-0.067291259765625
1761916067350601700,9.598601806640625,-0.9895172119140625,0.002685546875,-0.067626953125
1761916067360656000,9.60865576171875,-0.9895477294921875,0.0035400390625,-0.067169189453125
1761916067370710800,9.618710693359375,-0.9884796142578125,0.0027923583984375,-0.0670623779296875
1761916067380765700,9.628765625,-0.988494873046875,0.0024871826171875,-0.066864013671875
1761916067390819800,9.63881982421875,-0.9892425537109375,0.0034637451171875,-0.0666351318359375
1761916067400874800,9.648874755859374,-0.9881439208984375,0.002838134765625,-0.0669097900390625
1761916067410928600,9.6589287109375,-0.9881134033203125,0.0030517578125,-0.06756591796875
1761916067420983800,9.66898388671875,-0.989410400390625,0.0023956298828125,-0.06646728515625
1761916067431039000,9.6790390625,-0.9893951416015625,0.00323486328125,-0.067413330078125
1761916067441092600,9.689092529296875,-0.9899444580078125,0.00299072265625,-0.06622314453125
1761916067451147800,9.699147705078126,-0.9883880615234375,0.0026702880859375,-0.0670318603515625
1761916067461201700,9.70920166015625,-0.9890594482421875,0.002044677734375,-0.0667724609375
1761916067471256800,9.7192568359375,-0.988922119140625,0.002777099609375,-0.0671539306640625
1761916067481310700,9.729310791015624,-0.9888458251953125,0.00274658203125,-0.0672149658203125
1761916067491365600,9.73936572265625,-0.9886322021484375,0.0029144287109375,-0.0672149658203125
1761916067501420800,9.7494208984375,-0.9893951416015625,0.00262451171875,-0.067230224609375
1761916067511473700,9.7594736328125,-0.989471435546875,0.0024871826171875,-0.0666961669921875
1761916067521528800,9.76952880859375,-0.9886932373046875,0.002288818359375,-0.0666351318359375
1761916067531582700,9.779582763671876,-0.9879608154296875,0.0024871826171875,-0.066192626953125
1761916067541637600,9.7896376953125,-0.987274169921875,0.00213623046875,-0.066925048828125
1761916067551692800,9.79969287109375,-0.9878082275390625,0.00299072265625,-0.06744384765625
1761916067561746700,9.80974658203125,-0.989166259765625,0.002716064453125,-0.0669097900390625
1761916067571801600,9.819801513671875,-0.989227294921875,0.00250244140625,-0.0669403076171875
1761916067581856800,9.829856689453125,-0.988616943359375,0.0031890869140625,-0.0667572021484375
1761916067591910700,9.83991064453125,-0.988250732421875,0.0034942626953125,-0.06683349609375
1761916067601965600,9.849965576171876,-0.9890289306640625,0.0022430419921875,-0.0672760009765625
1761916067612019500,9.86001953125,-0.9885406494140625,0.00274658203125,-0.06683349609375
1761916067622074600,9.87007470703125,-0.98687744140625,0.0025177001953125,-0.0663604736328125
1761916067632129800,9.8801298828125,-0.989410400390625,0.0025787353515625,-0.0663909912109375
1761916067642183400,9.890183349609375,-0.9889068603515625,0.002288818359375,-0.06646728515625
1761916067652239600,9.900239501953125,-0.989532470703125,0.002777099609375,-0.0669708251953125
1761916067662294500,9.91029443359375,-0.9886627197265625,0.003143310546875,-0.06707763671875
1761916067672349700,9.920349609375,-0.98773193359375,0.00177001953125,-0.0678558349609375
1761916067682403600,9.930403564453124,-0.9873504638671875,0.003387451171875,-0.067779541015625
1761916067692458800,9.940458740234375,-0.9874267578125,0.002288818359375,-0.06707763671875
1761916067702512600,9.9505126953125,-0.9890594482421875,0.0023345947265625,-0.0663299560546875
1761916067712567600,9.960567626953125,-0.9882965087890625,0.0022430419921875,-0.0670013427734375
1761916067722622700,9.970622802734376,-0.98583984375,0.002471923828125,-0.06768798828125
1761916067732676900,9.9806767578125,-0.989959716796875,0.002197265625,-0.067840576171875
1761916067742731500,9.9907314453125,-0.993133544921875,0.002471923828125,-0.066131591796875
1761916067752785700,10.00078564453125,-0.992523193359375,0.0026702880859375,-0.0663909912109375
1761916067762840800,10.0108408203125,-0.986846923828125,0.00372314453125,-0.0668487548828125
1761916067772895500,10.0208955078125,-0.9867401123046875,0.004241943359375,-0.0672149658203125
1761916067782949600,10.03094970703125,-0.98675537109375,0.0038604736328125,-0.067108154296875
1761916067793004500,10.041004638671875,-0.989227294921875,0.00177001953125,-0.0670166015625
1761916067803058700,10.05105859375,-0.990631103515625,0.002532958984375,-0.0666656494140625
1761916067813113600,10.061113525390626,-0.988494873046875,0.0023345947265625,-0.0665130615234375
1761916067823168500,10.07116845703125,-0.9856719970703125,0.0029144287109375,-0.06781005859375
1761916067833222700,10.08122265625,-0.9886474609375,0.0025787353515625,-0.0668182373046875
1761916067843277600,10.091277587890625,-0.9922637939453125,0.0018310546875,-0.0661773681640625
1761916067853331500,10.10133154296875,-0.990814208984375,0.002593994140625,-0.066009521484375
1761916067863386600,10.11138671875,-0.982086181640625,0.0041961669921875,-0.06817626953125
1761916067873441800,10.12144189453125,-0.983551025390625,0.002899169921875,-0.068939208984375
1761916067883495700,10.13149560546875,-0.9927825927734375,0.0025482177734375,-0.0658111572265625
1761916067893550600,10.141550537109374,-0.9925537109375,0.0027008056640625,-0.065948486328125
1761916067903604700,10.151604736328125,-0.9867095947265625,0.00323486328125,-0.0670928955078125
1761916067913659600,10.16165966796875,-0.983154296875,0.00384521484375,-0.068572998046875
1761916067923714600,10.171714599609375,-0.9891510009765625,0.00225830078125,-0.066864013671875
1761916067933768700,10.181768798828125,-0.99273681640625,0.0025634765625,-0.0657501220703125
1761916067943823600,10.19182373046875,-0.9889373779296875,0.0037384033203125,-0.067596435546875
1761916067953878500,10.20187841796875,-0.985137939453125,0.0044097900390625,-0.0679931640625
1761916067963932400,10.211932373046874,-0.9856719970703125,0.0028228759765625,-0.0676422119140625
1761916067973987600,10.221987548828125,-0.989593505859375,0.0031585693359375,-0.0665435791015625
1761916067984041700,10.232041748046875,-0.99066162109375,0.0030670166015625,-0.0655517578125
1761916067994096600,10.2420966796875,-0.987884521484375,0.0030059814453125,-0.06695556640625
1761916068004151600,10.252151611328125,-0.987548828125,0.0024566650390625,-0.068572998046875
1761916068014205700,10.262205810546876,-0.98846435546875,0.0023956298828125,-0.067596435546875
1761916068024260600,10.272260498046874,-0.990478515625,0.0029296875,-0.0662841796875
1761916068034314800,10.282314697265624,-0.989776611328125,0.0024261474609375,-0.067138671875
1761916068044369700,10.29236962890625,-0.986968994140625,0.002838134765625,-0.0680999755859375
1761916068054424600,10.302424560546875,-0.98699951171875,0.00274658203125,-0.0673370361328125
1761916068064478700,10.312478759765625,-0.9903106689453125,0.003387451171875,-0.066802978515625
1761916068074533600,10.32253369140625,-0.9892120361328125,0.0028839111328125,-0.06634521484375
1761916068084588500,10.332588623046876,-0.987213134765625,0.002593994140625,-0.0677337646484375
1761916068094642700,10.342642578125,-0.9869842529296875,0.003814697265625,-0.0674896240234375
1761916068104697600,10.352697509765624,-0.9890289306640625,0.003204345703125,-0.067138671875
1761916068114751500,10.36275146484375,-0.989349365234375,0.00262451171875,-0.0660552978515625
1761916068124806700,10.372806640625,-0.9892120361328125,0.0020294189453125,-0.0673828125
1761916068134861800,10.38286181640625,-0.9871063232421875,0.00360107421875,-0.0676116943359375
1761916068144915500,10.39291552734375,-0.987701416015625,0.002838134765625,-0.0674591064453125
1761916068154970600,10.402970703125,-0.9900970458984375,0.002777099609375,-0.066192626953125
1761916068165024500,10.4130244140625,-0.9904937744140625,0.002960205078125,-0.066192626953125
1761916068175079700,10.42307958984375,-0.987457275390625,0.0041961669921875,-0.06842041015625
1761916068185134600,10.433134521484375,-0.987335205078125,0.0032501220703125,-0.0677490234375
1761916068195188500,10.4431884765625,-0.98870849609375,0.002899169921875,-0.0670623779296875
1761916068205243600,10.45324365234375,-0.9901275634765625,0.003631591796875,-0.0667266845703125
1761916068215297800,10.4632978515625,-0.9893341064453125,0.0025482177734375,-0.06732177734375
1761916068225352400,10.4733525390625,-0.987640380859375,0.00244140625,-0.0671539306640625
1761916068235407600,10.48340771484375,-0.95538330078125,0.0084686279296875,-0.0712432861328125
1761916068245461800,10.493461669921874,-0.9069366455078125,0.010711669921875,-0.081817626953125
1761916068255516400,10.503516357421875,-0.96875,-0.001556396484375,-0.072723388671875
1761916068265571600,10.513571533203125,-1.0417327880859375,-0.0068511962890625,-0.0542144775390625
1761916068275625700,10.523625732421875,-1.0433349609375,-0.0049285888671875,-0.045654296875
1761916068285680600,10.5336806640625,-1.0206451416015625,-0.0027618408203125,-0.0455169677734375
1761916068295734500,10.543734619140626,-1.017364501953125,-0.0001678466796875,-0.051300048828125
1761916068305789700,10.553789794921874,-1.01422119140625,0.0011138916015625,-0.05596923828125
1761916068315844600,10.5638447265625,-1.0054931640625,-0.0008544921875,-0.0565185546875
1761916068325898800,10.573898681640625,-1.0030517578125,0.0001983642578125,-0.0555877685546875
1761916068335953700,10.58395361328125,-0.98565673828125,0.001739501953125,-0.062164306640625
1761916068346007600,10.594007568359375,-0.9573516845703125,0.001800537109375,-0.0729522705078125
1761916068356062700,10.604062744140625,-0.930389404296875,0.0101165771484375,-0.0785980224609375
1761916068366117600,10.61411767578125,-0.943695068359375,0.0073089599609375,-0.0781097412109375
