time,seconds_elapsed,z,y,x
1761916057850402300,0.09840234375,-0.04006605292856693,-0.019828619616117794,0.051901963607594366
1761916057860457500,0.10845751953125,0.11632219413518904,-0.008366841762396507,0.005400909195467829
1761916057870511400,0.118511474609375,0.20892799711823462,0.002982995582872536,-0.0177406777434051
1761916057880565500,0.1285654296875,0.10118716884553432,-0.010761401898867916,0.016078882011026144
1761916057890620400,0.138620361328125,-0.0149316116720438,-0.010411387451377232,0.047103696480393406
1761916057900674300,0.14867431640625,0.04844400517344474,-0.001166020705224946,0.03195858818814158
1761916057910728400,0.158728515625,0.20491408530175684,0.006154574823693837,-0.007167188215628266
1761916057920782300,0.1687822265625,0.17447919954955576,-0.0011737496372428722,-0.0005598989050835371
1761916057930837500,0.17883740234375,0.01445931798517704,-0.014477271483687217,0.023914690203219652
1761916057940891400,0.188891357421875,0.007477204012870788,-0.021477740813302806,0.03326046456694603
1761916057950945300,0.1989453125,0.10907587626874446,-0.009144908896228298,0.00955298737362027
1761916057961000400,0.20900048828125,0.16302023242413996,-0.012902925705898087,-0.015916019599512218
1761916057971054300,0.219054443359375,0.08880348809063435,-0.031981062598142304,0.001076104798913002
1761916057981108500,0.2291083984375,0.019894202515482903,-0.026303820679325143,0.01847724838964641
1761916057991163400,0.239163330078125,0.0565326190829277,-0.010371377384685911,0.013559300405532122
1761916058001217300,0.24921728515625,0.14085223975777625,0.0013612829824211075,0.0005138678062707186
1761916058011271400,0.259271484375,0.13133330078423022,0.0036229945364408193,-0.003026362083852291
1761916058021326300,0.269326416015625,0.06113397539854049,0.0032469825645908713,0.02059175632558763
1761916058031380500,0.27938037109375,0.0512128853648901,0.001859530811163131,0.026925416326522827
1761916058041434400,0.289434326171875,0.09493044653832912,0.003575209871958941,0.017307473957911133
1761916058051488500,0.299488525390625,0.12399579750299453,0.011446550601837224,0.009006678602471948
1761916058061543400,0.30954345703125,0.08883855940401554,-0.0005182722700410522,0.018929229940846563
1761916058071597300,0.319597412109375,0.06785597712993621,-0.00912423828424653,0.024353885338082908
1761916058081651500,0.3296513671875,0.076810267958045,0.008298454984591808,0.022606237953156232
1761916058091706400,0.339706298828125,0.1197661971092224,0.029416826716880312,0.005268368856981396
1761916058101760500,0.349760498046875,0.12113748546242713,-0.005875513570429757,0.016887714175879955
1761916058111814400,0.359814453125,0.0541623828202486,-0.022678252876596524,0.023113310692459345
1761916058121869300,0.369869384765625,0.0052688803136348725,-0.12343159688212908,-0.10256057609058916
1761916058131923500,0.37992333984375,0.20940964315533636,0.023979795895260756,0.07581058939620852
1761916058141977300,0.389977294921875,0.11958324175775051,-0.007281051253108307,0.043856019796058535
1761916058152031500,0.400031494140625,-0.06555296088457108,0.02125696735222591,0.0116594581335783
1761916058162086400,0.41008642578125,0.10437105957865714,-0.04566901946819853,-0.03178966136202216
1761916058172140300,0.420140380859375,0.216579388654232,-0.0392629655179102,0.026478695472329852
1761916058182194400,0.4301943359375,0.043482583373785015,0.037942076194670514,-0.04060205950140953
1761916058192249300,0.440249267578125,0.0862350989073515,0.009147982202726416,0.055353784561902285
1761916058202303500,0.450303466796875,0.0436316364556551,-0.013231698719249107,0.07007796402834356
1761916058212357400,0.460357421875,0.04862403791546821,-0.007309263567440211,-0.039679099437594414
1761916058222412300,0.470412353515625,0.2318903550326824,-0.009464854715729597,0.02695683437809348
1761916058232466400,0.480466552734375,0.06559037028551101,0.054246375875850204,0.02878492658808827
1761916058242520300,0.490520263671875,-0.0025660510957241055,0.000004797189414966851,0.01948569477982819
1761916058252575500,0.500575439453125,0.14108371042609213,-0.04915228130696341,0.03208871737383306
1761916058262629400,0.51062939453125,0.09906593890786171,-0.042837344272807235,-0.010842515727505088
1761916058272683300,0.520683349609375,0.10224281537830829,-0.014683219551679212,0.011841828963160514
1761916058282737400,0.5307373046875,0.0846919611185789,-0.013733796172623988,0.03835881061926484
1761916058292792300,0.540792236328125,0.020130933880805967,-0.003588416413404047,0.017628157279640434
1761916058302846500,0.550846435546875,0.12011749476492405,-0.03047369024249492,-0.00958572059944272
1761916058312900400,0.560900390625,0.15844576411545275,-0.014757983554631936,0.013002397175133228
1761916058322955300,0.570955322265625,0.04603109881281853,0.008771741902013309,0.005302271126583219
1761916058333009400,0.581009521484375,0.06050152271389961,0.00526989866036456,0.01641848922893405
1761916058343063300,0.591063232421875,0.09863456175327301,-0.018655527566000817,0.017066066417470573
1761916058353118500,0.601118408203125,0.08817863419055938,-0.015408136292744892,0.0036395986113697287
1761916058363172400,0.61117236328125,0.12350596815943717,0.0015669547724886795,0.014828005167096852
1761916058373226500,0.6212265625,0.07394552617669105,0.030206908515491522,0.01931786393225193
1761916058383281400,0.631281494140625,0.06314063904583454,0.010877762854110915,0.014825228688120841
1761916058393335300,0.641335205078125,0.10922785196006297,-0.020578456169308628,0.020683891588449476
1761916058403389400,0.651389404296875,0.09186053757369518,-0.033436570052523165,-0.000429842784628272
1761916058413444400,0.6614443359375,0.06700900491178036,-0.011795551269175484,0.013209171793609857
1761916058423498500,0.67149853515625,0.09184124835133552,0.009626513834134674,0.026780820224061606
1761916058433552400,0.681552490234375,0.08450199150443076,0.010001158116094302,0.013116525074094533
1761916058443606300,0.691606201171875,0.09019991088509559,0.0032706625509890726,0.00352517845146358
1761916058453661400,0.701661376953125,0.09514788868129252,0.0006447390607674606,0.00981485318019986
1761916058463715300,0.71171533203125,0.07810147681236267,0.014032980048598254,0.008734875923767685
1761916058473769500,0.72176953125,0.0921948840945959,0.011722588780953083,0.02061199539601803
1761916058483824400,0.731824462890625,0.08811433678269386,-0.02459000934862997,0.011338774811848997
1761916058493878800,0.741878662109375,0.07674421698451042,-0.035915009080164595,0.00770728644169867
1761916058503932700,0.7519326171875,0.08471651103794574,-0.03997739283100236,-0.000981485318019986
1761916058513987800,0.76198779296875,0.09804477916657924,-0.025915330535103566,0.00664462564624846
1761916058524041700,0.772041748046875,0.07604629784822464,-0.02224753102584509,0.007128755901381373
1761916058534096000,0.782095947265625,0.0721522130191326,-0.02529613005768042,0.007023688091710209
1761916058544150800,0.79215087890625,0.0853238292813301,-0.03696800471483729,0.0015750672969967127
1761916058554204700,0.80220458984375,0.09195464559793472,-0.014295046784577424,0.0025231618020683526
1761916058564258800,0.8122587890625,0.09287760566174984,0.009579758932825644,0.015626023676991462
1761916058574313700,0.822313720703125,0.0792547385007143,0.015404836940672248,0.028148820641636846
1761916058584367900,0.832367919921875,0.07311082891821861,0.013158654032635967,0.01166296526491642
1761916058594421800,0.842421875,0.09915420171320438,0.011885321045015006,0.019803090165928006
1761916058604475600,0.8524755859375,0.10633096147477626,0.019972649462998378,0.02872961620427668
1761916058614530800,0.86253076171875,0.07922492788434028,0.009571696640667504,0.02515745680592954
1761916058624584700,0.872584716796875,0.07605681924223899,-0.022029070536151992,0.010120631193742156
1761916058634638800,0.882638916015625,0.09177344381213187,-0.04796324505233206,0.002424231472238898
1761916058644693800,0.89269384765625,0.103906949198246,-0.04042578961905092,0.01122011686824262
1761916058654747600,0.90274755859375,0.08595102126896381,-0.01635144274155609,0.017335238747671247
1761916058664801800,0.9128017578125,0.07830196782052516,-0.005681331288756337,0.014744491602107881
1761916058674856700,0.922856689453125,0.09119067548811435,-0.0012593387115979566,0.010561506829038262
1761916058684910800,0.932910888671875,0.09403495900332927,-0.003920333515200764,0.009652575290575623
1761916058694964700,0.94296484375,0.15185586433112622,0.0460567721101921,0.025169220308959482
1761916058705019600,0.95301953125,0.5101619374901056,-0.006231724863266572,0.022844649818912148
1761916058715073800,0.96307373046875,-0.28449674058258534,0.03290817824726691,0.023754458140209316
1761916058725127700,0.973127685546875,-0.675040949523449,-0.11280463273460045,-0.00863945272527635
1761916058735182800,0.983182861328125,0.4018628908127546,-0.13804906457108446,-0.051167438787966965
1761916058745237000,0.993237060546875,0.63481064594388,0.0826942205632571,0.0272816824182868
1761916058755290600,1.00329052734375,0.006035773032903671,0.09863298171753994,0.07205437866784632
1761916058765345800,1.013345703125,-0.0895721343755722,-0.09521181162982247,-0.005522197487577795
1761916058775399700,1.023399658203125,-0.02174947499334812,-0.07703835935918614,-0.030504663052782415
1761916058785453800,1.033453857421875,0.18118834179937837,0.07031930763670242,0.021592530865967272
1761916058795508700,1.0435087890625,0.35063188526928424,0.02218778192893369,0.005417275808379054
1761916058805562600,1.053562744140625,-0.009702478846907616,-0.04262213061954826,0.007248436758294701
1761916058815616800,1.06361669921875,-0.20385610068142412,-0.0020424427801510317,0.03538571309261024
1761916058825671700,1.073671630859375,0.22035656910538673,0.0005800512105459347,0.013697028375789523
1761916058835725800,1.083725830078125,0.31543489968180655,0.002060368879197631,-0.00582972906678915
1761916058845779700,1.09377978515625,-0.031989713978767396,-0.0004887013989733532,0.004730754848942161
1761916058855834600,1.103834716796875,-0.04880582422316074,-0.0219188972931006,0.01778393236324191
1761916058865888800,1.113888671875,0.1577770710736513,-0.0049048419073689726,0.022979309049248695
1761916058875942700,1.123942626953125,0.15017887102961539,0.005034603483590762,0.004568915350735187
1761916058885997800,1.133997802734375,0.07648644283115863,-0.0245856962164049,-0.004543780909478664
1761916058896051700,1.1440517578125,0.04595277287960052,-0.020189164590777364,0.011702420492470264
1761916058906105900,1.15410595703125,0.054661564514040945,0.013230162066000048,0.03306932590901852
1761916058916160800,1.164160888671875,0.12154022104442119,-0.0029930717356037345,0.008818681749701499
1761916058926214700,1.174214599609375,0.12311083136200904,-0.029804832803911992,-0.0213064804662019
1761916058936268800,1.184268798828125,0.05818973864018917,-0.005794237628299743,0.006214563665911555
1761916058946322700,1.19432275390625,0.07400573193132877,-0.006657816204673144,0.020064225320145488
1761916058956377900,1.2043779296875,0.11123743821680546,-0.019011261651513633,0.010140358807519078
1761916058966431700,1.214431640625,0.0777642076820135,-0.015170813555666244,0.0007864011373370886
1761916058976485600,1.224485595703125,0.08918225827515125,-0.0023605779517674817,0.004007043684273958
1761916058986540800,1.234540771484375,0.1023334162712097,-0.004467774797510355,0.016365882258862256
1761916058996594700,1.2445947265625,0.07385550980567931,0.00038308560003060845,0.0333676512684673
1761916059006648800,1.25464892578125,0.07670037784278393,-0.005076698192802724,0.012545301057398319
1761916059016703700,1.264703857421875,0.10321662884652615,-0.00479682865536306,0.0010336538966745138
1761916059026757600,1.274757568359375,0.10027882182896136,0.005041519564855844,0.013323226627334952
1761916059036811800,1.284811767578125,0.3996802860766649,-0.011513371043640653,0.0066743631973862644
1761916059046866700,1.29486669921875,0.3463327267706394,0.02907573079478461,-0.04519435572773218
1761916059056920800,1.3049208984375,-0.6425894632518291,-0.013132208983704912,0.04120886628814041
1761916059066974700,1.314974609375,-0.5572083508253097,-0.09092245300598442,0.0988336645219475
1761916059077029600,1.325029541015625,0.47854456395506856,-0.005899118208303116,0.02125752675794065
1761916059087083800,1.335083740234375,0.8148410498797893,0.06594280045237391,-0.0795085671313107
1761916059097137700,1.3451376953125,0.17641396700441836,-0.014603354681923518,-0.0782907157741487
1761916059107192800,1.35519287109375,-0.38158290385007854,-0.11378125921441241,0.043713323389738795
1761916059117247000,1.3652470703125,-0.17568623725175855,-0.019245298736251425,0.11736848831772803
1761916059127300900,1.37530078125,0.34200025052428246,0.07230042585078626,0.022877309979498384
1761916059137355800,1.385355712890625,0.3899912512332201,0.006188979416794609,-0.10066533692851662
1761916059147409700,1.39540966796875,-0.009807108265161514,-0.04258071176377125,-0.0305417071275413
1761916059157463800,1.4054638671875,-0.17186930931210517,-0.008730651839799246,0.10288790834881364
1761916059167519000,1.41551904296875,0.10006196420788764,0.01931887542911572,0.0742219319652766
1761916059177572600,1.425572509765625,0.2462742696940899,-0.0027657406695769165,-0.037873876646533605
1761916059187626800,1.435626708984375,0.1365793847441673,-0.025524150676873976,-0.0591647942174226
1761916059197681700,1.445681640625,0.037625089517235755,-0.016381968027271796,0.03455130809508264
1761916059207735800,1.45573583984375,0.0017664251506328583,-0.010907660235452931,0.08438231064751744
1761916059217789700,1.465789794921875,0.05751461585760116,-0.01776609074587468,0.021290844505652783
1761916059227844600,1.4758447265625,0.17636895881891249,-0.01947375089699635,-0.04166910421103239
1761916059237898800,1.485898681640625,0.16883739427030087,-0.004559332388348412,-0.011843801724538206
1761916059247952600,1.49595263671875,0.034037878680229186,-0.000025753212475683538,0.045523368486389514
1761916059258007800,1.5060078125,-0.000052022448182106015,-0.02229829081541393,0.04114902585968375
1761916059268061700,1.516061767578125,0.09711948101520537,-0.01795179061028175,-0.013855945264548062
1761916059278115800,1.52611572265625,0.180599728256464,-0.0005230785926105454,-0.022942338039726017
1761916059288170800,1.536170654296875,0.12015256607830524,-0.0012260483633494005,0.012890022841840982
1761916059298224600,1.546224609375,0.009758592948317527,-0.01480488458641339,0.040234906689450144
1761916059308278800,1.55627880859375,0.02392272737920284,-0.020899217122851404,0.016274989105015993
1761916059318334000,1.566333984375,0.14295125786364077,-0.0069367929762578565,-0.016700374910235405
1761916059328387800,1.576387939453125,0.16696049448251724,0.0031653527127229607,-0.012427739092335105
1761916059338441700,1.586441650390625,0.04780804535746574,-0.017224165888899006,0.02572999599687755
1761916059348496600,1.59649658203125,0.008531681501865387,-0.024404229569120795,0.03901625161468982
1761916059358550800,1.60655078125,0.10534954922199248,-0.014594041147595271,0.009800897720083595
1761916059368604700,1.616604736328125,0.15673779115378855,-0.0025392635534983127,-0.0003831540986895561
1761916059378659800,1.626659912109375,0.1039542954713106,-0.007143439730571117,0.011324892416968942
1761916059388713700,1.636713623046875,0.02848375168442726,-0.01530052489953814,0.0278089211627841
1761916059398767600,1.646767578125,0.07049333989620209,-0.01556689106801059,0.01758059181086719
1761916059408822800,1.65682275390625,0.13007716324329374,-0.009955964984209276,0.0001201192483305931
1761916059418876700,1.666876708984375,0.1189122106283903,-0.011473927232529968,0.001969254246354103
1761916059428930800,1.676930908203125,0.059203299596905706,-0.012258821399370208,0.014738427187502384
1761916059438985700,1.68698583984375,0.047778234741091725,-0.013378425130003598,0.02716448577940464
1761916059449039600,1.69703955078125,0.09087328010201454,-0.0025494013550225645,0.011910948676615954
1761916059459093800,1.70709375,0.1221937165170908,-0.003462225900602061,0.0006096563309431075
1761916059469149000,1.71714892578125,0.10216624301075934,-0.01108842819641577,0.009228139333426953
1761916059479202800,1.727202880859375,0.06233750596940517,-0.010513420770457013,0.023509908794611692
1761916059489257700,1.7372578125,0.074736384293437,-0.010402560257527511,0.021426965040713546
1761916059499316000,1.74731591796875,0.11352467237114906,-0.004017848206078633,0.004797974866256117
1761916059509369900,1.757369873046875,0.09919336467981338,-0.010284706031519453,0.002356573063507676
1761916059519425000,1.767425048828125,0.06641162354052066,-0.013574306178418918,0.020761632999777794
1761916059529479000,1.77747900390625,0.06772679779231548,-0.017105606126703785,0.017481442285329104
1761916059539532800,1.78753271484375,0.09690496148169041,-0.0070509231585077934,0.017044658303260803
1761916059549588000,1.797587890625,0.11236205833256244,-0.003887721303675789,0.002326908577606082
1761916059559641900,1.807641845703125,0.09769698864221572,-0.01069589434802765,0.0095234690181911
1761916059569696000,1.817696044921875,0.07044014840424061,-0.007617194722162094,0.023631343217194078
1761916059579751000,1.8277509765625,0.08149988707900047,-0.012699473272380418,0.018595760202780365
1761916059589804800,1.8378046875,0.1014145478606224,-0.004585998916276731,0.007946282829344273
1761916059599859000,1.84785888671875,0.09533552020788193,-0.014951930657576303,0.003983808939158917
1761916059609913900,1.857913818359375,0.09550152442455291,-0.010480523147853091,0.007649637970328331
1761916059619968000,1.867968017578125,0.08488602238595486,-0.007608904101140797,0.014405834232270718
1761916059630022000,1.87802197265625,0.09610182840526103,-0.0074103013726766215,0.002384118657559156
1761916059640076800,1.888076904296875,0.11633330005109309,-0.005733607181976549,0.0030001316640526055
1761916059650131000,1.898130859375,0.09859013808965682,-0.014588084047555457,0.010156213963776826
1761916059660184800,1.908184814453125,0.07467267140746116,-0.013169896945857908,0.011450710753723978
1761916059670240000,1.918239990234375,0.09590835165977478,-0.007397782101109624,0.00865187381543219
1761916059680294100,1.928294189453125,0.09021043227910995,-0.006887142864963971,-0.0019347674548625944
1761916059690348000,1.93834814453125,0.09249006764888763,-0.009035055313585326,0.0038444004684686658
1761916059700403000,1.94840283203125,0.08697685718536377,-0.010379633756377734,0.00874159792549908
1761916059710456800,1.958456787109375,0.07975450471639632,-0.01807651981835952,0.009027575260028243
1761916059720511000,1.968510986328125,0.10113923805058002,-0.011875027979863806,0.012077172088995575
1761916059730566100,1.978566162109375,0.11013619897663593,-0.012382641858572605,0.009856646495312451
1761916059740619800,1.988619873046875,0.08771569285392761,-0.0072318121337681075,-0.005472293931245803
1761916059750675000,1.998675048828125,0.09505378065705299,-0.0005217588517814875,0.013596052219346165
1761916059760728800,2.008728759765625,0.08947101208865642,-0.008005586684972513,0.01967237645834684
1761916059770783000,2.018782958984375,0.08601356511116028,-0.01454675652332371,0.0050892128977924585
1761916059780838000,2.028837890625,0.09231237299442291,-0.003923906861909199,-0.00514357343353331
1761916059790891800,2.038891845703125,0.09519406591057777,-0.000997516287502367,0.0029881489653140305
1761916059800946000,2.04894580078125,0.09341185866892338,-0.009006048414809628,0.020608122938498855
1761916059811000800,2.059000732421875,0.08141513140499591,-0.019010864359291734,0.012913257586956023
1761916059821055000,2.069054931640625,0.08421499125659465,-0.01968393446539994,0.003670943597704172
1761916059831108900,2.07910888671875,0.0962298386991024,0.002827786754851695,-0.022258447428792714
1761916059841163800,2.089163818359375,0.1263759706377983,0.009979811650677583,0.005027911164611577
1761916059851218000,2.099218017578125,0.07860475015938281,-0.013210838594310916,0.030413185377046466
1761916059861271800,2.109271728515625,0.042324060988426206,-0.012941492734174243,0.011209303213283419
1761916059871327000,2.119326904296875,0.1167079785823822,-0.01586826005120529,0.013997180366143584
1761916059881381000,2.129381103515625,0.12018237669467925,0.014456767551775555,-0.0032346710722893474
1761916059891435800,2.139435791015625,0.09132570004463195,0.019340397707757074,-0.0026746260367333887
1761916059901490000,2.149489990234375,0.11015198106765746,-0.01938176404789556,0.04188274696171283
1761916059911543800,2.159543701171875,0.05262275216281414,-0.015426231355150229,0.020288535595312712
1761916059921599000,2.169598876953125,0.10305763889253139,-0.010850954762287437,0.0064095747813582415
1761916059931653000,2.179653076171875,0.13213935647010802,0.004865546510019339,0.009259703515470027
1761916059941707000,2.18970703125,0.07135726324915885,-0.004284696148452349,0.011938348140195012
1761916059951762000,2.199761962890625,0.06023381168842315,-0.013294194612384307,-0.0008040098592638969
1761916059961815800,2.20981591796875,0.08807692738175392,0.001625751738040708,-0.008442103522270917
1761916059971870000,2.219869873046875,0.11686112331748008,-0.0032335294279735535,0.005587883134931326
1761916059981925000,2.229925048828125,0.11117255628705024,-0.043084359570126976,0.027761355694010854
1761916059991979000,2.23997900390625,0.03478255956768989,-0.022606785942427814,-0.0024417671289294956
1761916060002033000,2.250032958984375,0.07191606617569923,0.013870889388641807,-0.022692454931885004
1761916060012087800,2.260087890625,0.17390519905388355,-0.000004116769402753562,0.006135214819386601
1761916060022142000,2.270141845703125,0.09412789798378944,-0.0028994203690905123,0.02722776027396321
1761916060032197000,2.280197021484375,0.02520809101462364,0.0091142899956787,0.010525924059003591
1761916060042250800,2.290250732421875,0.09480360528826713,0.00408478052902501,0.0032961920011788603
1761916060052305000,2.300304931640625,0.15160919609367846,-0.010010645180358551,0.007480784209445118
1761916060062359800,2.31035986328125,0.08518880472481251,-0.02369741930690361,0.0046600277002900835
1761916060072414000,2.3204140625,0.04157236583828926,-0.0006292012816295027,0.0076460577737540005
1761916060082468000,2.330468017578125,0.08017185334563255,0.019931182658160105,0.011198197297379375
1761916060092522800,2.340522705078125,0.141734867811203,0.013576151075633243,0.011053820390626787
1761916060102577000,2.350576904296875,0.10284954909980297,-0.003473578411678318,0.002970686373859644
1761916060112630800,2.360630859375,0.05222819988727569,-0.006389764969190582,0.0064558981411159035
1761916060122686000,2.37068603515625,0.07840659723877906,-0.022052666040870826,0.008966931113973259
1761916060132740000,2.380739990234375,0.11135434259474276,-0.024392902174219487,0.010654738070443271
1761916060142794800,2.390794677734375,0.08876958582103252,-0.013804226493753957,0.0004754354920238256
1761916060152849000,2.400848876953125,0.07498539061844349,-0.007570935294486116,-0.000012567220628261566
1761916060162902800,2.41090283203125,0.09772212308347225,-0.009620648065640124,0.010883870651200413
1761916060172958000,2.4209580078125,0.09878186126947403,-0.003885275901551358,0.009511632449924945
1761916060183012000,2.43101220703125,0.0908750336676836,-0.004525893626338802,0.01335157593898475
1761916060193066000,2.44106591796875,0.09432897351384162,-0.007849494224251248,0.004641761391237378
1761916060203121000,2.451120849609375,0.08445113810002804,-0.008692794914287514,0.022029680174216627
1761916060213174800,2.4611748046875,0.0783043059080839,-0.005759497391770128,0.014560001880675553
1761916060223230000,2.47122998046875,0.09311609059274197,0.0034084864193690005,0.00203289406709373
1761916060233284000,2.4812841796875,0.08848433913886547,0.002934621829923708,0.004780585340037942
1761916060243338000,2.491337890625,0.08774608799219132,-0.003937679658934939,0.007179024783894419
1761916060253393000,2.501392822265625,0.07592062564194202,-0.0184489561602124,0.013979863905161618
1761916060263446800,2.51144677734375,0.07832417965233325,-0.013007351911463775,0.010689736318588257
1761916060273501000,2.5215009765625,0.10421557675600052,-0.0073683025615871875,0.0021160423059016463
1761916060283556000,2.53155615234375,0.10095628269910811,-0.002825423551118001,0.007635536379739642
1761916060293610000,2.54160986328125,0.0813677851319313,-0.013401954419352113,0.015365034653246401
1761916060303665000,2.551664794921875,0.08793488856256007,-0.012267112020391505,0.009775324887409806
1761916060313719000,2.561718994140625,0.09197627290785312,-0.0009656598445144482,0.007818710926920176
1761916060323773000,2.57177294921875,0.08988894523978233,-0.006003423399571329,0.003070128160342574
1761916060333828000,2.581828125,0.08466273502409458,-0.007860314729076345,-0.00037906244546175
1761916060343881700,2.5918818359375,0.07882979108691215,-0.017002627526130527,0.006165756088122725
1761916060353936000,2.601935791015625,0.09199439308643341,-0.006889325688895769,0.0041292818244546645
1761916060363991000,2.611990966796875,0.09483926112353801,-0.0038745718444464726,0.012190861596539615
1761916060374045000,2.622044921875,0.07914309481978415,0.0035521920392639003,0.007628741312772035
1761916060384099800,2.632099853515625,0.08589432264566421,-0.0030025656497338787,0.005582549372687935
1761916060394153700,2.64215380859375,0.10041618447303771,-0.01877541391889099,0.011911752394214272
1761916060404207900,2.652207763671875,0.08813771765828132,-0.009615798360586632,0.006794482445716858
1761916060414263000,2.662262939453125,0.0806359637260437,-0.0009295975838671438,0.006484685844182968
1761916060424317000,2.67231689453125,0.0950005891650915,-0.0015716971629764884,0.007708674681186675
1761916060434371000,2.68237109375,0.08917641305625439,-0.008107158779748715,0.002005129277333617
1761916060444425700,2.69242578125,0.09232873960733413,-0.01027647705929121,-0.0014385083705186843
1761916060454480000,2.70247998046875,0.10505027401447295,-0.002413426950434223,0.004363675102218985
1761916060464535000,2.71253515625,0.0966740753352642,0.006197555448894854,0.007011486197263002
1761916060474589000,2.7225888671875,0.09071136753857136,0.0002865938224596903,0.00533266626484692
1761916060484643000,2.73264306640625,0.0859293939590454,-0.0036101396214449776,0.0017883447214961051
1761916060494698000,2.742697998046875,0.08862579343616962,-0.0026541563541512005,0.007283946463093161
1761916060504752000,2.752752197265625,0.08951192862093447,0.0023987385546672155,0.004172024987637996
1761916060514807300,2.762807373046875,0.07859013711214065,0.004332736541260965,0.0089395316503942
1761916060524861200,2.772861083984375,0.07499532749056816,-0.0055363744266913265,0.0077951108556240795
1761916060534915300,2.782915283203125,0.0909966142207384,-0.011396281719324178,0.007936857413873077
1761916060544970000,2.792969970703125,0.09263561359941959,-0.011517095087398774,0.008779080391675234
1761916060555024100,2.803024169921875,0.09052899670898913,-0.004606434349529445,0.0065653498649597165
1761916060565078000,2.813078125,0.08826923508346081,0.0024678011859068645,0.004092968402057886
1761916060575133200,2.82313330078125,0.09785948572754859,-0.0028222977289813567,0.006294643164798617
1761916060585187000,2.83318701171875,0.10264438191652298,-0.011380837555020116,0.013674012826383112
1761916060595242000,2.843241943359375,0.08169336382448673,-0.006382638825371396,0.002027048848196864
1761916060605296000,2.853296142578125,0.09156535401940345,-0.0018515918165910989,0.005832140219584107
1761916060615350300,2.863350341796875,0.09516834694743156,0.004689354259474202,0.009253200709447264
1761916060625405200,2.8734052734375,0.10206921237707138,-0.0038471244318061507,-0.0005783113446086645
1761916060635459000,2.883458984375,0.08679682444334029,-0.00320078935228521,0.0007580518256872892
1761916060645514200,2.89351416015625,0.07870353435873985,-0.001503207637183368,0.010371098823472856
1761916060655568100,2.903568115234375,0.09217384130656718,-0.004442302429536357,0.0046443186745047564
1761916060665622300,2.913622314453125,0.0916068550735712,-0.0013614770619547925,0.011964067103341221
1761916060675677200,2.92367724609375,0.08365677285194396,0.004069009854446631,0.011498641548678279
1761916060685731000,2.93373095703125,0.07122574582397938,0.003882825932849664,0.008517068454623222
1761916060695785000,2.943784912109375,0.10280278734862804,-0.00821829328731401,0.0057764645095914596
1761916060705840000,2.953840087890625,0.09770984812378883,-0.0039488061244366685,0.0004712707735598087
1761916060715894300,2.963894287109375,0.08857669359743595,-0.010000722007965668,0.0008389350421726703
1761916060725949000,2.973948974609375,0.0884393309533596,-0.0059184530964354045,0.00903444339223206
1761916060736003000,2.984003173828125,0.08724865986406803,0.0015704482040950097,0.006406506041437387
1761916060746057000,2.994056884765625,0.09266367065012454,0.00300169115018798,0.006582885521650314
1761916060756112100,3.004112060546875,0.093449852591753,-0.005516895691375248,0.016653467028588057
1761916060766166300,3.014166259765625,0.07744096707701682,-0.00812545477155363,0.016616130692884326
1761916060776221000,3.024220947265625,0.07921732909977436,-0.017122205635055433,0.01914411480054259
1761916060786275000,3.034275146484375,0.09073299484848976,-0.019270061001461,0.010114347583428024
1761916060796329000,3.044328857421875,0.09373451475203037,-0.01720893407043768,0.007596008086949586
1761916060806384000,3.054384033203125,0.09252630800604819,-0.0030643856894341298,0.01524243118688464
1761916060816438300,3.064438232421875,0.07484861249625682,0.0123667752858717,0.0281127264149487
1761916060826492200,3.0744921875,0.08664543327391147,0.02493195922067389,0.012314561041444539
1761916060836547000,3.084547119140625,0.10431786808669566,0.0067493212798726745,0.012082140525057912
1761916060846601200,3.094601318359375,0.09985095180571078,-0.007179408376384526,0.002626695241779089
1761916060856656100,3.10465625,0.08593757726550101,-0.015385908477916382,0.004682312597334384
1761916060866710300,3.114710205078125,0.0743967770755291,-0.010177722542686387,0.0031751229047775266
1761916060876764200,3.12476416015625,0.08203063295483588,-0.0019772092239465563,0.004046864238008856
1761916060886819000,3.134819091796875,0.10464520034492016,0.009910573206213302,-0.004020414622500539
1761916060896873200,3.144873291015625,0.07638005984723567,0.0027168052276247178,0.00022262977473437785
1761916060906928000,3.15492822265625,0.06933247942328452,0.00336226580759976,-0.00031513036377727984
1761916060916982300,3.164982177734375,0.10494622911810875,0.014046191156620624,0.004469838890433312
1761916060927036200,3.1750361328125,0.10256137980818748,-0.0015992107909871265,0.0059808279752731315
1761916060937091000,3.185091064453125,0.09749299050271511,-0.015548729790234937,0.009149667269736528
1761916060947145200,3.195145263671875,0.08760112656354904,-0.015119941884954458,0.01296520696990192
1761916060957200100,3.2052001953125,0.08460136022567749,-0.0059043720554444006,0.006932868003100156
1761916060967254300,3.215254150390625,0.0971662427663803,0.0038082377431215716,0.00908675810135901
1761916060977308200,3.22530810546875,0.08520867846906184,0.0077382364190998485,0.00021766133867204187
1761916060987363000,3.235363037109375,0.08701485110819339,0.0005764025153126568,0.007249094345420599
1761916060997417200,3.245417236328125,0.08221592639386653,-0.016884412540518676,0.0063449120473116636
1761916061007472000,3.25547216796875,0.07532149070501327,-0.023322580945410298,0.0033614392571151256
1761916061017526300,3.2655263671875,0.10450199248194694,-0.012292388025543187,0.019654694671183824
1761916061027580000,3.275579833984375,0.09298165055811404,-0.015324093004793394,-0.00011463935561478137
1761916061037635000,3.285635009765625,0.08594634509384631,0.0004682476994115859,0.006798939425125718
1761916061047689200,3.295689208984375,0.09087444914579391,0.0038344339135917833,0.00978007412776351
1761916061057744100,3.305744140625,0.08637596868276595,0.012574015695229172,0.012304624169319867
1761916061067798000,3.315798095703125,0.09028466655910014,-0.0032738363221869802,0.002911868858709931
1761916061077852200,3.32585205078125,0.10958616387844085,-0.021011927099572492,0.01432253986299038
1761916061087907000,3.335906982421875,0.06397533630430698,-0.009142922435118815,-0.018558496932312846
1761916061097961200,3.345961181640625,0.13505436713397503,-0.01732750753236469,0.06972162487134337
1761916061108016000,3.35601611328125,0.029072949749231337,-0.012335576430009678,-0.015332374492660164
1761916061118070000,3.366070068359375,0.10701660565137862,0.010961258152790832,0.04208228812180459
1761916061128124200,3.376124267578125,0.08267652964293956,-0.002428845998563338,-0.05622903302647173
1761916061138179000,3.386178955078125,0.15156184982061385,-0.002735192550974898,0.0449062595013529
1761916061148233200,3.396233154296875,0.061578796556591986,-0.041671127204759975,0.02261252156347036
1761916061158288100,3.4062880859375,0.032767712613940236,-0.0262474873822066,0.02228665060997009
1761916061168342000,3.416342041015625,0.10880290454626083,-0.02539138885939028,-0.005243015220016241
1761916061178396200,3.426396240234375,0.1506447349756956,0.027419328190153462,-0.009593246318772435
1761916061188451000,3.436451171875,0.0810626647055149,0.04217227709335275,0.01734298366270959
1761916061198505200,3.446505126953125,0.0240858089864254,0.023828553139592985,0.03383570717163384
1761916061208560000,3.45656005859375,0.08467150285243988,-0.01692600492623169,-0.003026727410033345
1761916061218614000,3.466614013671875,0.17079495807886122,-0.02807520284957718,0.007744403581693768
1761916061228668200,3.476668212890625,0.09631459437310695,-0.028384013070422223,-0.013624328465759753
1761916061238723000,3.48672314453125,0.04014788599312305,0.010313349887402727,0.030838351986557242
1761916061248777200,3.496777099609375,0.06390227106809615,0.015433384898432996,0.014940452565625309
1761916061258832100,3.50683203125,0.12873977715969084,0.03276472835569875,0.006947627180814743
1761916061268886000,3.516885986328125,0.1329687930315733,0.010406176986719947,-0.001712795267254114
1761916061278940200,3.526940185546875,0.06290566124618054,0.0007193866159999743,0.014328165886178612
1761916061288995000,3.5369951171875,0.05672083513140678,-0.014147932214755564,0.015215177853778003
1761916061299049200,3.54704931640625,0.11119827525019645,-0.011611214528081473,0.011636515649408102
1761916061309104000,3.557104248046875,0.11347615705430507,-0.010050303620600607,-0.0014147621687501668
1761916061319158000,3.567157958984375,0.08610124339461327,-0.004640539831819478,-0.0030471856761723755
1761916061329213200,3.577213134765625,0.08562018187940121,0.0193183822387713,0.024666750679537653
1761916061339267000,3.58726708984375,0.07033902611732483,0.010440261919412296,0.0018818682238459586
1761916061349321200,3.5973212890625,0.1083639286071062,-0.010312418305641039,0.014947028436884283
1761916061359376100,3.607376220703125,0.08982581687569617,-0.011075004742550663,-0.004451499516144395
1761916061369430000,3.617429931640625,0.08382862228751183,-0.004658265001466498,0.01921133481785655
1761916061379485200,3.627485107421875,0.07707213376462459,0.0074977969930390825,0.018647928781434894
1761916061389539300,3.637539306640625,0.10219430006146431,-0.007914232306822668,0.01589775329045951
1761916061399593200,3.64759326171875,0.10548282021284103,-0.011094535993505268,-0.008594809865951538
1761916061409648000,3.657648193359375,0.0999503205269575,0.002000615215708967,0.004521642142906785
1761916061419702000,3.667701904296875,0.08660685482919216,-0.010791294713632668,0.021063684686273336
1761916061429757200,3.677757080078125,0.0762654935568571,-0.0023569087069365193,0.007088350825756788
1761916061439811300,3.687811279296875,0.08822539594173431,-0.030174983573844655,0.012781447900831699
1761916061449865200,3.697865234375,0.0807750799357891,0.0021836961480556053,0.002297390222176909
1761916061459920100,3.707920166015625,0.10023615173101424,-0.019968854637292678,0.015488880228623747
1761916061469974000,3.71797412109375,0.08003624426722526,-0.005527010660013184,0.0018529343903064726
1761916061480029200,3.728029296875,0.07865735712945461,-0.01511680921295192,0.02103591989651322
1761916061490083300,3.738083251953125,0.08704173911511898,-0.01246111620555166,-0.005369052752479911
1761916061500137700,3.7481376953125,0.10738134731054305,0.005204030349920503,0.0012245002936571835
1761916061510191900,3.75819189453125,0.08913082034885883,0.012364076438709161,-0.004839183659479022
1761916061520245800,3.768245849609375,0.09421440722346305,0.0014093941571773029,0.02246237250305712
1761916061530301000,3.778301025390625,0.08119652021825313,-0.02104150710379472,0.005238923566788434
1761916061540355000,3.78835498046875,0.09586451251804828,-0.03172249614363536,0.029440906278789043
1761916061550409700,3.79840966796875,0.06981938615739346,-0.008900453165464568,-0.004257657444477081
1761916061560464000,3.8084638671875,0.10471358940601348,0.006717352955741807,0.011332125875353812
1761916061570517800,3.818517822265625,0.11563713448047637,-0.005701287231396418,0.013586334542930125
1761916061580573000,3.828572998046875,0.06819850695729256,-0.010037834581383503,0.013785145050659775
1761916061590627000,3.838626953125,0.08043664176166057,-0.003397656781389378,0.024424685551971196
1761916061600681700,3.848681640625,0.09811258370578288,-0.007245870341872796,-0.003970145739987493
1761916061610735900,3.85873583984375,0.11042612183392048,0.013900814169447403,0.006917670433968305
1761916061620791000,3.868791015625,0.09640870239734649,0.010662069710239301,0.013702508268505335
1761916061630845000,3.878844970703125,0.07930968355834483,-0.01570538165667094,0.03884359846152365
1761916061640898800,3.88889892578125,0.05577332514822483,-0.024647559638589153,0.005656199130788445
1761916061650953700,3.89895361328125,0.1116185464888811,-0.014999025768891441,0.008350625846534968
1761916061661008000,3.9090078125,0.10939853235185146,-0.01714592215407174,0.0073906947731971736
1761916061671063000,3.91906298828125,0.07319616911411285,0.013051382849435321,-0.00606236877888441
1761916061681117000,3.929116943359375,0.08844166904091834,0.003950975248636678,0.03534187395088374
1761916061691170800,3.9391708984375,0.06357727689743041,-0.002937991963943932,0.011762699312344192
1761916061701226000,3.94922607421875,0.10221008215248584,-0.011552659591124392,-0.004627952061593533
1761916061711279900,3.95927978515625,0.11211772818267345,-0.00870370218408061,0.011672244549915193
1761916061721335000,3.9693349609375,0.07245207274854183,-0.0029251142160617743,0.01813362258374691
1761916061731389000,3.979388916015625,0.06493219863772393,0.0037557426541927267,0.017194953494146466
1761916061741443800,3.98944384765625,0.08497896136641502,0.01180700424495153,0.00708857002146542
1761916061751498000,3.999498046875,0.10686638352572918,0.0015910046516451983,-0.012506576482206582
1761916061761552000,4.0095517578125,0.11064064136743545,-0.0018904488225234672,0.00047295127399265766
1761916061771607000,4.01960693359375,0.07904840227365494,-0.0027956380509189327,0.021404460947960613
1761916061781660700,4.02966064453125,0.07124035887122154,-0.007573291648353915,0.020153876364976165
1761916061791715800,4.0397158203125,0.10459434694051742,-0.011418687630665954,0.019340733351185916
1761916061801770000,4.04977001953125,0.10460077668130398,0.002653727095888462,-0.00005501812286674976
1761916061811825000,4.059824951171875,0.09053250384032725,0.018782896255736703,0.02451397127062082
1761916061821878800,4.069878662109375,0.06254150410890578,0.012049816007900517,0.0024956162080168724
1761916061831932700,4.0799326171875,0.08828326360881328,0.01643434666848043,0.0025851211223751305
1761916061841987800,4.08998779296875,0.10775076514482497,-0.005168794639757834,0.012837854263186455
1761916061852042000,4.1000419921875,0.0877069250255823,-0.012230736949201673,0.0007607552394270896
1761916061862097000,4.110096923828125,0.07393325121700764,-0.009562540653254837,0.008645882466062902
1761916061872150800,4.12015087890625,0.09310030850172042,-0.008376974997343495,0.006501856174692511
1761916061882206000,4.1302060546875,0.10207447307407855,0.0018222424245206638,0.012848375657200813
1761916061892259800,4.140259765625,0.08231821772456169,0.015882978129724504,0.007816957361251115
1761916061902314000,4.15031396484375,0.09444061719477176,0.015815664497576654,0.020212255488708614
1761916061912369000,4.160368896484375,0.08231003441810607,0.01749309619050473,0.012431319288909434
1761916061922422800,4.1704228515625,0.09966975001990795,-0.0026347643838031216,0.004173559357598423
1761916061932478000,4.18047802734375,0.09412146824300288,-0.010218552309996447,0.008990823446214198
1761916061942531800,4.19053173828125,0.08873626807332038,-0.011767729397199582,0.008815759140253067
1761916061952587000,4.2005869140625,0.08258475970625877,0.011482249819592106,0.01055690371915698
1761916061962640600,4.210640625,0.08094400676190852,0.007818183487246277,0.001947773066908121
1761916061972694800,4.22069482421875,0.09410510163009166,-0.0006353775773779488,0.017460472562536595
1761916061982750000,4.23075,0.06883855842649936,0.0030384520971565507,0.00411379199437797
1761916061992803800,4.240803955078125,0.08425707683265209,0.0004111449340241961,0.0067120648592710495
1761916062002858800,4.250858642578125,0.09127426211833953,-0.013149676141736562,0.009790010999888181
1761916062012913000,4.260912841796875,0.08438333356082439,0.006142984850599896,0.009305515418574214
1761916062022967800,4.2709677734375,0.10505553471148013,-0.0031224291697377338,0.01047346321940422
1761916062033022000,4.28102197265625,0.10805354748368262,-0.018508593375980854,0.036290260716900224
1761916062043075800,4.291075927734375,0.06385024861991405,-0.0033642385689774527,0.00844056915231049
1761916062053130800,4.301130859375,0.08119418213069439,0.0026126005010562946,0.013564341906830668
1761916062063185000,4.311184814453125,0.09765548758804797,-0.001925371722143609,0.0027758213888853787
1761916062073239800,4.32123974609375,0.10115852727293968,-0.015368372821225783,-0.0026068945627659556
1761916062083294000,4.3312939453125,0.09212591051161288,-0.01659871148391394,0.043078313421830536
1761916062093348900,4.341348876953125,0.05257014519274234,-0.025829880741355008,0.020180472110956905
1761916062103402800,4.35140283203125,0.08295651562809944,-0.013313958758779335,-0.025604689116775988
1761916062113457000,4.361456787109375,0.14674772753715515,0.031984496664244216,0.03522255842015147
1761916062123511800,4.37151171875,0.062225277766585346,-0.001776151960203424,-0.021677724931389093
1761916062133566000,4.38156591796875,0.06783201173245906,0.01359280994948931,0.04890738490149379
1761916062143620900,4.391620849609375,0.07261047818064689,-0.046746928065130484,-0.0004788695581257343
1761916062153674800,4.4016748046875,0.11903612926900387,-0.006640798854501918,-0.009410217902064323
1761916062163730000,4.41172998046875,0.08898936605155468,0.012760868620395193,0.005105725641176105
1761916062173783800,4.42178369140625,0.10139175150692463,-0.00022380338509101418,0.04786196750178933
1761916062183838700,4.431838623046875,0.0548158782929182,0.006891994853306095,0.0030844489466398954
1761916062193892900,4.441892822265625,0.1073620580881834,0.005440569918998517,0.01664864472299814
1761916062203946800,4.45194677734375,0.12205050865411758,-0.02086181913835462,0.010015271123126149
1761916062214002000,4.462001953125,0.09365209716558456,-0.008980731310462578,0.012085501525923609
1761916062224055800,4.472055908203125,0.08609481365382671,0.00053701578641776,0.053591962521150706
1761916062234110700,4.48211083984375,0.054556935095787046,0.0023498396453331223,-0.034028234069049354
1761916062244164900,4.492164794921875,0.15959961032569409,-0.013723589872440788,0.04922872581034898
1761916062254219800,4.5022197265625,0.035848727494478226,0.007087163515668362,-0.052972150122374294
1761916062264274000,4.51227392578125,0.12351999668478965,-0.010530878795334138,0.03300817030631006
1761916062274328000,4.522328125,0.0799386291116476,-0.004203664518205914,-0.03409530795589089
1761916062284382700,4.5323828125,0.0893365720540285,-0.00973414121036185,-0.06265015211515128
1761916062294436900,4.542436767578125,0.23481588709056375,-0.07058579025289509,0.16688721005059778
1761916062304492000,4.552491943359375,-0.077612231990695,-0.04345247592988889,-0.03137720810361206
1761916062314546000,4.5625458984375,0.07268588150441646,0.06889663158955518,0.0474040676664561
1761916062324600800,4.572600830078125,0.1348684891730547,0.04751223618208896,-0.05928191779106855
1761916062334654700,4.58265478515625,0.18577333150207995,0.04877894534938968,-0.010853037121519445
1761916062344710000,4.5927099609375,0.08273848896324634,-0.016232556469086556,0.055472004114091394
1761916062354764000,4.602763916015625,-0.08273965800702571,0.008334980752831324,-0.02870104769691825
1761916062364818000,4.61281787109375,0.1556681160956621,-0.044544065992301325,0.03648052259199321
1761916062374872800,4.622872802734375,0.18619594082832336,-0.02310194676493993,-0.032934447482973334
1761916062384926700,4.6329267578125,0.0940121626496315,0.0032179482663515953,0.045132396407425404
1761916062394982000,4.64298193359375,-0.03016425211727619,0.025040598093764854,0.01990019386485219
1761916062405036000,4.6530361328125,0.0819037917047739,0.027720288464683107,0.018714052820205686
1761916062415090700,4.663090576171875,0.18419804500937462,-0.00833176816572668,0.015738032684102652
1761916062425144800,4.673144775390625,0.1168909339338541,-0.03302817876458866,-0.0031099487140774725
1761916062435200000,4.683199951171875,0.031045126605033873,-0.008451898830500432,0.030430209577083586
1761916062445254000,4.69325390625,0.05956161151528358,0.011288090370805002,0.025691344486922025
1761916062455308800,4.703308837890625,0.13757599456608294,0.03712222487888066,-0.002325593403354287
1761916062465362700,4.71336279296875,0.13297872990369797,0.020712496628426013,-0.012349267028644681
1761916062475416800,4.723416748046875,0.05529460172057152,-0.014737068630766589,0.001739244882762432
1761916062485472000,4.733471923828125,0.055552375873923296,-0.012152609662094619,0.021347689259424804
1761916062495526000,4.74352587890625,0.1116670618057251,-0.035689335681684316,0.017590090291574597
1761916062505577200,4.7535771484375,0.11034779590070247,-0.0004122865783399902,-0.010191504472866654
1761916062515631000,4.763631103515625,0.11366788023412228,-0.026475017094344366,0.005255070983991026
1761916062525686300,4.773686279296875,0.06665069299340248,-0.012245945934776683,0.010647212351113558
1761916062535740400,4.783740478515625,0.06064356153309345,-0.007220183344767429,0.00617328180745244
1761916062545795300,4.79379541015625,0.10676701480448246,0.005244976564950775,0.007454699920117855
1761916062555849200,4.80384912109375,0.11025018074512481,-0.001393646315485239,0.017632541193813085
1761916062565904100,4.813904052734375,0.08490823421776295,-0.053161982739204534,0.04414725782759488
1761916062575958300,4.823958251953125,0.027273206850886342,-0.04105903688813559,-0.04933255151100457
1761916062586012400,4.834012451171875,0.15916998673677443,0.024831517353770323,0.029466186850517988
1761916062596067000,4.844067138671875,0.09201134422123432,0.04290488395052962,-0.010902502286434173
1761916062606121200,4.854121337890625,0.09158698132932186,0.02496699400143698,0.009683116559311747
1761916062616176400,4.86417626953125,0.08716331966817378,-0.08201024775393306,0.06837291367612779
1761916062626230300,4.874230224609375,0.0209966107994318,-0.05092556545664556,-0.04393215377219021
1761916062636285200,4.88428515625,0.18566402590870856,-0.03809564105487661,0.0053720484271645545
1761916062646339000,4.894339111328125,0.10490765067338943,0.06781544419014826,-0.01792787087857723
1761916062656394200,4.904394287109375,0.05924129351973533,0.06870988597895485,0.02885923393331468
1761916062666448400,4.914448486328125,0.068309566116333,0.009659986845473758,0.028671748537197707
1761916062676503300,4.92450341796875,0.10288812754452228,-0.017253766442718914,0.004701528754457831
1761916062686557200,4.93455712890625,0.10666296990811824,-0.008782135431864298,0.00494732020907104
1761916062696611000,4.944611083984375,0.09232055630087851,0.014042037854599766,0.0034136809010058638
1761916062706666200,4.954666259765625,0.08045593098402024,0.03864406186800916,0.05343582211136818
1761916062716720400,4.964720458984375,0.05183832378685474,0.0314308516867226,0.013866174397617578
1761916062726775300,4.974775390625,0.11232172632217406,-0.001722604275215417,0.0022069354597479105
1761916062736829200,4.9848291015625,0.11758534593880175,-0.02335497167793801,0.0021239333514124154
1761916062746884400,4.99488427734375,0.05979483574926853,0.013899409946938977,0.015440437977015971
1761916062756938200,5.004938232421875,0.06126666186749935,-0.014848894974787252,0.024322540351748464
1761916062766993400,5.014993408203125,0.09778349788188934,0.010127974249981343,0.011075739961490035
1761916062777047000,5.025047119140625,0.09092822515964508,-0.02019012357200263,-0.007728913751617074
1761916062787102200,5.035102294921875,0.11652794584035872,0.024784228162921498,0.030398937655985354
1761916062797156400,5.04515625,0.06618833617866039,0.0011445600753766485,0.017243541876226662
1761916062807211300,5.055211181640625,0.06944938380122184,-0.02106454091951018,0.018745105545595286
1761916062817265200,5.06526513671875,0.11810381685495376,-0.052446706042741424,0.017977043782547115
1761916062827319000,5.075319091796875,0.08743103069365024,-0.04137406678721309,-0.00511069407723844
1761916062837374200,5.085374267578125,0.08141045522987841,0.02313393335537985,0.013503259369358419
1761916062847428400,5.095428466796875,0.08080781316161155,0.033990705937100574,0.01296528003513813
1761916062857483300,5.105483154296875,0.09816051450073718,0.015434741171880158,0.01783880435563624
1761916062867537200,5.115537109375,0.09219722218215465,-0.022860877151216846,-0.005825199022144079
1761916062877592300,5.12559228515625,0.10223229398429393,-0.021152746642637065,0.0190287447925657
1761916062887646200,5.135646240234375,0.07377016960978508,0.003419635717757046,0.029808862808346746
1761916062897701400,5.145701416015625,0.06193418586552143,-0.0040233760478557085,0.020745923973992466
1761916062907755300,5.15575537109375,0.11459960812628268,-0.009045736537803896,0.021900939228013158
1761916062917810200,5.16581005859375,0.0897550897270441,-0.02006628484649118,0.003869169583544135
1761916062927864300,5.1758642578125,0.09827917244434356,0.012259090827428735,0.020242358366027474
1761916062937919200,5.185919189453125,0.07851590283215046,0.01358149625431979,0.009329846142232418
1761916062947973400,5.195973388671875,0.0801303522914648,0.012827693628775887,0.01878090751133859
1761916062958028300,5.2060283203125,0.09494564410746097,-0.008903206811554263,0.006795943750441074
1761916062968082200,5.216082275390625,0.09644260466694832,-0.018427961321244947,0.005896729888394475
1761916062978137300,5.226137451171875,0.08132277694642544,-0.011392132983880582,0.0046510406762361525
1761916062988191500,5.23619140625,0.08313187219500541,-0.00983214452500688,-0.001085603279620409
1761916062998245000,5.2462451171875,0.08074117766618728,-0.008210621437511872,0.0081449472066015
1761916063008300300,5.25630029296875,0.08570376850962638,-0.010027431918377988,0.00029430677145719526
1761916063018354200,5.266354248046875,0.08795826943814754,0.005013229618710466,0.017954101298376917
1761916063028409300,5.276409423828125,0.07029518697559833,0.0030694591567735187,0.0059157268498092885
1761916063038463200,5.286463134765625,0.08704992242157458,0.004376694413996301,0.012114435359463094
1761916063048518100,5.29651806640625,0.09826982009410858,-0.003684408150764648,0.016797551674395797
1761916063058572300,5.306572265625,0.0955845265328884,-0.00828871219200082,0.022815569854900238
1761916063068627500,5.31662744140625,0.07986381030976772,-0.021905663352191913,0.021154139448702335
1761916063078681300,5.326681396484375,0.07999006703794002,-0.024430592419661116,0.01266359367482364
1761916063088736300,5.336736328125,0.08837035737037659,-0.031537953906564505,0.0020306290447711945
1761916063098789000,5.3467890625,0.10290390963554381,-0.03938732254994102,0.013426760067045688
1761916063108843300,5.35684326171875,0.08524433430433273,-0.01798556044914294,0.011661357829719781
1761916063118897200,5.366897216796875,0.08044248698055743,0.0025151314759510567,0.017085574835538863
1761916063128952300,5.376952392578125,0.08824176255464554,0.011997106289840303,0.008747150883451104
1761916063139006200,5.387006103515625,0.0912707549870014,0.01814856442455202,0.0004315963502973318
1761916063149061000,5.39706103515625,0.0839689075410366,-0.0028677854050998576,0.0029820114854723213
1761916063159115300,5.407115234375,0.07498071444332599,0.004768518159619998,0.015542583177238702
1761916063169170200,5.417170166015625,0.0760217479288578,0.0009627463682205415,0.017289061518386006
1761916063179224300,5.427224365234375,0.08412380584180354,-0.003468890820117667,0.012043635145574808
1761916063189279200,5.437279296875,0.09700842185616493,-0.016188870307698378,0.011367562514916062
1761916063199333000,5.4473330078125,0.0821872848212719,0.00039878549266140903,0.0244854758284986
1761916063209388300,5.45738818359375,0.07662497451901436,0.008263516101951245,0.025908567434176803
1761916063219442400,5.4674423828125,0.08545593122839927,0.011033010498038492,0.003128215023130178
1761916063229497000,5.4774970703125,0.09386603217720985,0.014353884849324821,0.008822481141984462
1761916063239551200,5.48755126953125,0.08803776441514491,0.012167441905045415,0.014254735323786735
1761916063249606400,5.4976064453125,0.06362462317049503,0.008500119603110942,0.022510522493720053
1761916063259660300,5.507660400390625,0.066157356518507,0.011407403618248645,0.005304316953197121
1761916063269715200,5.517715087890625,0.11018646785914897,-0.006061313899536617,0.009124459763243794
1761916063279769000,5.52776904296875,0.1103682541668415,-0.012772645823156925,0.012539017447084187
1761916063289824300,5.53782421875,0.07637772175967693,-0.005066932567325421,0.018257468159124254
1761916063299878400,5.54787841796875,0.06901040786206722,-0.0035744312705355695,0.02415865502692759
1761916063309933300,5.557933349609375,0.08697802622914313,-0.00045194045200478285,0.010515694925934075
1761916063319987200,5.5679873046875,0.11018412977159023,0.014893750179954804,0.013631050467491149
1761916063330042400,5.57804248046875,0.08278466619253158,-0.009098368624050635,0.018792597949132323
1761916063340096300,5.58809619140625,0.0731675275415182,-0.02525853799364995,0.025356851835548876
1761916063350151400,5.5981513671875,0.09021218584477901,-0.016636369763314722,0.01688281880505383
1761916063360205000,5.608205078125,0.1062286701440811,-0.010243721000582445,-0.00040624271333217617
1761916063370259200,5.61825927734375,0.08946692043542862,-0.011571046914474572,-0.0011200900711119174
1761916063380314400,5.628314453125,0.07299976975917816,-0.011021822383743711,0.005867796054854988
1761916063390368300,5.6383681640625,0.07344049926400184,0.0007414157847175374,0.013764686784520745
1761916063400423200,5.648423095703125,0.0873714094609022,0.007732409466512035,0.005630699363350868
1761916063410477000,5.65847705078125,0.09353168565630912,-0.001653769972838927,-0.006263517374172806
1761916063420532200,5.6685322265625,0.09354337609410285,-0.011501223948120604,0.004044891476631164
1761916063430586400,5.67858642578125,0.08501403267979621,-0.0051543322895653545,0.010174041881412268
1761916063440641300,5.688641357421875,0.08262567623853682,-0.006652530391491018,0.016667057162523268
1761916063450695200,5.698695068359375,0.09385141912996768,-0.0044756841093301775,0.010778072189167142
1761916063460750300,5.708750244140625,0.09371288744211197,-0.0008605646353797055,0.017352701339125632
1761916063470804200,5.71880419921875,0.08653145150542259,0.003594843870901968,0.01942526982948184
1761916063480859400,5.728859375,0.0749935739248991,0.004746772118692752,0.025041429210826752
1761916063490913300,5.738913330078125,0.0863566794604063,0.007325070774636696,0.0173970519375056
1761916063500968200,5.74896826171875,0.10522972223460673,-0.012896788226056378,0.014582213712483643
1761916063511022000,5.75902197265625,0.09385551078319548,-0.0052276601039688095,0.01490311622992158
1761916063521077200,5.7690771484375,0.08038169670403003,-0.0006755588907166384,0.024429653988033533
1761916063531131100,5.779131103515625,0.09294307211339473,-0.00460327884464059,0.021108400610834358
1761916063541186000,5.78918603515625,0.082317633202672,0.009385706798604223,0.018875673122704027
1761916063551240200,5.799240234375,0.09025310237705707,0.005692770564800594,0.01760733368732035
1761916063561295000,5.809295166015625,0.08994798195064067,0.00009478159438585862,0.009467866373434662
1761916063571349200,5.819349365234375,0.0863432354569435,0.005578140342340339,0.010105287494137883
1761916063581404200,5.829404052734375,0.0876636704057455,-0.009267443863931111,0.001365589264780283
1761916063591458000,5.8394580078125,0.1018850879818201,0.00018974128528498113,0.006218216927722096
1761916063601513200,5.84951318359375,0.09155717071294785,0.0020634536021389067,0.012693038965016603
1761916063611567000,5.859567138671875,0.09587795652151107,0.0003032709626248106,0.013256298870965837
1761916063621622000,5.8696220703125,0.08525485569834709,-0.003621188455133233,0.008747150883451104
1761916063631676200,5.87967626953125,0.09125672646164894,-0.002935841106052976,0.011207768843322991
1761916063641731000,5.88973095703125,0.09679916301965713,-0.00228481158510549,0.010819792439043522
1761916063651785200,5.89978515625,0.07899637982547282,-0.0020075541298603637,0.010453735605627297
1761916063661841200,5.909841064453125,0.08841653459966183,-0.002529774205945432,0.005023308054730296
1761916063671896300,5.919896240234375,0.08362403962612151,-0.00029955148544395343,0.011514935096353292
1761916063681950200,5.9299501953125,0.08212649454474448,-0.0035601356004131956,0.008840235994383692
1761916063692005000,5.940005126953125,0.08722001829147338,0.003370003872772213,0.009951412106677889
1761916063702059000,5.95005908203125,0.08497136258184909,-0.014247488165670074,0.01554506739526987
1761916063712114200,5.9601142578125,0.08258359066247939,-0.005460050937603228,0.013059095798432827
1761916063722168300,5.970168212890625,0.08887655332684516,-0.0024598964406643063,0.015326602338999509
1761916063732223000,5.980222900390625,0.08664426423013209,-0.006390826698404271,0.017836685463786126
1761916063742277000,5.990277099609375,0.07900514765381812,-0.008972883647435809,0.013604235525801776
1761916063752332300,6.000332275390625,0.09202771083414554,-0.01412498288071947,0.012044073536992073
1761916063762386200,6.01038623046875,0.0809451758056879,-0.01158508913955884,0.025053923366218804
1761916063772441000,6.020441162109375,0.08378010697066783,-0.0010116201613796874,0.0094580025665462
1761916063782495000,6.030494873046875,0.09335457552373409,-0.0069148391560651355,0.011737272610142827
1761916063792550100,6.040550048828125,0.08181903603076934,0.0007484346139710396,0.02570508075132966
1761916063802604300,6.050604248046875,0.07147416762709617,-0.0020979860594030468,0.014304565814882516
1761916063812659000,6.060658935546875,0.08597849379777908,-0.003896897840686142,0.01057107837498188
1761916063822713000,6.070713134765625,0.10363573104143142,-0.006309895532857626,0.005492533001676202
1761916063832768300,6.080768310546875,0.0912146408855915,-0.007847425564751029,0.01718224014304578
1761916063842822100,6.090822265625,0.07025602400898932,-0.0005338853977038525,0.016869301736354828
1761916063852877000,6.100876953125,0.07173077273666859,0.0010902041062130592,0.008964008504524827
1761916063862931000,6.110930908203125,0.11048223593533038,0.00010974626807728782,0.003948883756250143
1761916063872986000,6.120986083984375,0.09553601121604442,-0.006120665704226121,-0.0011056962195783852
1761916063883040300,6.131040283203125,0.07338204707503318,-0.011937030682654585,0.0018409516915678977
1761916063893095000,6.141094970703125,0.08384615794420242,0.004040585194271989,0.02818447647690773
1761916063903149000,6.151149169921875,0.09086334322988987,0.003871185727405827,0.011661284764483571
1761916063913204200,6.161204345703125,0.0826356131106615,0.0036242138125700874,-0.0012513152353465556
1761916063923258000,6.171258056640625,0.09416764547228812,-0.0008683118337066844,0.0017374182518571613
1761916063933313000,6.18131298828125,0.08563596397042274,-0.012373501854180357,0.016434198254719375
1761916063943367200,6.1913671875,0.08129004372060299,-0.0022399860626901497,0.01743321922942996
1761916063953422000,6.201422119140625,0.0851630857616663,-0.0017003718938096426,0.022027415151894093
1761916063963476200,6.211476318359375,0.08021510796546935,-0.007660211879981216,0.01858129328601062
1761916063973531100,6.22153125,0.09593348610103129,-0.004233497967466246,0.008319573121145367
1761916063983585000,6.2315849609375,0.09264028977453709,-0.011175140648777596,0.012379881362617015
1761916063993640200,6.24164013671875,0.07707447185218334,-0.000593623078172095,0.010327332746982575
1761916064003694000,6.251694091796875,0.08559270935058594,0.0021041966044809666,0.015729484051465986
1761916064013749200,6.261749267578125,0.09711071318686008,-0.008279889564728363,0.01564976987875998
1761916064023803100,6.27180322265625,0.09322247357666492,-0.017278165665036066,0.0025969576906412837
1761916064033858000,6.281858154296875,0.08423778761029244,-0.002657042430981528,0.007322232646867632
1761916064043912200,6.291912109375,0.07751870848834515,0.0014272791570285335,0.0026292525250464676
1761916064053967400,6.30196728515625,0.09982347927689551,-0.004090308370802085,-0.0004949439100921154
1761916064064021000,6.31202099609375,0.09249532834589481,-0.009534405970736405,0.004839622050896286
1761916064074076200,6.322076171875,0.08097498642206191,-0.00979301580772735,0.014823986579105258
1761916064084130000,6.332130126953125,0.09040273998081684,0.004094226494093891,0.025441242183372376
1761916064094185200,6.342185302734375,0.08906593841910362,0.0003542864805203862,0.024106705643981693
1761916064104239000,6.352239013671875,0.08412731297314166,-0.014036804557056165,0.005556245887652039
1761916064114294000,6.3622939453125,0.09730068280100822,-0.012116823679371736,0.013115867486968635
1761916064124348200,6.37234814453125,0.08066986599564552,0.004781813749321736,0.02674121886603534
1761916064134403300,6.3824033203125,0.0909884309142828,0.02345437008193694,0.014118687853962182
1761916064144457200,6.392457275390625,0.10188742606937885,0.004492922938498668,0.009082520317658781
1761916064154512100,6.40251220703125,0.08901625405848025,-0.008634059597528538,0.008660203252360225
1761916064164566000,6.41256591796875,0.08662439048588276,-0.019910393315169493,0.005030468447878957
1761916064174621200,6.42262109375,0.08723638490438461,-0.020587118966376872,0.006633811991289258
1761916064184675300,6.43267529296875,0.08454290803670883,-0.007919661967188586,0.004095817946270108
1761916064194730000,6.44272998046875,0.08917699757814407,-0.010461030712805222,0.005063201673701405
1761916064204784000,6.4527841796875,0.09097147977948188,-0.0028262432517367412,0.01255874506086111
1761916064214839300,6.46283935546875,0.08469955990314483,-0.004205084723734763,0.010884309042617678
1761916064224893200,6.47289306640625,0.073777768394351,-0.004414825334143824,0.007563567122071981
1761916064234948000,6.482947998046875,0.07932721921503544,-0.006870344710501376,0.009174947841465473
1761916064245002000,6.493001953125,0.08501578624546527,-0.0007964590237592346,0.0130487936001271
1761916064255057200,6.50305712890625,0.08740531173050403,-0.006403788927965797,0.019700141248106956
1761916064265111300,6.513111328125,0.08381868541538715,-0.0010999103661859407,0.014546630942448973
1761916064275166000,6.523166015625,0.0750023417532444,0.004419629373424687,0.00778626996204257
1761916064285220000,6.53322021484375,0.08323357900381088,0.002243632474634796,0.002527034259587526
1761916064295275300,6.543275146484375,0.07275953126251697,0.008716961241164244,0.005801379755139351
1761916064305329200,6.5533291015625,0.09580196867585182,-0.0047773544866242445,0.011808438150212168
1761916064315384000,6.563384033203125,0.09327508054673671,0.002774220803554635,0.010062032874301075
1761916064325438000,6.57343798828125,0.08279927923977375,0.0010559844594914465,0.010836012921482324
1761916064335493000,6.5834931640625,0.0862479583889246,-0.002021443374606315,0.009535305586457252
1761916064345547300,6.59354736328125,0.08594926770329475,-0.0022730572152300735,0.003991553854197263
1761916064355602000,6.603601806640625,0.08759703491032123,-0.002312046651903074,0.003973872067034244
1761916064365657000,6.613656982421875,0.0934323169350624,0.0011607668580836616,0.006974588252976537
1761916064375711200,6.623711181640625,0.09463350941836833,0.0023757960704970174,0.017253405683115123
1761916064385766100,6.63376611328125,0.0926788682192564,-0.002790130758739542,0.013051643144339322
1761916064395820000,6.643820068359375,0.08594108439683913,-0.016838870065473018,0.012510741200670599
1761916064405875200,6.653875244140625,0.0983732804685831,-0.009354690605832728,0.002449950435385108
1761916064415929000,6.66392919921875,0.09584580781757832,-0.007914273406018036,0.0022074469164013863
1761916064425984300,6.673984375,0.08043547271788119,-0.009038304433308076,0.012648030779510737
1761916064436038100,6.6840380859375,0.07743103020489216,-0.0028005471214768477,0.011478548608720301
1761916064446093000,6.694093017578125,0.07474573664367198,-0.0038393018849543293,0.008219108421355486
1761916064456147200,6.704147216796875,0.09017419192194938,0.0009571911269798875,0.013075024019926785
1761916064466202000,6.7142021484375,0.09123860628306865,-0.010235647291981148,0.014331746082752943
1761916064476256300,6.72425634765625,0.09738368490934371,-0.0071415651506045825,0.017935615793615578
1761916064486311200,6.734311279296875,0.083158760201931,0.013185571722313761,0.01776727348938584
1761916064496365000,6.744364990234375,0.08779226522147655,0.02158440235843882,0.013210121641680598
1761916064506420500,6.75442041015625,0.07852174805104732,0.005560638934979215,0.014907280948385596
1761916064516474400,6.764474365234375,0.08031973738372325,-0.0028909744844422673,0.005605857183039188
1761916064526529300,6.774529296875,0.09215805921554565,-0.017806137345184107,0.002675356689095497
1761916064536583400,6.78458349609375,0.10218202510178089,-0.02455236705224961,0.0088355598192662
1761916064546638600,6.794638671875,0.08196399745941162,-0.012231928825867362,0.014922989974170922
1761916064556692500,6.8046923828125,0.0764098704636097,-0.006954767024365719,0.01247976154051721
1761916064566747400,6.814747314453125,0.07581307361423968,-0.0001124428319511935,0.0010810001697391272
1761916064576801300,6.82480126953125,0.09079086251556873,0.0221920836447156,0.005052826410159469
1761916064586856400,6.8348564453125,0.09484335277676582,0.013819618142419493,0.009220175222679972
1761916064596910600,6.84491064453125,0.081965166503191,-0.009372340426954905,0.013236205931007862
1761916064606965200,6.85496533203125,0.08226794884204865,-0.01860089988549007,0.007491013342514633
1761916064617019400,6.865019287109375,0.10264262835085392,-0.019568311012384945,0.008796323787420988
1761916064627074600,6.875074462890625,0.09352876304686068,-0.017979964108706916,0.0060481210578233
1761916064637129200,6.885129150390625,0.08962941752076148,-0.0045125592207303266,0.012460326187685132
1761916064647183400,6.895183349609375,0.07883154465258121,-0.002912679426174145,0.014014277631416916
1761916064657238500,6.905238525390625,0.0834767401099205,-0.0016189406880526803,0.00777209530621767
1761916064667292400,6.91529248046875,0.10728957737386226,0.007594311603496317,-0.002101794584840536
1761916064677347300,6.925347412109375,0.08454466160237789,0.014568902139761484,0.02349829142205417
1761916064687401200,6.935401123046875,0.084234865000844,0.000496642676834017,0.01332929104194045
1761916064697456400,6.945456298828125,0.09815934545695781,-0.006754556860704906,0.0025772300768643615
1761916064707510500,6.955510498046875,0.0941337432026863,-0.0010808928551734424,0.002209931134432554
1761916064717565200,6.965565185546875,0.09294365663528442,-0.006028592090157326,0.007350508893281221
1761916064727619300,6.975619384765625,0.08141454688310623,-0.0024153563293279148,0.00880626065954566
1761916064737674500,6.985674560546875,0.08874445137977599,-0.017809023422014434,0.007486337167397141
1761916064747728400,6.995728271484375,0.08545768479406833,-0.008552685473987366,0.004266790599003434
1761916064757783300,7.005783203125,0.09086042062044143,-0.01825355231912108,-0.001811141075193882
1761916064767837200,7.015837158203125,0.0872755478709936,-0.008277307165286038,0.007817176556959748
1761916064777892400,7.025892333984375,0.08728197761178016,0.0028528800969128496,0.006677285806834697
1761916064787946500,7.035946533203125,0.08608429225981235,0.012595622455549892,0.012818565040826797
1761916064798001400,7.04600146484375,0.09057166680693626,0.0005248138919705525,0.008805822268128394
1761916064808055300,7.05605517578125,0.09102934744656085,-0.010793564302532468,0.0011973200257867575
1761916064818110500,7.0661103515625,0.08999532822370529,-0.013437320276966784,0.0024967121865600347
1761916064828164400,7.076164306640625,0.08236907112896442,-0.01252718772868393,0.009156681532412766
1761916064838219500,7.086219482421875,0.08551321437358855,-0.000850614063523244,0.009587912556529044
1761916064848274400,7.0962744140625,0.07578852369487285,-0.0034032622549799267,0.011509089877456425
1761916064858328300,7.106328369140625,0.08821019837260245,-0.005455778904573526,0.006698036333918571
1761916064868383500,7.116383544921875,0.0859685569256544,-0.003029300676321145,0.0008103665348142385
1761916064878437400,7.126437255859375,0.08357143265604973,-0.003520917834877036,0.011776727837696671
1761916064888492300,7.1364921875,0.07608546081483364,0.0008013315616990439,0.018573840631917117
1761916064898546400,7.14654638671875,0.07877718411684036,-0.0016871288197464309,0.013218012687191366
1761916064908601300,7.156601318359375,0.08685995280742645,-0.013290039027074816,0.0006105331137776374
1761916064918655500,7.166655517578125,0.09300795404314995,-0.006341423182282597,0.0070136781543493265
1761916064928710400,7.17671044921875,0.09406243153214454,0.000016035536059644073,0.00825586023516953
1761916064938764300,7.186764404296875,0.07355915720760822,0.0031207349695730954,0.008140782488137483
1761916064948819500,7.1968193359375,0.0874807150542736,-0.0006543448560405522,0.005680164528265595
1761916064958873300,7.206873291015625,0.0949748702019453,-0.00099412788717309,0.00984853625409305
1761916064968928300,7.21692822265625,0.08779811044037342,0.0024520259447512217,0.010206044454872608
1761916064978982400,7.226982421875,0.08660685482919216,0.007266182477539405,0.006084215284511447
1761916064989037300,7.237037353515625,0.0928834508806467,-0.001826066932978574,0.004710808039456606
1761916064999091500,7.247091552734375,0.08735095119476317,-0.016866582339594604,0.003744812551513314
1761916065009146400,7.257146484375,0.09783259772062301,-0.014664051343617028,0.0063315411090850825
1761916065019201300,7.267201171875,0.09214929138720035,-0.0003058533620671369,0.003450871106237173
1761916065029255400,7.27725537109375,0.08900807075202465,0.00017073975729290394,-0.0024021657709032296
1761916065039310300,7.287310302734375,0.09155191001594067,0.01605877765462501,0.0011900135021656751
1761916065049364200,7.2973642578125,0.08647183027267455,-0.00018794890370918437,0.0006331102717667818
1761916065059419400,7.30741943359375,0.09065876056849956,-0.012570746025908738,-0.00021853812150657176
1761916065069473300,7.317473388671875,0.0974058967411518,-0.00040750993852270765,0.000035582770034670826
1761916065079528400,7.327528564453125,0.08814180931150913,-0.0023738986576441676,0.011203238798677921
1761916065089582300,7.337582275390625,0.09219371505081653,-0.0006415675728581845,0.008792451329901814
1761916065099637200,7.34763720703125,0.09143442111611366,0.0027134761927998623,0.005062544086575508
1761916065109691400,7.35769140625,0.08918342731893063,-0.005036729225306772,0.0050103755079209805
1761916065119746600,7.36774658203125,0.086788056614995,-0.009823689507204107,0.0020272680439054965
1761916065129800200,7.37780029296875,0.08246084106564522,-0.004400605012546293,0.006785714617371558
1761916065139855400,7.38785546875,0.08739186772704124,-0.002958208201488014,0.02364471415542066
1761916065149909500,7.397909423828125,0.08828793978393078,-0.003685794106964022,0.0027246757235378023
1761916065159964400,7.40796435546875,0.09263035290241241,-0.0022806217504665253,0.004637742803245783
1761916065170018600,7.4180185546875,0.09157353732585906,0.0036390620385413058,0.001772270369529724
1761916065180073500,7.428073486328125,0.0989005192130804,-0.00753290027246112,0.005598258398473262
1761916065190128400,7.43812841796875,0.09185644592046738,-0.013584304699336644,0.00620703794658184
1761916065200182500,7.4481826171875,0.08871230267584324,-0.0018595719103584997,0.018049962888285517
1761916065210237200,7.4582373046875,0.08228373093307018,-0.0022491146506392395,0.008094093802198768
1761916065220291300,7.468291259765625,0.09650573303103446,0.009233651192183607,-0.0027821780644357204
1761916065230346500,7.478346435546875,0.09203004892170429,0.010192769414768554,0.003141585961356759
1761916065240400400,7.488400390625,0.09009235885739326,-0.0005157469528145156,0.008272519109025597
1761916065250455300,7.498455322265625,0.08096154241859913,-0.002481272588833235,-0.0012642477821558713
1761916065260509400,7.508509521484375,0.07766542348265647,-0.006989838337746914,0.004341828596591949
1761916065270564400,7.518564453125,0.0941290670275688,-0.004172566127043683,-0.000053118426725268364
1761916065280618500,7.528618408203125,0.0906833104878664,-0.008783080713357776,0.0010576192941516636
1761916065290673400,7.53867333984375,0.08618307645916938,-0.011596126556803938,0.007496639365702867
1761916065300727300,7.548727294921875,0.09725976626873016,0.008938218759431037,0.005055822084844112
1761916065310782500,7.558782470703125,0.08828384813070296,0.008181080249196384,0.005029810860753059
1761916065320837400,7.56883740234375,0.08708908538818359,-0.003359539560973644,0.0033528906244784593
1761916065330891300,7.578891357421875,0.09486381104290485,-0.007813075770577415,0.011080343071371316
1761916065340946400,7.588946533203125,0.09635901803672313,-0.008088698391162325,0.010050196306034922
1761916065351000300,7.599000244140625,0.0920160203963518,-0.002299844757455867,0.008310586097091436
1761916065361055500,7.609055419921875,0.09245032016038894,0.0005863439540145918,0.005537029730528593
1761916065371109400,7.619109375,0.09006079467535018,-0.007544350964948534,0.0032202041555196045
1761916065381164300,7.629164306640625,0.08543138130903244,-0.00017449805038049815,0.004731193240359425
1761916065391218400,7.639218505859375,0.08663841901123523,0.0013129411955131217,0.0012942045290023087
1761916065401273600,7.649273681640625,0.08632686884403228,-0.008639776952262037,0.012546177840232849
1761916065411327500,7.659327392578125,0.08422551265060901,-0.0007328100698650815,0.004405541482567787
1761916065421382400,7.66938232421875,0.09021043227910995,0.0029964258866035376,0.0036777386646717784
1761916065431437600,7.6794375,0.08976619564294815,0.006269741618982516,0.00869527456574142
1761916065441491500,7.689491455078125,0.0763046565234661,0.00830075882282108,0.007255085694789886
1761916065451546400,7.69954638671875,0.08229834398031234,0.004768182516191154,-0.0002044365309178829
1761916065461600300,7.709600341796875,0.09442425058186053,-0.00528470578714041,0.004215060411766171
1761916065471655400,7.719655517578125,0.07946925803422927,-0.0034993087912676855,0.005138751127943396
1761916065481709600,7.72970947265625,0.08634557354450226,-0.007015308422432281,0.00808532597385347
1761916065491764200,7.73976416015625,0.08170388521850108,0.0008115013292641378,0.007975362793356179
1761916065501818600,7.749818603515625,0.09144085085690021,0.004275832421984523,0.0004917290396988392
1761916065511873800,7.759873779296875,0.09429273315668106,-0.0005919562774710357,0.0032098288919776676
1761916065521928000,7.769927978515625,0.07452946354448794,0.006121247942827176,0.006814721516147255
1761916065531982600,7.779982666015625,0.0752682992130518,-0.0006437161474605091,0.010840323770418762
1761916065542036700,7.79003662109375,0.07675941455364227,-0.012694833629881032,0.0047792701657861465
1761916065552092000,7.800091796875,0.09502630812823772,-0.012962615437305066,-0.002566781748086214
1761916065562146600,7.810146484375,0.0866617998868227,0.0014095243046293034,0.005146569108217955
1761916065572200700,7.82020068359375,0.07648878091871739,-0.006955831036868039,0.005258212789148092
1761916065582255900,7.830255859375,0.07200491350293159,-0.003568401105259545,0.0029451135411858557
1761916065592309800,7.840309814453125,0.08832885631620883,-0.004108202503807843,0.004989844176545739
1761916065602364700,7.85036474609375,0.09192425045967101,-0.003932151817157864,0.0070297525063157075
1761916065612418600,7.86041845703125,0.08743044617176056,0.0017774420182802713,0.00768953158929944
1761916065622473700,7.8704736328125,0.08262918336987495,0.0003930064891348593,0.013708645748347043
1761916065632528000,7.88052783203125,0.08607143277823924,-0.0023793945333804,0.0030737814221531152
1761916065642582500,7.89058251953125,0.09071721275746822,-0.012395439691352657,0.0055085342884063715
1761916065652637700,7.9006376953125,0.10014964249134063,-0.0017167864557821302,0.0016817425418645142
1761916065662691800,7.91069189453125,0.09131751673817634,-0.0027959188954206184,0.013104907701537011
1761916065672746800,7.920746826171875,0.08338847730457782,-0.007357287977228406,0.010976152044534683
1761916065682801000,7.93080078125,0.09222352566719054,-0.00843250229357509,0.009994009139388799
1761916065692855800,7.940855712890625,0.08983516922593117,-0.0011264695795485749,0.007805997575819492
1761916065702909700,7.95090966796875,0.08624912743270396,-0.00025679005595156924,0.0026400661800056696
1761916065712964900,7.96096484375,0.08892682220935821,0.0039837655566749165,-0.002816957116872072
1761916065723018800,7.971018798828125,0.09011983138620853,-0.003156500402698293,-0.0014058482099324463
1761916065733073700,7.98107373046875,0.08818389488756656,-0.006786691864905879,0.003995060985535383
1761916065743127800,7.9911279296875,0.0862345143854618,0.007568309512559789,0.006302826471254229
1761916065753182700,8.0011826171875,0.08727905500233173,0.0024305287822848185,0.0024526538491249084
1761916065763237600,8.011237548828126,0.08608253869414328,-0.005778186109219678,-0.001904006990417838
1761916065773291800,8.021291748046876,0.0908703574925661,-0.0051205830003018486,0.005283054969459772
1761916065783346700,8.0313466796875,0.09283610460758208,-0.0009340499966987408,0.006176058286428451
1761916065793400800,8.04140087890625,0.08265840946435928,-0.0008148280808003619,0.015492898816615343
1761916065803455700,8.051455810546875,0.08907295268177985,-0.005946772725332994,0.011594722334295511
1761916065813509600,8.061509521484375,0.1020943468183279,-0.004722754205577075,0.007067015776783227
1761916065823564800,8.071564697265625,0.09521686226427555,0.0034378769106348044,0.0018956044882535933
1761916065833618700,8.08161865234375,0.07695932103991508,-0.005296850599371828,0.0023679712403565645
1761916065843673600,8.091673583984376,0.08803776441514491,-0.0049711554590961896,0.007076295061782002
1761916065853728800,8.101728759765624,0.08055003900825977,-0.0065880914197303355,0.012101283616945147
1761916065863782700,8.11178271484375,0.08833762414455414,-0.0025522326329257337,0.0043760231271386145
1761916065873837800,8.121837890625,0.0935936449766159,0.0025600985622615553,0.009335033774003385
1761916065883891700,8.1318916015625,0.10122691633403301,0.0007569193145260214,0.015740224641188977
1761916065893946600,8.141946533203125,0.08027882085144519,-0.00907574580028886,0.012143515323475003
1761916065904000800,8.152000732421875,0.089859719145298,-0.007784381682344246,0.010137728459015487
1761916065914056000,8.162055908203126,0.09764262810647487,-0.000592248538415879,0.004882876670733094
1761916065924109800,8.17210986328125,0.08971241962909698,-0.0012226142972474917,0.010118146975710987
1761916065934164700,8.182164794921874,0.08387772212624549,0.005785757494322024,0.007404942494258284
1761916065944220000,8.192219970703125,0.09240589649677276,0.004273297971603461,0.0033795594356954097
1761916065954273800,8.202273681640625,0.08836568119525909,-0.0012153717057080938,0.003683803079277277
1761916065964328700,8.21232861328125,0.08702069632709025,-0.005282657677237876,-0.0005249006569385528
1761916065974382600,8.222382568359375,0.08926409133970736,-0.008503151810413691,0.002334361231699586
1761916065984437800,8.232437744140626,0.08761281700134277,-0.0043195528327021745,-0.002532368021830916
1761916065994492000,8.242491943359376,0.08028583511412143,-0.003724973056593444,0.003978036785498261
1761916066004546600,8.252546630859374,0.08881985470354556,-0.00381254859205801,0.003906432854011654
1761916066014600700,8.2626005859375,0.09121697897315025,0.0004338225567131303,0.0074620795089751476
1761916066024656000,8.27265576171875,0.08927636629939079,0.011759463892353232,0.013534165964275598
1761916066034710500,8.28271044921875,0.08777589860856533,0.00475773875399027,0.00910721636749804
1761916066044764700,8.2927646484375,0.09750175833106041,-0.009590341975633054,0.0029782851584255693
1761916066054819800,8.30281982421875,0.10198913287818431,-0.005052369752433151,-0.002083162949606776
1761916066064873700,8.312873779296876,0.09256254836320876,0.0031290872393874448,0.0049503158837556835
1761916066074928600,8.3229287109375,0.08793313499689101,-0.006559938470902853,0.007505407194048166
1761916066084982800,8.332982666015624,0.0933189196884632,-0.008606059629039372,0.0009307049788534641
1761916066095037700,8.34303759765625,0.08913374295830725,-0.006002067126124166,0.008344123040512203
1761916066105091800,8.353091796875,0.09001578648984432,-0.0017094274165225215,0.008418941842392086
1761916066115146800,8.363146728515625,0.08102993147969245,-0.0019476497693220152,0.005684402311965823
1761916066125201700,8.37320166015625,0.08222995491921901,0.00023469467186369,0.004743102873861789
1761916066135255800,8.383255859375,0.07953881613910198,-0.0022418446596362625,0.01233757659085095
1761916066145310700,8.393310791015624,0.09105857354104518,-0.005126615448866505,0.004595291901007294
1761916066155364900,8.40336474609375,0.09689677817523479,0.0001155823538196273,0.009502426230162382
1761916066165419800,8.413419677734375,0.09165595491230487,-0.010000635242997668,0.014502572605013846
1761916066175473700,8.4234736328125,0.09017010026872158,-0.002906391249282751,0.008062894946336746
1761916066185528800,8.43352880859375,0.09270867883563041,-0.009222673140442929,0.0042509354427456856
1761916066195583700,8.443583740234375,0.0822305394411087,0.0006053226491203531,0.0043136984806507826
1761916066205637600,8.4536376953125,0.08671791398823261,-0.002709818364412058,0.013622136508673428
1761916066215692800,8.46369287109375,0.10019757328629493,-0.007236938116746023,0.003115209411084652
1761916066225747000,8.473746826171874,0.08389408873915671,-0.00808737180046737,-0.0007247340779751539
1761916066235801600,8.483801513671875,0.0855418559461832,-0.012428604458726476,0.004635258585214614
1761916066245855700,8.493855712890625,0.09526070140600204,-0.0006536827023373916,0.0011587415810674429
1761916066255911000,8.503910888671875,0.09017010026872158,0.005945564865646884,-0.004489493438974023
1761916066265965800,8.5139658203125,0.08987783932387829,-0.003217482475470751,0.005580430480837822
1761916066276019700,8.524019775390625,0.07835574383437634,0.0023878312848741186,0.0039409927107393735
1761916066286074600,8.53407470703125,0.08614391349256038,-0.005090941347286571,0.0030909517526626585
1761916066296128800,8.544128662109374,0.0883914001584053,-0.004444167876348365,0.0006604366701096296
1761916066306184000,8.554183837890625,0.09063596421480179,-0.004363930830545724,0.0027548516660928723
1761916066316237600,8.564237548828125,0.08195581415295601,-0.0020591290534706787,0.0062146367311477655
1761916066326292700,8.574292724609375,0.08270517121553421,0.003920283282850869,0.004103197535127401
1761916066336347000,8.584346923828125,0.08974690642058848,0.0030271680847392415,-0.0020102438438683746
1761916066346401800,8.59440185546875,0.09379296694099902,-0.0006621948023559526,0.008981617226451634
1761916066356456700,8.604456787109376,0.0903477949231863,-0.004821490455872845,0.007086158868670463
1761916066366510800,8.6145107421875,0.09003682927787303,0.005759378660761285,0.005156140654161572
1761916066376565800,8.624565673828124,0.09048048139214515,0.01276789429951459,0.010620762735605239
1761916066386620000,8.634619873046875,0.0946609819471836,-0.0012731731574167496,0.003573182311654091
1761916066396674800,8.6446748046875,0.10933832659721374,-0.0020231147418846374,0.0015840543210506439
1761916066406728700,8.654728759765625,0.09392097723484039,0.004341305723495316,0.011525237294659018
1761916066416784000,8.664783935546875,0.09422025244235992,-0.005752857588429469,0.007632467639818787
1761916066426838800,8.6748388671875,0.0846487064987421,-0.005047711843624711,0.006512889025360346
1761916066436892700,8.684892578125,0.08120937969982624,0.004024976633186452,0.0042296734590083354
1761916066446947800,8.69494775390625,0.09228957664072512,-0.0011456788868061266,0.005924494678154588
1761916066457001700,8.705001708984375,0.08796236109137534,-0.0015200583072844892,0.005740881739556789
1761916066467056600,8.715056640625,0.09274550371468067,0.0019239994656760245,0.008960574438422918
1761916066477110800,8.72511083984375,0.08989186784923076,0.0010827651518513447,0.00432940750643611
1761916066487165700,8.735165771484375,0.08091185805797577,-0.0071198236762546,0.0013650778081268071
1761916066497220900,8.745220947265626,0.0918377412199974,-0.0029537443722132592,0.005958543078228831
1761916066507274800,8.755274658203126,0.08135317208468913,0.005630765578721184,-0.00018741233088076113
1761916066517329700,8.76532958984375,0.09377601580619811,0.0016552038780995645,0.0012650514997541904
1761916066527383800,8.7753837890625,0.07552607336640357,0.009412165547267067,0.009260434167832135
1761916066537439000,8.78543896484375,0.0885609115064144,0.0014766781065729446,0.0006312836408615112
1761916066547492900,8.795492919921875,0.09844459213912486,-0.007036602372210473,0.005765285528451204
1761916066557547800,8.8055478515625,0.09305530031621456,-0.005282509263476822,0.0042960166934877635
1761916066567603000,8.81560302734375,0.0792939014673233,-0.002200914427626412,0.00930873028896749
1761916066577656800,8.82565673828125,0.0914022724121809,0.000021115853264927864,0.006042202773690223
1761916066587711700,8.835711669921874,0.08871230267584324,0.002720353458158206,-0.00149849492944777
1761916066597765600,8.845765625,0.09350596669316291,-0.007638280892674811,0.00635265696235001
1761916066607820800,8.85582080078125,0.08722469446659088,-0.0071165106244501656,0.007793503420427441
1761916066617875000,8.865875,0.09081658147871494,-0.002392432111466769,0.003592471534013748
1761916066627929600,8.8759296875,0.0920160203963518,-0.00575428236053558,0.0026545330967754125
1761916066637984800,8.88598486328125,0.09201017517745494,-0.004316632506542373,0.003489522616192698
1761916066648039000,8.896038818359376,0.09201894300580024,-0.011681320622225757,0.0006673778675496578
1761916066658093600,8.906093505859374,0.0947176805704832,0.0075044093969161615,-0.0003102349929511547
1761916066668147700,8.916147705078124,0.09053133479654789,0.0011220925152418202,-0.00005947510227560997
1761916066678203000,8.926202880859375,0.09099719874262809,-0.0019935872533009386,0.0049267888776957985
1761916066688257800,8.9362578125,0.0863566794604063,-0.001013741336518433,0.0010582038160413503
1761916066698311700,8.946311767578125,0.08262041554152966,-0.000829454827774316,0.013402502408623694
1761916066708366800,8.956366943359376,0.08532967450022697,-0.003529824943828862,0.010624854388833045
1761916066718420700,8.966420654296876,0.08653262054920197,-0.007773602276714519,-0.000977758990973234
1761916066728476000,8.976475830078124,0.08637655320465565,-0.0036014014758518893,0.004207096301019192
1761916066738529800,8.98652978515625,0.08591711899936198,-0.00446552347491961,0.006455021358281373
1761916066748584700,8.996584716796875,0.09847440275549887,-0.012851414714369456,0.005894610996544361
1761916066758639900,9.006639892578125,0.08500351128578186,-0.005508397291088476,0.005349325138702989
1761916066768693800,9.01669384765625,0.0824696088939905,-0.0061048105479683725,0.006105623398721218
1761916066778748700,9.026748779296875,0.08322130404412746,-0.010880007326835766,0.003514949318394065
1761916066788802800,9.036802734375,0.08517185359001159,-0.010011373549432028,0.0023890140283852816
1761916066798857700,9.046857666015624,0.08726853360831736,0.003434878952661529,0.011043810453265905
1761916066808912000,9.056911865234374,0.07978548437654971,0.002968804944027215,0.010309650959819555
1761916066818966800,9.066966796875,0.09385258817374706,-0.0071576463524368585,0.0023601532600820065
1761916066829021700,9.077021728515625,0.0859083511710167,-0.013377173887833486,0.007791530659049749
1761916066839075800,9.087075927734375,0.0829009860485792,-0.0020673991248942912,0.008159633319079875
1761916066849130800,9.097130859375,0.0896329246520996,-0.00014120313555467874,0.00025952771902084347
1761916066859184600,9.1071845703125,0.09652502225339413,-0.008700893739063758,-0.0010651450134813785
1761916066869239800,9.11723974609375,0.09069032475054263,-0.004144043285457883,-0.0007838438540697097
1761916066879293700,9.127293701171874,0.08694763109087944,-0.0034444299490074626,-0.002551876439899206
1761916066889348900,9.137348876953125,0.0851625012397766,0.003773038565577008,0.0004366378515958786
1761916066899403800,9.14740380859375,0.09399521151483059,-0.006565993752353824,0.0033695494983345268
1761916066909457700,9.157457763671875,0.08860767325758934,0.0018291927551152183,0.006370996336638927
1761916066919512800,9.167512939453125,0.08994798195064067,-0.0009226860691793263,0.005120923210307955
1761916066929567000,9.17756689453125,0.08874445137977599,-0.008694413765927311,0.009256488645076751
1761916066939621600,9.18762158203125,0.09173486536741256,-0.009052163995301817,0.004352715316787362
1761916066949676800,9.1976767578125,0.0951841290384531,0.00144018430437427,-0.0036822687093168494
1761916066959731000,9.20773095703125,0.08545125505328179,-0.003123059357400052,0.00538943795338273
1761916066969785600,9.21778564453125,0.08903905041217804,-0.0007913718566880561,0.010076353660598397
1761916066979839700,9.22783984375,0.08678688757121562,-0.0030820377938449383,0.008103592282906174
1761916066989895000,9.23789501953125,0.08783259723186493,-0.00026632735256571324,0.006331833370029926
1761916066999949600,9.247949462890626,0.08423837213218212,0.000024839897023048252,0.0018832564633339643
1761916067010003700,9.258003662109376,0.08873919068276882,-0.0003387875172891654,0.008439034782350063
1761916067020059000,9.268058837890624,0.09218845435380935,-0.00906809678337304,-0.005291530536860227
1761916067030112800,9.27811279296875,0.0856073223978281,-0.004999027563421987,0.0015473025072366
1761916067040168000,9.28816796875,0.09070552231967449,0.0015696422032080589,0.00708148269355297
1761916067050221600,9.2982216796875,0.08877192390859126,0.001568799669703003,0.003169058490172028
1761916067060276700,9.30827685546875,0.08653612768054007,-0.0006755771570256911,0.0037822950176894664
1761916067070332000,9.318331787109376,0.09207681067287922,0.0066841927549452515,0.0037221623282879587
1761916067080385800,9.3283857421875,0.08384381985664367,0.0008632109669037163,0.004667407289147376
1761916067090439000,9.33843896484375,0.09057342037260532,0.0015813303577131592,0.0006837444804608821
1761916067100493600,9.34849365234375,0.09115677321851252,-0.006480349879071582,0.004355930187180638
1761916067110547700,9.358547607421874,0.08352350186109542,-0.002427279662562068,0.00797083274871111
1761916067120603000,9.368602783203125,0.08292670501172542,-0.006427580795506946,0.004496653832122683
1761916067130657800,9.37865771484375,0.0923521204829216,-0.002951034108607564,0.000033098552003502844
1761916067140711700,9.388711669921875,0.09444704693555832,0.00009505330573301762,0.003621405367553234
1761916067150766800,9.398766845703125,0.08412205227613448,-0.004618554045585915,0.0043717122782021755
1761916067160820700,9.40882080078125,0.09744272162020205,-0.006767585305636748,0.004624883321672678
1761916067170876000,9.4188759765625,0.08591828804314136,-0.000014521715696901082,0.006749839586392045
1761916067180929500,9.428929443359374,0.08936872075796126,-0.008232050101319327,0.0024351912576705214
1761916067190984700,9.438984619140625,0.08712707931101321,-0.007170631414884701,0.005382131429761648
1761916067201040000,9.449039794921875,0.08877776912748814,-0.0041312180532142515,-0.00022431027516722679
1761916067211093800,9.45909375,0.0922211875796318,-0.0022137396598700433,0.0005040770646184683
1761916067221148700,9.469148681640625,0.0886181946516037,-0.002053920872102026,-0.0017242665093392133
1761916067231202800,9.479202880859376,0.09011340164542198,-0.0044898039662279185,0.001284194591641426
1761916067241257700,9.4892578125,0.0871188960045576,-0.00859570263180649,0.0028024171348661185
1761916067251312600,9.499312744140624,0.09040741615593433,-0.0011163957101060077,0.004048983129858971
1761916067261366800,9.50936669921875,0.08965279839634895,-0.0007292275900021195,0.005344283637404442
1761916067271421700,9.519421630859375,0.09474515309929847,0.0005907895169802941,0.0022803660221397876
1761916067281475800,9.529475830078125,0.0868096839249134,0.003932229448971338,0.00010645604915916919
1761916067291530800,9.53953076171875,0.09144611155390739,0.004853540978394449,0.002991583031415939
1761916067301585700,9.549585693359376,0.0773766696691513,-0.002754399574943818,0.004096402468159795
1761916067311639800,9.559639892578126,0.08679448635578155,-0.008813774962432217,0.00453990845195949
1761916067321695000,9.569695068359374,0.08858136977255344,-0.0007302208205568604,-0.0010188216537237167
1761916067331748600,9.57974853515625,0.08784779480099678,-0.009640501260291784,-0.007674041759222746
1761916067341803800,9.5898037109375,0.09189093271195888,-0.0033391315271845087,-0.00008307517357170581
1761916067351859000,9.59985888671875,0.08320844456255436,0.0043105658086482436,0.0011618833862245082
1761916067361912800,9.609912841796875,0.08037935861647129,-0.0003123287686263211,0.0026128128468990326
1761916067371967700,9.6199677734375,0.08427928866446018,0.003000010649755131,0.00412080625705421
1761916067382021600,9.630021728515626,0.09310849180817604,-0.009453006731020286,0.004706935581937432
1761916067392076800,9.640076904296874,0.08339023087024688,0.0017122701108688487,0.008620090437680483
1761916067402131700,9.650131591796875,0.08816577470898627,-0.0028535559503478,0.008954436958581209
1761916067412185600,9.660185546875,0.09384382034540176,-0.0008003246314125135,0.0015961831502616405
1761916067422240800,9.67024072265625,0.0880079537987709,-0.0032935685025411656,0.006542407380789518
1761916067432295000,9.680294921875,0.07946925803422927,-0.0037690907595329917,0.0033951953962445256
1761916067442349600,9.690349609375,0.08187515013217926,0.0013864996220683678,0.009054536332190036
1761916067452404700,9.70040478515625,0.08144494202136993,-0.0006925625411560759,0.007431538240239024
1761916067462459000,9.710458984375,0.09161913003325461,-0.008544835527671966,0.006551540535315871
1761916067472513800,9.720513671875,0.08233107720613479,-0.005658183308609295,0.005810951301082968
1761916067482567700,9.730567626953125,0.0890536634594202,-0.0026162012472283093,0.005378843494132161
1761916067492622800,9.740622802734375,0.08724749082028865,-0.002360861079557799,0.0017837416116148232
1761916067502677800,9.750677734375,0.08619418237507342,-0.004123635251668747,0.0033572745386511085
1761916067512730600,9.760730712890625,0.08230126658976078,-0.005019412764324807,0.006691460462659597
1761916067522785500,9.77078564453125,0.0816986245214939,-0.005391586527985054,0.007044803944975138
1761916067532839400,9.78083935546875,0.09351414999961853,-0.008470302136871033,0.01341886902153492
1761916067542894600,9.79089453125,0.09875497326254844,-0.005126992191490717,0.007833104778453706
1761916067552949800,9.80094970703125,0.0998065281420946,-0.007435878771927673,0.002989171878620982
1761916067563003600,9.811003662109375,0.09277297624349594,0.0033223310894332824,0.0035948096215724945
1761916067573058600,9.82105859375,0.08049977012574672,-0.007290821445162873,0.006632862143218517
1761916067583112700,9.83111279296875,0.08589666073322295,-0.0012408121076412499,0.006330810456722975
1761916067593167600,9.841167724609376,0.09294131854772567,0.0013679935677093453,0.005254924853518605
1761916067603222500,9.851222412109376,0.08680442322790623,-0.001156300745520275,0.006027589726448059
1761916067613276700,9.861276611328124,0.08395955519080162,-0.010242558806668967,-0.00009038169719278812
1761916067623331600,9.87133154296875,0.10145312630534171,-0.0012626106642070227,0.011044468040391803
1761916067633385700,9.8813857421875,0.09411562302410602,-0.008186233631637879,0.011411109395697712
1761916067643440600,9.891440673828125,0.07974982854127884,-0.004493311097566038,0.012765008222684263
1761916067653495600,9.90149560546875,0.08708674730062484,-0.008887068527506198,0.009247940012440085
1761916067663550700,9.91155078125,0.0812368522286415,-0.00144819179760525,0.003312923940271139
1761916067673605600,9.921605712890624,0.09859072261154651,-0.008948769836197606,0.0003805237501859665
1761916067683659500,9.931659423828124,0.09877952318191528,-0.004965725798730273,-0.004527779622748494
1761916067693714700,9.941714599609375,0.10271335549950598,-0.002866894922533538,-0.0009708908587694168
1761916067703768800,9.951768798828125,0.0973451064646244,-0.0064087642138940274,0.00579516921006143
1761916067713823500,9.961823486328125,0.08031447668671607,-0.010200429848127532,0.011384002193063496
1761916067723878700,9.971878662109376,0.10895312667191027,-0.0070270353928441175,-0.005330474307760596
1761916067733932800,9.981932861328126,0.10585925230979919,-0.008089782953262329,-0.0026087211936712262
1761916067743987500,9.991987548828124,0.054959670677781104,-0.0065370736185461275,0.0014644465293735265
1761916067754041600,10.00204150390625,0.042918519750237465,-0.006570994154457003,0.01775814033485949
1761916067764096800,10.0120966796875,0.07924012545347213,-0.002793914168002084,0.0051876317709684365
1761916067774151700,10.022151611328125,0.11439736355245113,0.01205170200431021,0.00410129783898592
1761916067784205600,10.03220556640625,0.10633972930312156,0.01066780304799322,0.0028691987607628107
1761916067794260700,10.0422607421875,0.09692951140105724,-0.0027774973227409645,0.0029199060346931215
1761916067804314600,10.052314697265626,0.07267769819796085,-0.012449106107349507,0.004717164715006947
1761916067814369800,10.062369873046874,0.07774433393776416,-0.006555326227867044,0.006667056673765182
1761916067824424700,10.0724248046875,0.10649813473522662,-0.005715443620912265,0.0022770780865103003
1761916067834478600,10.082478515625,0.11053542742729186,-0.0015535130523145198,-0.0005118219796568155
1761916067844533800,10.09253369140625,0.0673731620490551,-0.011842315303639042,0.010188216537237166
1761916067854587600,10.102587646484375,0.04784720832407474,-0.012120819434477015,0.017689459012821315
1761916067864642600,10.112642578125,0.11325988395512103,0.004645725180301815,0.008405717034637928
1761916067874697700,10.12269775390625,0.16180559593737123,0.0076946941048954606,-0.015112521196901797
1761916067884751600,10.132751708984374,0.0908878931492567,-0.006678096374298911,0.001643456358090043
1761916067894806500,10.142806640625,0.034113282003998754,-0.00309487900910899,0.019154051672667264
1761916067904860700,10.152860595703125,0.07806874358654022,-0.0044580137386103155,0.010729337676614522
1761916067914915600,10.16291552734375,0.13453063552081584,0.004240932355250697,-0.004932926357537508
1761916067924970800,10.172970703125,0.12261048062443733,0.002086323021072894,-0.004927665660530329
1761916067935024600,10.183024658203125,0.05540566087961197,-0.010309680642571765,0.014627660289406775
1761916067945079600,10.19307958984375,0.06553484070599079,-0.0023467572056804784,0.010509338250383735
1761916067955134700,10.203134765625,0.10937982765138149,0.012840301948599517,-0.0035728169854730364
1761916067965188900,10.21318896484375,0.1248293257176876,0.005234836480137892,-0.0017250702269375323
1761916067975243500,10.223243408203125,0.10208207185864449,-0.005017350954690482,0.004288125647976994
1761916067985297700,10.233297607421875,0.0659744011670351,-0.001535107462655287,0.015135682876780628
1761916067995352800,10.243352783203125,0.08495499596893787,-0.0005270263986545615,0.01712780654206872
1761916068005407500,10.253407470703126,0.09800152454674244,-0.006108121316484175,-0.00573116406314075
1761916068015461600,10.263461669921876,0.0995282957226038,-0.007944625161797739,-0.006030220074951648
1761916068025516800,10.273516845703124,0.0764747523933649,-0.0018850671112188137,0.004890913846716284
1761916068035570700,10.28357080078125,0.07045885310471058,-0.004583044340787455,0.012672288437932729
1761916068045625600,10.29362548828125,0.09199731569588183,-0.004877698172116651,-0.0030496698942035433
1761916068055680500,10.303680419921875,0.11268062276244163,-0.0060557495251414364,-0.004441635709255934
1761916068065734700,10.313734619140625,0.0857470231294632,0.0002806298725539818,0.005868161381036043
1761916068075789600,10.32378955078125,0.0767494776815176,0.0005311089187278412,0.009894128961488604
1761916068085844500,10.333844482421876,0.08976151946783065,-0.006585958828148432,0.005353709052875638
1761916068095898600,10.343898681640624,0.10953881760537623,-0.001325010659219697,-0.00594429535716772
1761916068105953800,10.353953857421875,0.095641225156188,0.0057286250461824235,0.0060479018621146675
1761916068116007700,10.364007568359375,0.08051613673865794,-0.005450757952872663,0.007574819168448448
1761916068126062600,10.3740625,0.07886193979084491,-0.009489991440274752,0.01144018935970962
1761916068136117800,10.38411767578125,0.09292436741292476,-0.002804693573631812,-0.00003068739920854568
1761916068146171600,10.394171630859375,0.10535890157222748,0.004238158159563318,-0.002339987254887819
1761916068156226600,10.4042265625,0.08635141876339912,-0.003915148166718427,0.004135857695713639
1761916068166280700,10.41428076171875,0.06718260791301726,-0.006051317661907523,0.015277137174084781
1761916068176335600,10.424335693359374,0.0872322932511568,0.005255548191315029,0.003331190249323845
1761916068186390500,10.434390625,0.10489654475748539,0.00783154072574107,-0.006505217175558209
1761916068196444700,10.444444580078125,0.09337094213664532,-0.004068525797256734,0.0014826397731900213
1761916068206499600,10.45449951171875,0.0813806446135044,0.0024412077232147567,0.008496829384192824
1761916068216553700,10.4645537109375,0.07298983288705349,0.0006858017235179431,0.0016373919434845446
1761916068226608600,10.474608642578126,0.09219137696325778,-0.007600684262067079,0.007833470104634761
1761916068236663600,10.48466357421875,0.15879180107414723,0.018613629219611173,-0.011475918260216713
1761916068246717700,10.4947177734375,0.7410814016640186,0.09157076084688305,-0.1409714091580361
1761916068256772600,10.504772705078125,0.7174778232365846,0.04478468808145262,-0.18046810123343018
1761916068266827500,10.51482763671875,-0.15266367358267308,-0.055994374887226146,-0.03911456089001149
1761916068276881700,10.524881591796875,-0.5076408945798874,-0.058233943108096715,0.09166278651189058
1761916068286936600,10.5349365234375,-0.3138385704010725,-0.0338529003350297,0.1320204427981749
1761916068296990700,10.54499072265625,-0.18464520425498485,-0.018251966575166444,0.11130827496331185
1761916068307045600,10.555045654296874,-0.18672727122604846,0.0023157644166174577,0.06115929250288754
1761916068317100500,10.5651005859375,-0.10585340709090232,-0.012289622963010333,0.0512459839168936
1761916068327154700,10.57515478515625,-0.06856149505078792,-0.028641412764438427,0.08277027234099806
1761916068337209600,10.585209716796875,0.0142214175760746,-0.015097782568784895,0.08019749924354255
1761916068347263500,10.595263427734375,0.2524292851924896,-0.012195172445476054,-0.002405672902241349
1761916068357318700,10.605318603515625,0.5322469280481338,0.00643179802960949,-0.0954825274631381
1761916068367373800,10.615373779296876,0.6887918269783257,0.07688347932472825,-0.1377114575140178
