time,seconds_elapsed,z,y,x
1761916057803902500,0.05190234375,0.0022945795208215714,-0.020082898437976837,0.007546333130449057
1761916057813956600,0.06195654296875,-0.0006838997360318899,0.026337863877415657,0.012860937044024467
1761916057824011300,0.07201123046875,-0.0005776396137662232,0.02207360975444317,0.016684969887137413
1761916057834065400,0.0820654296875,0.00023861923546064645,-0.016034094616770744,0.01134107168763876
1761916057844119300,0.092119384765625,0.0013422331539914012,-0.02954004891216755,0.004086886998265982
1761916057854174500,0.102174560546875,0.0022205437999218702,0.0000021305288555595325,0.007119694724678993
1761916057864228600,0.112228515625,0.0020905814599245787,0.02237694524228573,0.011815380305051804
1761916057874282200,0.1222822265625,-0.001205080421641469,0.004844822455197573,0.01034611463546753
1761916057884336400,0.13233642578125,-0.0022178804501891136,-0.023026755079627037,0.0032059133518487215
1761916057894391300,0.142391357421875,0.0002897519152611494,-0.013262009248137474,0.007497064769268036
1761916057904445400,0.152445556640625,0.00045593318645842373,0.011108843609690666,0.016057530418038368
1761916057914499300,0.162499267578125,-0.00041758365114219487,0.01618536189198494,0.01444179005920887
1761916057924554200,0.17255419921875,0.0005739112384617329,-0.005643238313496113,0.012140818871557713
1761916057934608400,0.1826083984375,-0.0010178601369261742,-0.014572817832231522,0.007504255045205355
1761916057944662300,0.192662353515625,-0.00016245282313320786,-0.002332396572455764,0.014872157014906406
1761916057954717400,0.202717529296875,-0.0006072007236070931,0.013612748123705387,0.013598632998764515
1761916057964771300,0.212771240234375,-0.0005819007055833936,0.005464806687086821,0.01079885195940733
1761916057974825500,0.222825439453125,0.0015188007382676005,-0.012614594772458076,0.006965231616050005
1761916057984879600,0.232879638671875,0.0012311793398112059,-0.005102616734802723,0.007987353019416332
1761916057994934300,0.242934326171875,0.002424808219075203,0.010191118344664574,0.010938401333987713
1761916058004988400,0.252988525390625,-0.0013257216196507215,0.010637730360031128,0.013364008627831936
1761916058015042300,0.263042236328125,-0.0014346449170261621,-0.00011052118497900665,0.009895507246255875
1761916058025097500,0.273097412109375,-0.0015965650090947747,-0.006499444600194693,0.00803182739764452
1761916058035151400,0.2831513671875,-0.0005893575726076961,0.0017036241479218006,0.010852381587028503
1761916058045205200,0.293205322265625,-0.0010615360224619508,0.008243548683822155,0.01251153089106083
1761916058055260400,0.303260498046875,0.0005731122801080346,0.0036067189648747444,0.011285144835710526
1761916058065314300,0.313314208984375,-0.0018141453620046377,-0.00771837355569005,0.010385262779891491
1761916058075368400,0.323368408203125,-0.003382747294381261,-0.001990446588024497,0.012245480902493
1761916058085422300,0.33342236328125,0.000556334329303354,-0.0005150553770363331,0.017119331285357475
1761916058095477200,0.343477294921875,-0.002366218715906143,0.005501291714608669,0.014942198060452938
1761916058105531400,0.353531494140625,-0.0022743395529687405,-0.009123191237449646,0.011546667665243149
1761916058115585300,0.363585205078125,0.004554005339741707,-0.0026261431630700827,0.004781439434736967
1761916058125640400,0.373640380859375,0.0034911378752440214,0.030886277556419373,0.010819624178111553
1761916058135694300,0.3836943359375,-0.0023579627741128206,0.004802744835615158,0.017704961821436882
1761916058145748500,0.39374853515625,0.0007102650706656277,-0.035893287509679794,0.007812649011611938
1761916058155803400,0.403803466796875,-0.0009776464430615306,0.011366371065378189,0.008757539093494415
1761916058165857300,0.413857177734375,0.00029587719473056495,0.02267894707620144,0.013807425275444984
1761916058175911400,0.423911376953125,-0.001207743538543582,0.0030391993932425976,0.012773052789270878
1761916058185966600,0.433966552734375,-0.00009321063407696784,-0.0038253646343946457,0.011175422929227352
1761916058196020500,0.4440205078125,-0.0014732606941834092,-0.016528643667697906,0.009881393052637577
1761916058206074400,0.454074462890625,0.0015049523208290339,0.004992628004401922,0.00570049649104476
1761916058216128300,0.464128173828125,-0.0009419600828550756,0.02202434279024601,0.012531237676739693
1761916058226183400,0.474183349609375,-0.0000900148443179205,-0.006166815757751465,0.01750096306204796
1761916058236237300,0.4842373046875,-0.00021172130072955042,-0.014992531388998032,0.007948736660182476
1761916058246291500,0.49429150390625,-0.0007603325066156685,-0.0037705034483224154,0.009739180095493793
1761916058256346400,0.504346435546875,-0.001654089312069118,0.004251470323652029,0.014374944381415844
1761916058266400300,0.514400146484375,-0.002055427758023143,0.005308479070663452,0.009710151702165604
1761916058276454400,0.524454345703125,-0.0012042814632877707,-0.0054272557608783245,0.012071310542523861
1761916058286509300,0.53450927734375,-0.0014351775171235204,-0.012293684296309948,0.011139470152556896
1761916058296563500,0.5445634765625,-0.00133850472047925,0.004999552387744188,0.011902731843292713
1761916058306617600,0.55461767578125,0.0005403553950600326,0.005307147279381752,0.013715545646846294
1761916058316672300,0.56467236328125,0.0002671150432433933,-0.004204598721116781,0.013540309853851795
1761916058326726400,0.574726318359375,-0.0008263788768090308,-0.004939631093293428,0.010240387171506882
1761916058336780300,0.5847802734375,0.0008026767172850668,0.00023169501218944788,0.009768474847078323
1761916058346834400,0.59483447265625,-0.0029816750902682543,0.004590224474668503,0.01474645547568798
1761916058356889600,0.6048896484375,-0.0018908443162217736,0.004406732507050037,0.010282198898494244
1761916058366943200,0.614943115234375,0.0005699164466932416,-0.005518335849046707,0.01336054690182209
1761916058376997400,0.624997314453125,-0.0018226674292236567,-0.003129480639472604,0.011624963954091072
1761916058387052300,0.63505224609375,-0.0016982977977022529,-0.00026072346372529864,0.012518721632659435
1761916058397106400,0.6451064453125,-0.00009480853623244911,-0.002965696156024933,0.012085424736142159
1761916058407160300,0.655160400390625,-0.0001882854849100113,-0.0014740596525371075,0.011945609003305435
1761916058417215200,0.66521533203125,0.000027164242055732757,0.00016671388584654778,0.011958125978708267
1761916058427269400,0.675269287109375,0.0011347729014232755,0.0015608787070959806,0.011315238662064075
1761916058437323300,0.6853232421875,-0.0010892328573390841,0.0021638183388859034,0.012372779659926891
1761916058447378400,0.69537841796875,-0.001528920722194016,-0.000322775129461661,0.0095671396702528
1761916058457432300,0.705432373046875,-0.0005430185701698065,-0.0015507587231695652,0.011031079106032848
1761916058467486500,0.715486572265625,-0.00007137271313695237,0.0005222458858042955,0.011806325986981392
1761916058477541400,0.725541259765625,0.0006807039608247578,-0.003008306724950671,0.013248161412775517
1761916058487595300,0.73559521484375,0.00019494339358061552,-0.002257561543956399,0.013515275903046131
1761916058497649700,0.745649658203125,-0.0006311691831797361,0.003478088416159153,0.011314972303807735
1761916058507704800,0.755704833984375,-0.0013006879016757011,0.0007755124825052917,0.01155625469982624
1761916058517758700,0.7657587890625,0.00016405072528868914,0.001383512164466083,0.013222062028944492
1761916058527812600,0.7758125,0.0008037420338951051,-0.0024288028944283724,0.008862201124429703
1761916058537866800,0.78586669921875,0.0007510114228352904,0.00010599380766507238,0.007107710465788841
1761916058547921700,0.795921630859375,-0.003489007242023945,0.004483431577682495,0.010822287760674953
1761916058557975800,0.805975830078125,0.0012950951931998134,0.004456001333892345,0.01092615071684122
1761916058568029700,0.81602978515625,-0.0019033611752092838,-0.0005957491230219603,0.01350382436066866
1761916058578084600,0.826084716796875,-0.002529204124584794,-0.00046924897469580173,0.007917843759059906
1761916058588138800,0.836138671875,-0.0013670006301254034,0.003629622282460332,0.011723767966032028
1761916058598192600,0.846192626953125,-0.000723048229701817,0.002098304685205221,0.014567490667104721
1761916058608247800,0.856247802734375,-0.0015627428656443954,-0.0037145770620554686,0.011547466740012169
1761916058618302000,0.866302001953125,-0.0016402408946305513,-0.0023606258910149336,0.008905611000955105
1761916058628355800,0.87635595703125,-0.0021467742044478655,0.0015632755821570754,0.011570369824767113
1761916058638410800,0.88641064453125,-0.0007579356315545738,0.004718055948615074,0.013064136728644371
1761916058648464600,0.896464599609375,-0.001350488979369402,0.0008905610884539783,0.009614543989300728
1761916058658518800,0.906518798828125,-0.0025832662358880043,-0.0005123922019265592,0.012041483074426651
1761916058668574000,0.916573974609375,0.0011342403013259172,0.0013243899447843432,0.010189786553382874
1761916058678627800,0.9266279296875,-0.0011595403775572777,0.0009664611425250769,0.012635900638997555
1761916058688681700,0.936681640625,-0.0019028285751119256,-0.017065003514289856,0.04670305550098419
1761916058698736600,0.946736572265625,0.0005834985640831292,-0.009622533805668354,0.0472833588719368
1761916058708790800,0.956790771484375,-0.0021736719645559788,-0.01804531365633011,0.025542911142110825
1761916058718844700,0.9668447265625,0.0004348942020442337,0.018938804045319557,-0.053052034229040146
1761916058728899800,0.97689990234375,-0.0022301310673356056,0.0500706247985363,-0.05143016576766968
1761916058738953700,0.98695361328125,0.00008708536915946752,-0.004135356284677982,0.05565127730369568
1761916058749007600,0.997007568359375,0.00242161238566041,-0.02851792797446251,0.05301900953054428
1761916058759061800,1.007061767578125,-0.0022367890924215317,0.002371544949710369,-0.037083983421325684
1761916058769116700,1.01711669921875,0.000050866376113845035,0.006485329940915108,-0.007027016952633858
1761916058779170800,1.0271708984375,0.0005531385540962219,-0.00019441076437942684,0.048583779484033585
1761916058789225000,1.037224853515625,-0.001064998097717762,0.008562062866985798,0.017951304093003273
1761916058799279600,1.047279541015625,-0.0012149340473115444,0.0015243934467434883,-0.005329784471541643
1761916058809333800,1.057333740234375,0.0007805725326761603,-0.012456669472157955,0.00501180300489068
1761916058819387600,1.0673876953125,-0.0008346347021870315,-0.0036693033762276173,0.012093148194253445
1761916058829442800,1.07744287109375,-0.00041678472189232707,0.011020160280168056,0.01926317624747753
1761916058839497000,1.0874970703125,-0.0009411611245013773,0.006850449368357658,0.010292585007846355
1761916058849550800,1.09755078125,-0.0005874933558516204,-0.0017331852577626705,0.0019800602458417416
1761916058859605800,1.107605712890625,-0.0012484899489209056,-0.012283564545214176,0.017793377861380577
1761916058869659600,1.11765966796875,-0.0016506272368133068,0.0010266485624015331,0.021864019334316254
1761916058879713800,1.1277138671875,0.0014439659425988793,0.014475345611572266,0.005500758998095989
1761916058889769000,1.13776904296875,-0.0013169331941753626,0.004080495331436396,0.005248025059700012
1761916058899822600,1.147822509765625,-0.0006527407676912844,-0.020788636058568954,0.017006147652864456
1761916058909876700,1.157876708984375,0.000050333743274677545,-0.004549211822450161,0.013441773131489754
1761916058919931600,1.167931640625,-0.0013648699969053268,0.013251889497041702,0.008113852702081203
1761916058929985800,1.17798583984375,0.0016112125013023615,0.005680788774043322,0.012397014535963535
1761916058940040000,1.1880400390625,0.0006769755273126066,-0.006228601094335318,0.012524846941232681
1761916058950094600,1.198094482421875,-0.001514806062914431,-0.007216101046651602,0.01200792659074068
1761916058960148700,1.208148681640625,-0.0018618159228935838,0.006989998742938042,0.010343717411160469
1761916058970202600,1.21820263671875,-0.00008708536915946752,0.007643272168934345,0.008409197442233562
1761916058980257800,1.2282578125,-0.001059139147400856,-0.0019068233668804169,0.010910971090197563
1761916058990312000,1.23831201171875,-0.0008964200387708843,-0.008756740018725395,0.011355718597769737
1761916059000365800,1.24836572265625,0.000523577444255352,0.0025337315164506435,0.011242534033954144
1761916059010420700,1.258420654296875,0.001315068919211626,0.0041761030443012714,0.012197011150419712
1761916059020474600,1.268474609375,-0.002469016704708338,0.0018168084789067507,0.02239239029586315
1761916059030528800,1.27852880859375,-0.0006167881074361503,0.03773646056652069,0.034331608563661575
1761916059040584000,1.288583984375,-0.00310604483820498,0.04736218973994255,0.02894856035709381
1761916059050637800,1.298637939453125,-0.0023188143968582153,-0.029813289642333984,-0.008155398070812225
1761916059060691700,1.308691650390625,0.00042583944741636515,-0.07814060896635056,-0.05090446025133133
1761916059070746600,1.31874658203125,-0.0028581044171005487,-0.04267635568976402,0.010930146090686321
1761916059080800800,1.32880078125,-0.0003683151735458523,0.049963030964136124,0.06818065047264099
1761916059090854700,1.338854736328125,0.0002511360798962414,0.07051996886730194,0.01751108281314373
1761916059100909800,1.348909912109375,-0.0004924184759147465,-0.009764480404555798,-0.02966282144188881
1761916059110963700,1.358963623046875,0.00012170646368758753,-0.07547424733638763,0.006160956807434559
1761916059121017600,1.369017578125,-0.0005041363765485585,-0.019395269453525543,0.037811826914548874
1761916059131072800,1.37907275390625,-0.001333178486675024,0.0658879354596138,0.014667891897261143
1761916059141127000,1.389126953125,-0.0010034791193902493,0.039681367576122284,-0.004515655804425478
1761916059151180800,1.399180908203125,-0.0023007048293948174,-0.04320552572607994,0.005117264110594988
1761916059161235700,1.409235595703125,-0.001017327536828816,-0.04722024127840996,0.018460499122738838
1761916059171289600,1.41928955078125,-0.0013086773687973619,0.020653612911701202,0.010900851339101791
1761916059181343700,1.42934375,0.00030173614504747093,0.05035478249192238,0.007361509837210178
1761916059191399000,1.43939892578125,-0.001567802974022925,-0.00044554684427566826,0.009771670214831829
1761916059201452800,1.449452880859375,-0.0010932276491075754,-0.04302017018198967,0.012941098771989346
1761916059211507000,1.4595068359375,0.0023299995809793472,-0.014852715656161308,0.009823069907724857
1761916059221561600,1.4695615234375,0.001085770782083273,0.028927255421876907,0.007336209993809462
1761916059231615700,1.47961572265625,-0.002665557898581028,0.021750302985310555,0.013787717558443546
1761916059241669600,1.489669677734375,-0.0012229235144332051,-0.01926290988922119,0.01569693721830845
1761916059251724800,1.499724853515625,0.001948368619196117,-0.021141771227121353,0.010348244570195675
1761916059261779000,1.509779052734375,0.000529702752828598,0.006631270982325077,0.00815246906131506
1761916059271832800,1.519832763671875,-0.0020098877139389515,0.021465610712766647,0.01471609529107809
1761916059281887700,1.5298876953125,-0.00046871634549461305,0.0007853662245906889,0.014576279558241367
1761916059291941600,1.539941650390625,0.0017054883064702153,-0.018376611173152924,0.008405469357967377
1761916059301995800,1.549995849609375,0.0010980212828144431,-0.011390872299671173,0.008562329225242138
1761916059312051000,1.560051025390625,-0.0004218447138555348,0.01245054416358471,0.01095651090145111
1761916059322104600,1.5701044921875,0.0013552826130762696,0.00999404489994049,0.014601047150790691
1761916059332158700,1.58015869140625,-0.00072597770486027,-0.0038482677191495895,0.011052651330828667
1761916059342214000,1.5902138671875,-0.002544117858633399,-0.0095658078789711,0.007153783459216356
1761916059352267800,1.600267822265625,-0.002186455298215151,-0.001930791768245399,0.011373561806976795
1761916059362322000,1.610322021484375,-0.0005744438385590911,0.013344833627343178,0.01471716072410345
1761916059372376600,1.62037646484375,-0.003072488820180297,0.007111439015716314,0.015452193096280098
1761916059382430700,1.6304306640625,-0.0011046791914850473,-0.010699249804019928,0.007791344076395035
1761916059392484600,1.640484619140625,-0.0008873652550391853,-0.008733304217457771,0.011438542976975441
1761916059402539800,1.650539794921875,0.0005078648100607097,0.005074919667094946,0.013614878058433533
1761916059412594000,1.660593994140625,0.000297475082334131,0.008596683852374554,0.012945093214511871
1761916059422647800,1.670647705078125,0.00044075315236113966,0.0015451660146936774,0.010613761842250824
1761916059432702700,1.68070263671875,-0.002487658755853772,-0.009720537811517715,0.009239837527275085
1761916059442756600,1.690756591796875,-0.0012807141756638885,-0.002109223511070013,0.010232397355139256
1761916059452810800,1.700810791015625,0.00012596751912496984,0.005066663958132267,0.0123043367639184
1761916059462866000,1.710865966796875,-0.0008916263468563557,0.00651595601812005,0.012295548804104328
1761916059472919800,1.720919921875,0.00003328951424919069,-0.006744721904397011,0.011071293614804745
1761916059482973700,1.7309736328125,-0.00037923414492979646,-0.0033830134198069572,0.010612164624035358
1761916059493033000,1.741032958984375,0.0013811152894049883,0.0051865060813724995,0.0105341337621212
1761916059503086800,1.7510869140625,-0.00011984224693151191,0.0049007488414645195,0.011601261794567108
1761916059513141000,1.76114111328125,-0.0001882854849100113,-0.0038948729634284973,0.01083027757704258
1761916059523196000,1.77119580078125,-0.00310577847994864,-0.007449926808476448,0.011342935264110565
1761916059533249800,1.781249755859375,-0.0024562333710491657,-0.0012636699248105288,0.01204015128314495
1761916059543304000,1.791303955078125,-0.00195129809435457,0.009094428271055222,0.010761833749711514
1761916059553359000,1.801359130859375,-0.0007464840309694409,-0.001038632821291685,0.01335575245320797
1761916059563413000,1.8114130859375,0.0012029499048367143,-0.006943926215171814,0.012958941981196404
1761916059573467100,1.821467041015625,-0.0004756405542138964,-0.0010937602492049336,0.012571452185511589
1761916059583521800,1.831521728515625,-0.003921504598110914,0.0016098808264359832,0.013305152766406536
1761916059593576000,1.841575927734375,-0.00044821001938544214,0.0016711335629224777,0.011415373533964157
1761916059603629800,1.8516298828125,0.0012892362428829074,-0.0018351842882111669,0.013105948455631733
1761916059613685000,1.86168505859375,-0.00003382214708835818,-0.004719920456409454,0.011237474158406258
1761916059623739000,1.87173876953125,-0.0012370382901281118,0.0007041397620923817,0.011146927252411842
1761916059633793800,1.881793701171875,0.0003043993201572448,0.003340669209137559,0.011068896390497684
1761916059643848000,1.891847900390625,-0.0011893677292391658,-0.0031305458396673203,0.012886503711342812
1761916059653901800,1.90190185546875,0.001630387152545154,-0.0016756609547883272,0.011482485570013523
1761916059663957000,1.91195703125,0.001443166984245181,-0.0024897893890738487,0.01344763208180666
1761916059674011000,1.922010986328125,-0.0012024171883240342,-0.0005896238726563752,0.011333348229527473
1761916059684064800,1.932064697265625,-0.002317216480150819,0.003614708548411727,0.011363442055881023
1761916059694120000,1.942119873046875,0.000672448193654418,-0.0035023230593651533,0.011233746074140072
1761916059704174000,1.952174072265625,-0.0007829693495295942,-0.004054130055010319,0.011494469828903675
1761916059714228000,1.96222802734375,-0.001999767730012536,0.0013973605819046497,0.012167982757091522
1761916059724283000,1.972282958984375,0.0005667206714861095,0.0010953581659123302,0.008304535411298275
1761916059734336800,1.982336669921875,-0.0005648564547300339,0.0018410432385280728,0.014333399012684822
1761916059744391000,1.992390869140625,0.0004700479330495,0.0010572749888524413,0.011660384014248848
1761916059754446000,2.002446044921875,0.0027859327383339405,-0.003489539958536625,0.014094780199229717
1761916059764500000,2.0125,-0.0009291769238188863,-0.0038312235847115517,0.011874768882989883
1761916059774554000,2.02255419921875,-0.0014980280539020896,0.000027164242055732757,0.009519202634692192
1761916059784608800,2.03260888671875,0.001133174984715879,0.005258944351226091,0.013439908623695374
1761916059794663000,2.042662841796875,0.00026312030968256295,-0.0018932411912828684,0.012328305281698704
1761916059804716800,2.052716796875,-0.002745985286310315,-0.004456533584743738,0.012604475021362305
1761916059814772000,2.06277197265625,-0.00003302319601061754,-0.002740659052506089,0.009091765619814396
1761916059824826000,2.072826171875,0.0015480954898521304,0.003608316881582141,0.012047874741256237
1761916059834880800,2.082880859375,-0.0009443568997085094,0.01041455753147602,0.01290647778660059
1761916059844935000,2.092934814453125,-0.0005936186062172055,-0.003936951048672199,0.012432700954377651
1761916059854988800,2.10298876953125,-0.00037284253630787134,-0.008701878599822521,0.008795355446636677
1761916059865044000,2.1130439453125,0.0005440838285721838,0.0028767467010766268,0.009380185976624489
1761916059875098000,2.12309814453125,0.0003451456723269075,0.0041558630764484406,0.013639645650982857
1761916059885151700,2.13315185546875,0.0010673949727788568,0.005348426289856434,0.014135526493191719
1761916059895207000,2.14320703125,0.00012410330236889422,-0.0023465112317353487,0.013336312025785446
1761916059905261000,2.153260986328125,-0.0010434264549985528,-0.011260643601417542,0.009375126101076603
1761916059915315000,2.16331494140625,-0.0009126652730628848,0.001841575838625431,0.010420949198305607
1761916059925369900,2.173369873046875,-0.0039265644736588,0.006316218990832567,0.012469985522329807
1761916059935423700,2.183423828125,0.0002921487612184137,-0.004138818476349115,0.01350462343543768
1761916059945479000,2.19347900390625,0.0007270429632626474,-0.005140167195349932,0.009796970523893833
1761916059955533000,2.203532958984375,0.0012836436508223414,0.002433863002806902,0.011301656253635883
1761916059965587000,2.2135869140625,-0.0008554073283448815,0.008463792502880096,0.014416489750146866
1761916059975641900,2.223641845703125,0.000002663161012605997,0.0007866977830417454,0.011086473241448402
1761916059985695700,2.23369580078125,-0.0008498146780766547,-0.012850550934672356,0.006297843065112829
1761916059995750000,2.24375,-0.0021912488155066967,0.0009675264009274542,0.011049721390008926
1761916060005805000,2.25380517578125,0.00044554684427566826,0.015327290631830692,0.012200473807752132
1761916060015859000,2.26385888671875,-0.002120941411703825,-0.0005142564186826348,0.012545619159936905
1761916060025913000,2.2739130859375,0.0013552826130762696,-0.015443936921656132,0.008448878303170204
1761916060035967700,2.2839677734375,-0.0010719223646447062,0.0009201221400871873,0.013273727148771286
1761916060046022000,2.29402197265625,-0.00008735168376006186,0.012881710194051266,0.01396002434194088
1761916060056075800,2.30407568359375,-0.00002370213405811228,0.0047119311057031155,0.010544786229729652
1761916060066131000,2.314130859375,0.0013041499769315124,-0.011837217956781387,0.006764961872249842
1761916060076185000,2.32418505859375,-0.00024767397553659976,-0.0008671252289786935,0.014249509200453758
1761916060086239700,2.33423974609375,-0.0026346652302891016,0.00887684803456068,0.014846057631075382
1761916060096294000,2.3442939453125,-0.0013230583863332868,0.0027172232512384653,0.0140143521130085
1761916060106348000,2.35434814453125,-0.001026382320560515,-0.00683207344263792,0.010371680371463299
1761916060116403000,2.36440283203125,0.0011531487107276917,-0.0022298647090792656,0.011599398218095303
1761916060126457000,2.37445703125,-0.0015132081462070346,0.007252320181578398,0.009667008183896542
1761916060136511000,2.384510986328125,-0.00006870955257909372,0.002484462922438979,0.01164547074586153
1761916060146566000,2.39456591796875,-0.0021869877818971872,-0.0009952232940122485,0.012283031828701496
1761916060156620000,2.4046201171875,-0.0006332996999844909,-0.001731320982798934,0.01441116351634264
1761916060166675000,2.414675048828125,0.00010519486386328936,0.0001496696495451033,0.010104832239449024
1761916060176729000,2.42472900390625,-0.0018602180061861873,0.002252768026664853,0.012282499112188816
1761916060186782700,2.43478271484375,-0.0004223773430567235,0.0013936321483924985,0.01173548586666584
1761916060196838000,2.444837890625,-0.00043569316039793193,0.0005310343112796545,0.012896623462438583
1761916060206892000,2.45489208984375,-0.0012122709304094315,-0.0023126890882849693,0.010755175724625587
1761916060216946000,2.46494580078125,0.0000900148443179205,0.0013683321885764599,0.012270248495042324
1761916060227000800,2.475000732421875,0.0005792375304736197,0.0019600866362452507,0.011531220749020576
1761916060237054700,2.4850546875,-0.000681236619129777,0.0030868700705468655,0.010343717411160469
1761916060247110000,2.49510986328125,-0.003440005239099264,-0.002374740783125162,0.014023673720657825
1761916060257164000,2.5051640625,-0.004345479886978865,0.0002854908525478095,0.008407066576182842
1761916060267218000,2.515218017578125,-0.000025566347176209092,0.001463406952098012,0.014172011986374855
1761916060277272800,2.52527294921875,0.0013712616637349129,-0.00017417073831893504,0.012084092944860458
1761916060287326700,2.53532666015625,-0.0019267969764769077,-0.0036887445021420717,0.0132111432030797
1761916060297380900,2.545380859375,0.0006828344776295125,0.00038695731200277805,0.011863583698868752
1761916060307436000,2.55543603515625,0.000600809114985168,-0.0004367584188003093,0.011148258112370968
1761916060317490000,2.565489990234375,-0.000055393749789800495,0.005827528890222311,0.012525645084679127
1761916060327544000,2.5755439453125,-0.0011089402250945568,-0.0011504855938255787,0.013059609569609165
1761916060337599000,2.585598876953125,0.0002716424351092428,-0.0023880566004663706,0.01218449417501688
1761916060347652900,2.59565283203125,0.0016812535468488932,0.000743554555810988,0.01155518926680088
1761916060357708000,2.6057080078125,0.0016998957144096494,0.0008769789128564298,0.011376758106052876
1761916060367762000,2.615761962890625,0.0012199940392747521,0.0005640574963763356,0.012713397853076458
1761916060377816000,2.625816162109375,-0.0031217574141919613,0.00370179396122694,0.011334147304296494
1761916060387871000,2.63587109375,0.00036272252327762544,0.0007526093395426869,0.010671552270650864
1761916060397924900,2.6459248046875,-0.0003312972257845104,-0.0010410296963527799,0.009724265895783901
1761916060407980000,2.65597998046875,-0.0007214503129944205,-0.000589091214351356,0.012103534303605556
1761916060418034000,2.666033935546875,0.0002633866388350725,0.0005896238726563752,0.012076636776328087
1761916060428088000,2.676088134765625,0.00027616979787126184,0.00038589202449657023,0.011983159929513931
1761916060438143000,2.68614306640625,0.0007190534961409867,-0.0009683253592811525,0.011889682151377201
1761916060448196900,2.69619677734375,-0.000526773277670145,0.00039947417099028826,0.011068630032241344
1761916060458251000,2.7062509765625,0.00012436961696948856,-0.0001430117554264143,0.013286776840686798
1761916060468306000,2.716305908203125,-0.0007033408619463444,0.0010365023044869304,0.010063553228974342
1761916060478360000,2.726360107421875,0.0019291938515380025,0.0018024274613708258,0.011619904078543186
1761916060488415000,2.7364150390625,-0.00015659387281630188,0.001675128354690969,0.011446799151599407
1761916060498469000,2.74646923828125,0.0025979136116802692,-0.0013132047606632113,0.011562646366655827
1761916060508523300,2.756523193359375,0.0007837683078832924,-0.0005914880894124508,0.011345066130161285
1761916060518578200,2.766578125,-0.0003677825443446636,0.0004271710349712521,0.012951484881341457
1761916060528632000,2.776632080078125,-0.001972869737073779,-0.0009677927591837943,0.011600197292864323
1761916060538686000,2.78668603515625,-0.00236328924074769,-0.0011440940434113145,0.01249022502452135
1761916060548741000,2.7967412109375,-0.0004037352045997977,-0.0029025792609900236,0.011534949764609337
1761916060558795300,2.806795166015625,-0.0028101676143705845,-0.00112465291749686,0.013394368812441826
1761916060568850000,2.816849853515625,0.00043649208964779973,-0.00007084008393576369,0.011625230312347412
1761916060578904000,2.826904052734375,-0.00027297402266412973,0.0013438310706987977,0.010488860309123993
1761916060588958000,2.8369580078125,-0.0012604740913957357,-0.0004141215467825532,0.013260145671665668
1761916060599013000,2.84701318359375,-0.0034445326309651136,-0.0018341189716011286,0.010395915247499943
1761916060609067300,2.8570673828125,-0.0016442356863990426,0.000803209375590086,0.011901932768523693
1761916060619122000,2.867121826171875,-0.0000900148443179205,-0.00012543488992378116,0.009698433801531792
1761916060629176000,2.877176025390625,-0.0028996497858315706,0.0014117417158558965,0.01028486154973507
1761916060639230000,2.88722998046875,0.0001560612436151132,-0.0031872710678726435,0.011537346057593822
1761916060649285000,2.89728515625,0.00012303804396651685,0.0011385013349354267,0.011930695734918118
1761916060659339300,2.90733935546875,-0.0017608820926398039,0.0006119944155216217,0.014166685752570629
1761916060669393200,2.91739306640625,0.000018908443962573074,-0.0035151063930243254,0.012071310542523861
1761916060679448000,2.927447998046875,-0.0005805690889246762,-0.00221947836689651,0.012490491382777691
1761916060689502200,2.937502197265625,-0.0033566481433808804,0.002359027974307537,0.012257731519639492
1761916060699557000,2.94755712890625,-0.001056476030498743,0.000031957933970261365,0.014035125263035297
1761916060709611300,2.957611328125,-0.003376888344064355,0.0004500742070376873,0.010269415564835072
1761916060719665200,2.9676650390625,-0.0010130665032193065,0.0029289445374161005,0.014375477097928524
1761916060729720000,2.977719970703125,0.0011195929255336523,-0.0015097459545359015,0.012652145698666573
1761916060739774200,2.987774169921875,0.00023435817274730653,0.0014623417519032955,0.011543205007910728
1761916060749829000,2.9978291015625,-0.0007550061563961208,0.0046389601193368435,0.011322962120175362
1761916060759883300,3.00788330078125,0.00003062635369133204,-0.0035127094015479088,0.01272831205278635
1761916060769937200,3.017937255859375,-0.002588326344266534,-0.0034051176626235247,0.011346664279699326
1761916060779992000,3.027991943359375,0.0014855111949145794,-0.000316916179144755,0.010306699201464653
1761916060790046200,3.038046142578125,-0.00009614011651137844,0.0019065570086240768,0.01269741915166378
1761916060800101000,3.04810107421875,-0.0023614249657839537,-0.002359294332563877,0.010574613697826862
1761916060810155300,3.0581552734375,0.002551840851083398,-0.0021401161793619394,0.012448679655790329
1761916060820209200,3.068209228515625,-0.0004732437082566321,-0.0016562198288738728,0.010874219238758087
1761916060830264000,3.07826416015625,-0.0009448895580135286,0.001535046030767262,0.01143667846918106
1761916060840318200,3.088318115234375,0.0011560781858861446,0.002585396869108081,0.010745322331786156
1761916060850372000,3.0983720703125,0.00032410668791271746,0.00041305628838017583,0.013454556465148926
1761916060860427300,3.10842724609375,0.0009470200748182833,-0.0024612934794276953,0.014217551797628403
1761916060870481000,3.11848095703125,0.00005699164830730297,0.0014024205738678575,0.011942679062485695
1761916060880536000,3.1285361328125,-0.0015355786308646202,0.002508431440219283,0.01215786300599575
1761916060890590200,3.138590087890625,0.000696150294970721,-0.001216531964018941,0.011551993899047375
1761916060900644000,3.14864404296875,-0.001163002452813089,-0.001734250457957387,0.013799701817333698
1761916060910699000,3.158698974609375,0.001243696198798716,-0.0019124159589409828,0.010490191169083118
1761916060920753200,3.168753173828125,0.0004655205411836505,0.0036535905674099922,0.0116737000644207
1761916060930808000,3.17880810546875,0.0019955066964030266,0.0019465044606477022,0.010960771702229977
1761916060940862200,3.1888623046875,0.002543851500377059,-0.0030306773260235786,0.010159160941839218
1761916060950916000,3.198916015625,0.0002892192860599607,-0.0009161274065263569,0.010995392687618732
1761916060960971000,3.208970947265625,-0.0000015978966985130683,-0.001330249011516571,0.013078783638775349
1761916060971025200,3.219025146484375,0.0004916195175610483,0.0010058758780360222,0.011581288650631905
1761916060981080000,3.229080078125,0.0008072041091509163,0.004237888380885124,0.01326840091496706
1761916060991134200,3.23913427734375,-0.00039787625428289175,-0.0006644586683250964,0.011666509322822094
1761916061001188000,3.24918798828125,-0.00227860058657825,-0.002287655370309949,0.009483782574534416
1761916061011243000,3.259242919921875,0.00020399813365656883,0.0005704491049982607,0.01324043795466423
1761916061021297200,3.269297119140625,-0.0012610068079084158,0.0037476003635674715,0.013035641051828861
1761916061031352000,3.27935205078125,-0.0005390237784013152,-0.0010687265312299132,0.01091762911528349
1761916061041406200,3.28940625,-0.00192226970102638,0.0003741741238627583,0.009320797398686409
1761916061051460000,3.299460205078125,0.00039308256236836314,-0.002436526119709015,0.012336826883256435
1761916061061515000,3.309514892578125,0.00044075315236113966,0.002484729280695319,0.013111274689435959
1761916061071569200,3.319569091796875,0.0005422196118161082,0.001431182725355029,0.011094463057816029
1761916061081624000,3.3296240234375,0.0017028251895681024,0.005075985100120306,0.011000453494489193
1761916061091678200,3.33967822265625,-0.0012458267156034708,0.0027390611357986927,0.013878265395760536
1761916061101732000,3.349732177734375,-0.0013499563792720437,-0.009111206978559494,0.009155681356787682
1761916061111787000,3.359787109375,0.0002724413643591106,-0.002945456188172102,0.010089385323226452
1761916061121841200,3.369841064453125,-0.0011579424608498812,0.005309544038027525,0.010524812154471874
1761916061131896000,3.37989599609375,-0.0006399576086550951,0.00989470910280943,0.018604842945933342
1761916061141950200,3.3899501953125,-0.0004676510870922357,-0.006416620220988989,0.010172476060688496
1761916061152004400,3.40000439453125,0.000550475378986448,-0.013376525603234768,0.007413707673549652
1761916061162059000,3.41005908203125,-0.00041492050513625145,-0.001047154888510704,0.008711466565728188
1761916061172113200,3.420113037109375,-0.002290052128955722,0.019531356170773506,0.013824469409883022
1761916061182168300,3.430168212890625,-0.0006988134700804949,0.006341519299894571,0.011432151310145855
1761916061192222200,3.44022216796875,-0.0004058657505083829,-0.016630908474326134,0.012028699740767479
1761916061202276400,3.4502763671875,-0.000523843802511692,-0.00646801944822073,0.010657438077032566
1761916061212331000,3.4603310546875,-0.0004213120846543461,0.01209554448723793,0.015015967190265656
1761916061222385200,3.47038525390625,0.00005379585491027683,0.007080546114593744,0.013060142286121845
1761916061232440300,3.4804404296875,-0.00014674017438665032,-0.006305566523224115,0.009433981962502003
1761916061242494200,3.490494140625,-0.0023555660154670477,-0.011716843582689762,0.011293667368590832
1761916061252548000,3.500548095703125,-0.0006846986943855882,0.005981726106256247,0.009225456044077873
1761916061262603000,3.51060302734375,0.0017771273851394653,0.008852880448102951,0.01164280716329813
1761916061272657200,3.5206572265625,-0.00023995080846361816,-0.0020663465838879347,0.012337093241512775
1761916061282712300,3.53071240234375,0.0013395700370892882,-0.009784187190234661,0.011012704111635685
1761916061292766200,3.54076611328125,0.00035473305615596473,0.0010394317796453834,0.013540309853851795
1761916061302821000,3.550821044921875,0.0015779229579493403,0.006265885196626186,0.015447665937244892
1761916061312875000,3.560875,0.0002234392159152776,0.003117230022326112,0.011004714295268059
1761916061322929200,3.57092919921875,-0.0008855010382831097,-0.003059173235669732,0.012583968229591846
1761916061332984300,3.580984375,-0.002404301892966032,-0.001210406655445695,0.013316604308784008
1761916061343038200,3.5910380859375,-0.00013768543431069702,0.0032948628067970276,0.009139169938862324
1761916061353093000,3.601093017578125,-0.002299905987456441,0.005615807604044676,0.01413632556796074
1761916061363147000,3.61114697265625,-0.0011824434623122215,-0.0004844290087930858,0.012231898494064808
1761916061373201200,3.621201171875,-0.00017736652807798237,-0.002067412016913295,0.010362626053392887
1761916061383256300,3.63125634765625,-0.0005291700945235789,-0.0025888588279485703,0.010353039018809795
1761916061393310000,3.64131005859375,-0.0002801645314320922,0.002703907433897257,0.011597800068557262
1761916061403365000,3.651365234375,-0.0012857741676270962,0.0029734193813055754,0.010632670484483242
1761916061413419300,3.661419189453125,-0.0010463559301570058,-0.0038330876268446445,0.01236212719231844
1761916061423473200,3.67147314453125,0.0007584682898595929,-0.003891677362844348,0.010765562765300274
1761916061433528000,3.681528076171875,-0.0024554345291107893,0.0026818031910806894,0.010119212791323662
1761916061443582000,3.69158203125,0.00039760995423421264,0.001838912721723318,0.013282249681651592
1761916061453637000,3.70163720703125,-0.0006562029011547565,-0.0029265477787703276,0.013933924958109856
1761916061463691300,3.711691162109375,0.0034176346380263567,0.0008167914929799736,0.012051070109009743
1761916061473745200,3.7217451171875,-0.0024498419370502234,-0.0022029669489711523,0.01191018894314766
1761916061483800000,3.731800048828125,-0.0018162758788093925,0.0026786073576658964,0.010921357199549675
1761916061493854000,3.74185400390625,0.0011033476330339909,-0.005680522415786982,0.01420423574745655
1761916061503908900,3.751908935546875,-0.00016218650853261352,0.0038256309926509857,0.01209900714457035
1761916061513963000,3.761962890625,0.0002263686910737306,-0.00037284253630787134,0.013349627144634724
1761916061524018000,3.772017822265625,0.0010668623726814985,0.0027473168447613716,0.008950884453952312
1761916061534071800,3.78207177734375,-0.0012540825409814715,0.00022184131375979632,0.012509932741522789
1761916061544125700,3.792125732421875,0.0007030745036900043,-0.000871652620844543,0.014218084514141083
1761916061554180900,3.802180908203125,-0.0010570086305961013,0.004265052266418934,0.00962652824819088
1761916061564235000,3.812235107421875,-0.00047883635852485895,0.002453836612403393,0.01218902226537466
1761916061574290000,3.8222900390625,-0.0012205267557874322,-0.002092445734888315,0.010321080684661865
1761916061584343800,3.83234375,0.0000679106087773107,-0.0031188279390335083,0.011903797276318073
1761916061594397700,3.842397705078125,-0.0016309198690578341,0.0014005564153194427,0.01185399666428566
1761916061604452900,3.852452880859375,0.00030839405371807516,0.007075219880789518,0.012720322236418724
1761916061614507000,3.862507080078125,-0.00019467707898002118,0.004748682491481304,0.012204201892018318
1761916061624561700,3.872561767578125,-0.000297475082334131,-0.005834719631820917,0.012523515149950981
1761916061634615800,3.88261572265625,-0.0017949705943465233,-0.009033176116645336,0.01056289579719305
1761916061644671000,3.8926708984375,-0.00009108010999625549,0.005432049743831158,0.010936536826193333
1761916061654724900,3.902724853515625,-0.0010905644157901406,0.00224877311848104,0.012257465161383152
1761916061664779000,3.912779052734375,-0.0022972426377236843,0.0010181264951825142,0.012197277508676052
1761916061674833700,3.922833740234375,0.0013105415273457766,-0.0013110742438584566,0.01264042779803276
1761916061684887800,3.9328876953125,-0.0006942860782146454,-0.004441619850695133,0.012441489845514297
1761916061694943000,3.94294287109375,-0.0011544802691787481,0.003954527899622917,0.013569604605436325
1761916061704996900,3.952996826171875,-0.001353418454527855,0.0065537733025848866,0.01176291611045599
1761916061715051800,3.9630517578125,-0.0005544701125472784,0.0004846953088417649,0.01028592698276043
1761916061725105700,3.973105712890625,-0.0030573089607059956,-0.0041092573665082455,0.013397031463682652
1761916061735159800,3.983159912109375,-0.0005017395596951246,0.0004498079069890082,0.011432151310145855
1761916061745215000,3.993215087890625,0.0005760417552664876,0.007516239304095507,0.012509133666753769
1761916061755268900,4.003268798828125,0.0009542105835862458,0.004159591160714626,0.009927731938660145
1761916061765323800,4.01332373046875,-0.0005672533297911286,0.0003126551164314151,0.013453491032123566
1761916061775378000,4.0233779296875,0.001418665866367519,-0.0006578007596544921,0.009406019002199173
1761916061785431800,4.033431884765625,-0.0003312972257845104,-0.002290584845468402,0.012583968229591846
1761916061795487000,4.043487060546875,-0.0005302353529259562,0.004887699615210295,0.013379720970988274
1761916061805540900,4.053540771484375,0.001966211711987853,0.0008649947121739388,0.010149040259420872
1761916061815595800,4.063595703125,0.00016484966909047216,-0.0002596582053229213,0.0123605290427804
1761916061825650000,4.07364990234375,-0.003198190126568079,0.0012245214311406016,0.012856942601501942
1761916061835704800,4.083704833984375,-0.0006237123161554337,0.006351372692734003,0.012271580286324024
1761916061845759000,4.093759033203125,-0.0002490055630914867,-0.0009672601008787751,0.009853695519268513
1761916061855812900,4.103812744140625,-0.0012783173006027937,-0.002829608740285039,0.013316870667040348
1761916061865867800,4.11386767578125,-0.0008341020438820124,0.004388356581330299,0.012459599412977695
1761916061875922000,4.123921875,-0.000045273736759554595,0.00040480049210600555,0.01275760680437088
1761916061885976800,4.133976806640625,0.0007352987886406481,-0.0015158712631091475,0.0152561841532588
1761916061896031000,4.144031005859375,-0.0018354506464675069,0.0017843178939074278,0.011947739869356155
1761916061906086000,4.1540859375,0.00047111319145187736,-0.0020780644845217466,0.012811136431992054
1761916061916139800,4.164139892578125,-0.00236195744946599,0.0019022959750145674,0.012345349416136742
1761916061926194000,4.17419384765625,-0.0012458267156034708,0.00007616640505148098,0.010775149799883366
1761916061936248800,4.184248779296875,-0.0005118595436215401,0.0033803503029048443,0.013233513571321964
1761916061946303000,4.194302978515625,0.00021145498612895608,-0.0012066783383488655,0.01323910616338253
1761916061956358000,4.20435791015625,0.0011669971281662583,0.0012567456578835845,0.012809271924197674
1761916061966411800,4.214411865234375,0.00041731735109351575,-0.004486627411097288,0.012537096627056599
1761916061976467000,4.224467041015625,0.0015097459545359015,0.00021065604232717305,0.011539210565388203
1761916061986520800,4.234520751953125,-0.0018849853659048676,-0.0022623552940785885,0.009526393376290798
1761916061996575000,4.244574951171875,0.00044661210267804563,-0.0019470370607450604,0.014095046557486057
1761916062006630000,4.2546298828125,-0.0008719189208932221,-0.003600061172619462,0.011659852229058743
1761916062016683800,4.264683837890625,-0.002264219569042325,-0.0014415690675377846,0.011236408725380898
1761916062026739000,4.274739013671875,-0.0001179780374513939,0.004816326778382063,0.012988236732780933
1761916062036793000,4.28479296875,-0.002065015025436878,-0.007991613820195198,0.012056396342813969
1761916062046847700,4.29484765625,-0.0004767058417201042,-0.0026226809713989496,0.007469101343303919
1761916062056902000,4.30490185546875,0.0002567287301644683,-0.0025893915444612503,0.012231365777552128
1761916062066957000,4.31495703125,0.00009161273919744417,0.015738749876618385,0.011225489899516106
1761916062077011000,4.325010986328125,-0.0009619337506592274,-0.014029532670974731,0.009222793392837048
1761916062087065000,4.335065185546875,0.0002724413643591106,-0.006588127929717302,0.007144195958971977
1761916062097119700,4.34511962890625,-0.0014833806781098247,-0.000024767397917457856,0.013227388262748718
1761916062107174000,4.355173828125,-0.0019049590919166803,0.006727145053446293,0.010319748893380165
1761916062117229000,4.36522900390625,-0.0009446232579648495,0.012507801875472069,0.011870508082211018
1761916062127283000,4.375282958984375,-0.0008705873624421656,-0.022178007289767265,0.010241984389722347
1761916062137337900,4.385337890625,0.0012319782981649041,0.0024051007349044085,0.009023589082062244
1761916062147391700,4.395391845703125,-0.0002383529208600521,0.009950102306902409,0.012605274096131325
1761916062157446000,4.40544580078125,-0.0014096111990511417,0.0004673847579397261,0.012162123806774616
1761916062167501000,4.4155009765625,-0.0006021407316438854,-0.002269545802846551,0.012954414822161198
1761916062177555000,4.425554931640625,-0.0003656520275399089,-0.009006012231111526,0.009512810967862606
1761916062187609900,4.43560986328125,-0.00401711231097579,0.007668039761483669,0.010551710613071918
1761916062197663700,4.445663818359375,0.0014889733865857124,0.0026165556628257036,0.01323910616338253
1761916062207719000,4.455718994140625,-0.000021305288100847974,0.010212955996394157,0.01275494322180748
1761916062217773000,4.46577294921875,0.0014466290595009923,-0.017057547345757484,0.012572250328958035
1761916062227827700,4.47582763671875,-0.00008708536915946752,0.009581254795193672,0.007892544381320477
1761916062237881900,4.4858818359375,-0.00014620754518546164,-0.0004644552827812731,0.015231949277222157
1761916062247935700,4.495935791015625,0.0009318400407209992,0.0026413232553750277,0.009197759442031384
1761916062257991000,4.505990966796875,-0.00021198761533014476,-0.0020599551498889923,0.010500311851501465
1761916062268045000,4.516045166015625,-0.0004801679460797459,0.0005744438385590911,0.011379154399037361
1761916062278099700,4.526099609375,0.0051801144145429134,0.011465441435575485,0.013462811708450317
1761916062288153900,4.53615380859375,0.0011060107499361038,0.006640858482569456,0.013496633619070053
1761916062298209000,4.546208984375,0.00003222424857085571,-0.020795026794075966,0.00740252248942852
1761916062308263000,4.556262939453125,0.0007922904333099723,-0.012960273772478104,0.007917577400803566
1761916062318317000,4.566317138671875,-0.0009155947482213378,0.005076784174889326,0.018251441419124603
1761916062328371700,4.576371826171875,0.0030216225422918797,0.03355742618441582,0.014093448407948017
1761916062338425900,4.58642578125,0.001671932521276176,-0.01375149842351675,0.0112824821844697
1761916062348481000,4.59648095703125,-0.00008335694292327389,-0.01996891386806965,0.007767908275127411
1761916062358535000,4.606534912109375,-0.0010937602492049336,0.006727410946041346,0.015182148665189743
1761916062368589800,4.61658984375,0.00008868326403899118,0.02395060658454895,0.013447898440063
1761916062378644000,4.62664404296875,-0.001669003046117723,-0.000278300343779847,0.013934457674622536
1761916062388699000,4.636698974609375,-0.0009563411585986614,-0.020967599004507065,0.008436361327767372
1761916062398753000,4.6467529296875,-0.0018032263033092022,-0.0031726236920803785,0.012340289540588856
1761916062408808000,4.656807861328125,-0.0009576727170497179,0.014115552417933941,0.01549214031547308
1761916062418861800,4.66686181640625,-0.0001054611784638837,0.008110124617815018,0.012606605887413025
1761916062428916000,4.676916015625,-0.001415736391209066,-0.01756913959980011,0.010390855371952057
1761916062438971000,4.686970947265625,0.00017204020696226507,-0.012832175008952618,0.010174606926739216
1761916062449025000,4.69702490234375,-0.003073021536692977,0.010847854427993298,0.01245027780532837
1761916062459080000,4.707079833984375,-0.00008681904728291556,0.009771137498319149,0.013836720027029514
1761916062469133800,4.7171337890625,0.00038642468280158937,-0.0030312100425362587,0.01296426821500063
1761916062479189000,4.72718896484375,0.001535046030767262,-0.009530654177069664,0.008665393106639385
1761916062489243000,4.737242919921875,-0.0023782027419656515,0.0017547567840665579,0.012264655902981758
1761916062499294200,4.747294189453125,-0.0019861855544149876,0.0025361282750964165,0.012012721039354801
1761916062509348000,4.75734814453125,-0.00381444557569921,0.00666456064209342,0.01284735556691885
1761916062519402200,4.76740234375,-0.001764344167895615,-0.0026943201664835215,0.010145312175154686
1761916062529457400,4.77745751953125,0.0009065400226972997,-0.0032232238445430994,0.011510714888572693
1761916062539511300,4.78751123046875,0.0002519350382499397,0.0033718282356858253,0.011385546065866947
1761916062549566200,4.797566162109375,0.0003813646617345512,0.008099205791950226,0.012516857124865055
1761916062559620000,4.8076201171875,-0.0001246359315700829,-0.005368666257709265,0.012115252204239368
1761916062569675300,4.81767529296875,0.0010615360224619508,-0.008711732923984528,0.005899967160075903
1761916062579729400,4.8277294921875,0.0023606258910149336,0.010570619255304337,0.015238873660564423
1761916062589784000,4.8377841796875,0.0010841728653758764,0.003745203372091055,0.01582184061408043
1761916062599838200,4.847838134765625,-0.0006732470938004553,0.008982310071587563,0.011138138361275196
1761916062609893400,4.857893310546875,-0.0035151063930243254,-0.015534218400716782,0.012577311135828495
1761916062619947300,4.867947265625,-0.0013467605458572507,-0.005245628301054239,0.007364705670624971
1761916062630002200,4.878002197265625,-0.00039867521263659,0.011936021968722343,0.010941331274807453
1761916062640056300,4.888056396484375,0.0002567287301644683,0.0082089276984334,0.011840414255857468
1761916062650110200,4.898110107421875,0.0013976269401609898,-0.00227806787006557,0.014505705796182156
1761916062660165400,4.908165283203125,-0.0007869640830904245,-0.009856359101831913,0.007320763543248177
1761916062670219300,4.91821923828125,-0.0009331716573797166,-0.00036618465674109757,0.011430553160607815
1761916062680274200,4.928274169921875,0.002189651131629944,0.004710599314421415,0.011268100701272488
1761916062690328300,4.938328369140625,-0.0013347762869670987,0.009052084758877754,0.009646235965192318
1761916062700383200,4.94838330078125,0.00004207794336252846,-0.005265069659799337,0.01509959064424038
1761916062710437400,4.958437255859375,-0.000749679864384234,-0.007090133614838123,0.013509150594472885
1761916062720492300,4.9684921875,-0.0009009473724290729,0.0027425233274698257,0.008869125507771969
1761916062730546200,4.978546142578125,-0.0006535397260449827,0.003715642262250185,0.011638546362519264
1761916062740601300,4.988601318359375,-0.00007137271313695237,-0.006134058814495802,0.013950170017778873
1761916062750655200,4.9986552734375,-0.0006207828409969807,-0.005937517620623112,0.008582036942243576
1761916062760710100,5.008710205078125,-0.002447977662086487,0.00016724651504773647,0.01152536179870367
1761916062770764300,5.018764404296875,-0.0006498112925328314,0.0032051142770797014,0.014566159807145596
1761916062780818200,5.028818115234375,0.0027140274178236723,0.004456001333892345,0.010914699174463749
1761916062790873300,5.038873291015625,0.0008162588928826153,-0.00947872269898653,0.01293124444782734
1761916062800927200,5.04892724609375,0.0006282397080212831,-0.007531685754656792,0.011684086173772812
1761916062810982100,5.058982177734375,-0.0009832390351220965,0.0057343184016644955,0.011239072307944298
1761916062821036300,5.069036376953125,-0.002129729837179184,0.002019208623096347,0.011471034027636051
1761916062831091200,5.07909130859375,0.00026551715563982725,-0.0029555761720985174,0.012779444456100464
1761916062841145300,5.089145263671875,-0.0002854908525478095,0.0014887070283293724,0.013133645057678223
1761916062851200300,5.0992001953125,-0.00037470675306394696,0.0010077401529997587,0.014208496548235416
1761916062861254100,5.109254150390625,-0.00023995080846361816,0.0010125337867066264,0.011828696355223656
1761916062871309300,5.119309326171875,-0.0009598032338544726,0.002603772561997175,0.011421765200793743
1761916062881363200,5.12936328125,-0.002493517706170678,-0.004305799026042223,0.010839598253369331
1761916062891418000,5.139418212890625,-0.0028876655269414186,-0.0031819448340684175,0.013229519128799438
1761916062901472300,5.14947216796875,-0.0007773766992613673,-0.000009853695701167453,0.013205284252762794
1761916062911526100,5.159526123046875,-0.0010692591313272715,0.0013630058383569121,0.012240421026945114
1761916062921581300,5.169581298828125,-0.0032059133518487215,-0.0009707222343422472,0.010802047327160835
1761916062931635200,5.17963525390625,0.0019417107105255127,-0.0023318638559430838,0.012612464837729931
1761916062941690000,5.189690185546875,-0.0005749764968641102,-0.005317533854395151,0.010932276025414467
1761916062951744300,5.199744140625,0.0008412926108576357,-0.00007110639853635803,0.01116263959556818
1761916062961799200,5.209799072265625,0.0009648632840253413,-0.0014322480419650674,0.011562380008399487
1761916062971853300,5.219853271484375,-0.000031425301131093875,-0.0032376048620790243,0.01176504697650671
1761916062981908200,5.229908203125,0.0001781654718797654,0.001868207473307848,0.013739780522882938
1761916062991962000,5.239962158203125,-0.0006135923322290182,-0.0015283881220966578,0.010422280989587307
1761916063002017300,5.250017333984375,-0.0017326525412499905,0.005108209326863289,0.010432134382426739
1761916063012071400,5.260071533203125,-0.0015454323729500175,-0.0001233043585671112,0.013950170017778873
1761916063022126000,5.2701259765625,0.0016993631143122911,-0.002671949565410614,0.01233469694852829
1761916063032180200,5.28018017578125,-0.0005866943974979222,-0.0010756507981568575,0.011051585897803307
1761916063042235400,5.2902353515625,-0.0013853764394298196,0.00035499935620464385,0.009494435973465443
1761916063052289300,5.300289306640625,-0.003338538808748126,0.002359027974307537,0.01206784788519144
1761916063062343400,5.310343505859375,-0.0006103964988142252,-0.0014330470003187656,0.014346981421113014
1761916063072398000,5.320398193359375,-0.00022077605535741895,-0.004859736189246178,0.010379670187830925
1761916063082452200,5.3304521484375,-0.001336107961833477,0.0006820355774834752,0.010602843016386032
1761916063092504300,5.34050439453125,0.00037390782381407917,0.002951048780232668,0.009003615006804466
1761916063102559200,5.350559326171875,0.0007874967413954437,-0.0007214503129944205,0.012117116712033749
1761916063112613000,5.360613037109375,-0.001752093667164445,-0.0022272015921771526,0.013332583010196686
1761916063122668300,5.370668212890625,-0.0013997574569657445,0.0012311793398112059,0.011408182792365551
1761916063132722200,5.38072216796875,-0.0009598032338544726,0.008093879558146,0.010309629142284393
1761916063142777000,5.390777099609375,-0.0006058691651560366,0.0051742554642260075,0.009063802659511566
1761916063152831200,5.400831298828125,0.0006463492172770202,-0.000258859246969223,0.011656922288239002
1761916063162886100,5.41088623046875,-0.002947852946817875,-0.0004993426846340299,0.012385030277073383
1761916063172940300,5.420940185546875,-5.326322138898831e-7,-0.00009960222087102011,0.010566091164946556
1761916063182995200,5.4309951171875,-0.0023339942563325167,0.001404284848831594,0.010265952907502651
1761916063193049000,5.441049072265625,-0.0006540723843500018,0.0018956380663439631,0.010765562765300274
1761916063203104300,5.451104248046875,-0.0007574030314572155,-0.0035302862524986267,0.010566357523202896
1761916063213158400,5.461158447265625,-0.0012934972764924169,-0.000844754686113447,0.009908290579915047
1761916063223213300,5.47121337890625,0.0006018743733875453,0.005630188621580601,0.012055597268044949
1761916063233267200,5.48126708984375,-0.0016077503096312284,0.00375958438962698,0.010759969241917133
1761916063243322400,5.491322265625,-0.003323625074699521,-0.0038983351550996304,0.008327172137796879
1761916063253376300,5.501376220703125,0.00025486451340839267,-0.003905792022123933,0.010864099487662315
1761916063263431400,5.511431396484375,0.0003073287953156978,0.0008415589109063148,0.011476093903183937
1761916063273485000,5.521485107421875,-0.001270061475224793,0.0031649006996303797,0.012205800041556358
1761916063283540200,5.531540283203125,0.0008692557457834482,-0.0029313412960618734,0.007711182814091444
1761916063293594400,5.541594482421875,-0.0019949739798903465,-0.005514075048267841,0.012162390165030956
1761916063303649300,5.551649169921875,-0.0011326423846185207,-0.00044128578156232834,0.011982893571257591
1761916063313703400,5.561703369140625,-0.0008913599886000156,0.0035859462805092335,0.012939766980707645
1761916063323757000,5.571757080078125,-0.001820803270675242,-0.004485828336328268,0.0079748360440135
1761916063333812200,5.581812255859375,-0.0007725830073468387,-0.003739610780030489,0.010815097019076347
1761916063343866400,5.591866455078125,-0.0005550027708522975,-0.0020841897930949926,0.012988769449293613
1761916063353921300,5.60192138671875,-0.001136104459874332,0.0008394283941015601,0.010907774791121483
1761916063363975200,5.61197509765625,-0.00007936220208648592,0.0017483652336522937,0.010470484383404255
1761916063374030300,5.6220302734375,0.0010775149567052722,-0.002567820018157363,0.013111541047692299
1761916063384084200,5.632084228515625,0.0006620618514716625,-0.0016490293201059103,0.011918178759515285
1761916063394139400,5.642139404296875,-0.001651426195167005,0.0036485306918621063,0.012720322236418724
1761916063404193300,5.652193359375,0.0007872303831391037,0.004337756894528866,0.013078250922262669
1761916063414248200,5.662248291015625,0.0005968143814243376,0.00011451592581579462,0.011787150986492634
1761916063424302300,5.67230224609375,-0.002745985286310315,0.0004087952256668359,0.010632670484483242
1761916063434357200,5.682357177734375,-0.0002980077115353197,0.0005637911963276565,0.011766111478209496
1761916063444411400,5.692411376953125,-0.0012271846644580364,0.0015518239233642817,0.00863050576299429
1761916063454466300,5.70246630859375,0.00006524744821945205,0.0004897553008049726,0.012689696624875069
1761916063464520200,5.712520263671875,-0.001395230065099895,0.0025686188600957394,0.011200989596545696
1761916063474575400,5.722575439453125,0.0007664577569812536,-0.002998719457536936,0.011005779728293419
1761916063484629200,5.732629150390625,-0.0008317052270285785,-0.0005571332876570523,0.011140269227325916
1761916063494684200,5.74268408203125,-0.0008844357798807323,0.0031875374261289835,0.01031735260039568
1761916063504738000,5.752738037109375,-0.0015550197567790747,0.0013028184184804559,0.009427057579159737
1761916063514793200,5.762793212890625,-0.001395496423356235,-0.0025619608350098133,0.014223144389688969
1761916063524847000,5.77284716796875,-0.0015012238873168826,-0.0014586133183911443,0.012114985845983028
1761916063534902000,5.782902099609375,0.0006245112745091319,-0.002192846732214093,0.009606288745999336
1761916063544956200,5.7929560546875,-0.001588841900229454,-0.00043995422311127186,0.012761334888637066
1761916063555011000,5.803010986328125,0.0006759102689102292,-0.003900199430063367,0.013205017894506454
1761916063565065200,5.813065185546875,-0.0014090784825384617,0.0014117417158558965,0.011934956535696983
1761916063575120100,5.8231201171875,-0.00001704423084447626,-0.0017148094484582543,0.011055047623813152
1761916063585174000,5.833174072265625,0.00026312030968256295,0.0013371731620281935,0.01270034909248352
1761916063595229200,5.843229248046875,-0.00025246766745112836,-0.00012996226723771542,0.011141867376863956
1761916063605283000,5.853282958984375,-0.00242081331089139,-0.0031561122741550207,0.012145878747105598
1761916063615338000,5.863337890625,-0.0015896408585831523,0.00009720538218971342,0.010670221410691738
1761916063625392000,5.87339208984375,0.0003502056933939457,0.0017923073610290885,0.0117914117872715
1761916063635447000,5.883447021484375,-0.0022655511274933815,0.0016186692519113421,0.009406019002199173
1761916063645501200,5.893501220703125,0.0006197175825946033,0.003932157531380653,0.012219115160405636
1761916063655558100,5.90355810546875,-0.000026897927455138415,0.0004111920716241002,0.010628942400217056
1761916063665612300,5.9136123046875,-0.000428502622526139,-0.0022943131625652313,0.010883539915084839
1761916063675667000,5.9236669921875,0.0010303769959136844,0.0002884203568100929,0.0125818382948637
1761916063685721000,5.93372119140625,-0.00037151097785681486,-0.00003861583536490798,0.011867311783134937
1761916063695776300,5.9437763671875,-0.0033878071699291468,0.0012562130577862263,0.013082512654364109
1761916063705830100,5.953830078125,-0.0018796591321006417,0.0008580705034546554,0.013014068827033043
1761916063715885000,5.963885009765625,-0.00039015308720991015,-0.0024229439441114664,0.01187902968376875
1761916063725939000,5.97393896484375,-0.0019502328941598535,0.0021795309148728848,0.012139753438532352
1761916063735994000,5.983994140625,-0.0020453077740967274,-0.0035260252188891172,0.01047474518418312
1761916063746048300,5.99404833984375,-0.0011283813510090113,0.0022543659433722496,0.013048158027231693
1761916063756103000,6.00410302734375,-0.00025060345069505274,-0.0007363640470430255,0.014054566621780396
1761916063766157000,6.014156982421875,0.0004844290087930858,-0.002034122357144952,0.011079548858106136
1761916063776212200,6.024212158203125,-0.0011438276851549745,-0.0021824603900313377,0.008289887569844723
1761916063786266000,6.03426611328125,-0.0016879114555194974,-0.0006815029191784561,0.011987154372036457
1761916063796321300,6.0443212890625,-0.0025220136158168316,-0.0028533106669783592,0.008844624273478985
1761916063806375000,6.054375,0.0000774979853304103,-0.002180596347898245,0.010662764310836792
1761916063816430000,6.06443017578125,-0.002083390951156616,-0.0009057410643436015,0.011010573245584965
1761916063826484200,6.074484130859375,0.0011622034944593906,0.002204564632847905,0.01248276885598898
1761916063836539100,6.0845390625,-0.00012117382721044123,0.000020506340661086142,0.013013004325330257
1761916063846593000,6.094593017578125,-0.001139300293289125,-0.00439075380563736,0.011984224431216717
1761916063856648200,6.104648193359375,0.000535561703145504,-0.0011022823164239526,0.01323804073035717
1761916063866702000,6.1147021484375,-0.0013845774810761213,0.003397927153855562,0.010735468938946724
1761916063876757200,6.12475732421875,0.0016911072889342904,-0.0010788465151563287,0.01067821029573679
1761916063886811100,6.13481103515625,-0.003320695599541068,0.0011467571603134274,0.011511247605085373
1761916063896866000,6.144865966796875,0.00003408846168895252,-0.0022295983508229256,0.01037514302879572
1761916063906920200,6.154920166015625,-0.0019214707426726818,-0.0008831042214296758,0.011120028793811798
1761916063916975000,6.16497509765625,-0.0006450176006183028,0.002439721953123808,0.009591108188033104
1761916063927029200,6.175029296875,0.00017710021347738802,-0.0008522115531377494,0.010638795793056488
1761916063937084200,6.185084228515625,-0.00025220136740244925,0.00004314320904086344,0.010402573272585869
1761916063947138000,6.195137939453125,-0.0004495415778364986,0.0005547364708036184,0.012225506827235222
1761916063957193200,6.205193115234375,0.001327053178101778,0.0004713795206043869,0.012996491976082325
1761916063967247400,6.215247314453125,-0.0002817624481394887,0.00020532972121145576,0.012427907437086105
1761916063977302000,6.225302001953125,0.0003936151915695518,-0.0019236012594774365,0.011945609003305435
1761916063987356200,6.235356201171875,-0.0015156050212681293,-0.00012729909212794155,0.01209953986108303
1761916063997411000,6.2454111328125,-0.0008111988427117467,0.00011078749957960099,0.011920308694243431
1761916064007465200,6.25546533203125,-0.0020991035271435976,-0.00250523560680449,0.015895608812570572
1761916064017520000,6.26552001953125,-0.0010341054294258356,0.0025891251862049103,0.010580206289887428
1761916064027574000,6.275573974609375,-0.0005246427026577294,-0.002520415699109435,0.01092561800032854
1761916064037629200,6.285629150390625,-0.003210174385458231,-0.0010133327450603247,0.009546633809804916
1761916064047683300,6.295683349609375,-0.00033449303009547293,0.0009475527331233025,0.012941631488502026
1761916064057738000,6.305738037109375,-0.0005936186062172055,-0.0002519350382499397,0.013059343211352825
1761916064067792100,6.315792236328125,-0.0010812433902174234,-0.0003201119543518871,0.00996208656579256
1761916064077847300,6.325847412109375,-0.0013219931861385703,0.0015757924411445856,0.011080880649387836
1761916064087901200,6.335901123046875,-0.00016538229829166085,-0.002672215923666954,0.014366156421601772
1761916064097956000,6.3459560546875,-0.0011033476330339909,-0.0013512879377231002,0.01095624454319477
1761916064108011300,6.35601123046875,-0.001216798322275281,0.002130528911948204,0.013058810494840145
1761916064118065200,6.366065185546875,-0.0023760723415762186,-0.003043993143364787,0.01050537172704935
1761916064128120000,6.3761201171875,-0.001469798618927598,-0.005395564250648022,0.012329903431236744
1761916064138174000,6.386174072265625,0.0005363606614992023,-0.0033840788528323174,0.011710185557603836
1761916064148229000,6.39622900390625,-0.0007592672482132912,0.000264718197286129,0.010841729119420052
1761916064158283300,6.406283203125,-0.0016434367280453444,0.0007637945818714797,0.01031628716737032
1761916064168338200,6.416338134765625,0.0004386226355563849,-0.0003890878288075328,0.012150139547884464
1761916064178392000,6.42639208984375,-0.0010314423125237226,-0.0013435647124424577,0.012203136458992958
1761916064188447200,6.436447265625,-0.003288205014541745,-0.0012775183422490954,0.013236443512141705
1761916064198501000,6.446501220703125,0.000835966260638088,-0.0001001348573481664,0.011825233697891235
1761916064208556300,6.456556396484375,-0.0012551478575915098,0.0010317085543647408,0.011153851635754108
1761916064218610200,6.466610107421875,-0.0006807039608247578,0.0011241203173995018,0.012595686130225658
1761916064228665000,6.4766650390625,-0.0015773903578519821,0.0010847054654732347,0.011579690501093864
1761916064238719200,6.48671923828125,-0.0021015002857893705,0.0006255765329115093,0.012920059263706207
1761916064248774100,6.496774169921875,0.00033396040089428425,-0.000360059377271682,0.011068896390497684
1761916064258828300,6.506828369140625,0.0014389059506356716,-0.0012876383261755109,0.011375959031283855
1761916064268883200,6.51688330078125,-0.0016314524691551924,0.0024490428622812033,0.01197809912264347
1761916064278937000,6.52693701171875,0.0010157296201214194,-0.0005736448802053928,0.013403156772255898
1761916064288992300,6.5369921875,-0.0005022721597924829,0.0010402307379990816,0.01338984165340662
1761916064299046100,6.547046142578125,0.0010655306978151202,0.00015339808305725455,0.009850233793258667
1761916064309101000,6.55710107421875,-0.00024208133982028812,0.0039007319137454033,0.010351174511015415
1761916064319155200,6.5671552734375,-0.001814411603845656,0.001449025934562087,0.013010340742766857
1761916064329210000,6.577210205078125,-0.0004929511342197657,0.0001555285998620093,0.012181298807263374
1761916064339264300,6.58726416015625,0.0004713795206043869,0.00022317290131468326,0.013344567269086838
1761916064349319200,6.597319091796875,-0.00011265171633567661,0.0011805793037638068,0.012297146022319794
1761916064359373000,6.607373046875,-0.0006231797160580754,-0.0003355582884978503,0.009372995235025883
1761916064369428200,6.61742822265625,0.0008788431296125054,-0.002124669961631298,0.011419900692999363
1761916064379482000,6.627482177734375,-0.002356098499149084,-0.002257827902212739,0.013324594125151634
1761916064389537000,6.637537109375,-0.0031369375064969063,-0.0014839133946225047,0.008504272438585758
1761916064399591200,6.647591064453125,0.000788561999797821,0.0005944175645709038,0.0129938293248415
1761916064409646000,6.65764599609375,0.000026897927455138415,0.002573146251961589,0.009284844622015953
1761916064419700200,6.6677001953125,-0.0022309301421046257,0.0011472897604107857,0.01104679238051176
1761916064429755100,6.677755126953125,-0.0012926984345540404,-0.00570023013278842,0.011217767372727394
1761916064439809000,6.68780908203125,-0.0003968109958805144,-0.0002812298189383,0.011100854724645615
1761916064449864200,6.6978642578125,0.0007925567333586514,0.0002942793071269989,0.010301372967660427
1761916064459918000,6.70791796875,0.0027838023379445076,0.002114816103130579,0.013011938892304897
1761916064469973000,6.717972900390625,-0.0019467707024887204,0.001591505017131567,0.009644637815654278
1761916064480027100,6.728027099609375,-0.0013227921444922686,-0.001722532557323575,0.012686233967542648
1761916064490082000,6.73808203125,-0.0011856392957270145,-0.00019893812714144588,0.012340822257101536
1761916064500136400,6.748136474609375,-0.0004876247840002179,-0.0005137237603776157,0.011233479715883732
1761916064510191400,6.75819140625,0.0004034689045511186,0.00007723167072981596,0.013705425895750523
1761916064520246300,6.768246337890625,-0.0009835053933784366,0.0030162963084876537,0.013235378079116344
1761916064530300400,6.778300537109375,-0.0011949603212997317,0.0006892260862514377,0.010675547644495964
1761916064540355300,6.788355224609375,0.00038482676609419286,-0.004732969682663679,0.011607919819653034
1761916064550409200,6.7984091796875,0.0004290352517273277,-0.004244279582053423,0.010220146737992764
1761916064560464400,6.80846435546875,-0.0027057717088609934,0.001186970854178071,0.009984723292291164
1761916064570518500,6.8185185546875,-0.0014381069922819734,0.0037864823825657368,0.010161290876567364
1761916064580573400,6.828573486328125,-0.0006689860601909459,-0.0008623315370641649,0.010403105989098549
1761916064590627300,6.83862744140625,-0.001975266495719552,-0.004461327567696571,0.010151437483727932
1761916064600682500,6.8486826171875,-0.002379534300416708,-0.0009496832499280572,0.008864331990480423
1761916064610736400,6.858736328125,-0.0006876281695440412,0.0034823494497686625,0.009462477639317513
1761916064620791600,6.86879150390625,0.0005099953268654644,0.0009134642314165831,0.010277139022946358
1761916064630845200,6.87884521484375,0.0008503473363816738,-0.004247741773724556,0.01082654856145382
1761916064640900400,6.888900390625,-0.00007403588097076863,-0.006857106927782297,0.012265454977750778
1761916064650954500,6.89895458984375,-0.0001715075777610764,0.0012082761386409402,0.011138138361275196
1761916064661009400,6.909009521484375,-0.0024650217965245247,0.0005022721597924829,0.010625746101140976
1761916064671063300,6.919063232421875,-0.0016010924009606242,-0.0020000338554382324,0.012568788602948189
1761916064681118500,6.929118408203125,0.0004138552176300436,-0.0019302591681480408,0.012914999388158321
1761916064691172400,6.93917236328125,0.002418416552245617,-0.001350488979369402,0.010043579153716564
1761916064701227500,6.9492275390625,0.0002170476218452677,-0.0013486248208209872,0.011485680937767029
1761916064711281400,6.959281494140625,0.001076982356607914,0.001784850494004786,0.011259845457971096
1761916064721336300,6.96933642578125,-0.0015789881581440568,-0.00018109494703821838,0.014113422483205795
1761916064731390500,6.979390380859375,0.00008788431296125054,0.00012676646292675287,0.009587113745510578
1761916064741445400,6.9894453125,0.00006844323797849938,0.00023941817926242948,0.011287009343504906
1761916064751500300,6.999500244140625,-0.0021963089238852262,0.00009054747351910919,0.012984507717192173
1761916064761554400,7.009554443359375,-0.0005611280212178826,0.0010330402292311192,0.015015168115496635
1761916064771609300,7.019609375,0.0013193299528211355,0.000824248360004276,0.0113386744633317
1761916064781663500,7.02966357421875,0.0006404902087524533,0.0002681803307496011,0.012308597564697266
1761916064791718400,7.039718505859375,-0.001097755040973425,-0.001841575838625431,0.010309096425771713
1761916064801772300,7.049772216796875,-0.0002258360618725419,0.003665042342618108,0.013247895054519176
1761916064811827500,7.059827392578125,-0.0021526331547647715,0.0019797938875854015,0.012240953743457794
1761916064821881300,7.06988134765625,0.00034408041392453015,0.0003510046226438135,0.012800750322639942
1761916064831936300,7.079936279296875,0.0004703142330981791,0.0008950884221121669,0.01242151577025652
1761916064841990400,7.089990478515625,0.0004926847759634256,-0.001797101111151278,0.011484881862998009
1761916064852045300,7.10004541015625,-0.0022160164080560207,0.0004905542591586709,0.012200207449495792
1761916064862099500,7.110099365234375,-0.001019990653730929,-0.000027430558475316502,0.012820723466575146
1761916064872154400,7.120154296875,-0.0012402341235429049,0.0009510148083791137,0.009239837527275085
1761916064882208300,7.130208251953125,-0.004441353492438793,-0.0001704423048067838,0.01122069638222456
1761916064892263400,7.140263427734375,0.0003171824791934341,-0.0009161274065263569,0.010353305377066135
1761916064902317300,7.1503173828125,-0.001175252953544259,-0.002560629276558757,0.011446000076830387
1761916064912372200,7.160372314453125,-0.0006966829532757401,-0.0005877596559002995,0.012313923798501492
1761916064922426400,7.17042626953125,-0.0014689996605738997,0.0015033544041216373,0.01293151080608368
1761916064932481300,7.180481201171875,0.001166198286227882,-0.00002370213405811228,0.011272095143795013
1761916064942536400,7.190536376953125,-0.0010793792316690087,-0.000639424950350076,0.011113104410469532
1761916064952590600,7.200590576171875,0.0001930791768245399,0.00017097493400797248,0.013347763568162918
1761916064962645200,7.210645263671875,0.0003355582884978503,0.0006993460701778531,0.01233283244073391
1761916064972699400,7.220699462890625,-0.0016508935950696468,0.0007640608819201589,0.013227654621005058
1761916064982754600,7.230754638671875,-0.0017086841398850083,-0.0031643679831176996,0.01353684812784195
1761916064992808400,7.240808349609375,0.0007499461644329131,0.001609348226338625,0.010200705379247665
1761916065002863400,7.25086328125,-0.0020248014479875565,-0.00017310546536464244,0.010324542410671711
1761916065012917200,7.260917236328125,0.0003427488263696432,0.00267780851572752,0.009894176386296749
1761916065022972400,7.270972412109375,-0.0014799186028540134,0.00022130868455860764,0.010842793621122837
1761916065033026600,7.281026611328125,0.0004958806093782187,0.00025007082149386406,0.011387676931917667
1761916065043081200,7.291081298828125,0.0010812433902174234,0.002532133599743247,0.013029515743255615
1761916065053135400,7.30113525390625,0.00001651159800530877,-0.0013643373968079686,0.011838283389806747
1761916065063190500,7.3111904296875,0.00002210423735959921,0.0013635384384542704,0.011411645449697971
1761916065073244400,7.321244384765625,-0.0014474280178546906,0.0022501046769320965,0.01128194946795702
1761916065083299300,7.33129931640625,-0.0015140071045607328,0.0014005564153194427,0.012739230878651142
1761916065093353200,7.341353271484375,-0.0012900352012366056,-0.0012482235906645656,0.009492571465671062
1761916065103408400,7.351408447265625,-0.0010775149567052722,-0.00028575718170031905,0.013963486067950726
1761916065113463300,7.36146337890625,-0.00023382554354611784,-0.0025891251862049103,0.010017747059464455
1761916065123517200,7.37151708984375,-0.0016788567882031202,0.00253479671664536,0.01255067903548479
1761916065133572400,7.381572265625,0.0021670141723006964,-0.0025600967928767204,0.012006595730781555
1761916065143626500,7.39162646484375,0.0015667376574128866,-0.0012357067316770554,0.012944826856255531
1761916065153681200,7.40168115234375,-0.0014647386269643903,0.0009379653492942452,0.012317652814090252
1761916065163735300,7.4117353515625,0.0012500877492129803,0.00034434671397320926,0.011344267055392265
1761916065173790500,7.42179052734375,-0.002409361768513918,-0.00021065604232717305,0.013675598427653313
1761916065183844400,7.43184423828125,-0.0007605988066643476,-0.003180080559104681,0.009594038128852844
1761916065193899500,7.4418994140625,0.0009779128013178706,0.00014407701382879168,0.00878923013806343
1761916065203953200,7.451953125,-0.000441818410763517,-0.0007062703371047974,0.013918745331466198
1761916065214008300,7.46200830078125,0.00012889699428342283,-0.0005587312043644488,0.011183944530785084
1761916065224062500,7.4720625,-0.0002767024270724505,0.00011664645717246458,0.011186341755092144
1761916065234117400,7.482117431640625,0.000931041082367301,0.0006045375484973192,0.012092881835997105
1761916065244172300,7.49217236328125,0.0016961672808974981,-0.001976065570488572,0.010329336859285831
1761916065254226400,7.502226318359375,0.0002817624481394887,-0.0013203952694311738,0.015273228287696838
1761916065264281300,7.51228125,-0.0005701828049495816,0.0002300971100339666,0.012567989528179169
1761916065274335500,7.52233544921875,0.0011411645682528615,-0.0013941648649051785,0.011692875064909458
1761916065284390400,7.532390380859375,0.0006447513005696237,-0.0007981493836268783,0.011183944530785084
1761916065294444300,7.5424443359375,-0.001928128651343286,0.002855707658454776,0.012891563586890697
1761916065304499500,7.55249951171875,-0.0006146575906313956,0.0023060310631990433,0.014200241304934025
1761916065314553600,7.5625537109375,-0.0013760552974417806,0.0004463458026293665,0.013309679925441742
1761916065324608300,7.572608154296875,0.0003861583536490798,0.0004964132094755769,0.012106464244425297
1761916065334662400,7.582662353515625,0.0015704660909250379,0.0011547466274350882,0.012916331179440022
1761916065344717300,7.59271728515625,-0.0016879114555194974,-0.0015275891637429595,0.012767992913722992
1761916065354771500,7.602771484375,-0.0009147958480753005,-0.004215251188725233,0.012937902472913265
1761916065364826400,7.612826416015625,-0.0013757890556007624,-0.0011683288030326366,0.010510431602597237
1761916065374881300,7.62288134765625,0.0010626012226566672,0.0018945727497339249,0.012863866984844208
1761916065384935400,7.632935302734375,-0.0010394317796453834,0.002644785214215517,0.01317971758544445
1761916065394990300,7.642990234375,0.0013158678775653243,-0.0013736584223806858,0.012517389841377735
1761916065405044200,7.653044189453125,0.0007097324123606086,-0.0026202842127531767,0.012226305902004242
1761916065415099400,7.663099365234375,-0.0013345100451260805,0.0002109223569277674,0.01309023518115282
1761916065425153500,7.673153564453125,-0.00014540860138367862,-0.0009097357979044318,0.013803962618112564
1761916065435208400,7.68320849609375,0.002094842493534088,-0.002650377806276083,0.012237757444381714
1761916065445262300,7.693262451171875,-0.0019017633749172091,-0.0010993528412654996,0.011051585897803307
1761916065455317500,7.7033173828125,0.0005123922019265592,0.0024469124618917704,0.012492888607084751
1761916065465371400,7.713371337890625,-0.0023782027419656515,0.0022836606949567795,0.012205000966787338
1761916065475426600,7.723426513671875,0.00043036683928221464,-0.0012945625931024551,0.012205533683300018
1761916065485481500,7.7334814453125,-0.0018458369886502624,-0.001797101111151278,0.012328571639955044
1761916065495535400,7.743535400390625,-0.0017619474092498422,0.003974501509219408,0.010412161238491535
1761916065505590800,7.7535908203125,-0.001041295938193798,0.0023550332989543676,0.012996758334338665
1761916065515644700,7.763644775390625,-0.0012434299569576979,-0.0008889631717465818,0.010714163072407246
1761916065525699800,7.773699951171875,0.001642371411435306,-0.0010159959783777595,0.012253470718860626
1761916065535753700,7.783753662109375,-0.0005776396137662232,0.0005691175465472043,0.012018047273159027
1761916065545809000,7.793808837890625,-0.0007123955874703825,0.0016682040877640247,0.010803911834955215
1761916065555862800,7.80386279296875,-0.0000756337758502923,0.0010753844399005175,0.010310960933566093
1761916065565917700,7.813917724609375,-0.0005483448621816933,-0.0005107942852191627,0.011583153158426285
1761916065575971800,7.823971923828125,0.0012724583502858877,0.0007779093575663865,0.012528308667242527
1761916065586026800,7.83402685546875,-0.00018429075134918094,0.0014303837670013309,0.012656140141189098
1761916065596081700,7.84408154296875,0.0006269080913625658,0.0017805894603952765,0.01104599330574274
1761916065606135800,7.8541357421875,0.00045833003241568804,-0.0010540791554376483,0.011920042335987091
1761916065616190700,7.864190673828125,-0.00012250541476532817,-0.002808836055919528,0.012232431210577488
1761916065626244900,7.874244873046875,0.0005520732956938446,0.0012604740913957357,0.011093397624790668
1761916065636299800,7.8842998046875,-0.0037968687247484922,0.0007574030314572155,0.009315204806625843
1761916065646353700,7.894353759765625,0.0015568839153274894,-0.00037151097785681486,0.01127795409411192
1761916065656408800,7.904408935546875,-0.0013978932984173298,0.00020000340009573847,0.011749600060284138
1761916065666462700,7.914462646484375,-0.003234142903238535,0.000713993504177779,0.010565558448433876
1761916065676517600,7.924517578125,0.0013978932984173298,-0.000025300030756625347,0.010274475440382957
1761916065686571800,7.93457177734375,-0.00455613574013114,-0.0013022858183830976,0.009830259718000889
1761916065696626700,7.944626708984375,-0.001284708851017058,-0.0023369237314909697,0.01203881949186325
1761916065706681900,7.954681884765625,-0.001362473238259554,-0.00126766471657902,0.01116130780428648
1761916065716735700,7.96473583984375,-0.0007917577750049531,-0.0009201221400871873,0.013311011716723442
1761916065726790700,7.974790771484375,-0.0014234596164897084,0.0016045545926317573,0.014988803304731846
1761916065736844800,7.9848447265625,0.0004242415598127991,0.00236302288249135,0.011580755934119225
1761916065746900000,7.99489990234375,0.000770452490542084,-0.0012487561907619238,0.013207148760557175
1761916065756953600,8.00495361328125,0.0007446198142133653,-0.0010468886466696858,0.009521599858999252
1761916065767008800,8.0150087890625,0.0007286408799700439,-0.0012013519881293178,0.010291519574820995
1761916065777062700,8.025062744140625,0.0038181741256266832,0.0027196200098842382,0.012501144781708717
1761916065787117800,8.035117919921875,0.0008839031797833741,-0.001255414099432528,0.011598599143326283
1761916065797172700,8.0451728515625,-0.0007102650706656277,-0.003853061469271779,0.009692042134702206
1761916065807226600,8.0552265625,0.0014687333023175597,0.0002620550512801856,0.012237491086125374
1761916065817281800,8.06528173828125,-0.0016261261189356446,0.001023452845402062,0.012537096627056599
1761916065827336000,8.0753359375,0.000035952674807049334,0.0007510114228352904,0.012287558987736702
1761916065837390600,8.085390625,0.00021172130072955042,-0.0025712819769978523,0.01203961856663227
1761916065847444700,8.09544482421875,-0.0022029669489711523,-0.004569718148559332,0.012465724721550941
1761916065857500000,8.1055,0.00014674017438665032,0.0015811186749488115,0.012112855911254883
1761916065867553800,8.1155537109375,-0.0004069310089107603,0.002013616031035781,0.012485697865486145
1761916065877608700,8.125608642578126,-0.0006649913266301155,0.002555036684498191,0.012518987990915775
1761916065887663900,8.135663818359374,-0.0020985708106309175,0.00021758026559837162,0.012463061138987541
1761916065897717800,8.1457177734375,-0.00023462448734790087,0.0005422196118161082,0.011198326013982296
1761916065907772700,8.155772705078125,0.0006735134520567954,0.0006617955514229834,0.010910704731941223
1761916065917826600,8.16582666015625,-0.0003760383406188339,-0.00021917815320193768,0.011759720742702484
1761916065927881700,8.1758818359375,0.00063383235828951,-0.001115864492021501,0.011628959327936172
1761916065937936000,8.185935791015625,-0.001246625673957169,0.0011049455497413874,0.010823619551956654
1761916065947990500,8.195990478515625,-0.0004063983797095716,-0.00016405072528868914,0.011636681854724884
1761916065958044700,8.206044677734376,-0.0015765913994982839,-0.0001901497016660869,0.010722152888774872
1761916065968099800,8.216099853515624,-0.0012415656819939613,-0.0002956108655780554,0.012162123806774616
1761916065978153700,8.22615380859375,0.0007163903210312128,-0.0014444985426962376,0.011867578141391277
1761916065988209000,8.236208984375,0.0008950884221121669,0.00247594085521996,0.010980213060975075
1761916065998263800,8.246263916015625,-0.0006615291931666434,0.0012769857421517372,0.012624182738363743
1761916066008317700,8.256317626953125,-0.00018269284919369966,-0.001356347929686308,0.013624466024339199
1761916066018372900,8.266372802734375,0.000603738590143621,0.002046106616035104,0.012533901259303093
1761916066028426800,8.2764267578125,0.00025486451340839267,-0.0009289105655625463,0.011329353787004948
1761916066038481700,8.286481689453124,0.0013614079216495156,0.0008439557277597487,0.01067741122096777
1761916066048535800,8.296535888671874,-0.0021196098532527685,-0.0010924286907538772,0.008970857597887516
1761916066058590700,8.3065908203125,0.000368847802747041,-0.002368881832808256,0.014177604578435421
1761916066068645600,8.316645751953125,-0.0024407871533185244,0.001588575541973114,0.01133654359728098
1761916066078699800,8.32669970703125,-0.0014788532862439752,-0.0023702133912593126,0.010627876967191696
1761916066088754700,8.336754638671875,0.00029294771957211196,0.0002884203568100929,0.012255867011845112
1761916066098808800,8.346808837890626,-0.001967543503269553,-0.0024919197894632816,0.013560815714299679
1761916066108863700,8.35686376953125,-0.0015182681381702423,-0.0009739180095493793,0.011767176911234856
1761916066118917600,8.366917724609374,0.0003534014686010778,-0.0005249090609140694,0.01121883187443018
1761916066128972800,8.376972900390625,-0.0000021305288555595325,0.0019891150295734406,0.009222527034580708
1761916066139026700,8.387026611328125,-0.0011821772204712033,-0.0019475696608424187,0.011711517348885536
1761916066149081600,8.39708154296875,0.0004117247008252889,0.0009297095239162445,0.013544837012887001
1761916066159136800,8.40713671875,-0.0017933726776391268,0.0007366303470917046,0.011830028146505356
1761916066169190700,8.417190673828125,-0.0008391620358452201,0.002558498876169324,0.011577825993299484
1761916066179245800,8.427245849609376,-0.00032676986302249134,0.0013795174891129136,0.012034558691084385
1761916066189299700,8.4372998046875,-0.0016849819803610444,0.0005462143453769386,0.014465492218732834
1761916066199354600,8.447354736328125,-0.002269545802846551,-0.00013129384024068713,0.011864382773637772
1761916066209408800,8.45740869140625,0.0010524812387302518,-0.0006016080733388662,0.012288624420762062
1761916066219464000,8.4674638671875,-0.0013424995122477412,-0.0003962783666793257,0.013171462342143059
1761916066229518600,8.4775185546875,0.002098304685205221,-0.00019094864546786994,0.00857484620064497
1761916066239572700,8.48757275390625,0.00008388957212446257,-0.0021164140198379755,0.013365074060857296
1761916066249628000,8.4976279296875,-0.0008106662426143885,0.0003888215287588537,0.010936005041003227
1761916066259681800,8.507681884765624,-0.0005275722360238433,-0.0003818972909357399,0.014336861670017242
1761916066269736700,8.51773681640625,-0.00119629199616611,-0.002525741932913661,0.013037238270044327
1761916066279790600,8.52779052734375,0.0011864382540807128,0.00009507485083304346,0.011088337749242783
1761916066289845800,8.537845703125,-0.00016937704640440643,0.00250496924854815,0.01167556457221508
1761916066299900000,8.54789990234375,-0.00030413299100473523,0.000014913702216290403,0.010715228505432606
1761916066309954600,8.55795458984375,0.0011387676931917667,0.0012684636749327183,0.012834838591516018
1761916066320009700,8.568009765625,0.0005520732956938446,0.002231196267530322,0.013758955523371696
1761916066330064000,8.57806396484375,-0.0013076120521873236,0.0014977618120610714,0.012558136135339737
1761916066340118500,8.588118408203124,-0.00043835630640387535,0.0010721886064857244,0.01264149323105812
1761916066350172700,8.598172607421875,-0.0014053500490263104,0.0014498248929157853,0.010742925107479095
1761916066360227800,8.608227783203125,0.00098190747667104,-0.0011044129496440291,0.011726164259016514
1761916066370281700,8.61828173828125,-0.0010607370641082525,-0.001219727797433734,0.014329937286674976
1761916066380336600,8.628336669921875,-0.0013547500129789114,-0.0010468886466696858,0.010586597956717014
1761916066390391800,8.638391845703126,0.0013968279818072915,0.0006601976347155869,0.012339756824076176
1761916066400445700,8.64844580078125,-0.0002868224401026964,0.00000852211542223813,0.008123972453176975
1761916066410500900,8.6585009765625,-0.0012032161466777325,-0.00044474788592197,0.010260893031954765
1761916066420554800,8.6685546875,-0.0015568839153274894,-0.0000828243064461276,0.011322962120175362
1761916066430609700,8.678609619140625,-0.0006769755273126066,0.0019976370967924595,0.011031878180801868
1761916066440663800,8.688663818359375,0.00008309062832267955,-0.00008016114588826895,0.01369104441255331
1761916066450718700,8.69871875,-0.0010751180816441774,0.001490571303293109,0.011891813017427921
1761916066460773600,8.708773681640626,-0.000254331884207204,0.00018748654110822827,0.013847638852894306
1761916066470827800,8.718827880859376,-0.0015401060227304697,-0.0015108112711459398,0.011100588366389275
1761916066480882700,8.728882568359374,-0.0021401161793619394,-0.0005560680292546749,0.011211642064154148
1761916066490936800,8.738936767578124,-0.000693220819812268,0.0016261261189356446,0.007465106900781393
1761916066500991700,8.74899169921875,-0.003469033632427454,-0.003154514357447624,0.011174091137945652
1761916066511045600,8.759045654296875,-0.0031558459158986807,0.001748897833749652,0.010338923893868923
1761916066521100800,8.769100830078125,-0.0007036071619950235,0.0007781756576150656,0.01209607720375061
1761916066531155700,8.77915576171875,0.00047377636656165123,-0.000505734293255955,0.012235627509653568
1761916066541209600,8.789209716796876,0.0006522081675939262,0.0003110571997240186,0.010751181282103062
1761916066551264800,8.7992646484375,0.000215716048842296,0.001279116258956492,0.012113654054701328
1761916066561319000,8.80931884765625,-0.0009084042394533753,-0.001151018193922937,0.011775965802371502
1761916066571373800,8.819373779296875,-0.002127599436789751,-0.005300755612552166,0.014311561360955238
1761916066581427700,8.829427734375,-0.0009808422764763236,-0.0003680488734971732,0.00977619830518961
1761916066591482600,8.839482666015625,0.00023382554354611784,0.00011078749957960099,0.01161644235253334
1761916066601537800,8.849537841796876,-0.0017243968322873116,-0.0008111988427117467,0.012551744468510151
1761916066611592000,8.859592041015626,-0.0009379653492942452,-0.001127316034398973,0.011756258085370064
1761916066621646600,8.869646484375,-0.0022024342324584723,-0.00006764429417671636,0.007785218767821789
1761916066631700700,8.87970068359375,-0.0007097324123606086,-0.00013395700079854578,0.01137010008096695
1761916066641756000,8.889755859375,-0.0012807141756638885,0.0021723404061049223,0.013846839778125286
1761916066651809800,8.899809814453125,-0.003192331176251173,0.0017568873008713126,0.010446249507367611
1761916066661864700,8.90986474609375,0.001758218975737691,-0.00003914846820407547,0.01290487963706255
1761916066671919900,8.919919921875,0.0021552962716668844,0.002014148747548461,0.011426825076341629
1761916066681973800,8.929973876953126,-0.0011800467036664486,-0.0005752427969127893,0.011411645449697971
1761916066692028700,8.940028564453126,-0.001318264752626419,-0.0013608753215521574,0.010012154467403889
1761916066702082800,8.950082763671874,0.0011054781498387456,0.002127865795046091,0.01107661984860897
1761916066712137700,8.9601376953125,-0.0017590179340913892,0.0011592740193009377,0.011830560863018036
1761916066722192600,8.970192626953125,-0.0002426139690214768,-0.0017901768442243338,0.01022840291261673
1761916066732246500,8.98024658203125,0.00148151651956141,-0.003233343828469515,0.011998605914413929
1761916066742301700,8.9903017578125,0.0007283745799213648,-0.0006892260862514377,0.0125203188508749
1761916066752355800,9.00035595703125,0.000365918327588588,0.0007877630414441228,0.012172776274383068
1761916066762410800,9.01041064453125,-0.0022564963437616825,0.0008431567694060504,0.010300840251147747
1761916066772464600,9.020464599609374,0.0015403723809868097,0.0031590417493134737,0.014097709208726883
1761916066782519800,9.030519775390625,0.00027297402266412973,-0.0000399474156438373,0.01068167295306921
1761916066792574700,9.04057470703125,-0.0025952504947781563,0.004025634378194809,0.01224627997726202
1761916066802628900,9.05062890625,0.0026815368328243494,-0.00019228023302275687,0.013452691957354546
1761916066812683800,9.060683837890625,0.0003246393462177366,0.0004628573951777071,0.012238822877407074
1761916066822737700,9.070737548828125,0.0009438242996111512,-0.0018391790799796581,0.010070211254060268
1761916066832792800,9.080792724609376,0.0010913633741438389,-0.002688993699848652,0.011955196037888527
1761916066842847000,9.090846923828124,0.00029827404068782926,-0.0005067995516583323,0.013214338570833206
1761916066852901600,9.100901611328124,0.0020391824655234814,0.000004793690095539205,0.013646570034325123
1761916066862956800,9.110956787109375,-0.001193362521007657,0.0026612968649715185,0.013126187957823277
1761916066873011000,9.121010986328125,0.000011451592399680521,-0.0007984156836755574,0.010775416158139706
1761916066883065600,9.131065673828125,0.0016849819803610444,-0.0010388991795480251,0.011128551326692104
1761916066893119700,9.14111962890625,0.0012101404136046767,0.003177683800458908,0.009530387818813324
1761916066903174700,9.151174560546876,0.0017496967921033502,0.00009267800487577915,0.012372779659926891
1761916066913229800,9.161229736328124,0.001148088718764484,-0.0009209210984408855,0.010332265868782997
1761916066923283700,9.17128369140625,0.0006538060260936618,-0.002299373270943761,0.01119220070540905
1761916066933338600,9.181338623046875,0.0017094830982387066,0.0007574030314572155,0.01161724142730236
1761916066943392800,9.191392822265625,0.0003400856803636998,0.0030511836521327496,0.013172526843845844
1761916066953448000,9.201447998046875,-0.0010229201288893819,-0.0013544837711378932,0.010675014927983284
1761916066963501600,9.21150146484375,0.0015986956423148513,0.0011358382180333138,0.010202037170529366
1761916066973556700,9.221556640625,0.00004740426811622456,0.0014612764352932572,0.013018330559134483
1761916066983612000,9.23161181640625,-0.001806155894882977,-0.0014817827614024282,0.011579157784581184
1761916066993665800,9.241665771484374,0.0015246596885845065,-0.0007693872321397066,0.012207397259771824
1761916067003720700,9.251720703125,0.0006793724023737013,0.0004183826094958931,0.009338640607893467
1761916067013774800,9.26177490234375,-0.001621332485228777,-0.0011310444679111242,0.009316003881394863
1761916067023829800,9.271829833984375,0.0008631304954178631,0.0024343954864889383,0.011380752548575401
1761916067033884700,9.281884765625,-0.0013680658303201199,0.0014474280178546906,0.012162922881543636
1761916067043938800,9.291938720703126,0.0000031957933970261365,0.001234641415067017,0.013287309557199478
1761916067053993700,9.30199365234375,-0.0020820593927055597,-0.0015361113473773003,0.010277139022946358
1761916067064047900,9.3120478515625,-0.0007635282818228006,0.000035420041967881843,0.011088870465755463
1761916067074102500,9.3221025390625,0.0016429040115326643,0.0004972121678292751,0.010422280989587307
1761916067084157700,9.33215771484375,-0.0007984156836755574,-0.00012676646292675287,0.012143747881054878
1761916067094209800,9.342209716796875,-0.0012780509423464537,0.00033342777169309556,0.010456635616719723
1761916067104263700,9.352263671875,-0.00007962851668708026,-0.0005113269435241818,0.010248109698295593
1761916067114318800,9.36231884765625,0.0005486111622303724,0.001455151243135333,0.010008958168327808
1761916067124372700,9.372372802734375,-0.001088700257241726,0.001421861699782312,0.0117352195084095
1761916067134428000,9.382427978515626,0.001142229768447578,-0.0013424995122477412,0.0102553004398942
1761916067144482800,9.39248291015625,0.0016040218761190772,-0.0010410296963527799,0.01329902745783329
1761916067154536700,9.40253662109375,-0.0006793724023737013,0.0023278691805899143,0.010457967408001423
1761916067164591900,9.412591796875,-0.0016205335268750787,-0.0008226504432968795,0.011034808121621609
1761916067174645800,9.422645751953125,-0.001207477180287242,0.00013688647595699877,0.013304886408150196
1761916067184700700,9.43270068359375,0.0017116136150434613,0.0035867453552782536,0.013288641348481178
1761916067194755800,9.442755859375,-0.00020905814017169178,0.0014796522445976734,0.012033226899802685
1761916067204809700,9.452809814453126,-0.001437041675671935,0.0004082625964656472,0.012633769772946835
1761916067214864600,9.46286474609375,-0.0032927324064075947,0.0010631339391693473,0.01079805288463831
1761916067224918800,9.472918701171874,-0.0021760689560323954,0.0000673779723001644,0.011568238958716393
1761916067234973700,9.4829736328125,0.0005190501105971634,-0.00043649208964779973,0.010268083773553371
1761916067245027800,9.49302783203125,0.0017161410069093108,-0.0002407497668173164,0.011900069192051888
1761916067255082800,9.503082763671875,-0.0006109291571192443,0.00047111319145187736,0.01230620127171278
1761916067265137700,9.5131376953125,0.0004122573300264776,0.0016841830220073462,0.010879279114305973
1761916067275191800,9.52319189453125,0.00005299690383253619,-0.0005494101205840707,0.010730674490332603
1761916067285247000,9.5332470703125,-0.000018908443962573074,0.0002695118892006576,0.01267132069915533
1761916067295300600,9.543300537109374,-0.0017094830982387066,-0.00018429075134918094,0.014026869088411331
1761916067305355800,9.553355712890625,-0.00004420847471919842,-0.0021971079986542463,0.011805793270468712
1761916067315411000,9.563410888671875,-0.002773682354018092,-0.002430667169392109,0.010298710316419601
1761916067325464800,9.57346484375,-0.0006860303110443056,0.0015046859625726938,0.011138138361275196
1761916067335519700,9.583519775390625,-0.004211789462715387,-0.0014562164433300495,0.011011905036866665
1761916067345573600,9.59357373046875,-0.003471963107585907,-0.0013640711549669504,0.013480921275913715
1761916067355628800,9.60362890625,-0.0009515474666841328,0.0026288062799721956,0.014050837606191635
1761916067365683700,9.61368359375,0.000480434246128425,-0.0004695153038483113,0.011065434664487839
1761916067375737600,9.623737548828124,0.0013116068439558148,0.0018580874893814325,0.01215466670691967
1761916067385792800,9.633792724609375,-0.0005225121858529747,0.0020242687314748764,0.01025556679815054
1761916067395847000,9.643846923828125,-0.0018498316640034318,0.0006929545197635889,0.009918410331010818
1761916067405901600,9.653901611328125,-0.0008639294537715614,-0.0007632619817741215,0.01329822838306427
1761916067415956700,9.663956787109376,0.0025995115283876657,-0.0015536881983280182,0.012252405285835266
1761916067426011000,9.674010986328126,-0.0010130665032193065,0.00025007082149386406,0.011684352532029152
1761916067436065800,9.684065673828124,-0.0008415589109063148,-0.0008239820599555969,0.013678793795406818
1761916067446119700,9.69411962890625,-0.0015448997728526592,0.0014990933705121279,0.011507252231240273
1761916067456174800,9.7041748046875,0.0008578042034059763,0.00187992537394166,0.010349310003221035
1761916067466229800,9.714229736328125,-0.0009805759182199836,-0.0011859056539833546,0.01245081052184105
1761916067476284000,9.724283935546875,0.0017651431262493134,-0.00004873584839515388,0.013129384256899357
1761916067486338800,9.7343388671875,-0.0005731122801080346,-0.00039521310827694833,0.011996208690106869
1761916067496392700,9.744392822265626,-0.0009227853151969612,-0.0032264196779578924,0.011245463974773884
1761916067506446600,9.754446533203126,0.0017041567480191588,0.0001382180635118857,0.012531504034996033
1761916067516501800,9.764501708984374,-0.002441852353513241,0.000907338981050998,0.011729626916348934
1761916067526555600,9.7745556640625,0.0008799084462225437,-0.001838912721723318,0.014304104261100292
1761916067536610600,9.784610595703125,0.000681236619129777,-0.0008202536264434457,0.011093930341303349
1761916067546664700,9.794664794921875,-0.0006045375484973192,0.0019502328941598535,0.013394901528954506
1761916067556719600,9.8047197265625,-0.0014061490073800087,-0.0014237258583307266,0.0104752779006958
1761916067566774500,9.8147744140625,-0.0032980586402118206,-0.0024738102219998837,0.011427091434597969
1761916067576828700,9.82482861328125,0.00007323692989302799,-0.0013949638232588768,0.010323477908968925
1761916067586883600,9.834883544921874,-0.001907355966977775,0.004670917987823486,0.010509898886084557
1761916067596937700,9.844937744140625,-0.0007731156656518579,-0.0009981527691707015,0.012721654027700424
1761916067606992600,9.85499267578125,-0.0005933523061685264,-0.0008199872681871057,0.009881393052637577
1761916067617047600,9.865047607421875,-0.0006412891671061516,-0.0005893575726076961,0.011573565192520618
1761916067627101700,9.875101806640625,-0.002225603675469756,0.00026498452643863857,0.009965282864868641
1761916067637156600,9.885156494140626,0.0008327704854309559,-0.002335592173039913,0.009457417763769627
1761916067647212800,9.895212890625,-0.0032921996898949146,-0.000003462109361862531,0.011003915220499039
1761916067657267500,9.905267333984375,-0.00041811628034338355,-0.0009326389990746975,0.01004917174577713
1761916067667321600,9.915321533203125,-0.00025779398856684566,-0.0025302693247795105,0.013074522837996483
1761916067677376800,9.925376708984375,-0.001987250754609704,0.005338572897017002,0.012435364536941051
1761916067687430700,9.9354306640625,-0.001496430253610015,0.00803422462195158,0.013669473119080067
1761916067697485600,9.945485595703126,-0.0018881811993196607,0.001344896387308836,0.01266705896705389
1761916067707540700,9.955540771484374,-0.0017323862994089723,0.0048948898911476135,0.014988536946475506
1761916067717594600,9.9655947265625,-0.0011651329696178436,0.00809281412512064,0.014081730507314205
1761916067727649800,9.97564990234375,0.0005201153689995408,0.007664577569812536,0.011504855938255787
1761916067737703700,9.98570361328125,-0.0003374225052539259,-0.0023872575256973505,0.010850517079234123
1761916067747758600,9.995758544921875,-0.0023699470330029726,-0.011211642064154148,0.009494169615209103
1761916067757813800,10.005813720703125,-0.0024080302100628614,-0.009059807285666466,0.011540808714926243
1761916067767867600,10.01586767578125,0.0008074704091995955,-0.002341451123356819,0.013260943815112114
1761916067777922600,10.025922607421874,-0.0004034689045511186,0.003376355627551675,0.010778611525893211
1761916067787977700,10.035977783203125,-0.0019542276859283447,0.0014359764754772186,0.011145595461130142
1761916067798031600,10.046031494140625,0.0013651363551616669,-0.0021670141723006964,0.00945155881345272
1761916067808086500,10.05608642578125,-0.0011651329696178436,-0.004189951345324516,0.01047367975115776
1761916067818140700,10.066140625,0.0003009371866937727,0.0011765845119953156,0.009267267771065235
1761916067828195600,10.076195556640625,-0.0010516822803765535,0.0010096043115481734,0.009812151081860065
1761916067838250800,10.086250732421876,-0.001121989800594747,-0.006989200133830309,0.010575412772595882
1761916067848304600,10.0963046875,-0.002704173792153597,-0.01456083357334137,0.00803289283066988
1761916067858359600,10.106359619140624,0.0005400890368036926,0.0006852313526906073,0.012691293843090534
1761916067868413700,10.11641357421875,-0.0002948119363281876,0.013375726528465748,0.01455683819949627
1761916067878468600,10.126468505859375,-0.0014863101532682776,0.004150536376982927,0.012152803130447865
1761916067888523500,10.1365234375,-0.000594950164668262,-0.009167399257421494,0.009497098624706268
1761916067898577700,10.14657763671875,-0.001064731739461422,-0.007430485915392637,0.011236408725380898
1761916067908632600,10.156632568359376,-0.0003842941368930042,0.0065529742278158665,0.013763482682406902
1761916067918686700,10.166686767578126,-0.003224821761250496,0.010395648889243603,0.014858308248221874
1761916067928741600,10.17674169921875,0.00033582461765035987,-0.002846919232979417,0.010223875753581524
1761916067938796500,10.186796630859375,-0.002246376359835267,-0.008627310395240784,0.009789247065782547
1761916067948850700,10.1968505859375,0.00038482676609419286,-0.0033894050866365433,0.012118448503315449
1761916067958905600,10.206905517578125,-0.0013528858544304967,0.0054581486620008945,0.011858790181577206
1761916067968959500,10.21695947265625,-0.001939846551977098,0.0025539714843034744,0.010684601962566376
1761916067979014700,10.2270146484375,0.0011022823164239526,-0.005872003734111786,0.01173282228410244
1761916067989069800,10.23706982421875,-0.0022927154786884785,-0.004290352575480938,0.01145878341048956
1761916067999123500,10.24712353515625,-0.002302569104358554,0.0018333201296627522,0.012326174415647984
1761916068009178600,10.2571787109375,-0.0002205097407568246,0.005343366414308548,0.011599930934607983
1761916068019233800,10.26723388671875,-0.00038988678716123104,-0.001398159540258348,0.012587430886924267
1761916068029287700,10.27728759765625,-0.0017235978739336133,-0.005409678909927607,0.008471781387925148
1761916068039342600,10.287342529296875,0.0023819312918931246,-0.0010961571242660284,0.010333864018321037
1761916068049396500,10.297396484375,-0.00046631949953734875,0.007820905186235905,0.01034531556069851
1761916068059451600,10.30745166015625,-0.0007358313887380064,-0.00037950044497847557,0.013770140707492828
1761916068069506600,10.317506591796874,-0.0007779093575663865,-0.005547896958887577,0.01206917967647314
1761916068079560400,10.327560546875,-0.0008727178792469203,0.0022804648615419865,0.011701131239533424
1761916068089615600,10.33761572265625,-0.002299639629200101,0.0023257385473698378,0.011452391743659973
1761916068099669800,10.347669677734375,-0.00219524372369051,0.003991545643657446,0.010847321711480618
1761916068109724400,10.357724365234375,0.00040320257539860904,-0.0024719461798667908,0.013020993210375309
1761916068119779600,10.367779541015626,0.00020746025256812572,-0.0007355650886893272,0.012515525333583355
1761916068129833700,10.377833740234376,0.0012945625931024551,-0.002367816399782896,0.011166634038090706
1761916068139888600,10.387888671875,-0.0006846986943855882,0.0026759442407637835,0.010657171718776226
1761916068149942500,10.397942626953125,-0.0004261057765688747,-0.0017728663515299559,0.01124919205904007
1761916068159997700,10.407997802734375,0.0009502158500254154,-0.0031289479229599237,0.01209554448723793
1761916068170052600,10.418052490234375,0.0008535431115888059,-0.0024466461036354303,0.00983398873358965
1761916068180106800,10.428106689453125,0.0016045545926317573,0.0026077672373503447,0.010723751038312912
1761916068190161700,10.43816162109375,-0.001573928166180849,-0.0006823018775321543,0.01224494818598032
1761916068200216600,10.448216552734374,0.0017275925492867827,-0.003540672594681382,0.011027351021766663
1761916068210270700,10.458270751953124,-0.0012538161827251315,-0.003296727081760764,0.010810303501784801
1761916068220325600,10.46832568359375,-0.000437291048001498,-0.000355532014509663,0.012522982433438301
1761916068230379500,10.478379638671875,-0.002401106059551239,0.07091518491506577,0.06369882076978683
1761916068240434700,10.4884345703125,-0.0016074840677902102,0.22354227304458618,0.12385004013776779
1761916068250489600,10.498489501953125,-0.00013928332191426307,0.30555832386016846,0.11018668860197067
1761916068260543500,10.50854345703125,-0.00004713794987765141,0.2457495778799057,0.07155834138393402
1761916068270598700,10.5185986328125,-0.000666589243337512,0.11201708018779755,0.037343110889196396
1761916068280652500,10.528652587890624,-0.00007536746124969795,-0.011913384310901165,0.005557484459131956
1761916068290707700,10.538707763671875,0.0000798948312876746,-0.09230516105890274,-0.0172056183218956
1761916068300762600,10.5487626953125,0.00037230990710668266,-0.12147583067417145,-0.033732131123542786
1761916068310816500,10.55881640625,-0.001344896387308836,-0.15263214707374573,-0.052810218185186386
1761916068320871700,10.56887158203125,0.0034000577870756388,-0.20777183771133423,-0.06333183497190475
1761916068330926600,10.578926513671876,-0.0029049760196357965,-0.21257911622524261,-0.05939728021621704
1761916068340980500,10.58898046875,-0.0008945558220148087,-0.13380439579486847,-0.037332192063331604
1761916068351035600,10.59903564453125,-0.004071973264217377,0.012584234587848186,0.014103301800787449
1761916068361089800,10.60908984375,-0.0023529028985649347,0.10115564614534378,0.05656607449054718
