time,seconds_elapsed,z,y,x
1761916057850402300,0.09840234375,0.0014808869455009699,-0.01119920052587986,-0.005086694378405809
1761916057860457500,0.10845751953125,0.0007458545151166618,0.018333125859498978,-0.0010738428682088852
1761916057870511400,0.118511474609375,-0.0010321139125153422,0.014205539599061012,-0.001186375506222248
1761916057880565500,0.1285654296875,-0.00016818451695144176,-0.013756586238741875,-0.008185163140296936
1761916057890620400,0.138620361328125,0.001221408136188984,-0.022810330614447594,-0.006431708578020334
1761916057900674300,0.14867431640625,0.0011702755000442266,0.005517979152500629,0.0005255332216620445
1761916057910728400,0.158728515625,-0.0013396644499152899,0.01963365636765957,0.00429251603782177
1761916057920782300,0.1687822265625,-0.0009263419196940958,0.0033316481858491898,-0.0003240732476115227
1761916057930837500,0.17883740234375,-0.0002497667446732521,-0.018099794164299965,-0.0015863236039876938
1761916057940891400,0.188891357421875,-0.0015491230878978968,-0.011869062669575214,-0.0030095167458057404
1761916057950945300,0.1989453125,0.001862143399193883,0.008603139780461788,0.0016012443229556084
1761916057961000400,0.20900048828125,0.00013242027489468455,0.009863081388175488,0.0006161415949463844
1761916057971054300,0.219054443359375,0.002310174284502864,-0.008083943277597427,-0.004621914122253656
1761916057981108500,0.2291083984375,-0.0006238301866687834,-0.010708223097026348,-0.0034999242052435875
1761916057991163400,0.239163330078125,0.0022134119644761086,0.007731644902378321,-0.0020103584975004196
1761916058001217300,0.24921728515625,0.002060280181467533,0.010652599856257439,0.0013140654191374779
1761916058011271400,0.259271484375,-0.0006367263849824667,0.0015831392956897616,-0.0009443797171115875
1761916058021326300,0.269326416015625,0.0008983197039924562,-0.007914758287370205,-0.0014642290771007538
1761916058031380500,0.27938037109375,-0.001208365079946816,-0.0022384359035640955,-0.0018866350874304771
1761916058041434400,0.289434326171875,-0.0002123428275808692,0.008632054552435875,0.00033497437834739685
1761916058051488500,0.299488525390625,0.002770259277895093,0.0036705757956951857,0.0013794619590044022
1761916058061543400,0.30954345703125,0.0013894103467464447,-0.002901040483266115,0.0009525567293167114
1761916058071597300,0.319597412109375,-0.001620607916265726,-0.005300774704664946,0.0002360241487622261
1761916058081651500,0.3296513671875,0.0013890305999666452,-0.0012897877022624016,0.0016581527888774872
1761916058091706400,0.339706298828125,-0.0007516983314417303,0.006990284193307161,0.001144658774137497
1761916058101760500,0.349760498046875,-0.00008830492151901126,-0.004416567273437977,0.002411790192127228
1761916058111814400,0.359814453125,0.00005687109660357237,-0.02988157421350479,0.000962025485932827
1761916058121869300,0.369869384765625,-0.0031969791743904352,0.027964415028691292,-0.0040487125515937805
1761916058131923500,0.37992333984375,-0.0018988397205248475,0.017283454537391663,0.008053825236856937
1761916058141977300,0.389977294921875,0.0006860244902782142,-0.03279036283493042,-0.0008043814450502396
1761916058152031500,0.400031494140625,0.0007988751749508083,-0.009403557516634464,-0.0032824603840708733
1761916058162086400,0.41008642578125,0.0012686566915363073,0.02525029331445694,0.00438158493489027
1761916058172140300,0.420140380859375,-0.00022158067440614104,0.013318893499672413,0.001715606078505516
1761916058182194400,0.4301943359375,0.00017336610471829772,0.00028405236662365496,-0.0024013742804527283
1761916058192249300,0.440249267578125,0.0029794443398714066,-0.01448336336761713,0.0024214088916778564
1761916058202303500,0.450303466796875,-0.0011412648018449545,-0.009152247570455074,-0.002304903231561184
1761916058212357400,0.460357421875,0.001958766020834446,0.02061493881046772,-0.00549282506108284
1761916058222412300,0.470412353515625,-0.0005781613290309906,0.0056554293259978294,0.005727604031562805
1761916058232466400,0.480466552734375,0.001043747179210186,-0.015196072869002819,-0.001501917839050293
1761916058242520300,0.490520263671875,-0.0015325949061661959,-0.0023492497857660055,-0.004251365549862385
1761916058252575500,0.500575439453125,-0.000957057869527489,0.004508300684392452,0.003035750240087509
1761916058262629400,0.51062939453125,-0.002732853638008237,0.007703028619289398,-0.0007680431008338928
1761916058272683300,0.520683349609375,-0.000029040733352303505,-0.0006283176480792463,-0.00099856685847044
1761916058282737400,0.5307373046875,-0.000881518586538732,-0.0125931017100811,-0.0019804751500487328
1761916058292792300,0.540792236328125,0.00018915074178948998,-0.0023167296312749386,-0.002306872047483921
1761916058302846500,0.550846435546875,-0.00019141496159136295,0.0048415809869766235,-0.002101276069879532
1761916058312900400,0.560900390625,0.000880167237482965,-0.002501405542716384,-0.00047403015196323395
1761916058322955300,0.570955322265625,-0.0006346387672238052,-0.008098305203020573,-0.003283398225903511
1761916058333009400,0.581009521484375,0.00010146817658096552,-0.00571273872628808,-0.000919644720852375
1761916058343063300,0.591063232421875,-0.00006444676546379924,-0.00045192998368293047,0.0011403104290366173
1761916058353118500,0.601118408203125,0.0013490323908627033,0.005329855717718601,-0.0005852030590176582
1761916058363172400,0.61117236328125,-0.0008504723664373159,-0.002345907036215067,0.0022896789014339447
1761916058373226500,0.6212265625,0.0013531600125133991,-0.005801594816148281,0.0003102710470557213
1761916058383281400,0.631281494140625,-0.0005917465896345675,-0.0005066979792900383,0.0021289438009262085
1761916058393335300,0.641335205078125,0.0009545652428641915,-0.0004806285724043846,0.0001535685732960701
1761916058403389400,0.651389404296875,0.0007034291629679501,-0.0012702557723969221,-0.00025735702365636826
1761916058413444400,0.6614443359375,0.0008664136985316873,-0.002590249525383115,-0.0035153841599822044
1761916058423498500,0.67149853515625,-0.00021456339163705707,-0.002656562253832817,0.0010476764291524887
1761916058433552400,0.681552490234375,-0.0005198342259973288,-0.0005745029193349183,0.00027322955429553986
1761916058443606300,0.691606201171875,0.001808833796530962,-0.00008847603021422401,-0.000912143848836422
1761916058453661400,0.701661376953125,-0.00008456828072667122,0.0006102253682911396,-0.0008713798597455025
1761916058463715300,0.71171533203125,0.0002706974046304822,0.0019095817115157843,0.0008804472163319588
1761916058473769500,0.72176953125,0.0014989400515332818,-0.0026101525872945786,-0.0007905047386884689
1761916058483824400,0.731824462890625,0.002181241987273097,-0.0017835076432675123,-0.0019311364740133286
1761916058493878800,0.741878662109375,0.0013294476084411144,-0.0013763378374278545,-0.003103836439549923
1761916058503932700,0.7519326171875,-0.00001464976230636239,-0.000060203601606190205,0.0014437772333621979
1761916058513987800,0.76198779296875,-0.0016806717030704021,-0.0005931450286880136,0.0010889554396271706
1761916058524041700,0.772041748046875,0.00035771174589172006,-0.0012927574571222067,-0.0003414284437894821
1761916058534096000,0.782095947265625,0.0007700241985730827,-0.001245663734152913,-0.0011684391647577286
1761916058544150800,0.79215087890625,0.00010316871339455247,-0.00019158454961143434,-0.0033106859773397446
1761916058554204700,0.80220458984375,0.0009332901681773365,0.0036877163220196962,-0.0025355303660035133
1761916058564258800,0.8122587890625,-0.000341298698913306,0.00005223510379437357,-0.0011869054287672043
1761916058574313700,0.822313720703125,0.0008982730214484036,-0.0023516868241131306,-0.0022721951827406883
1761916058584367900,0.832367919921875,0.0006404790328815579,0.001054496387951076,-0.0035787420347332954
1761916058594421800,0.842421875,0.0024146006908267736,0.0008257972076535225,0.0011938437819480896
1761916058604475600,0.8524755859375,-0.0029444782994687557,-0.002523127943277359,0.001778939738869667
1761916058614530800,0.86253076171875,-0.0005279902834445238,-0.005338478833436966,-0.0019392743706703186
1761916058624584700,0.872584716796875,0.001256860326975584,-0.0008854068582877517,-0.000558159314095974
1761916058634638800,0.882638916015625,0.001456387690268457,0.0004525514377746731,0.0031788088381290436
1761916058644693800,0.89269384765625,-0.002623042557388544,-0.0014534728834405541,0.0001089833676815033
1761916058654747600,0.90274755859375,0.00046552129788324237,-0.0057328930124640465,0.0001899227499961853
1761916058664801800,0.9128017578125,-0.0027502458542585373,-0.0012537220027297735,-0.0012772129848599434
1761916058674856700,0.922856689453125,-0.00011876749340444803,0.0009822394931688905,-0.00002431590110063553
1761916058684910800,0.932910888671875,0.0010194675996899605,-0.012553010135889053,0.012606523931026459
1761916058694964700,0.94296484375,0.00006713374750688672,-0.014440421015024185,0.038165826350450516
1761916058705019600,0.95301953125,-0.0005717586609534919,-0.01591341570019722,0.035935960710048676
1761916058715073800,0.96307373046875,0.0009529214003123343,0.00304843345656991,-0.03721514344215393
1761916058725127700,0.973127685546875,0.001196334371343255,0.04792775586247444,-0.08686152845621109
1761916058735182800,0.983182861328125,-0.0004484607488848269,0.023129845038056374,0.002332746982574463
1761916058745237000,0.993237060546875,0.0011627516942098737,-0.029774649068713188,0.06663210690021515
1761916058755290600,1.00329052734375,0.0008473136113025248,-0.010287920944392681,-0.022598985582590103
1761916058765345800,1.013345703125,0.0014124363660812378,0.010706044733524323,-0.04586702212691307
1761916058775399700,1.023399658203125,0.001358982641249895,0.0007761254673823714,0.02583857998251915
1761916058785453800,1.033453857421875,0.0005089015467092395,0.007671049330383539,0.023525357246398926
1761916058795508700,1.0435087890625,-0.001571801258251071,0.005663935095071793,-0.013770130462944508
1761916058805562600,1.053562744140625,-0.0022080305498093367,-0.007803670596331358,-0.012960262596607208
1761916058815616800,1.06361669921875,-0.0004693141672760248,-0.007549237925559282,0.0025828173384070396
1761916058825671700,1.073671630859375,0.002342185005545616,0.004060280043631792,0.006361843086779118
1761916058835725800,1.083725830078125,0.0007329525542445481,0.009339340031147003,0.004011556506156921
1761916058845779700,1.09377978515625,0.0010280307615175843,-0.002537825610488653,-0.011030776426196098
1761916058855834600,1.103834716796875,-0.0008307721582241356,-0.01441363338381052,-0.0024659279733896255
1761916058865888800,1.113888671875,-0.0009104007040150464,-0.0057588922791182995,0.012199833057820797
1761916058875942700,1.123942626953125,0.003244186518713832,0.013470379635691643,0.0012513641268014908
1761916058885997800,1.133997802734375,-0.00014814804308116436,0.008816505782306194,-0.009581842459738255
1761916058896051700,1.1440517578125,-0.000925100059248507,-0.016636600717902184,-0.0012404639273881912
1761916058906105900,1.15410595703125,-0.0013432162813842297,-0.013046393170952797,0.005234746262431145
1761916058916160800,1.164160888671875,0.0019722289871424437,0.008024830371141434,-0.0033996328711509705
1761916058926214700,1.174214599609375,-0.0011276905424892902,0.01064884290099144,-0.0008485903963446617
1761916058936268800,1.184268798828125,-0.00035312894033268094,-0.004242768976837397,0.0014829831197857857
1761916058946322700,1.19432275390625,-0.00036431424086913466,-0.007472650613635778,0.0012499568983912468
1761916058956377900,1.2043779296875,0.0005775349563919008,0.00266239489428699,-0.0014807544648647308
1761916058966431700,1.214431640625,0.0005386528209783137,0.011097424663603306,-0.0010051140561699867
1761916058976485600,1.224485595703125,0.0005565605242736638,0.0004971394082531333,-0.0012826863676309586
1761916058986540800,1.234540771484375,-0.0019332286901772022,-0.008800754323601723,0.0003897789865732193
1761916058996594700,1.2445947265625,0.0012437435798346996,-0.0041159880347549915,-0.0007729567587375641
1761916059006648800,1.25464892578125,0.0016168523579835892,0.005559009965509176,0.000995914451777935
1761916059016703700,1.264703857421875,-0.0013401556061580777,0.0031079337932169437,0.002332746982574463
1761916059026757600,1.274757568359375,0.00025960520724765956,0.015148085542023182,0.026945415884256363
1761916059036811800,1.284811767578125,0.00018142646877095103,0.055102698504924774,0.015684649348258972
1761916059046866700,1.29486669921875,-0.0017267283983528614,-0.00038719072472304106,-0.003041633404791355
1761916059056920800,1.3049208984375,0.000052117276936769485,-0.07151763886213303,-0.05320846289396286
1761916059066974700,1.314974609375,0.00046357567771337926,-0.0631803497672081,-0.03322596102952957
1761916059077029600,1.325029541015625,0.0014293459244072437,0.016117675229907036,0.04342968016862869
1761916059087083800,1.335083740234375,-0.00015576760051771998,0.07494983822107315,0.0346260704100132
1761916059097137700,1.3451376953125,0.0020314622670412064,0.02552061527967453,-0.031256210058927536
1761916059107192800,1.35519287109375,-0.0036218962632119656,-0.0627884715795517,-0.024189244955778122
1761916059117247000,1.3652470703125,-0.0006641435902565718,-0.051462918519973755,0.02134256437420845
1761916059127300900,1.37530078125,0.00032788392854854465,0.03696920722723007,0.014279860071837902
1761916059137355800,1.385355712890625,-0.0005939264083281159,0.062027428299188614,-0.014067454263567924
1761916059147409700,1.39540966796875,0.002293739002197981,-0.017757685855031013,-0.007143235765397549
1761916059157463800,1.4054638671875,-0.0012288091238588095,-0.05902985483407974,0.004920127801597118
1761916059167519000,1.41551904296875,0.000935541873332113,-0.006442277692258358,0.0043792398646473885
1761916059177572600,1.425572509765625,-0.0021609344985336065,0.05029246583580971,-0.0009524663910269737
1761916059187626800,1.435626708984375,-0.001100996509194374,0.024337297305464745,-0.003330136649310589
1761916059197681700,1.445681640625,0.0011468790471553802,-0.033287957310676575,0.0028809458017349243
1761916059207735800,1.45573583984375,0.001339691923931241,-0.03259074315428734,0.0002984777092933655
1761916059217789700,1.465789794921875,0.002405440667644143,0.018036408349871635,-0.004440473858267069
1761916059227844600,1.4758447265625,0.0008136692922562361,0.030680831521749496,0.0016453815624117851
1761916059237898800,1.485898681640625,-0.0008277977467514575,-0.0060407486744225025,0.0028020143508911133
1761916059247952600,1.49595263671875,-0.00019742752192541957,-0.02767280675470829,-0.0002678120508790016
1761916059258007800,1.5060078125,-0.00035226019099354744,-0.002977164927870035,-0.001900925301015377
1761916059268061700,1.516061767578125,-0.0002630442613735795,0.020848272368311882,0.001824304461479187
1761916059278115800,1.52611572265625,-0.0014656602870672941,0.011744306422770023,0.004525355063378811
1761916059288170800,1.536170654296875,0.00031333131482824683,-0.009671502746641636,-0.0016987184062600136
1761916059298224600,1.546224609375,0.0005059575196355581,-0.01559232734143734,-0.0039951070211827755
1761916059308278800,1.55627880859375,0.0009600264602340758,0.004080176819115877,-0.0007423218339681625
1761916059318334000,1.566333984375,-0.0011692014522850513,0.012638662941753864,0.005029482766985893
1761916059328387800,1.576387939453125,0.0011935550719499588,0.0026805715169757605,0.0009636338800191879
1761916059338441700,1.586441650390625,0.0018271678127348423,-0.014118915423750877,-0.0022278986871242523
1761916059348496600,1.59649658203125,0.00013020163169130683,-0.005695070140063763,-0.0015229592099785805
1761916059358550800,1.60655078125,-0.00010312971426174045,0.004294231068342924,0.0002890340983867645
1761916059368604700,1.616604736328125,-0.0007619957905262709,0.01002854947000742,0.0008304547518491745
1761916059378659800,1.626659912109375,-0.00093367527006194,-0.002075951313599944,-0.0030671237036585808
1761916059388713700,1.636713623046875,-0.0005224831984378397,-0.007265919353812933,-0.0026197126135230064
1761916059398767600,1.646767578125,-0.0013585503911599517,-0.000942875281907618,0.0010104840621352196
1761916059408822800,1.65682275390625,-0.00034015753772109747,0.007759003899991512,0.00006879027932882309
1761916059418876700,1.666876708984375,0.00008613296085968614,0.005892730318009853,-0.0017171930521726608
1761916059428930800,1.676930908203125,0.00008506770245730877,-0.007702440954744816,-0.0029608886688947678
1761916059438985700,1.68698583984375,-0.0007364014745689929,-0.006054980680346489,-0.002088923007249832
1761916059449039600,1.69703955078125,0.001509175868704915,0.005090348422527313,-0.0005922261625528336
1761916059459093800,1.70709375,0.0006876562256366014,0.00725357374176383,0.00045411381870508194
1761916059469149000,1.71714892578125,0.0018013902008533478,-0.0011106161400675774,-0.0032828329131007195
1761916059479202800,1.727202880859375,0.0005221735336817801,-0.005417186301201582,0.0012167636305093765
1761916059489257700,1.7372578125,0.0007559990626759827,-0.0004586470895446837,0.0024966783821582794
1761916059499316000,1.74731591796875,-0.000006869202479720116,0.007464097812771797,0.0006350390613079071
1761916059509369900,1.757369873046875,-0.0009277903591282666,0.0029745411593466997,-0.0014241170138120651
1761916059519425000,1.767425048828125,-0.002357735065743327,-0.0035687971394509077,-0.0024886038154363632
1761916059529479000,1.77747900390625,-0.00022427679505199194,-0.0030691882129758596,0.0007545938715338707
1761916059539532800,1.78753271484375,-0.000036861863918602467,0.004685917403548956,-0.0013806726783514023
1761916059549588000,1.797587890625,-0.0014656479470431805,0.0031897532753646374,0.0004806108772754669
1761916059559641900,1.807641845703125,-0.0007076580077409744,-0.006027758587151766,-0.0023279404267668724
1761916059569696000,1.817696044921875,-0.0005007303552702069,-0.0029624600429087877,0.0016082115471363068
1761916059579751000,1.8277509765625,-0.0012800069525837898,0.0016500895144417882,0.0026228949427604675
1761916059589804800,1.8378046875,0.0000829988275654614,0.003722827648743987,0.0015784027054905891
1761916059599859000,1.84785888671875,0.0005106384051032364,0.0016966827679425478,-0.00010702013969421387
1761916059609913900,1.857913818359375,0.0008967967587523162,-0.0036855656653642654,0.0002652900293469429
1761916059619968000,1.867968017578125,0.00212485296651721,-0.0021515616681426764,0.00045132264494895935
1761916059630022000,1.87802197265625,-0.0015343301929533482,0.005029918625950813,0.00005504488945007324
1761916059640076800,1.888076904296875,-0.0007826047949492931,0.0016271868953481317,-0.0006089583039283752
1761916059650131000,1.898130859375,0.0012397997779771686,-0.003220565151423216,0.00040490739047527313
1761916059660184800,1.908184814453125,-0.0005678412271663547,-0.0011221794411540031,0.00010175444185733795
1761916059670240000,1.918239990234375,0.0002502818242646754,-0.0013221828266978264,-0.0004007844254374504
1761916059680294100,1.928294189453125,0.00027533015236258507,0.004252275452017784,-0.00017531868070363998
1761916059690348000,1.93834814453125,-0.0009161680936813354,0.003080751048400998,-0.0014014383777976036
1761916059700403000,1.94840283203125,-0.000028502719942480326,-0.0013086601393297315,0.0014039836823940277
1761916059710456800,1.958456787109375,0.000019434140995144844,-0.0021914979442954063,0.0014196960255503654
1761916059720511000,1.968510986328125,0.0022156829945743084,0.001372962724417448,-0.002029130235314369
1761916059730566100,1.978566162109375,0.0005735778831876814,0.0008802780066616833,-0.0009015481919050217
1761916059740619800,1.988619873046875,0.0005632209940813482,0.00027034059166908264,-0.003161131404340267
1761916059750675000,1.998675048828125,0.0006782695418223739,-0.0019275662489235401,-0.0006279321387410164
1761916059760728800,2.008728759765625,-0.0015875432873144746,-0.0020513867493718863,-0.001440919004380703
1761916059770783000,2.018782958984375,0.00008678610902279615,-0.00024523091269657016,-0.0019069723784923553
1761916059780838000,2.028837890625,-0.00010420131729915738,0.002950489753857255,0.0007178997620940208
1761916059790891800,2.038891845703125,0.0002145790494978428,0.002573386300355196,0.0017735762521624565
1761916059800946000,2.04894580078125,-0.0002744463854469359,-0.0013213360216468573,0.0007277503609657288
1761916059811000800,2.059000732421875,-0.0006387668545357883,-0.005736324470490217,-0.0007843924686312675
1761916059821055000,2.069054931640625,0.000904084590729326,-0.00015160399198066443,-0.0006200484931468964
1761916059831108900,2.07910888671875,-0.0003585200756788254,0.006361156236380339,0.0037054577842354774
1761916059841163800,2.089163818359375,-0.00019475037697702646,0.002760309027507901,0.003550485707819462
1761916059851218000,2.099218017578125,0.001606878126040101,-0.009157869033515453,-0.004587602335959673
1761916059861271800,2.109271728515625,0.0011262396583333611,-0.0031089074909687042,-0.001232597976922989
1761916059871327000,2.119326904296875,-0.0013238684041425586,0.00351916765794158,0.0013498691841959953
1761916059881381000,2.129381103515625,0.0006060234736651182,0.0043185316026210785,0.0017381459474563599
1761916059891435800,2.139435791015625,-0.0005604411126114428,0.002483080606907606,-0.0024392884224653244
1761916059901490000,2.149489990234375,0.0000720228417776525,-0.011918444186449051,0.0015956033021211624
1761916059911543800,2.159543701171875,-0.0011471722973510623,-0.004666922613978386,-0.0015679653733968735
1761916059921599000,2.169598876953125,0.0009720642701722682,0.006977540906518698,0.0030846884474158287
1761916059931653000,2.179653076171875,0.002098314929753542,0.0008035349892452359,0.001967492513358593
1761916059941707000,2.18970703125,0.00094512605573982,-0.007535962387919426,-0.0006551947444677353
1761916059951762000,2.199761962890625,0.001489476184360683,-0.006735416129231453,-0.0006437432020902634
1761916059961815800,2.20981591796875,-0.0005089969490654767,0.008913087658584118,0.0011652680113911629
1761916059971870000,2.219869873046875,0.0011940945405513048,0.006181482691317797,0.000865396112203598
1761916059981925000,2.229925048828125,0.0018033183878287673,-0.00880280788987875,-0.005143027752637863
1761916059991979000,2.23997900390625,0.003130105324089527,-0.007969770580530167,-0.001279580406844616
1761916060002033000,2.250032958984375,-0.001149612944573164,0.013393224216997623,0.001605752855539322
1761916060012087800,2.260087890625,0.0004935574834235013,0.007108697667717934,0.0019714049994945526
1761916060022142000,2.270141845703125,-0.000029810878913849592,-0.011502400040626526,-0.0035039717331528664
1761916060032197000,2.280197021484375,0.00022265678853727877,-0.006303376983851194,-0.0006756950169801712
1761916060042250800,2.290250732421875,0.0023381151258945465,0.012771542184054852,0.0023105964064598083
1761916060052305000,2.300304931640625,0.0003860181604977697,0.009529676288366318,-0.0010782759636640549
1761916060062359800,2.31035986328125,0.0009767221054062247,-0.0075149438343942165,-0.002126779407262802
1761916060072414000,2.3204140625,-0.001168187940493226,-0.009145863354206085,0.0012841969728469849
1761916060082468000,2.330468017578125,0.00005478784441947937,0.0065087080001831055,0.0027126576751470566
1761916060092522800,2.340522705078125,-0.0008730574627406895,0.011693616397678852,0.0007317988201975822
1761916060102577000,2.350576904296875,0.00039182999171316624,-0.003840524237602949,-0.0009869784116744995
1761916060112630800,2.360630859375,0.0005284501239657402,-0.007700509857386351,-0.0007989592850208282
1761916060122686000,2.37068603515625,-0.0014913009945303202,0.004527707118541002,0.00145761389285326
1761916060132740000,2.380739990234375,0.0006269773584790528,0.00403369078412652,-0.0009914292022585869
1761916060142794800,2.390794677734375,0.0007766007329337299,-0.001478254096582532,-0.0005375705659389496
1761916060152849000,2.400848876953125,-0.0026724592316895723,-0.004665525164455175,0.00003980286419391632
1761916060162902800,2.41090283203125,-0.00019454921130090952,-0.000023930551833473146,0.0014926251024007797
1761916060172958000,2.4209580078125,-0.000624649808742106,0.00286879506893456,0.00146439578384161
1761916060183012000,2.43101220703125,-0.002568576019257307,0.005653965286910534,-0.00015213340520858765
1761916060193066000,2.44106591796875,-0.0008345919195562601,-0.0006412148359231651,0.0005759745836257935
1761916060203121000,2.451120849609375,0.0011924996506422758,-0.0025133988820016384,-0.001571708358824253
1761916060213174800,2.4611748046875,0.0012236586771905422,0.0007937144837342203,0.0012954510748386383
1761916060223230000,2.47122998046875,0.0016907587414607406,0.00026628008345142007,0.0005509844049811363
1761916060233284000,2.4812841796875,-0.002450190484523773,0.0024316965136677027,0.003035447560250759
1761916060243338000,2.491337890625,-0.0023168721236288548,0.00008339673513546586,0.0014466745778918266
1761916060253393000,2.501392822265625,0.0024730891454964876,-0.0021398100070655346,-0.0043915072456002235
1761916060263446800,2.51144677734375,0.0020462432876229286,-0.0011863638646900654,0.002240189351141453
1761916060273501000,2.5215009765625,-0.0014014850603416562,0.0007825110806152225,-0.00011537596583366394
1761916060283556000,2.53155615234375,-0.0006503976183012128,-0.0007749787764623761,0.0009480491280555725
1761916060293610000,2.54160986328125,0.000658013392239809,-0.0006937523139640689,0.0014785509556531906
1761916060303665000,2.551664794921875,0.0009273446048609912,-0.000780019850935787,0.0007013427093625069
1761916060313719000,2.561718994140625,-0.0012082442408427596,0.0013901900965720415,0.001212935894727707
1761916060323773000,2.57177294921875,0.0005818887148052454,-0.0014384932583197951,-0.0019812118262052536
1761916060333828000,2.581828125,-0.0005092084174975753,0.00045421530376188457,-0.001069611869752407
1761916060343881700,2.5918818359375,-0.0018889157800003886,-0.0005310703418217599,0.002692433074116707
1761916060353936000,2.601935791015625,-0.00014987168833613396,0.0011440579546615481,0.0006801476702094078
1761916060363991000,2.611990966796875,0.0013672288041561842,-0.000525526178535074,0.0003525037318468094
1761916060374045000,2.622044921875,-0.00013932143338024616,-0.0002794500906020403,-0.00009890180081129074
1761916060384099800,2.632099853515625,0.0009550462709739804,0.0015721018426120281,-0.0003092419356107712
1761916060394153700,2.64215380859375,-0.0013872039271518588,0.0005635627312585711,0.0005530891939997673
1761916060404207900,2.652207763671875,0.0022552181035280228,0.00039212784031406045,0.0014737192541360855
1761916060414263000,2.662262939453125,0.0004610464966390282,-0.0017852726159617305,-0.0015417784452438354
1761916060424317000,2.67231689453125,0.0010027582757174969,0.0016836359864100814,0.0035943472757935524
1761916060434371000,2.68237109375,-0.0017035461496561766,0.002253552433103323,-0.0009695123881101608
1761916060444425700,2.69242578125,-0.00006953376578167081,-0.0016990406438708305,-0.002076047472655773
1761916060454480000,2.70247998046875,0.002059929771348834,0.0012714492622762918,0.00143506471067667
1761916060464535000,2.71253515625,-0.0002098654513247311,0.002332477830350399,-0.0020372215658426285
1761916060474589000,2.7225888671875,-0.0006900334265083075,0.0036222466733306646,-0.00018339511007070541
1761916060484643000,2.73264306640625,-0.0009804635774344206,0.000637030927464366,-0.0013386858627200127
1761916060494698000,2.742697998046875,-0.0022465302608907223,0.000625313026830554,0.0003239251673221588
1761916060504752000,2.752752197265625,0.0005364622920751572,-0.00008235854329541326,0.0007363054901361465
1761916060514807300,2.762807373046875,-0.00013465428492054343,0.004376305267214775,0.0004960885271430016
1761916060524861200,2.772861083984375,0.00018026254838332534,-0.00016875193978194147,-0.0044112615287303925
1761916060534915300,2.782915283203125,0.0004521713126450777,0.0007436470477841794,0.0009861672297120094
1761916060544970000,2.792969970703125,-0.0017313016578555107,0.0004855484876316041,0.00008718762546777725
1761916060555024100,2.803024169921875,0.0011590271024033427,-0.002446858212351799,0.0002874573692679405
1761916060565078000,2.813078125,0.0006173684960231185,0.0009991861879825592,0.00009862054139375687
1761916060575133200,2.82313330078125,-0.0005379108479246497,-0.0005734104197472334,0.0006877118721604347
1761916060585187000,2.83318701171875,0.0020756619051098824,0.00014919124078005552,0.00004970468580722809
1761916060595242000,2.843241943359375,0.0011880302336066961,-0.0025962614454329014,0.000057161785662174225
1761916060605296000,2.853296142578125,-0.0010793018154799938,0.0010474241571500897,-0.0011844495311379433
1761916060615350300,2.863350341796875,0.00024029446649365127,0.0005933551001362503,-0.001421470195055008
1761916060625405200,2.8734052734375,-0.000964669743552804,0.0004694531380664557,0.00152633897960186
1761916060635459000,2.883458984375,-0.0009902361780405045,-0.0034336757380515337,0.0005569485947489738
1761916060645514200,2.89351416015625,0.003089151345193386,-0.00043076107976958156,-0.0004297485575079918
1761916060655568100,2.903568115234375,-0.00020517880329862237,0.00356318149715662,0.0009425785392522812
1761916060665622300,2.913622314453125,-0.001161267515271902,0.0030868726316839457,-0.0003106566146016121
1761916060675677200,2.92367724609375,0.0004944197135046124,-0.0034426655620336533,-0.0014630062505602837
1761916060685731000,2.93373095703125,-0.002222840441390872,-0.00047969745355658233,0.0005528796464204788
1761916060695785000,2.943784912109375,0.0010738866403698921,-0.0011875657364726067,0.0004855012521147728
1761916060705840000,2.953840087890625,0.000999486306682229,0.0026108683086931705,0.000882965512573719
1761916060715894300,2.963894287109375,0.0016911092679947615,0.0009248210117220879,-0.0023863306269049644
1761916060725949000,2.973948974609375,-0.00010204740101471543,-0.0012142143677920103,0.0004115300253033638
1761916060736003000,2.984003173828125,0.0005509596667252481,0.004690013825893402,-0.00025878753513097763
1761916060746057000,2.994056884765625,-0.0001366682699881494,0.006496066693216562,-0.0014463840052485466
1761916060756112100,3.004112060546875,-0.0004543833201751113,0.0030970743391662836,0.00046203751116991043
1761916060766166300,3.014166259765625,0.0005459751700982451,-0.0019378727301955223,0.0012019118294119835
1761916060776221000,3.024220947265625,-0.0007467232062481344,-0.0019322801381349564,0.00006873719394207001
1761916060786275000,3.034275146484375,-0.0027637118473649025,0.0019526048563420773,0.001026746816933155
1761916060796329000,3.044328857421875,0.000058972625993192196,0.0018047993071377277,-0.00030829571187496185
1761916060806384000,3.054384033203125,0.0005435883067548275,-0.0019159630173817277,0.00042327679693698883
1761916060816438300,3.064438232421875,-0.0010726840700954199,-0.002158044371753931,0.00008745212107896805
1761916060826492200,3.0744921875,0.0010432121343910694,-0.002781578106805682,-0.0022355346009135246
1761916060836547000,3.084547119140625,0.0003768891911022365,0.0021234320010989904,0.0006148470565676689
1761916060846601200,3.094601318359375,0.0013347382191568613,0.0009255422628484666,-0.0007318286225199699
1761916060856656100,3.10465625,-0.0017132495995610952,-0.004856446757912636,0.0004372987896203995
1761916060866710300,3.114710205078125,0.0004368641530163586,-0.0010795996058732271,-0.0023576645180583
1761916060876764200,3.12476416015625,-0.0015573108103126287,0.003094639163464308,0.000548909418284893
1761916060886819000,3.134819091796875,0.0024293619208037853,-0.00023636351397726685,-0.0011070864275097847
1761916060896873200,3.144873291015625,0.0017462610267102718,-0.003325896803289652,0.0016154628247022629
1761916060906928000,3.15492822265625,-0.0006018062122166157,-0.0032489721197634935,0.001351519487798214
1761916060916982300,3.164982177734375,-0.0003282995894551277,0.003381766378879547,-0.0014224294573068619
1761916060927036200,3.1750361328125,-0.0006390396156348288,0.003991481848061085,-0.0003564804792404175
1761916060937091000,3.185091064453125,0.0012589952675625682,0.0022843957412987947,0.0017404928803443909
1761916060947145200,3.195145263671875,-0.0014323336072266102,-0.00015146390069276094,-0.0006386544555425644
1761916060957200100,3.2052001953125,0.003306761384010315,0.0011620072182267904,-0.003104208968579769
1761916060967254300,3.215254150390625,0.0005984196905046701,0.00269867992028594,0.00017211586236953735
1761916060977308200,3.22530810546875,0.0007968251593410969,0.0030837729573249817,0.002360967919230461
1761916060987363000,3.235363037109375,-0.0004641612758859992,-0.0001203289139084518,-0.0014570048078894615
1761916060997417200,3.245417236328125,0.001282606041058898,-0.0006210032152011991,0.00007537752389907837
1761916061007472000,3.25547216796875,-0.0007813874399289489,0.00004923323285765946,-0.0024100076407194138
1761916061017526300,3.2655263671875,-0.002483147196471691,-0.0017891469178721309,0.0009580925107002258
1761916061027580000,3.275579833984375,-0.0005556471878662705,-0.0018275578040629625,-0.0004482399672269821
1761916061037635000,3.285635009765625,-0.0013524650130420923,0.00024571307585574687,-0.003483179025352001
1761916061047689200,3.295689208984375,0.00038412894355133176,-0.0022678780369460583,-0.0017631100490689278
1761916061057744100,3.305744140625,-0.0005442490219138563,0.002198509406298399,-0.0010456545278429985
1761916061067798000,3.315798095703125,-0.0003516986616887152,0.004331864416599274,0.002932211384177208
1761916061077852200,3.32585205078125,0.0009098407463170588,-0.0025063345674425364,0.0012131407856941223
1761916061087907000,3.335906982421875,0.001730671850964427,0.00787448976188898,0.0015748841688036919
1761916061097961200,3.345961181640625,-0.001763129374012351,-0.012661944143474102,-0.0008901376277208328
1761916061108016000,3.35601611328125,0.0004326809721533209,0.002284824848175049,-0.003711286000907421
1761916061118070000,3.366070068359375,-0.00031327048782259226,-0.0013186985161155462,-0.0025986172258853912
1761916061128124200,3.376124267578125,0.00007628853200003505,0.013755478896200657,0.00047856010496616364
1761916061138179000,3.386178955078125,-0.0026947306469082832,-0.0003081421891693026,-0.001972080208361149
1761916061148233200,3.396233154296875,-0.0004075783072039485,-0.017028048634529114,-0.0037875454872846603
1761916061158288100,3.4062880859375,0.0017056399956345558,-0.0058150761760771275,-0.0013483557850122452
1761916061168342000,3.416342041015625,-0.002587799448519945,0.01619434729218483,-0.0006051836535334587
1761916061178396200,3.426396240234375,0.00020718818996101618,0.009821402840316296,0.00008058082312345505
1761916061188451000,3.436451171875,0.0007411495316773653,-0.016915179789066315,-0.000754229724407196
1761916061198505200,3.446505126953125,0.0007360895397141576,-0.01670186035335064,-0.00479344604536891
1761916061208560000,3.45656005859375,0.0008294287836179137,0.010855309665203094,0.0010702740401029587
1761916061218614000,3.466614013671875,-0.0018316018395125866,0.01312006264925003,0.001585329882800579
1761916061228668200,3.476668212890625,0.0022831368260085583,-0.0032689913641661406,-0.001073712483048439
1761916061238723000,3.48672314453125,0.0009512899559922516,-0.010428368113934994,0.0005984855815768242
1761916061248777200,3.496777099609375,0.0007315464899875224,0.002316839527338743,0.0003030449151992798
1761916061258832100,3.50683203125,-0.00012918718857690692,0.01148690190166235,0.00012008659541606903
1761916061268886000,3.516885986328125,-0.0007979716756381094,-0.002284262329339981,-0.0006635589525103569
1761916061278940200,3.526940185546875,0.0014201751910150051,-0.00730485375970602,0.0011204928159713745
1761916061288995000,3.5369951171875,-0.003514333860948682,-0.004204469732940197,-0.0006632069125771523
1761916061299049200,3.54704931640625,0.0002590988588053733,0.004559194203466177,0.0020974259823560715
1761916061309104000,3.557104248046875,0.0008755430462770164,0.0053331912495195866,-0.0015286905691027641
1761916061319158000,3.567157958984375,-0.001137007842771709,-0.002509019337594509,-0.0033305855467915535
1761916061329213200,3.577213134765625,0.002021732507273555,-0.004884517751634121,-0.0005477266386151314
1761916061339267000,3.58726708984375,0.0021815223153680563,0.0017435571644455194,-0.000056372955441474915
1761916061349321200,3.5973212890625,-0.001135729136876762,0.004272759892046452,-0.0011902721598744392
1761916061359376100,3.607376220703125,-0.00008378055645152926,-0.0003946961078327149,-0.000004100613296031952
1761916061369430000,3.617429931640625,0.0005674255080521107,-0.0029609438497573137,-0.0007591741159558296
1761916061379485200,3.627485107421875,0.0018966092029586434,-0.0010128417052328587,0.00016201380640268326
1761916061389539300,3.637539306640625,-0.0013310965150594711,-0.00020627878257073462,-0.002546459436416626
1761916061399593200,3.64759326171875,0.001710233511403203,0.0006366116576828063,-0.0008201980963349342
1761916061409648000,3.657648193359375,-0.0005316775059327483,-0.002580654341727495,0.0020890170708298683
1761916061419702000,3.667701904296875,-0.0019303696462884545,-0.0019601378589868546,-0.0018641790375113487
1761916061429757200,3.677757080078125,-0.0006908864597789943,-0.0016979026840999722,-0.0003345729783177376
1761916061439811300,3.687811279296875,-0.0002719712210819125,0.0003937440342269838,0.00021057669073343277
1761916061449865200,3.697865234375,0.0025584378745406866,0.003239938523620367,-0.00034071411937475204
1761916061459920100,3.707920166015625,-0.0013406961224973202,-0.000542282999958843,-0.0025143856182694435
1761916061469974000,3.71797412109375,0.0016706237802281976,-0.002786020515486598,-0.000507955439388752
1761916061480029200,3.728029296875,-0.0024135999847203493,-0.0031215788330882788,0.0014244336634874344
1761916061490083300,3.738083251953125,0.0014910143800079823,-0.0038292461540549994,-0.002271021716296673
1761916061500137700,3.7481376953125,0.0028423024341464043,0.0002544450107961893,-0.0037693167105317116
1761916061510191900,3.75819189453125,0.00009409082122147083,-0.0013629074674099684,0.0005948245525360107
1761916061520245800,3.768245849609375,0.0029316889122128487,-0.002281964523717761,-0.0010427534580230713
1761916061530301000,3.778301025390625,0.00006555789150297642,-0.00015337247168645263,-0.00022376235574483871
1761916061540355000,3.78835498046875,0.00044559096568264067,-0.003993118181824684,0.0022868001833558083
1761916061550409700,3.79840966796875,-0.0015577825251966715,0.0024595328141003847,-0.0012043565511703491
1761916061560464000,3.8084638671875,0.0034883751068264246,0.002706674160435796,0.0004523955285549164
1761916061570517800,3.818517822265625,-0.00043474941048771143,0.0031848587095737457,0.0034779831767082214
1761916061580573000,3.828572998046875,0.000551419158000499,-0.002365701599046588,-0.0006869351491332054
1761916061590627000,3.838626953125,0.0008598853601142764,-0.002232312923297286,-0.0003935815766453743
1761916061600681700,3.848681640625,0.00009902025340124965,0.005528937093913555,0.0011206921190023422
1761916061610735900,3.85873583984375,-0.0015848150942474604,0.007441933732479811,0.0006999047473073006
1761916061620791000,3.868791015625,0.0008562383009120822,-0.0003776400990318507,0.0020509259775280952
1761916061630845000,3.878844970703125,-0.0003095152787864208,-0.008068610914051533,0.000478292815387249
1761916061640898800,3.88889892578125,-0.0006301598623394966,-0.003943640738725662,-0.0005946950986981392
1761916061650953700,3.89895361328125,0.0010786437196657062,0.0051819151267409325,-0.0009987810626626015
1761916061661008000,3.9090078125,0.0012397649697959423,0.0012942329049110413,0.0013711657375097275
1761916061671063000,3.91906298828125,0.0024025635793805122,-0.001934708678163588,-0.0010046130046248436
1761916061681117000,3.929116943359375,0.00128297065384686,-0.006782993208616972,0.00025958940386772156
1761916061691170800,3.9391708984375,0.00022197689395397902,0.001960519002750516,-0.0016860021278262138
1761916061701226000,3.94922607421875,-0.0003607227117754519,0.006961402948945761,0.0004352051764726639
1761916061711279900,3.95927978515625,-0.00012170622358098626,-0.001440716441720724,-0.0003599105402827263
1761916061721335000,3.9693349609375,-0.002542253350839019,-0.0037313015200197697,-0.00022515468299388885
1761916061731389000,3.979388916015625,0.0004899813793599606,-0.006099140737205744,-0.0014422154054045677
1761916061741443800,3.98944384765625,0.0019296861719340086,0.0024916843976825476,0.0016270773485302925
1761916061751498000,3.999498046875,0.0021951799280941486,0.007539251819252968,0.000921725295484066
1761916061761552000,4.0095517578125,-0.0006722455727867782,-0.0009663518867455423,0.000386163592338562
1761916061771607000,4.01960693359375,-0.00011125183664262295,-0.006467252038419247,-0.0005249204114079475
1761916061781660700,4.02966064453125,0.001623797696083784,-0.0030131323728710413,0.002271665260195732
1761916061791715800,4.0397158203125,-0.00025676621589809656,-0.002860988723114133,0.0001272810623049736
1761916061801770000,4.04977001953125,0.000488918914925307,0.0009105799836106598,0.0011691097170114517
1761916061811825000,4.059824951171875,-0.0006850985228084028,-0.0024065678007900715,-0.001485631801187992
1761916061821878800,4.069878662109375,-0.0023061647079885006,-0.00133677595295012,-0.0013008080422878265
1761916061831932700,4.0799326171875,0.0010158380027860403,0.0034288077149540186,0.001666344702243805
1761916061841987800,4.08998779296875,0.00015696859918534756,-0.0005403675022535026,0.0015965700149536133
1761916061852042000,4.1000419921875,-0.003863485064357519,0.00025970349088311195,0.00006443075835704803
1761916061862097000,4.110096923828125,-0.00003971857950091362,0.0021593361161649227,-0.003985172137618065
1761916061872150800,4.12015087890625,0.0024048862978816032,0.000229918077820912,-0.0004077199846506119
1761916061882206000,4.1302060546875,-0.0026748268865048885,-0.0028676046058535576,0.00031452998518943787
1761916061892259800,4.140259765625,-0.0011219617445021868,0.0017389922868460417,-0.0006841737776994705
1761916061902314000,4.15031396484375,0.000706830935087055,0.001099833520129323,-0.00044502224773168564
1761916061912369000,4.160368896484375,-0.0008772110450081527,-0.00023363478248938918,0.0021529383957386017
1761916061922422800,4.1704228515625,0.0013547842390835285,-0.0015042289160192013,-0.0001909099519252777
1761916061932478000,4.18047802734375,0.0003845557803288102,-0.00187912886030972,-0.0008799657225608826
1761916061942531800,4.19053173828125,-0.0003579335752874613,-0.004425643477588892,-0.0007468080148100853
1761916061952587000,4.2005869140625,0.0012628990225493908,0.0017837334889918566,-0.0010432442650198936
1761916061962640600,4.210640625,0.0017401374643668532,-0.0010514678433537483,0.001390884630382061
1761916061972694800,4.22069482421875,0.0012108688242733479,0.0025423443876206875,0.000041581690311431885
1761916061982750000,4.23075,-0.0011108750477433205,0.004321602638810873,0.00025516655296087265
1761916061992803800,4.240803955078125,0.0001992727629840374,-0.0002586247865110636,0.00036929361522197723
1761916062002858800,4.250858642578125,0.00010313262464478612,-0.000349172274582088,0.0004140343517065048
1761916062012913000,4.260912841796875,-0.0021367555018514395,0.00003522989572957158,0.0002855593338608742
1761916062022967800,4.2709677734375,0.00347905233502388,0.008642833679914474,-0.00010086596012115479
1761916062033022000,4.28102197265625,-0.0007073730230331421,-0.010681627318263054,-0.0010519679635763168
1761916062043075800,4.291075927734375,0.0009126278455369174,-0.005249044857919216,-0.0017702225595712662
1761916062053130800,4.301130859375,0.0009373074281029403,-0.0013364363694563508,0.0006839409470558167
1761916062063185000,4.311184814453125,0.0009160021436400712,0.010473883710801601,0.0034741349518299103
1761916062073239800,4.32123974609375,-0.0027276542969048023,-0.004664815030992031,0.0007669394835829735
1761916062083294000,4.3312939453125,-0.000691667664796114,-0.0036903643049299717,-0.0007417416200041771
1761916062093348900,4.341348876953125,0.00043645635014399886,-0.010583424009382725,-0.0009025027975440025
1761916062103402800,4.35140283203125,-0.00269888318143785,0.01032878179103136,-0.0009275367483496666
1761916062113457000,4.361456787109375,-0.00023565272567793727,0.004070323426276445,0.00005961582064628601
1761916062123511800,4.37151171875,0.0031944988295435905,-0.013383767567574978,-0.00026475731283426285
1761916062133566000,4.38156591796875,0.00011393462773412466,0.00230757100507617,-0.0017930502071976662
1761916062143620900,4.391620849609375,0.00026174006052315235,-0.002592645352706313,0.001606740988790989
1761916062153674800,4.4016748046875,-0.00036392256151884794,0.0022763211745768785,-0.0008242195472121239
1761916062163730000,4.41172998046875,-0.0012542172335088253,0.008013835176825523,-0.0005195541307330132
1761916062173783800,4.42178369140625,-0.0014922453556209803,-0.005609539337456226,-0.0006908057257533073
1761916062183838700,4.431838623046875,0.0023453698959201574,-0.00046005111653357744,-0.00030810944736003876
1761916062193892900,4.441892822265625,0.0013429701793938875,0.0017993997316807508,-0.0011629676446318626
1761916062203946800,4.45194677734375,0.0012926363851875067,0.006933974102139473,0.0003739427775144577
1761916062214002000,4.462001953125,-0.00000471179373562336,-0.006772639695554972,-0.0012672552838921547
1761916062224055800,4.472055908203125,0.0013207434676587582,-0.0035291758831590414,-0.0005607185885310173
1761916062234110700,4.48211083984375,0.0007485586102120578,0.004621465224772692,0.00412585586309433
1761916062244164900,4.492164794921875,0.001183985499665141,-0.004118762910366058,0.000940714031457901
1761916062254219800,4.5022197265625,0.0022896372247487307,0.000017401442164555192,-0.0017920108512043953
1761916062264274000,4.51227392578125,0.002017462160438299,-0.0015338899102061987,-0.0012585800141096115
1761916062274328000,4.522328125,-0.000013891025446355343,-0.010170062072575092,0.00013807602226734161
1761916062284382700,4.5323828125,-0.0015739707741886377,0.037377748638391495,0.0009953482076525688
1761916062294436900,4.542436767578125,-0.0032553239725530148,-0.01569731906056404,0.0012959549203515053
1761916062304492000,4.552491943359375,0.0017397011397406459,-0.016315970569849014,-0.007519108708947897
1761916062314546000,4.5625458984375,0.0032271561212837696,-0.008996772579848766,0.0030155563727021217
1761916062324600800,4.572600830078125,0.0008449587039649487,0.02909095771610737,0.006619347259402275
1761916062334654700,4.58265478515625,-0.0011441048700362444,0.013815926387906075,0.001315663568675518
1761916062344710000,4.5927099609375,0.0015888309571892023,-0.02459271438419819,-0.0071798209100961685
1761916062354764000,4.602763916015625,0.0033055460080504417,-0.009426775388419628,-0.0008940920233726501
1761916062364818000,4.61281787109375,-0.0016396776773035526,0.016880730167031288,0.0008406909182667732
1761916062374872800,4.622872802734375,0.0019107077969238162,0.019615445286035538,0.00046158675104379654
1761916062384926700,4.6329267578125,-0.000692798406817019,-0.014929747208952904,-0.002882012166082859
1761916062394982000,4.64298193359375,-0.0023261038586497307,-0.01603938266634941,-0.002221008762717247
1761916062405036000,4.6530361328125,0.00006461585871875286,0.010924589820206165,0.003922104835510254
1761916062415090700,4.663090576171875,-0.0013575025368481874,0.014606497250497341,0.00147334486246109
1761916062425144800,4.673144775390625,-0.0012991793919354677,-0.005032450892031193,-0.0023150015622377396
1761916062435200000,4.683199951171875,-0.003930417820811272,-0.01772809959948063,-0.0012067453935742378
1761916062445254000,4.69325390625,-0.0012845677556470037,0.0006258730427362025,-0.00007037445902824402
1761916062455308800,4.703308837890625,-0.0004801006871275604,0.011807708069682121,0.002656039781868458
1761916062465362700,4.71336279296875,-0.0009168590768240392,-0.0008042241679504514,0.00155535526573658
1761916062475416800,4.723416748046875,-0.0008322609937749803,-0.004520531743764877,-0.003870312124490738
1761916062485472000,4.733471923828125,0.0023531459737569094,-0.005745586007833481,-0.003360050730407238
1761916062495526000,4.74352587890625,0.001796672004275024,0.001755732111632824,-0.0013047559186816216
1761916062505577200,4.7535771484375,0.0008038455853238702,0.006784312892705202,0.0002545248717069626
1761916062515631000,4.763631103515625,-0.003209455404430628,0.002052674535661936,-0.0009327130392193794
1761916062525686300,4.773686279296875,0.001317385584115982,-0.0074870348908007145,-0.0009185979142785072
1761916062535740400,4.783740478515625,0.00009917415445670485,0.0020087240263819695,-0.0017386795952916145
1761916062545795300,4.79379541015625,0.00017986795864999294,0.006559799890965223,0.0021615196019411087
1761916062555849200,4.80384912109375,-0.0024312196765094995,0.004189779981970787,0.001193040981888771
1761916062565904100,4.813904052734375,-0.0011225424241274595,-0.01660684496164322,-0.003614763729274273
1761916062575958300,4.823958251953125,0.0008458317606709898,0.011652829125523567,-0.0006510447710752487
1761916062586012400,4.834012451171875,-0.0006074552657082677,0.008559567853808403,0.005034805275499821
1761916062596067000,4.844067138671875,0.00005574541864916682,0.007307397201657295,-0.00367163959890604
1761916062606121200,4.854121337890625,-0.002541902009397745,-0.007010555826127529,-0.0003088656812906265
1761916062616176400,4.86417626953125,0.0006750152097083628,-0.011768745258450508,-0.005052882246673107
1761916062626230300,4.874230224609375,0.00032827164977788925,0.005648328457027674,-0.003473627381026745
1761916062636285200,4.88428515625,0.0010387066286057234,0.013708165846765041,0.0010110102593898773
1761916062646339000,4.894339111328125,-0.00042869505705311894,0.0035838924814015627,0.0009990260004997253
1761916062656394200,4.904394287109375,0.0031047603115439415,-0.01055217906832695,-0.004050064366310835
1761916062666448400,4.914448486328125,-0.0016644286224618554,-0.003749667201191187,0.00030526984483003616
1761916062676503300,4.92450341796875,0.0014865787234157324,0.0063508423045277596,0.0015975618734955788
1761916062686557200,4.93455712890625,0.0004700500867329538,0.0053252591751515865,-0.0028515150770545006
1761916062696611000,4.944611083984375,0.001820351928472519,-0.000326207053149119,0.0013309810310602188
1761916062706666200,4.954666259765625,0.00029436065233312547,-0.009401993826031685,-0.002615290693938732
1761916062716720400,4.964720458984375,0.0020939791575074196,0.0013416879810392857,0.001088096760213375
1761916062726775300,4.974775390625,0.0019440430914983153,0.00848375353962183,0.0010665254667401314
1761916062736829200,4.9848291015625,-0.0009660923387855291,-0.0014627978671342134,0.0008640037849545479
1761916062746884400,4.99488427734375,0.00042594195110723376,-0.005352344363927841,-0.0005517331883311272
1761916062756938200,5.004938232421875,-0.0027316901832818985,0.0026411458384245634,-0.002054019831120968
1761916062766993400,5.014993408203125,0.0006681012455374002,-0.003099564230069518,0.0009289868175983429
1761916062777047000,5.025047119140625,0.00017657739226706326,0.008315566927194595,-0.001860136166214943
1761916062787102200,5.035102294921875,-0.0008561965078115463,-0.005055099260061979,-0.0005626445636153221
1761916062797156400,5.04515625,-0.00018239516066387296,-0.011396967805922031,0.00035280175507068634
1761916062807211300,5.055211181640625,-0.0005144912865944207,0.002212584251537919,0.001572263427078724
1761916062817265200,5.06526513671875,-0.0007892505382187665,0.002028853166848421,-0.00042989756911993027
1761916062827319000,5.075319091796875,-0.001190056325867772,-0.003516647033393383,-0.0019500292837619781
1761916062837374200,5.085374267578125,-0.0013004480861127377,-0.004022255539894104,-0.0018956661224365234
1761916062847428400,5.095428466796875,0.0009515209821984172,-0.0009449730860069394,0.003106815740466118
1761916062857483300,5.105483154296875,-0.00004076713230460882,0.0011040325043722987,0.001453246921300888
1761916062867537200,5.115537109375,0.000589336734265089,0.004667075350880623,-0.0007278826087713242
1761916062877592300,5.12559228515625,0.00045195245184004307,-0.0029205207247287035,0.0008978499099612236
1761916062887646200,5.135646240234375,-0.0007238331018015742,-0.002478968584910035,0.00047866813838481903
1761916062897701400,5.145701416015625,-0.0020867614075541496,-0.001602548873052001,-0.00030444376170635223
1761916062907755300,5.15575537109375,0.0020453992765396833,-0.0015764499548822641,-0.0009507928043603897
1761916062917810200,5.16581005859375,-0.00220943964086473,-0.0008344617672264576,-0.0009736847132444382
1761916062927864300,5.1758642578125,-0.0010030275443568826,-0.00008398294448852539,-0.0024189818650484085
1761916062937919200,5.185919189453125,-0.001545698381960392,-0.0026160578709095716,0.0008342321962118149
1761916062947973400,5.195973388671875,-0.00044528028229251504,-0.002361459657549858,0.0022755349054932594
1761916062958028300,5.2060283203125,-0.00047439755871891975,0.0006299734814092517,0.0014094328507781029
1761916062968082200,5.216082275390625,0.0002483843418303877,0.0010174635099247098,-0.0006052479147911072
1761916062978137300,5.226137451171875,0.0013965524267405272,-0.0014520057011395693,0.003880552016198635
1761916062988191500,5.23619140625,-0.0011630116496235132,0.0009067560313269496,-0.0016172770410776138
1761916062998245000,5.2462451171875,0.0035995037760585546,-0.000015091063687577844,-0.0007333587855100632
1761916063008300300,5.25630029296875,-0.0017704942729324102,0.003235829761251807,0.00012124981731176376
1761916063018354200,5.266354248046875,0.00006543437484651804,-0.000414999172789976,0.0006136996671557426
1761916063028409300,5.276409423828125,0.0003794210497289896,-0.0009497619466856122,-0.002970648929476738
1761916063038463200,5.286463134765625,0.0012185447849333286,-0.0017070034518837929,-0.0007081925868988037
1761916063048518100,5.29651806640625,0.0005476945079863071,0.002460310934111476,-0.0002495963126420975
1761916063058572300,5.306572265625,0.0007784416666254401,-0.0010483735240995884,-0.00044892728328704834
1761916063068627500,5.31662744140625,-0.0030101712327450514,-0.004658021964132786,-0.0008771633729338646
1761916063078681300,5.326681396484375,-0.0007929852581582963,-0.0009958345908671618,0.0001806691288948059
1761916063088736300,5.336736328125,0.00036096241092309356,0.0044228988699615,0.0008192956447601318
1761916063098789000,5.3467890625,0.0017680542077869177,0.0006046506459824741,-0.0014489442110061646
1761916063108843300,5.35684326171875,-0.000009339477401226759,-0.003822322003543377,-0.0021158000454306602
1761916063118897200,5.366897216796875,-0.0007336660055443645,-0.0007897521136328578,0.00010435190051794052
1761916063128952300,5.376952392578125,0.0013249574694782495,0.004460137337446213,0.0014567049220204353
1761916063139006200,5.387006103515625,0.0005748228868469596,0.005981150548905134,-0.0008108075708150864
1761916063149061000,5.39706103515625,0.0019186539575457573,0.0004489659913815558,-0.0013370485976338387
1761916063159115300,5.407115234375,0.0009662052034400403,-0.0025180927477777004,0.00033473409712314606
1761916063169170200,5.417170166015625,0.001021865289658308,0.0013381645549088717,0.0020681852474808693
1761916063179224300,5.427224365234375,0.001306712394580245,0.001906669931486249,0.0008445698767900467
1761916063189279200,5.437279296875,0.0006893916870467365,0.002487505553290248,0.00009595509618520737
1761916063199333000,5.4473330078125,0.0006534582353197038,-0.005909315310418606,-0.0023463331162929535
1761916063209388300,5.45738818359375,-0.0015068979701027274,-0.0007310645887628198,0.00034825410693883896
1761916063219442400,5.4674423828125,0.000597880338318646,0.0021613945718854666,0.00026999693363904953
1761916063229497000,5.4774970703125,0.0023968457244336605,0.0037723409477621317,0.002368568442761898
1761916063239551200,5.48755126953125,-0.0008579269051551819,-0.0022168667055666447,0.00019688066095113754
1761916063249606400,5.4976064453125,0.003291544271633029,-0.00393540458753705,0.00035667046904563904
1761916063259660300,5.507660400390625,-0.00014193548122420907,0.0023900936357676983,0.001652267761528492
1761916063269715200,5.517715087890625,-0.00032995466608554125,0.00849539041519165,0.00019684992730617523
1761916063279769000,5.52776904296875,0.002299944870173931,-0.003980141133069992,-0.003351232036948204
1761916063289824300,5.53782421875,-0.0006063628825359046,-0.004624892491847277,-0.000751720741391182
1761916063299878400,5.54787841796875,-0.0008279039757326245,-0.0038278354331851006,-0.0008630314841866493
1761916063309933300,5.557933349609375,0.00033456578967161477,0.004997880198061466,-0.0007727500051259995
1761916063319987200,5.5679873046875,-0.0008227162761613727,-0.0016794728580862284,-0.001384783536195755
1761916063330042400,5.57804248046875,-0.0015809182077646255,-0.00548513000831008,-0.0007837088778614998
1761916063340096300,5.58809619140625,-0.00073283351957798,-0.006177253555506468,-0.0013727061450481415
1761916063350151400,5.5981513671875,0.00017716860747896135,-0.0003116412553936243,-0.002062997780740261
1761916063360205000,5.608205078125,-0.0013547784183174372,-0.0008631322998553514,-0.0014520986005663872
1761916063370259200,5.61825927734375,-0.0006631554570049047,-0.00375026511028409,-0.002264895476400852
1761916063380314400,5.628314453125,-0.0004523294628597796,-0.002245842246338725,-0.0005322936922311783
1761916063390368300,5.6383681640625,-0.0009314321796409786,-0.00026551572955213487,-0.00011231377720832825
1761916063400423200,5.648423095703125,0.0005766505491919816,0.0016354203689843416,0.0007254136726260185
1761916063410477000,5.65847705078125,0.000026974128559231758,-0.0005020327516831458,-0.0011443914845585823
1761916063420532200,5.6685322265625,-0.000585666042752564,-0.0015960632590577006,-0.00226680189371109
1761916063430586400,5.67858642578125,0.0006532364641316235,0.0010495209135115147,-0.0022319145500659943
1761916063440641300,5.688641357421875,-0.0013220837572589517,0.0021800831891596317,-0.0002768244594335556
1761916063450695200,5.698695068359375,0.0021221823990345,0.003066383069381118,-0.0009186463430523872
1761916063460750300,5.708750244140625,0.0007023245561867952,0.0009704972617328167,0.00022609159350395203
1761916063470804200,5.71880419921875,0.0006485287449322641,-0.002961926395073533,-0.0025377366691827774
1761916063480859400,5.728859375,0.0004176833899691701,-0.0014746043598279357,-0.0010883677750825882
1761916063490913300,5.738913330078125,0.00039691076381132007,0.0005454032216221094,0.0016213981434702873
1761916063500968200,5.74896826171875,0.00018484232714399695,0.0033824294805526733,-0.0009857090190052986
1761916063511022000,5.75902197265625,-0.0029044244438409805,-0.0014807690167799592,-0.0014355173334479332
1761916063521077200,5.7690771484375,-0.00031864811899140477,-0.002914522076025605,-0.0005139755085110664
1761916063531131100,5.779131103515625,-0.00030107126804068685,0.00009964357013814151,0.0003435621038079262
1761916063541186000,5.78918603515625,-0.0022932805586606264,0.0009204052039422095,0.00013080984354019165
1761916063551240200,5.799240234375,-0.0005571660003624856,-0.0004348774964455515,-0.00023777130991220474
1761916063561295000,5.809295166015625,-0.002615789184346795,-0.0029214464593678713,-0.0005841255187988281
1761916063571349200,5.819349365234375,0.0013312818482518196,-0.007321254815906286,0.00022733956575393677
1761916063581404200,5.829404052734375,-0.0027865557931363583,-0.002914255717769265,0.001318933442234993
1761916063591458000,5.8394580078125,0.00010190869215875864,0.0008719603065401316,-0.0010965531691908836
1761916063601513200,5.84951318359375,-0.0009810873307287693,-0.004048248752951622,-0.0029990775510668755
1761916063611567000,5.859567138671875,0.0013316017575562,-0.003911362495273352,0.0008569126948714256
1761916063621622000,5.8696220703125,0.0004129917360842228,0.0013752758968621492,0.0011948393657803535
1761916063631676200,5.87967626953125,-0.00392130296677351,0.0009110868559218943,0.000148748978972435
1761916063641731000,5.88973095703125,-0.0004436774761416018,0.00033818266820162535,-0.0028933295980095863
1761916063651785200,5.89978515625,-0.00006018223939463496,-0.002798488363623619,0.0011019445955753326
1761916063661841200,5.909841064453125,-0.0014480601530522108,-0.0008521642303094268,0.0021253572776913643
1761916063671896300,5.919896240234375,0.0005335978930816054,-0.00012219182099215686,0.0005431734025478363
1761916063681950200,5.9299501953125,0.0008364975219592452,-0.0020636420231312513,-0.001561812125146389
1761916063692005000,5.940005126953125,0.002165414858609438,0.000010960327927023172,0.0006744442507624626
1761916063702059000,5.95005908203125,-0.0017338651232421398,-0.0010114361066371202,0.0005652718245983124
1761916063712114200,5.9601142578125,0.0005354145541787148,-0.00040849647484719753,-0.0009665787220001221
1761916063722168300,5.970168212890625,0.0011652526445686817,0.0022381760645657778,-0.0023590605705976486
1761916063732223000,5.980222900390625,0.0016102668596431613,-0.0007759895524941385,-0.0007632942870259285
1761916063742277000,5.990277099609375,-0.001757301390171051,-0.00006174194277264178,-0.0024235527962446213
1761916063752332300,6.000332275390625,-0.000317596597597003,-0.003003469668328762,0.000308317132294178
1761916063762386200,6.01038623046875,-0.001464931876398623,-0.003919576294720173,-0.0006259707733988762
1761916063772441000,6.020441162109375,-0.0016638698289170861,0.0010235168738290668,0.0014656754210591316
1761916063782495000,6.030494873046875,0.0001582014956511557,-0.001182915293611586,0.0011211205273866653
1761916063792550100,6.040550048828125,-0.00016084522940218449,-0.003315042005851865,0.00029953569173812866
1761916063802604300,6.050604248046875,-0.000747478858102113,-0.0033043918665498495,-0.00004224013537168503
1761916063812659000,6.060658935546875,0.0016959714703261852,-0.0005205896450206637,0.0012850789353251457
1761916063822713000,6.070713134765625,0.0010331569937989116,0.0006554647698067129,0.001808401197195053
1761916063832768300,6.080768310546875,0.000030743132811039686,-0.00025853211991488934,0.0012129181995987892
1761916063842822100,6.090822265625,0.0000015910482034087181,-0.004062863066792488,0.00013021845370531082
1761916063852877000,6.100876953125,-0.0006618024199269712,-0.001955503597855568,0.0007600560784339905
1761916063862931000,6.110930908203125,0.0033892604988068342,-0.0002582583692856133,-0.0008889324963092804
1761916063872986000,6.120986083984375,-0.0004808451049029827,0.0011287159286439419,-0.0040759374387562275
1761916063883040300,6.131040283203125,-0.00006071751704439521,-0.0013938667252659798,0.0005691712722182274
1761916063893095000,6.141094970703125,0.00011771422578021884,-0.0035909744910895824,0.0007340209558606148
1761916063903149000,6.151149169921875,0.000923187006264925,-0.0018327650614082813,-0.0005589323118329048
1761916063913204200,6.161204345703125,0.0005705844960175455,-0.0010450021363794804,-0.0018495004624128342
1761916063923258000,6.171258056640625,-0.0021813528146594763,-0.001156377955339849,-0.00027345120906829834
1761916063933313000,6.18131298828125,0.0015508010983467102,-0.0006240119691938162,0.0008418802171945572
1761916063943367200,6.1913671875,-0.0021814662031829357,-0.0035814789589494467,-0.00044756103307008743
1761916063953422000,6.201422119140625,0.000411653658375144,-0.0045476737432181835,-0.0025711655616760254
1761916063963476200,6.211476318359375,0.00134689686819911,-0.0011288049863651395,0.0016875425353646278
1761916063973531100,6.22153125,-0.0012699251528829336,0.0008754900190979242,0.00010349415242671967
1761916063983585000,6.2315849609375,-0.001516067422926426,0.0018042760202661157,0.00015851017087697983
1761916063993640200,6.24164013671875,0.0023292710538953543,0.00024206571106333286,-0.0003823777660727501
1761916064003694000,6.251694091796875,0.0007513980963267386,-0.004149260930716991,0.0017132069915533066
1761916064013749200,6.261749267578125,-0.0014499707613140345,0.0004761170130223036,0.000560590997338295
1761916064023803100,6.27180322265625,0.0017029234440997243,-0.0014936317456886172,-0.00001415051519870758
1761916064033858000,6.281858154296875,-0.0011722252238541842,0.0009610038832761347,-0.0003574322909116745
1761916064043912200,6.291912109375,-0.0012786050792783499,-0.00003642839510575868,-0.00019064079970121384
1761916064053967400,6.30196728515625,0.0008383415988646448,-0.0013983688550069928,0.0007595745846629143
1761916064064021000,6.31202099609375,0.001999151660129428,0.0025136307813227177,-0.00010825321078300476
1761916064074076200,6.322076171875,-0.0009321895777247846,-0.0007809658418409526,-0.0007066661491990089
1761916064084130000,6.332130126953125,0.000994330388493836,0.0002440317184664309,0.0008848132565617561
1761916064094185200,6.342185302734375,0.0001578315277583897,-0.0027943686582148075,-0.0002731289714574814
1761916064104239000,6.352239013671875,-0.00038065650733187795,0.0022866781800985336,0.0008525624871253967
1761916064114294000,6.3622939453125,-0.0016480549238622189,-0.0027922361623495817,0.0012033004313707352
1761916064124348200,6.37234814453125,0.0009260819060727954,-0.0011185265611857176,0.00027827173471450806
1761916064134403300,6.3824033203125,-0.0006345305009745061,-0.0022319944109767675,-0.00007805880159139633
1761916064144457200,6.392457275390625,0.000172417116118595,-0.0024092388339340687,-0.0006965762004256248
1761916064154512100,6.40251220703125,-0.001343454117886722,-0.0010382437612861395,-0.001222284510731697
1761916064164566000,6.41256591796875,-0.0002266126684844494,0.0007627481245435774,0.0010612327605485916
1761916064174621200,6.42262109375,-0.00046443293103948236,0.0013752751983702183,-0.0005145594477653503
1761916064184675300,6.43267529296875,-0.0006253133178688586,-0.00356454704888165,0.0012157782912254333
1761916064194730000,6.44272998046875,-0.00031159294303506613,-0.0013581180246546865,0.0005872724577784538
1761916064204784000,6.4527841796875,-0.0021398188546299934,-0.000018799866666086018,0.00030724145472049713
1761916064214839300,6.46283935546875,-0.0005224811029620469,0.0012496637646108866,-0.001023007556796074
1761916064224893200,6.47289306640625,-0.0001140657695941627,0.0017306095687672496,0.0017792601138353348
1761916064234948000,6.482947998046875,0.0009815586963668466,0.00023258145665749907,0.0034820856526494026
1761916064245002000,6.493001953125,0.0016628962475806475,-0.00009691825835034251,0.0009727245196700096
1761916064255057200,6.50305712890625,-0.003470612922683358,-0.0015190462581813335,-0.0010091997683048248
1761916064265111300,6.513111328125,0.0007876338204368949,-0.0007643918506801128,0.0005199797451496124
1761916064275166000,6.523166015625,0.00043583023943938315,0.0031717601232230663,-0.0012976275756955147
1761916064285220000,6.53322021484375,0.00129739532712847,0.001183684216812253,-0.0013327579945325851
1761916064295275300,6.543275146484375,0.0013104449026286602,-0.002335150493308902,-0.002154342830181122
1761916064305329200,6.5533291015625,-0.00069642742164433,0.003596440190449357,-0.0007961820811033249
1761916064315384000,6.563384033203125,-0.0007901706267148256,-0.00013171882892493159,0.0008203564211726189
1761916064325438000,6.57343798828125,0.0000466982601210475,-0.0002325184177607298,0.0016906382516026497
1761916064335493000,6.5834931640625,-0.00009631348075345159,0.0005174277466721833,-0.000491289421916008
1761916064345547300,6.59354736328125,0.0014289066893979907,-0.0007212198688648641,-0.0005266563966870308
1761916064355602000,6.603601806640625,-0.00045474711805582047,0.0010175579227507114,0.00033008307218551636
1761916064365657000,6.613656982421875,0.0015805731527507305,0.001739452127367258,0.003523498773574829
1761916064375711200,6.623711181640625,0.0011017369106411934,0.000620924518443644,0.00009973905980587006
1761916064385766100,6.63376611328125,0.00032573408680036664,-0.003196330275386572,-0.0001340201124548912
1761916064395820000,6.643820068359375,0.0001390464894939214,0.0007946828263811767,-0.000980905257165432
1761916064405875200,6.653875244140625,0.0007449174299836159,0.002772075589746237,-0.000325237400829792
1761916064415929000,6.66392919921875,0.0015585131477564573,0.00154995103366673,0.0013909032568335533
1761916064425984300,6.673984375,0.0016238094540312886,-0.001061136252246797,0.002398841083049774
1761916064436038100,6.6840380859375,-0.0014321678318083286,0.0005394235486164689,-0.0008163927122950554
1761916064446093000,6.694093017578125,-0.00008851964958012104,0.001304208068177104,0.0013570887967944145
1761916064456147200,6.704147216796875,-0.0006496476707980037,0.0028017035219818354,0.003361649811267853
1761916064466202000,6.7142021484375,0.0027326166164129972,0.000975821225438267,0.0014318637549877167
1761916064476256300,6.72425634765625,-0.0016661265399307013,-0.002251930069178343,-0.0016587348654866219
1761916064486311200,6.734311279296875,0.0015144397038966417,-0.00012415580567903817,-0.0003421800211071968
1761916064496365000,6.744364990234375,0.0009985854849219322,-0.00016543481615372002,0.0006498470902442932
1761916064506420500,6.75442041015625,-0.0001643207506276667,0.00004453925066627562,0.002569635398685932
1761916064516474400,6.764474365234375,0.0014844422694295645,0.0015239252243191004,0.002702794037759304
1761916064526529300,6.774529296875,0.002260409528389573,0.0008114544325508177,0.0009714262560009956
1761916064536583400,6.78458349609375,0.0014316337183117867,-0.0017265379428863525,-0.0011372650042176247
1761916064546638600,6.794638671875,0.0007253090152516961,-0.003720492823049426,-0.0007815873250365257
1761916064556692500,6.8046923828125,0.0015120068565011024,-0.003099710214883089,0.00040431786328554153
1761916064566747400,6.814747314453125,0.0001957591448444873,0.0002126359468093142,-0.0001771906390786171
1761916064576801300,6.82480126953125,-0.0013012037379667163,0.002183375181630254,-0.000748172402381897
1761916064586856400,6.8348564453125,0.0020268461667001247,0.0005147043848410249,0.0018188385292887688
1761916064596910600,6.84491064453125,0.002167993690818548,-0.001065082848072052,-0.00334822665899992
1761916064606965200,6.85496533203125,-0.0016064345836639404,0.0015926946653053164,-0.0002411026507616043
1761916064617019400,6.865019287109375,0.0009115842403843999,0.003990871366113424,0.0008997954428195953
1761916064627074600,6.875074462890625,0.00006561476038768888,0.0009972371626645327,2.5425106287002563e-7
1761916064637129200,6.885129150390625,0.0007822713814675808,-0.0008757641189731658,-0.0007507577538490295
1761916064647183400,6.895183349609375,0.0012919552391394973,-0.0005010010208934546,-0.0003554942086338997
1761916064657238500,6.905238525390625,-0.000039092672523111105,0.003477761521935463,-0.00015123002231121063
1761916064667292400,6.91529248046875,0.001462819753214717,0.00028324767481535673,0.0027041304856538773
1761916064677347300,6.925347412109375,-0.0006804922013543546,-0.0029072193428874016,-0.000612037256360054
1761916064687401200,6.935401123046875,0.0010489601409062743,0.00008711389091331512,-0.00007866695523262024
1761916064697456400,6.945456298828125,-0.0004208385362289846,0.00401154812425375,0.0015344098210334778
1761916064707510500,6.955510498046875,0.00027166158542968333,0.0012297206558287144,0.00015146471560001373
1761916064717565200,6.965565185546875,-0.0005083783180452883,-0.0000504608906339854,0.001607680693268776
1761916064727619300,6.975619384765625,0.002277257852256298,0.0013004622887820005,-0.0006337137892842293
1761916064737674500,6.985674560546875,0.0004213009960949421,0.001424032961949706,-0.0005873749032616615
1761916064747728400,6.995728271484375,0.0012187828542664647,0.0024276901967823505,-0.0017158882692456245
1761916064757783300,7.005783203125,-0.0011730021797120571,0.0012417846592143178,-0.0024594422429800034
1761916064767837200,7.015837158203125,0.0011841277591884136,-0.00040149668348021805,-0.0025105467066168785
1761916064777892400,7.025892333984375,0.0022469954565167427,0.0010858786990866065,0.0003464929759502411
1761916064787946500,7.035946533203125,-0.0011784103699028492,0.0006976754521019757,0.0010120542719960213
1761916064798001400,7.04600146484375,0.0008224224438890815,0.001228443579748273,0.0005571860820055008
1761916064808055300,7.05605517578125,-0.0018448589835315943,0.001497129793278873,-0.001920684240758419
1761916064818110500,7.0661103515625,-0.0006608175463043153,0.0004965800908394158,-0.0001446213573217392
1761916064828164400,7.076164306640625,0.001121745677664876,-0.0005296094459481537,0.001154470257461071
1761916064838219500,7.086219482421875,0.0005499649560078979,0.0003076884022448212,0.0007747029885649681
1761916064848274400,7.0962744140625,-0.0004497955087572336,-0.00005686776421498507,0.00019110273569822311
1761916064858328300,7.106328369140625,-0.0013779071159660816,0.00006563763599842787,0.0013282718136906624
1761916064868383500,7.116383544921875,-0.0006413143128156662,0.0000111199333332479,-0.0006206175312399864
1761916064878437400,7.126437255859375,-0.001905250595882535,-0.00207972782664001,-0.0006115622818470001
1761916064888492300,7.1364921875,0.0003427389601711184,0.00022514718875754625,-0.001140223816037178
1761916064898546400,7.14654638671875,0.0009600596968084574,-0.0007264002924785018,0.0006933622062206268
1761916064908601300,7.156601318359375,0.000954113551415503,0.0008977612014859915,-0.00018346216529607773
1761916064918655500,7.166655517578125,0.0009477219427935779,0.00146474817302078,0.0009174887090921402
1761916064928710400,7.17671044921875,0.0014310611877590418,0.0001487789413658902,-0.0012637581676244736
1761916064938764300,7.186764404296875,0.00014741759514436126,-0.00011327610991429538,0.000011096708476543427
1761916064948819500,7.1968193359375,0.0008372419979423285,-0.0006658386555500329,0.0012651635333895683
1761916064958873300,7.206873291015625,-0.0004107152344658971,0.001002898090519011,0.0008105626329779625
1761916064968928300,7.21692822265625,-0.001792829018086195,0.00171889818739146,-0.00122023094445467
1761916064978982400,7.226982421875,0.0004647325840778649,-0.0006774141802452505,-0.00026735197752714157
1761916064989037300,7.237037353515625,-0.00013934861635789275,0.0012105009518563747,0.00005985330790281296
1761916064999091500,7.247091552734375,-0.0003393520601093769,0.0016512541333213449,-0.00023575779050588608
1761916065009146400,7.257146484375,-0.001164569752290845,0.0007055220776237547,-0.0005722716450691223
1761916065019201300,7.267201171875,-0.0012204961385577917,0.001161188934929669,0.0015755677595734596
1761916065029255400,7.27725537109375,0.0008364744135178626,-0.0007245044689625502,-0.0009027440100908279
1761916065039310300,7.287310302734375,-0.0007260021520778537,-0.0008512709755450487,0.001522596925497055
1761916065049364200,7.2973642578125,0.0006781652919016778,-0.0016524181701242924,0.0015217699110507965
1761916065059419400,7.30741943359375,0.0018896372057497501,0.0011532220523804426,0.00007274467498064041
1761916065069473300,7.317473388671875,0.002168098697438836,0.0017751870909705758,-0.0005013719201087952
1761916065079528400,7.327528564453125,0.00009216467151418328,0.0026585576124489307,0.0003332635387778282
1761916065089582300,7.337582275390625,0.0002975744428113103,-0.003138086525723338,-0.00008533522486686707
1761916065099637200,7.34763720703125,-0.00047660653945058584,-0.0020392662845551968,0.0009951088577508926
1761916065109691400,7.35769140625,-0.0007458835607394576,0.000030263763619586825,-0.0013087308034300804
1761916065119746600,7.36774658203125,0.00013003015192225575,0.0012230935972183943,-0.0012030033394694328
1761916065129800200,7.37780029296875,0.0022202166728675365,0.0005076617235317826,0.000056646764278411865
1761916065139855400,7.38785546875,0.001269468106329441,0.0002538624685257673,-0.00015747174620628357
1761916065149909500,7.397909423828125,0.0010899032931774855,0.0005590792279690504,-0.0000011585652828216553
1761916065159964400,7.40796435546875,0.0013061519712209702,-0.0019781142473220825,0.0006028460338711739
1761916065170018600,7.4180185546875,-0.00021590519463643432,-0.0008943011634983122,-0.00025138072669506073
1761916065180073500,7.428073486328125,0.000457341899164021,-0.002318559680134058,-0.00038374029099941254
1761916065190128400,7.43812841796875,-0.001979460706934333,-0.0031756863463670015,-0.001959262415766716
1761916065200182500,7.4481826171875,-0.000596214784309268,0.0005796371842734516,-0.0005350038409233093
1761916065210237200,7.4582373046875,-0.000788890291005373,0.0005467902519740164,0.000445057637989521
1761916065220291300,7.468291259765625,0.0016279283445328474,0.002282904926687479,-0.003941169008612633
1761916065230346500,7.478346435546875,0.00045364160905592144,0.0014311743434518576,0.0010109152644872665
1761916065240400400,7.488400390625,-0.00005768530536442995,0.000055118965974543244,0.0017589973285794258
1761916065250455300,7.498455322265625,0.0010053302394226193,-0.0014854551991447806,-0.0006475765258073807
1761916065260509400,7.508509521484375,-0.0013164135161787271,-0.0007522869855165482,-0.002167975530028343
1761916065270564400,7.518564453125,0.0003827404580079019,0.0007779321167618036,0.0009652357548475266
1761916065280618500,7.528618408203125,-0.001912904204800725,-0.002404279075562954,0.0020736437290906906
1761916065290673400,7.53867333984375,-0.000558043597266078,0.0004198658571112901,-0.003105909563601017
1761916065300727300,7.548727294921875,0.00044996285578235984,0.000023587490431964397,0.001154881902039051
1761916065310782500,7.558782470703125,0.00237267161719501,-0.00008425959094893187,0.0002742055803537369
1761916065320837400,7.56883740234375,-0.00006278918590396643,-0.0009756195358932018,0.00018925033509731293
1761916065330891300,7.578891357421875,0.001297295093536377,-0.00131704518571496,0.0013499902561306953
1761916065340946400,7.588946533203125,0.0033079818822443485,-0.0011479344684630632,-0.00017946306616067886
1761916065351000300,7.599000244140625,0.00009014143142849207,-0.001129074371419847,-0.0003198813647031784
1761916065361055500,7.609055419921875,-0.0012156064622104168,0.0011343462392687798,0.0007706834003329277
1761916065371109400,7.619109375,0.0006655316101387143,0.0002909604227170348,-0.0022248905152082443
1761916065381164300,7.629164306640625,0.0019012383418157697,0.0027977938298135996,0.0015200469642877579
1761916065391218400,7.639218505859375,0.0022663911804556847,0.00030845910077914596,-0.0008074063807725906
1761916065401273600,7.649273681640625,-0.0002604160690680146,-0.0013911703135818243,-0.0008449573069810867
1761916065411327500,7.659327392578125,-0.001503007602877915,-0.0009718844667077065,0.00047316960990428925
1761916065421382400,7.66938232421875,0.0008325846283696592,-0.0012254174798727036,-0.0012006266042590141
1761916065431437600,7.6794375,0.0014617019332945347,-0.0009831967763602734,0.0003820471465587616
1761916065441491500,7.689491455078125,-0.0015908132772892714,0.0026613392401486635,-0.0010323580354452133
1761916065451546400,7.69954638671875,-0.0010738056153059006,-0.0003474344266578555,-0.001228337176144123
1761916065461600300,7.709600341796875,-0.0016088346019387245,0.0010147724533453584,0.0007274886593222618
1761916065471655400,7.719655517578125,-0.001855766517110169,0.00028841590392403305,-0.0006946073845028877
1761916065481709600,7.72970947265625,0.0002089821791741997,-0.0010769867803901434,-0.0005521290004253387
1761916065491764200,7.73976416015625,0.0006454623071476817,0.0005732948193326592,0.0010833656415343285
1761916065501818600,7.749818603515625,-0.000034176395274698734,0.0015946171479299664,-0.00029029231518507004
1761916065511873800,7.759873779296875,-0.0013721849536523223,-0.0016842521727085114,-0.00010307878255844116
1761916065521928000,7.769927978515625,0.00024328843574039638,-0.0024075668770819902,0.0005555208772420883
1761916065531982600,7.779982666015625,0.0011296877637505531,-0.0018712668679654598,-0.001894114539027214
1761916065542036700,7.79003662109375,0.0008090431801974773,-0.00028801755979657173,0.00074720848351717
1761916065552092000,7.800091796875,-0.0001277396222576499,0.00206795078702271,-0.0017309989780187607
1761916065562146600,7.810146484375,0.0013348683714866638,0.00145569012966007,0.00021284259855747223
1761916065572200700,7.82020068359375,-0.0008246941142715514,-0.002117746276780963,0.0007885778322815895
1761916065582255900,7.830255859375,0.0007934425957500935,0.001416534767486155,0.002241065725684166
1761916065592309800,7.840309814453125,0.0010779215954244137,0.004283525049686432,-0.00019401591271162033
1761916065602364700,7.85036474609375,-0.000191074563190341,-0.000732272572349757,-0.0011876411736011505
1761916065612418600,7.86041845703125,-0.0019314398523420095,-0.0026585254818201065,-0.0035290075466036797
1761916065622473700,7.8704736328125,0.0020686283241957426,0.000645392166916281,0.00006865710020065308
1761916065632528000,7.88052783203125,-0.0025673089548945427,0.0012689550640061498,-0.0009564757347106934
1761916065642582500,7.89058251953125,0.0017281034961342812,-0.00014225399354472756,-0.0018182750791311264
1761916065652637700,7.9006376953125,0.0013581038219854236,0.0006509916856884956,-0.00035888422280550003
1761916065662691800,7.91069189453125,-0.0008592440281063318,-0.0009844554588198662,-0.0012395922094583511
1761916065672746800,7.920746826171875,0.0015022556763142347,0.0013459790498018265,0.0006668781861662865
1761916065682801000,7.93080078125,0.0009126318618655205,-0.00015657648327760398,0.0011659543961286545
1761916065692855800,7.940855712890625,0.0020658778958022594,0.0003092371334787458,-0.00006218068301677704
1761916065702909700,7.95090966796875,0.002263750648126006,-0.0018170305993407965,-0.003185003064572811
1761916065712964900,7.96096484375,0.0011153670493513346,-0.0028075978625565767,0.0017284946516156197
1761916065723018800,7.971018798828125,-0.0012053113896399736,-0.0001742641907185316,0.0025029415264725685
1761916065733073700,7.98107373046875,-0.0014411108568310738,0.0018481035949662328,-0.0019895145669579506
1761916065743127800,7.9911279296875,0.00040339434053748846,-0.0041384161449968815,-0.001894972287118435
1761916065753182700,8.0011826171875,0.00015225887182168663,-0.00038923247484490275,-0.00044142361730337143
1761916065763237600,8.011237548828126,0.0001067188277374953,-0.00010773637040983886,0.0009759105741977692
1761916065773291800,8.021291748046876,-0.0008020371897146106,-0.00031483196653425694,-0.0005727028474211693
1761916065783346700,8.0313466796875,-0.0020124437287449837,0.0035659263376146555,0.00013223569840192795
1761916065793400800,8.04140087890625,-0.0013853143900632858,-0.0005797351477667689,0.0001707170158624649
1761916065803455700,8.051455810546875,0.0009904915932565928,-0.0013975918991491199,0.0014085546135902405
1761916065813509600,8.061509521484375,0.001992754405364394,0.0007782579632475972,0.0007809130474925041
1761916065823564800,8.071564697265625,-0.0038198609836399555,-0.00034532969584688544,-0.0013906285166740417
1761916065833618700,8.08161865234375,0.0005371086881496012,-0.000606145360507071,-0.0009823385626077652
1761916065843673600,8.091673583984376,-0.0005561189609579742,0.003906581085175276,-0.0007716827094554901
1761916065853728800,8.101728759765624,-0.00048116286052390933,-0.0011974512599408627,0.0011753719300031662
1761916065863782700,8.11178271484375,-0.0005421492387540638,0.0010515882167965174,0.0008424762636423111
1761916065873837800,8.121837890625,-0.0007746547926217318,0.0014085090951994061,-0.0005060499534010887
1761916065883891700,8.1318916015625,0.0007374880369752645,-0.005620372015982866,-0.00008447188884019852
1761916065893946600,8.141946533203125,-0.0005890466272830963,0.0029100365936756134,0.0019308915361762047
1761916065904000800,8.152000732421875,0.0009886100888252258,0.00036591890966519713,0.0006504431366920471
1761916065914056000,8.162055908203126,0.0011056482326239347,-0.0002575533289927989,0.0013981666415929794
1761916065924109800,8.17210986328125,-0.0008629604708403349,-0.0010096300393342972,0.0027137678116559982
1761916065934164700,8.182164794921874,0.0004207729361951351,-0.0021069967187941074,-0.0013854829594492912
1761916065944220000,8.192219970703125,0.000899342994671315,-0.00033759261714294553,-0.00032767560333013535
1761916065954273800,8.202273681640625,0.0010775593109428883,-0.0006856612744741142,0.0020354511216282845
1761916065964328700,8.21232861328125,0.0014410808216780424,-0.0002132164954673499,0.0007233107462525368
1761916065974382600,8.222382568359375,-0.000469867663923651,-0.0017598660197108984,-0.0012640943750739098
1761916065984437800,8.232437744140626,0.0022002176847308874,-0.0002107052132487297,0.00046189967542886734
1761916065994492000,8.242491943359376,-0.0002637765137478709,-0.00005087394674774259,-0.001136292703449726
1761916066004546600,8.252546630859374,-0.001177240745164454,-0.00003489498340059072,0.0007393714040517807
1761916066014600700,8.2626005859375,0.0017954281065613031,0.003233550814911723,-0.0005197199061512947
1761916066024656000,8.27265576171875,0.0013040747726336122,-0.00014600055874325335,0.0031511811539530754
1761916066034710500,8.28271044921875,-0.0007243812433443964,0.00009107701771426946,0.00013579241931438446
1761916066044764700,8.2927646484375,0.0016516910400241613,-0.00033422981505282223,0.001558985561132431
1761916066054819800,8.30281982421875,0.0010779198491945863,-0.0003215016331523657,0.000029391609132289886
1761916066064873700,8.312873779296876,-0.0013964232057332993,0.0004766477504745126,0.0007774736732244492
1761916066074928600,8.3229287109375,-0.0016500442288815975,0.0013956351904198527,0.0010688072070479393
1761916066084982800,8.332982666015624,0.0021074097603559494,-0.00010372449469286948,-0.0020193951204419136
1761916066095037700,8.34303759765625,0.00008737441385164857,0.00007938780618133023,-0.0023906854912638664
1761916066105091800,8.353091796875,0.0011885915882885456,-0.0035283963661640882,-0.0032687298953533173
1761916066115146800,8.363146728515625,0.0011781740467995405,-0.000006234025931917131,0.001024584285914898
1761916066125201700,8.37320166015625,-0.0005861701793037355,0.00025768522755242884,0.00033455900847911835
1761916066135255800,8.383255859375,-0.0004733886453323066,0.0017757290042936802,-0.0010092472657561302
1761916066145310700,8.393310791015624,-0.0015559634193778038,0.0010084722889587283,0.0023268945515155792
1761916066155364900,8.40336474609375,0.00047615397488698363,-0.0016432992415502667,0.000578124076128006
1761916066165419800,8.413419677734375,-0.002384613733738661,-0.0009601983474567533,0.0017563067376613617
1761916066175473700,8.4234736328125,-0.00019834213890135288,0.0012350765755400062,-0.00045226793736219406
1761916066185528800,8.43352880859375,-0.0003866276238113642,-0.0010986514389514923,-0.000009117648005485535
1761916066195583700,8.443583740234375,-0.002754753455519676,-0.0009425755124539137,0.00021475274115800858
1761916066205637600,8.4536376953125,-0.0007049183477647603,0.0018556078430265188,0.002492820844054222
1761916066215692800,8.46369287109375,-0.00072271324461326,0.0012194343144074082,-0.0006049377843737602
1761916066225747000,8.473746826171874,0.0012600100599229336,0.002685770858079195,-0.0002512698993086815
1761916066235801600,8.483801513671875,0.00009935113484971225,-0.0018458839040249586,-0.0013002054765820503
1761916066245855700,8.493855712890625,-0.0005922717391513288,0.000357349228579551,-0.0019375002011656761
1761916066255911000,8.503910888671875,0.000013759825378656387,0.002311376854777336,-0.0007167188450694084
1761916066265965800,8.5139658203125,-0.001064554089680314,0.0017193560488522053,0.002091584727168083
1761916066276019700,8.524019775390625,0.0003169672563672066,0.00029324161005206406,-0.00008578412234783173
1761916066286074600,8.53407470703125,-0.001395445317029953,-0.00008918832463677973,0.0026165256276726723
1761916066296128800,8.544128662109374,0.0002839497465174645,0.001710756914690137,0.0033341264352202415
1761916066306184000,8.554183837890625,0.00035958352964371443,-0.000946012616623193,0.0018398268148303032
1761916066316237600,8.564237548828125,-0.00006820756243541837,-0.00028275916702114046,-0.0015483591705560684
1761916066326292700,8.574292724609375,-0.0000780612463131547,-0.0005011383909732103,-0.0009166570380330086
1761916066336347000,8.584346923828125,0.0014770729467272758,0.0024502924643456936,0.0022613396868109703
1761916066346401800,8.59440185546875,-0.0007615802460350096,-0.000524458650033921,-0.002488674595952034
1761916066356456700,8.604456787109376,0.0007323089521378279,-0.0008372514275833964,0.0004201047122478485
1761916066366510800,8.6145107421875,0.0009637376642785966,-0.0018644325900822878,-0.003389813005924225
1761916066376565800,8.624565673828124,-0.0005006323917768896,0.0027834028005599976,-0.00109077338129282
1761916066386620000,8.634619873046875,-0.0004606849397532642,-0.0010145313572138548,0.00011483952403068542
1761916066396674800,8.6446748046875,-0.00019757432164624333,-0.0032739753369241953,0.0004012938588857651
1761916066406728700,8.654728759765625,-0.0004417861928232014,0.0025796527042984962,-0.00036383233964443207
1761916066416784000,8.664783935546875,-0.0013068744447082281,-0.0015249017160385847,-0.00024663563817739487
1761916066426838800,8.6748388671875,0.000612465722952038,0.0010700824204832315,0.0010090451687574387
1761916066436892700,8.684892578125,-0.002454596571624279,-0.0013433246640488505,-0.000742853619158268
1761916066446947800,8.69494775390625,-0.001811443129554391,0.0018146517686545849,-0.00046854838728904724
1761916066457001700,8.705001708984375,-0.0004963598912581801,0.001626658602617681,0.0024901507422327995
1761916066467056600,8.715056640625,-0.001719283522106707,-0.0021941785234957933,-0.000031596049666404724
1761916066477110800,8.72511083984375,0.000970203778706491,-0.0008591286023147404,0.0005727168172597885
1761916066487165700,8.735165771484375,0.00021413236390799284,-0.000050060247303918004,0.00046911928802728653
1761916066497220900,8.745220947265626,0.002008596435189247,0.001690934645012021,-0.0034195156767964363
1761916066507274800,8.755274658203126,-0.0012108988594263792,0.0006584270158782601,-0.0010383827611804008
1761916066517329700,8.76532958984375,0.0005505658336915076,0.001341822324320674,-0.00047623179852962494
1761916066527383800,8.7753837890625,0.0022169058211147785,0.004640679806470871,-0.0008360249921679497
1761916066537439000,8.78543896484375,0.002744568046182394,0.0017624815227463841,0.0016114674508571625
1761916066547492900,8.795492919921875,0.0012404148001223803,-0.0011973556829616427,-0.0006972262635827065
1761916066557547800,8.8055478515625,0.0017310755793005228,0.0008303007343783975,0.0003720289096236229
1761916066567603000,8.81560302734375,-0.0002013141056522727,0.002685724990442395,0.0007555233314633369
1761916066577656800,8.82565673828125,-0.0009830838534981012,0.0008892157347872853,-0.0019006002694368362
1761916066587711700,8.835711669921874,0.0011732776183634996,0.0005973333027213812,-0.0007413262501358986
1761916066597765600,8.845765625,0.002291793003678322,0.0017184151802212,-0.0008200453594326973
1761916066607820800,8.85582080078125,0.0007130709709599614,0.00020733766723424196,0.0008271196857094765
1761916066617875000,8.865875,-0.0013084076344966888,0.00020734895952045918,0.0013574035838246346
1761916066627929600,8.8759296875,-0.0016820491291582584,-0.0010621799156069756,-0.0020410558208823204
1761916066637984800,8.88598486328125,0.0001709075877442956,-0.002430299296975136,-0.001161244697868824
1761916066648039000,8.896038818359376,0.0012351067271083593,0.0006776094669476151,-0.00030610430985689163
1761916066658093600,8.906093505859374,0.002153939101845026,0.00032134196953848004,0.0010640118271112442
1761916066668147700,8.916147705078124,0.0011619115248322487,0.0021405473817139864,-0.00005531497299671173
1761916066678203000,8.926202880859375,0.0006863743183203042,-0.0011259174207225442,0.0010732626542448997
1761916066688257800,8.9362578125,-0.0009493391844443977,0.0019737358670681715,-0.0019299834966659546
1761916066698311700,8.946311767578125,-0.0013137029018253088,0.0011460573878139257,0.0001326240599155426
1761916066708366800,8.956366943359376,0.0006865973700769246,0.0015852125361561775,-0.0005621938034892082
1761916066718420700,8.966420654296876,-0.0016302780713886023,-0.00034334202064201236,0.0011659711599349976
1761916066728476000,8.976475830078124,-0.0013988494174554944,-0.0022397791035473347,-0.00039810314774513245
1761916066738529800,8.98652978515625,0.00014369189739227295,0.0011264183558523655,0.0025979038327932358
1761916066748584700,8.996584716796875,0.0008379779756069183,-0.002342349151149392,0.0020184004679322243
1761916066758639900,9.006639892578125,0.0009091630345210433,0.0013584349071606994,-0.0014729499816894531
1761916066768693800,9.01669384765625,-0.000046645523980259895,0.0012521747266873717,-0.0008710753172636032
1761916066778748700,9.026748779296875,0.0004538002540357411,0.0012972825206816196,0.00015458371490240097
1761916066788802800,9.036802734375,-0.0013116092886775732,-0.001971481367945671,0.0013527395203709602
1761916066798857700,9.046857666015624,-0.0025129865389317274,-0.0010995622724294662,-0.0013529295101761818
1761916066808912000,9.056911865234374,-0.001389398705214262,0.0008434800547547638,-0.0020376285538077354
1761916066818966800,9.066966796875,0.0014431901508942246,-0.002442356664687395,-0.00010856892913579941
1761916066829021700,9.077021728515625,-0.00040637521306052804,-0.002537165069952607,-0.0010545244440436363
1761916066839075800,9.087075927734375,0.0021380663383752108,-0.002437349408864975,0.0013766735792160034
1761916066849130800,9.097130859375,0.00022192185861058533,0.0003938571026083082,-0.000888078473508358
1761916066859184600,9.1071845703125,-0.0006846417672932148,0.0017140009440481663,-0.001767624169588089
1761916066869239800,9.11723974609375,0.0005697070737369359,-0.0005619364674203098,0.00047688838094472885
1761916066879293700,9.127293701171874,-0.00005177484126761556,0.0007353728287853301,0.0026117851957678795
1761916066889348900,9.137348876953125,-0.0009535212302580476,-0.00010325654875487089,0.001308433711528778
1761916066899403800,9.14740380859375,0.0014491812326014042,0.00017684373597148806,-0.0015958240255713463
1761916066909457700,9.157457763671875,0.0013551716692745686,0.00019388797227293253,-0.0022110138088464737
1761916066919512800,9.167512939453125,0.0001340313465334475,-0.0003097984881605953,0.0013857213780283928
1761916066929567000,9.17756689453125,-0.0004966052365489304,0.0008891565958037972,0.0010163411498069763
1761916066939621600,9.18762158203125,-0.0002806884585879743,0.0011207517236471176,0.00017828308045864105
1761916066949676800,9.1976767578125,0.00042345133260823786,0.0012597688473761082,0.0009055919945240021
1761916066959731000,9.20773095703125,0.0011765873059630394,-0.0022184927947819233,-0.0008683819323778152
1761916066969785600,9.21778564453125,-0.0007166539435274899,-0.0023204919416457415,-0.0009392211213707924
1761916066979839700,9.22783984375,-0.00017521623522043228,0.0008686272776685655,0.002316170372068882
1761916066989895000,9.23789501953125,0.003526311367750168,-0.0006765387370251119,-0.001728372648358345
1761916066999949600,9.247949462890626,-0.0009605248342268169,-0.00028852434479631484,0.0015157442539930344
1761916067010003700,9.258003662109376,-0.00010218803072348237,0.0014638355933129787,-0.0011873645707964897
1761916067020059000,9.268058837890624,0.0014586413744837046,0.0005048697348684072,-0.0002362281084060669
1761916067030112800,9.27811279296875,0.0020376124884933233,0.00267294910736382,0.0006990740075707436
1761916067040168000,9.28816796875,-0.0010599097004160285,0.005718909669667482,-0.0007628258317708969
1761916067050221600,9.2982216796875,0.0013856710866093636,0.000020544022845569998,0.00060310959815979
1761916067060276700,9.30827685546875,0.00009410415077582002,0.000885190034750849,-0.0008783861994743347
1761916067070332000,9.318331787109376,-0.00031149527058005333,0.00146815599873662,0.002632458694279194
1761916067080385800,9.3283857421875,0.00014456681674346328,0.00044933223398402333,0.0003120899200439453
1761916067090439000,9.33843896484375,0.0021480629220604897,0.0011731794802471995,-0.0014330791309475899
1761916067100493600,9.34849365234375,0.0009638260235078633,-0.00026410637656226754,0.0018210522830486298
1761916067110547700,9.358547607421874,-0.0008258181624114513,0.000356410164386034,-0.0021063117310404778
1761916067120603000,9.368602783203125,0.0021021454595029354,-0.0024785324931144714,-0.0024016425013542175
1761916067130657800,9.37865771484375,0.000523423426784575,-0.0014473565388470888,0.001608544960618019
1761916067140711700,9.388711669921875,0.00007273940718732774,0.0005694073042832315,0.0017695678398013115
1761916067150766800,9.398766845703125,0.0012485249899327755,-0.00022341575822792947,-0.0001220759004354477
1761916067160820700,9.40882080078125,-0.0006283072289079428,0.0006526544457301497,-0.0007637413218617439
1761916067170876000,9.4188759765625,-0.00036811636528000236,-0.0001902360381791368,0.00028474535793066025
1761916067180929500,9.428929443359374,0.0020572133362293243,0.001141267828643322,0.000701630488038063
1761916067190984700,9.438984619140625,-0.0013095547910779715,0.0008565759053453803,0.00025342032313346863
1761916067201040000,9.449039794921875,0.0009214796009473503,0.001356232794933021,0.0009293816983699799
1761916067211093800,9.45909375,0.00021281244698911905,-0.004357312805950642,-0.0001228339970111847
1761916067221148700,9.469148681640625,0.0006951609975658357,-0.0003677030326798558,-0.0013984274119138718
1761916067231202800,9.479202880859376,-0.001951754791662097,-0.00016636804502923042,-0.002128932625055313
1761916067241257700,9.4892578125,0.0006059331935830414,0.0004116290365345776,0.0006826119497418404
1761916067251312600,9.499312744140624,-0.0002902204869315028,-0.00035376346204429865,-0.0004787920042872429
1761916067261366800,9.50936669921875,-0.0003556421143002808,0.0011017679935321212,0.0017251279205083847
1761916067271421700,9.519421630859375,0.0016164286062121391,-0.0006146393716335297,-0.00008662045001983643
1761916067281475800,9.529475830078125,0.0009557263692840934,-0.00020788572146557271,0.0016090329736471176
1761916067291530800,9.53953076171875,0.00128462677821517,-0.001117887906730175,-0.0004975274205207825
1761916067301585700,9.549585693359376,0.00016337426495738328,0.0002776820329017937,-0.002804368734359741
1761916067311639800,9.559639892578126,0.0006541948532685637,-0.0021479250863194466,0.0008300468325614929
1761916067321695000,9.569695068359374,-0.0014165659667924047,0.002785032382234931,0.00011933315545320511
1761916067331748600,9.57974853515625,0.001521965954452753,0.001358909416012466,-0.0010519251227378845
1761916067341803800,9.5898037109375,-0.0013984648976475,-0.0003268446889705956,-0.00022880826145410538
1761916067351859000,9.59985888671875,0.000987993786111474,0.0011842328822240233,0.0019307490438222885
1761916067361912800,9.609912841796875,-0.0008700522594153881,0.0016463411739096045,-0.0023232512176036835
1761916067371967700,9.6199677734375,-0.0008255775319412351,0.0014279618626460433,0.0015782788395881653
1761916067382021600,9.630021728515626,-0.0013969738502055407,-0.0016719254199415445,-0.002144400030374527
1761916067392076800,9.640076904296874,-0.00013383646728470922,-0.0006039977306500077,-0.0015084370970726013
1761916067402131700,9.650131591796875,0.0009658113121986389,-0.0013751306105405092,0.0013591330498456955
1761916067412185600,9.660185546875,-0.001564990496262908,-0.0009772543562576175,0.0017093392089009285
1761916067422240800,9.67024072265625,0.0017149066552519798,0.0017481871182098985,0.0006294790655374527
1761916067432295000,9.680294921875,-0.000045709137339144945,-0.00041483232052996755,0.0004148287698626518
1761916067442349600,9.690349609375,0.0016496098833158612,0.002634970471262932,-0.00078597292304039
1761916067452404700,9.70040478515625,0.0010344197507947683,0.0013768930220976472,0.0014811763539910316
1761916067462459000,9.710458984375,0.0002465931756887585,-0.0012857739347964525,-0.0023782486096024513
1761916067472513800,9.720513671875,0.0015193178551271558,-0.0033984596375375986,0.00023963861167430878
1761916067482567700,9.730567626953125,-0.0006949040107429028,-0.000553519930690527,-0.0009655151516199112
1761916067492622800,9.740622802734375,0.00029659082065336406,-0.0029298586305230856,-0.002107745036482811
1761916067502677800,9.750677734375,-0.0017767075914889574,0.003188331611454487,0.00016930792480707169
1761916067512730600,9.760730712890625,-0.001058186637237668,0.00016431225230917335,-0.0011372389271855354
1761916067522785500,9.77078564453125,-0.00022057327441871166,-0.0005331630818545818,-0.00014288350939750671
1761916067532839400,9.78083935546875,0.0011807819828391075,-0.000741954951081425,-0.0008659316226840019
1761916067542894600,9.79089453125,-0.0003331265179440379,0.0027433568611741066,0.002160215750336647
1761916067552949800,9.80094970703125,-0.00026841170620173216,-0.0007352642132900655,-0.0011445004492998123
1761916067563003600,9.811003662109375,-0.0008736513555049896,-0.0005684132338501513,0.00012623704969882965
1761916067573058600,9.82105859375,-0.00027151062386110425,0.000679277756717056,-0.0029859328642487526
1761916067583112700,9.83111279296875,0.004028479102998972,0.004324475768953562,0.0007699057459831238
1761916067593167600,9.841167724609376,-0.0025263591669499874,0.0007393282721750438,0.0011398186907172203
1761916067603222500,9.851222412109376,-0.0012488386128097773,0.0030512989033013582,-0.0017980653792619705
1761916067613276700,9.861276611328124,-0.00007038982585072517,-0.0033227107487618923,-0.0023306971415877342
1761916067623331600,9.87133154296875,-0.00023415120085701346,-0.0011562576983124018,-0.000591423362493515
1761916067633385700,9.8813857421875,0.0021933200769126415,-0.0008436025236733258,-0.0013163359835743904
1761916067643440600,9.891440673828125,0.0011054453207179904,0.0006104347994551063,0.0006834855303168297
1761916067653495600,9.90149560546875,-0.0007262768340297043,-0.00005056173540651798,-0.0037645259872078896
1761916067663550700,9.91155078125,-0.0000037037243600934744,-0.00448817852884531,-0.00161764957010746
1761916067673605600,9.921605712890624,0.00035236089024692774,0.003385457443073392,0.0032247761264443398
1761916067683659500,9.931659423828124,0.0000707839208189398,0.0077781472355127335,0.0024224789813160896
1761916067693714700,9.941714599609375,0.0002537430846132338,0.005742959678173065,0.0002746395766735077
1761916067703768800,9.951768798828125,-0.0006302379188127816,0.0009288599831052125,0.0026421071961522102
1761916067713823500,9.961823486328125,0.002675810130313039,0.008144162595272064,0.005762533284723759
1761916067723878700,9.971878662109376,-0.0015662256628274918,0.0074057565070688725,-0.00009173434227705002
1761916067733932800,9.981932861328126,0.0018375604413449764,0.0026469535659998655,-0.0006009303033351898
1761916067743987500,9.991987548828124,0.0013204101705923676,-0.010579952038824558,-0.0045235650613904
1761916067754041600,10.00204150390625,-0.0007286259206011891,-0.010303249582648277,0.00004641897976398468
1761916067764096800,10.0120966796875,-0.0002982729347422719,-0.0030757468193769455,0.0011913515627384186
1761916067774151700,10.022151611328125,0.0033300176728516817,0.0010835783323273063,0.0001101084053516388
1761916067784205600,10.03220556640625,0.0008223636541515589,0.005800534505397081,0.00022559333592653275
1761916067794260700,10.0422607421875,0.00020930395112372935,0.0008819424547255039,0.00021813716739416122
1761916067804314600,10.052314697265626,-0.00017424291581846774,-0.004214780870825052,-0.0010273279622197151
1761916067814369800,10.062369873046874,-0.00013855655561201274,0.0005829039728268981,0.0018030796200037003
1761916067824424700,10.0724248046875,0.002113623544573784,0.002798132598400116,-0.00018458347767591476
1761916067834478600,10.082478515625,-0.0008616599952802062,-0.005378836765885353,-0.0006682137027382851
1761916067844533800,10.09253369140625,0.0001306583289988339,-0.014279226772487164,-0.0018243137747049332
1761916067854587600,10.102587646484375,0.0016073811566457152,-0.005870295222848654,-0.00006769318133592606
1761916067864642600,10.112642578125,0.0015006663743406534,0.010559458285570145,0.003999709151685238
1761916067874697700,10.12269775390625,-0.0006168129038996994,0.008142107166349888,0.001354391686618328
1761916067884751600,10.132751708984374,-0.00106771569699049,-0.0047749606892466545,-0.002468773163855076
1761916067894806500,10.142806640625,-0.0004253612132743001,-0.01125256810337305,-0.0016107019037008286
1761916067904860700,10.152860595703125,-0.000985168619081378,-0.00020243802282493562,0.0014328863471746445
1761916067914915600,10.16291552734375,0.0008793105371296406,0.010336223058402538,0.0037831254303455353
1761916067924970800,10.172970703125,-0.00035426815156824887,0.0013151917373761535,0.0018203426152467728
1761916067935024600,10.183024658203125,0.0006281719543039799,-0.006339798681437969,-0.003539535216987133
1761916067945079600,10.19307958984375,-0.001986987888813019,-0.0038422318175435066,-0.001119169406592846
1761916067955134700,10.203134765625,0.001541967038065195,0.0048655057325959206,-0.000751120038330555
1761916067965188900,10.21318896484375,0.0007847129600122571,0.004312543664127588,0.00024046096950769424
1761916067975243500,10.223243408203125,-0.001559933996759355,-0.005407727789133787,0.0006138365715742111
1761916067985297700,10.233297607421875,-0.0017259821761399508,-0.0071259755641222,-0.0002690274268388748
1761916067995352800,10.243352783203125,0.0003209234564565122,0.000987078296020627,0.0017653610557317734
1761916068005407500,10.253407470703126,0.0008816049667075276,0.005865041632205248,0.00038120336830616
1761916068015461600,10.263461669921876,-0.0006329347379505634,0.0027382243424654007,0.0007306104525923729
1761916068025516800,10.273516845703124,0.00015332491602748632,-0.0039326646365225315,0.0004808744415640831
1761916068035570700,10.28357080078125,-0.0003928894002456218,-0.003135048085823655,-0.000004353001713752747
1761916068045625600,10.29362548828125,0.0008339135674759746,0.0034838966093957424,-0.0004434306174516678
1761916068055680500,10.303680419921875,-0.001146679394878447,0.002837281208485365,-0.000001080334186553955
1761916068065734700,10.313734619140625,0.00026086391881108284,-0.0029036824125796556,-0.0015812795609235764
1761916068075789600,10.32378955078125,0.000435300957178697,-0.002957744523882866,0.0009343419224023819
1761916068085844500,10.333844482421876,-0.00019106813124381006,0.0008149401401169598,0.0011204462498426437
1761916068095898600,10.343898681640624,-0.0021218599285930395,0.004790240898728371,-0.0009522922337055206
1761916068105953800,10.353953857421875,0.0010215826332569122,-0.0010471927234902978,0.0002610953524708748
1761916068116007700,10.364007568359375,-0.0021513074170798063,-0.0030757226049900055,0.0003681546077132225
1761916068126062600,10.3740625,-0.0009106257348321378,0.0005320715717971325,0.00016426760703325272
1761916068136117800,10.38411767578125,-0.0009617584873922169,0.0027211899869143963,0.0004114089533686638
1761916068146171600,10.394171630859375,-0.0018006354803219438,0.0001418265892425552,-0.000675862655043602
1761916068156226600,10.4042265625,-0.0009944966295734048,-0.0033772746101021767,-0.0015477817505598068
1761916068166280700,10.41428076171875,0.00027309294091537595,0.0002545852039474994,0.0006046174094080925
1761916068176335600,10.424335693359374,0.0000033147225622087717,-0.0010231995256617665,0.0011132806539535522
1761916068186390500,10.434390625,0.0007127115386538208,0.00003327717422507703,0.0003889016807079315
1761916068196444700,10.444444580078125,0.0011899499222636223,-0.002978225238621235,0.0015143537893891335
1761916068206499600,10.45449951171875,-0.001029155682772398,-0.0022254532668739557,-0.0011740028858184814
1761916068216553700,10.4645537109375,-0.0008153038797900081,-0.00005204745684750378,0.0003906041383743286
1761916068226608600,10.474608642578126,-0.001946218078956008,0.026282938197255135,0.014731140807271004
1761916068236663600,10.48466357421875,-0.0026697989087551832,0.16350498795509338,0.09117957949638367
1761916068246717700,10.4947177734375,0.0001538326032459736,0.29052919149398804,0.10887819528579712
1761916068256772600,10.504772705078125,-0.00020702570327557623,0.27931487560272217,0.07233856618404388
1761916068266827500,10.51482763671875,0.000794543419033289,0.1646241843700409,0.03766479343175888
1761916068276881700,10.524881591796875,0.00023368166876025498,0.032236598432064056,0.005986224859952927
1761916068286936600,10.5349365234375,0.0017139032715931535,-0.0703812837600708,-0.020239893347024918
1761916068296990700,10.54499072265625,0.0006379862315952778,-0.11301024258136749,-0.03706494718790054
1761916068307045600,10.555045654296874,-0.00018886310863308609,-0.1375465989112854,-0.05742867290973663
1761916068317100500,10.5651005859375,0.0006716042407788336,-0.18915680050849915,-0.07857683300971985
1761916068327154700,10.57515478515625,-0.0013419481692835689,-0.22073914110660553,-0.07080622762441635
1761916068337209600,10.585209716796875,0.0005398414796218276,-0.17320170998573303,-0.05670158937573433
1761916068347263500,10.595263427734375,0.0002369099820498377,-0.04903426393866539,-0.02401937171816826
1761916068357318700,10.605318603515625,-0.002178843365982175,0.07821610569953918,0.04324488714337349
1761916068367373800,10.615373779296876,-0.0005148699274286628,0.08333099633455276,0.02441190928220749
