time,seconds_elapsed,z,y,x
1761916145596461800,0.0704619140625,-0.0002460760879330337,-0.0018516959389671683,0.018793394789099693
1761916145606517800,0.080517822265625,-0.0010439591715112329,-0.006715693045407534,-0.008756473660469055
1761916145616573000,0.090572998046875,0.00006657902849838138,-0.006443784572184086,0.008648082613945007
1761916145626627800,0.1006279296875,-0.0003145193331874907,0.0034882084000855684,0.02419907972216606
1761916145636684000,0.11068408203125,-0.00043649208964779973,0.006171077024191618,0.011001251637935638
1761916145646738700,0.12073876953125,-0.00253426400013268,-0.005796103738248348,0.0017805894603952765
1761916145656793900,0.1307939453125,0.001359277404844761,-0.008294947445392609,0.01082788035273552
1761916145666849800,0.140849853515625,-0.00088976213010028,0.0007350324303843081,0.01555259432643652
1761916145676905000,0.150905029296875,-0.00041571943438611925,0.008624114096164703,0.011403389275074005
1761916145686961000,0.1609609375,-0.0033688987605273724,0.0011680624447762966,0.009060340002179146
1761916145697015800,0.171015869140625,0.0017281252657994628,-0.00814767461270094,0.008333297446370125
1761916145707070700,0.18107080078125,0.0009472863748669624,-0.0014969628537073731,0.012739497236907482
1761916145717127000,0.191126953125,0.00025539714260958135,0.0051566786132752895,0.010259561240673065
1761916145727181800,0.201181884765625,-0.0006348976166918874,0.0049561429768800735,0.009093097411096096
1761916145737236700,0.21123681640625,0.0002932140196207911,-0.006395847536623478,0.008628109470009804
1761916145747292700,0.221292724609375,-0.0023094932548701763,-0.004899950232356787,0.012532569468021393
1761916145757347800,0.231347900390625,-0.0007480819476768374,0.005652825813740492,0.008608934469521046
1761916145767403000,0.241403076171875,0.0010937602492049336,0.003043726785108447,0.008102667517960072
1761916145777459000,0.251458984375,0.0005808354471810162,-0.0033044503070414066,0.011651596054434776
1761916145787513900,0.261513916015625,-0.0024200144689530134,-0.0046908920630812645,0.010058226995170116
1761916145797568800,0.27156884765625,0.0011150655336678028,0.003428287338465452,0.010786334984004498
1761916145807624700,0.281624755859375,-0.001865544356405735,0.0028732845094054937,0.008806540630757809
1761916145817680000,0.291679931640625,-0.0012639362830668688,-0.0031872710678726435,0.00939270295202732
1761916145827735000,0.301735107421875,0.0011342403013259172,-0.008688562549650669,0.015479889698326588
1761916145837790700,0.311790771484375,-0.0022564963437616825,0.003495931625366211,0.01324256882071495
1761916145847846000,0.321845947265625,0.0007920240750536323,0.0019451729021966457,0.012207663618028164
1761916145857901800,0.33190185546875,0.00180908537004143,-0.002038117265328765,0.0142343295738101
1761916145867957000,0.34195703125,0.00018508969515096396,-0.006659234408289194,0.008211856707930565
1761916145878012000,0.352011962890625,-0.0028937908355146646,-0.0027475832030177116,0.006586529780179262
1761916145888067800,0.36206787109375,0.0004495415778364986,0.004219512455165386,0.00998951680958271
1761916145898122800,0.372122802734375,-0.000030892668291926384,0.0004972121678292751,0.008049137890338898
1761916145908178000,0.382177978515625,-0.0008988168556243181,-0.004247741773724556,0.007207312621176243
1761916145918233900,0.39223388671875,-0.00047590688336640596,-0.0028274781070649624,0.010349043644964695
1761916145928289000,0.4022890625,-0.003026416292414069,0.0019470370607450604,0.009341304190456867
1761916145938343700,0.41234375,0.00003009372085216455,0.004427771549671888,0.008333297446370125
1761916145948399900,0.42239990234375,-0.0011914982460439205,-0.0030423952266573906,0.011142931878566742
1761916145958454800,0.432454833984375,-0.00041252365917898715,-0.004850681405514479,0.010161290876567364
1761916145968510000,0.442510009765625,-0.00023941817926242948,-0.0012668657582253218,0.009321862831711769
1761916145978566000,0.45256591796875,-0.001210406655445695,0.002432531211525202,0.011464109644293785
1761916145988620800,0.462620849609375,-0.0013643373968079686,-0.0011225224006921053,0.014112090691924095
1761916145998676700,0.4726767578125,-0.0009685916593298316,-0.005788647104054689,0.00977246928960085
1761916146008732000,0.48273193359375,-0.001865011639893055,-0.004824049770832062,0.013128851540386677
1761916146018786800,0.492786865234375,-0.0033563817851245403,0.0025126924738287926,0.011737083084881306
1761916146028843000,0.502843017578125,0.001493500778451562,0.00013448962999973446,0.010368485003709793
1761916146038897700,0.512897705078125,-0.0027454528026282787,-0.004338555503636599,0.009434248320758343
1761916146048952800,0.522952880859375,-0.004328169394284487,-0.0016684704460203648,0.011268100701272488
1761916146059008800,0.5330087890625,0.0013957626651972532,-0.0012799152173101902,0.011011372320353985
1761916146069064000,0.54306396484375,0.0007542071980424225,0.004512726329267025,0.009313606657087803
1761916146079118800,0.553118896484375,0.001252484624274075,0.0014500912511721253,0.013175190426409245
1761916146089174800,0.5631748046875,0.0004881574132014066,-0.0017739315517246723,0.013236443512141705
1761916146099229700,0.573229736328125,-0.000743554555810988,0.004433630499988794,0.010698450729250908
1761916146109284900,0.583284912109375,-0.0004673847579397261,-0.00008974852971732616,0.01068034116178751
1761916146119340800,0.5933408203125,0.0011369034182280302,-0.0057463026605546474,0.015151522122323513
1761916146129395700,0.603395751953125,-0.00013502225920092314,-0.002457032445818186,0.011606855317950249
1761916146139451000,0.613450927734375,-0.0012785836588591337,0.004667988512665033,0.011430819518864155
1761916146149506800,0.6235068359375,0.002417883835732937,0.0006548712844960392,0.010635067708790302
1761916146159562000,0.63356201171875,-0.001910019083879888,-0.004250937607139349,0.013998639769852161
1761916146169618000,0.643617919921875,-0.0005201153689995408,-0.001136104459874332,0.017831461504101753
1761916146179672800,0.6536728515625,0.00007962851668708026,0.006900250446051359,0.012930979020893574
1761916146189727700,0.663727783203125,0.0006921555614098907,0.006473345682024956,0.01245187595486641
1761916146199783700,0.67378369140625,-0.0011078750248998404,-0.0023209447972476482,0.01278929878026247
1761916146209838800,0.6838388671875,0.001184307737275958,-0.0064981128089129925,0.008681905455887318
1761916146219894000,0.69389404296875,-0.0033334787003695965,0.0004189152386970818,0.008836900815367699
1761916146229950000,0.703949951171875,-0.0013960290234535933,0.0007981493836268783,0.005423261318355799
1761916146240004900,0.7140048828125,0.0015108112711459398,-0.0020660804584622383,0.009833189658820629
1761916146250059800,0.724059814453125,-0.0015102786710485816,-0.000029827404432580806,0.010824418626725674
1761916146260116000,0.734115966796875,0.0009060074225999415,-0.0009856359101831913,0.009723201394081116
1761916146270171000,0.7441708984375,0.0004961469094268978,0.0012658004416152835,0.009610549546778202
1761916146280225800,0.754225830078125,-0.0004913532175123692,0.0005603290628641844,0.007173757068812847
1761916146290281700,0.76428173828125,-0.0029859361238777637,-0.0015627428656443954,0.010643589310348034
1761916146300337000,0.7743369140625,-0.00333267985843122,0.049737993627786636,0.026800988242030144
1761916146310392800,0.784392822265625,0.0024639565963298082,0.3332589268684387,0.1255320906639099
1761916146320448000,0.794447998046875,0.0014682007022202015,0.07370804250240326,0.0690605565905571
1761916146330502700,0.804502685546875,-0.0025334651581943035,-0.20617207884788513,-0.13762204349040985
1761916146340558800,0.814558837890625,-0.0043928842060267925,-0.3353087604045868,-0.05844306945800781
1761916146350613800,0.82461376953125,0.0010657970560714602,-0.09362289309501648,0.10663643479347229
1761916146360669000,0.8346689453125,-0.000182959163794294,0.29559117555618286,0.03359204903244972
1761916146370724900,0.844724853515625,-0.000030360035452758893,0.1618618667125702,-0.06768956780433655
1761916146380779800,0.85477978515625,-0.0017723336350172758,-0.19178195297718048,-0.012063587084412575
1761916146390834700,0.864834716796875,-0.002508431440219283,-0.22221176326274872,0.008082959800958633
1761916146400891000,0.874890869140625,0.001487375469878316,0.0284058079123497,0.011320298537611961
1761916146410945800,0.88494580078125,0.000945954816415906,0.19040855765342712,0.042336538434028625
1761916146421000700,0.895000732421875,-0.0007129282457754016,0.0631299689412117,0.01531663816422224
1761916146431056600,0.905056640625,-0.00016058860637713224,-0.12076636403799057,-0.018633872270584106
1761916146441111800,0.91511181640625,-0.0004242415598127991,-0.10799837112426758,0.012503008358180523
1761916146451167000,0.9251669921875,0.0005044027348048985,0.05549468472599983,0.03069799207150936
1761916146461223000,0.935222900390625,-0.0008972189389169216,0.11718042194843292,0.006839530076831579
1761916146471277800,0.94527783203125,0.0005227785441093147,-0.007607053499668837,0.010203368961811066
1761916146481333800,0.955333740234375,-0.0009321063989773393,-0.10342412441968918,0.014995994046330452
1761916146491388700,0.965388671875,-0.00096113485051319,-0.025957031175494194,0.0005387574783526361
1761916146501443800,0.97544384765625,-0.0013273194199427962,0.07245822250843048,0.012384231202304363
1761916146511499800,0.985499755859375,-0.0008247809601016343,0.04687695950269699,0.023082949221134186
1761916146521555000,0.995554931640625,-0.0013225257862359285,-0.0420537106692791,0.00788615271449089
1761916146531609900,1.00560986328125,0.0009174589649774134,-0.05453088507056236,0.0011741877533495426
1761916146541665800,1.015665771484375,-0.002273540711030364,0.01595419831573963,0.013492905534803867
1761916146551721000,1.025720947265625,-0.0023092268966138363,0.051486626267433167,0.018866365775465965
1761916146561775900,1.03577587890625,0.0006735134520567954,0.003525492735207081,0.013067332096397877
1761916146571832000,1.04583203125,-0.0021164140198379755,-0.04217035695910454,0.008008391596376896
1761916146581888000,1.055887939453125,0.00003435477628954686,-0.016579242423176765,0.008137022145092487
1761916146591943000,1.06594287109375,-0.0001430117554264143,0.030132602900266647,0.013732057064771652
1761916146601998800,1.075998779296875,-0.0012056130217388272,0.021706361323595047,0.01961258426308632
1761916146612053800,1.0860537109375,0.0014911039033904672,-0.016887636855244637,0.010106430388987064
1761916146622110000,1.09610986328125,-0.0008942894637584686,-0.024999892339110374,0.005279982928186655
1761916146632164900,1.106164794921875,-0.001184307737275958,0.006639793049544096,0.015370167791843414
1761916146642220000,1.116219970703125,-0.0005957491230219603,0.028447886928915977,0.01661759242415428
1761916146652275700,1.126275634765625,-0.0019893813878297806,0.005903429351747036,0.01191285252571106
1761916146662331000,1.136330810546875,-0.0004743089957628399,-0.021459486335515976,0.007553790230304003
1761916146672386000,1.146385986328125,0.0013108078856021166,-0.00318940170109272,0.01221512071788311
1761916146682442000,1.15644189453125,-0.0011797803454101086,0.01828579604625702,0.01702478900551796
1761916146692497000,1.166496826171875,-0.003403253620490432,0.008814796805381775,0.013580257073044777
1761916146702551800,1.1765517578125,-0.0012668657582253218,-0.01113068126142025,0.010045177303254604
1761916146712607700,1.186607666015625,-0.0007550061563961208,-0.01008299458771944,0.009194297716021538
1761916146722663000,1.196662841796875,-0.002109489869326353,0.008202536031603813,0.012151737697422504
1761916146732718000,1.206718017578125,-0.0008498146780766547,0.009698966518044472,0.012569854035973549
1761916146742774000,1.21677392578125,-0.002103897277265787,-0.007446198258548975,0.013143498450517654
1761916146752829000,1.226828857421875,0.0001131843455368653,-0.010636931285262108,0.009425193071365356
1761916146762883800,1.2368837890625,0.0012815131340175867,-0.0006636597099713981,0.01056502666324377
1761916146772940000,1.24693994140625,-0.0008950884221121669,0.009823868982493877,0.011925102211534977
1761916146782995000,1.256994873046875,0.000663393409922719,0.0016349145444110036,0.0117312241345644
1761916146793051000,1.26705078125,-0.00006205165118444711,-0.010008958168327808,0.00595589354634285
1761916146803105800,1.277105712890625,-0.0014586133183911443,-0.00720624765381217,0.008115983568131924
1761916146813161000,1.287160888671875,-0.0004021373169962317,0.008726646192371845,0.007130613550543785
1761916146823217000,1.297216796875,0.0019153454340994358,0.005559348501265049,0.011863317340612411
1761916146833272000,1.30727197265625,-0.0011326423846185207,-0.004740693140774965,0.012124573811888695
1761916146843326700,1.31732666015625,0.00029294771957211196,-0.0059926449321210384,0.009812949225306511
1761916146853383000,1.3273828125,-0.00014407701382879168,0.005118595436215401,0.012939234264194965
1761916146863437800,1.337437744140625,0.0014245248166844249,0.008610798977315426,0.012407135218381882
1761916146873493000,1.347492919921875,0.00017789915727917105,-0.0020450414158403873,0.010488327592611313
1761916146883549000,1.357548828125,0.001193362521007657,-0.011980229988694191,0.010849718004465103
1761916146893603800,1.367603759765625,-0.001017593895085156,0.0020927118603140116,0.013836453668773174
1761916146903658800,1.37765869140625,0.001014131703414023,0.010626278817653656,0.01395709440112114
1761916146913715000,1.38771484375,-0.00333267985843122,0.0008375641773454845,0.014488128945231438
1761916146923769900,1.397769775390625,-0.0009571401169523597,-0.012204468250274658,0.009737581945955753
1761916146933825000,1.407824951171875,0.002117745578289032,-0.007413441315293312,0.008300806395709515
1761916146943881000,1.417880859375,-0.0009853695519268513,0.0015297196805477142,0.00768668157979846
1761916146953936000,1.427935791015625,-0.0013227921444922686,0.0006567355012521148,0.009288573637604713
1761916146963991800,1.43799169921875,0.0005664543714374304,-0.005960687063634396,0.009972472675144672
1761916146974047000,1.448046875,0.00003328951424919069,-0.002989931032061577,0.009605223312973976
1761916146984102000,1.458101806640625,0.00008948221511673182,0.0000655137628200464,0.009533850476145744
1761916146994158000,1.468157958984375,-0.001088433898985386,0.004858404863625765,0.0091719264164567
1761916147004212700,1.478212646484375,-0.0018002968281507492,-0.0007302387384697795,0.012462262064218521
1761916147014268000,1.488267822265625,-0.002013616031035781,-0.005465871654450893,0.01190885715186596
1761916147024323800,1.49832373046875,0.00025539714260958135,0.003984355367720127,0.013759488239884377
1761916147034379000,1.50837890625,-0.0009257147903554142,0.00538437906652689,0.01224335003644228
1761916147044434000,1.518433837890625,0.0008463526028208435,-0.002624012529850006,0.008648348972201347
1761916147054489900,1.52848974609375,-0.0015246596885845065,-0.007115167565643787,0.01005290076136589
1761916147064545000,1.538544921875,0.0012085424968972802,0.0006269080913625658,0.010981811210513115
1761916147074600000,1.548599853515625,-0.003442135639488697,0.003200586885213852,0.009332781657576561
1761916147084656000,1.55865625,-0.00003808320252574049,0.0018226674292236567,0.011754393577575684
1761916147094710800,1.568710693359375,-0.0023092268966138363,-0.0014266553334891796,0.01648496650159359
1761916147104766000,1.578765869140625,-0.0007747135823592544,-0.0015310513554140925,0.010354103520512581
1761916147114822000,1.58882177734375,-0.0000876179983606562,0.001166198286227882,0.010924287140369415
1761916147124877000,1.598876953125,-0.000011451592399680521,0.0009145294898189604,0.010568754747509956
1761916147134933000,1.60893310546875,-0.002386458683758974,-0.0002069276088150218,0.010379936546087265
1761916147144988000,1.61898779296875,0.0014836470363661647,-0.002302569104358554,0.010400709696114063
1761916147155042800,1.629042724609375,0.002528138691559434,0.002404301892966032,0.012012987397611141
1761916147165099000,1.63909912109375,-0.0024378576781600714,-0.001466336427256465,0.013425261713564396
1761916147175154000,1.64915380859375,-0.0014703312190249562,-0.00010466222738614306,0.010610566474497318
1761916147185208800,1.659208740234375,-0.0002378202771069482,-0.0017686053179204464,0.009440373629331589
1761916147195264800,1.6692646484375,-0.0015659386990591884,-0.001654355670325458,0.01053573191165924
1761916147205320000,1.67931982421875,0.0015664712991565466,-0.0017142767319455743,0.0130920996889472
1761916147215374800,1.689374755859375,0.0014543522847816348,0.0006625944515690207,0.012356001883745193
1761916147225431000,1.69943115234375,-0.003486077766865492,-0.00004846953015658073,0.0118515994399786
1761916147235486000,1.70948583984375,-0.004534031730145216,0.0009574064170010388,0.011232414282858372
1761916147245540900,1.719540771484375,-0.0021486382465809584,0.0019230686593800783,0.013650830835103989
1761916147255596800,1.7295966796875,0.00021651499264407903,-0.0010634001810103655,0.0138993039727211
1761916147265652000,1.73965185546875,-0.0013664679136127234,0.0001968075957847759,0.013390906155109406
1761916147275707000,1.749706787109375,0.0007941546500660479,-0.001047687605023384,0.011240670457482338
1761916147285763000,1.75976318359375,0.000702009245287627,0.0008993495139293373,0.012204734608530998
1761916147295817700,1.769817626953125,-0.0017907095607370138,0.0010346380295231938,0.013681191019713879
1761916147305874000,1.7798740234375,-0.0016974988393485546,-0.0014990933705121279,0.010331200435757637
1761916147315928800,1.7899287109375,-0.0009387642494402826,-0.0006255765329115093,0.011509649455547333
1761916147325984000,1.79998388671875,-0.0008420915110036731,-0.0029060414526611567,0.014445251785218716
1761916147336040000,1.8100400390625,-0.0014365090755745769,0.0005126585019752383,0.01215786300599575
1761916147346094800,1.8200947265625,0.002837331732735038,0.00222027744166553,0.01158661488443613
1761916147356150000,1.83014990234375,-0.00037683729897253215,0.0009382316493429244,0.010041182860732079
1761916147366206000,1.8402060546875,-0.0014391721924766898,-0.0009105347562581301,0.00933144986629486
1761916147376261000,1.85026123046875,-0.00236275652423501,-0.0025515747256577015,0.01218635868281126
1761916147386315800,1.860315673828125,0.00010146643762709573,0.0005374259199015796,0.011832957156002522
1761916147396372000,1.8703720703125,0.000934236915782094,0.002061553066596389,0.013225523754954338
1761916147406427000,1.880427001953125,0.0002495381922926754,-0.00007536746124969795,0.009501359425485134
1761916147416482000,1.89048193359375,0.0009970874525606632,-0.0023086944129318,0.011245730333030224
1761916147426538000,1.9005380859375,-0.0018804579740390182,-0.0011685950448736548,0.012373046018183231
1761916147436593000,1.910593017578125,0.0004141215467825532,0.0015339808305725455,0.01137010008096695
1761916147446648800,1.92064892578125,-0.0009986853692680597,0.0019837887957692146,0.01158448401838541
1761916147456704000,1.9307041015625,-0.0006506102508865297,0.0007126618875190616,0.010318683460354805
1761916147466759000,1.940759033203125,0.00026285400963388383,-0.001202150946483016,0.012753346003592014
1761916147476815000,1.950815185546875,-0.001115598133765161,-0.0012234562309458852,0.01155652105808258
1761916147486869800,1.960869873046875,-0.0010109359864145517,0.0009020126308314502,0.0123070003464818
1761916147496925000,1.970925048828125,-0.003748665563762188,-0.000598145998083055,0.011582886800169945
1761916147506980900,1.98098095703125,-0.0022125542163848877,-0.00045806370326317847,0.009726396761834621
1761916147517036000,1.9910361328125,-0.0006817692192271352,-0.002517486223950982,0.012970127165317535
1761916147527091000,2.001091064453125,-0.0010586065473034978,-0.0007046724203974009,0.010854777880012989
1761916147537147000,2.01114697265625,-0.0005613943794742227,0.003930293023586273,0.011987154372036457
1761916147547201800,2.021201904296875,-0.0023209447972476482,0.001110005541704595,0.010450243949890137
1761916147557257000,2.031257080078125,-0.0013760552974417806,0.0012801815755665302,0.012225773185491562
1761916147567313000,2.04131298828125,-0.00005512743518920615,-0.0020666129421442747,0.010874751955270767
1761916147577368000,2.0513681640625,0.001472728094086051,0.0006735134520567954,0.011552526615560055
1761916147587422700,2.061422607421875,-0.0010404969798400998,0.0009747169679030776,0.011634551919996738
1761916147597479000,2.07147900390625,-0.001119060325436294,-0.00039654469583183527,0.012601546011865139
1761916147607533600,2.081533447265625,-0.00034434671397320926,-0.00023409185814671218,0.010124539025127888
1761916147617589800,2.09158984375,0.001764344167895615,-0.0013680658303201199,0.009227054193615913
1761916147627644700,2.101644775390625,-0.0013768542557954788,0.0006042712484486401,0.009987653233110905
1761916147637699800,2.111699951171875,0.0006178533658385277,-0.003150785807520151,0.014146711677312851
1761916147647755800,2.121755859375,0.0037854171823710203,-0.001445830101147294,0.012623650021851063
1761916147657810700,2.131810791015625,-0.0016615461790934205,0.000008788431841821875,0.009824400767683983
1761916147667865900,2.141865966796875,-0.00043036683928221464,0.0014109427575021982,0.01107235811650753
1761916147677921800,2.151921875,0.0005773733137175441,0.0010820423485711217,0.014540326781570911
1761916147687977000,2.16197705078125,-0.0012034825049340725,-0.001692705205641687,0.0102566322311759
1761916147698031900,2.172031982421875,-0.001389104756526649,-0.00042290997225791216,0.013033510185778141
1761916147708087800,2.182087890625,0.0021547635551542044,0.00024101608141791075,0.010579140856862068
1761916147718142700,2.192142822265625,-0.0010431602131575346,0.00011930961773032323,0.013560017570853233
1761916147728198000,2.202197998046875,0.00039308256236836314,0.00040293627534992993,0.012233496643602848
1761916147738253800,2.21225390625,-0.0012301141396164894,-0.0001757686259225011,0.011538145132362843
1761916147748309000,2.22230908203125,0.00009880327706923708,0.00034221619716845453,0.011592473834753036
1761916147758364700,2.23236474609375,-0.0007994809420779347,0.0024112260434776545,0.01236399170011282
1761916147768419800,2.242419921875,0.00037683729897253215,0.001749164192005992,0.01423326414078474
1761916147778474800,2.252474853515625,0.0002700445184018463,0.0016325177857652307,0.013864150270819664
1761916147788531000,2.262531005859375,0.001160072977654636,-0.0014333132421597838,0.009935455396771431
1761916147798585900,2.2725859375,0.000601075473241508,-0.002138518262654543,0.012189820408821106
1761916147808640800,2.282640869140625,0.0005531385540962219,-0.0030093719251453876,0.010496316477656364
1761916147818696700,2.29269677734375,0.0025987126864492893,-0.0022503710351884365,0.013080648146569729
1761916147828752000,2.302751953125,-0.001898034941405058,0.0012831110507249832,0.010395915247499943
1761916147838806800,2.312806884765625,-0.00016644757124595344,-0.0014538196846842766,0.013126187957823277
1761916147848863000,2.322863037109375,-0.000943025341257453,0.0002713761059567332,0.008164186961948872
1761916147858917600,2.332917724609375,-0.0021968416403979063,0.0011241203173995018,0.01218715775758028
1761916147868972800,2.342972900390625,0.0005936186062172055,-0.003674895968288183,0.014436463825404644
1761916147879028700,2.35302880859375,0.00035366779775358737,-0.0015299860388040543,0.009297361597418785
1761916147889084000,2.363083984375,-0.0015195996966212988,0.0004170510219410062,0.008207063190639019
1761916147899138800,2.373138916015625,-0.0005717806634493172,0.0020746025256812572,0.011005513370037079
1761916147909194800,2.38319482421875,-0.002918291836977005,0.000029827404432580806,0.009766077622771263
1761916147919249700,2.393249755859375,-0.0007459514308720827,-0.0022836606949567795,0.010325075127184391
1761916147929304800,2.403304931640625,0.0007163903210312128,-0.001005609636195004,0.010524280369281769
1761916147939360800,2.41336083984375,-0.0009731190511956811,0.003365170443430543,0.007424094248563051
1761916147949415700,2.423415771484375,-0.002316950121894479,-0.0004215783847030252,0.012796488590538502
1761916147959471600,2.4334716796875,-0.0026501116808503866,-0.00010972223390126601,0.009371929802000523
1761916147969526800,2.44352685546875,-0.0016429040115326643,0.011409248225390911,0.011949337087571621
1761916147979582000,2.45358203125,-0.0032711606472730637,0.0017100156983360648,0.01690255105495453
1761916147989638000,2.463637939453125,-0.00033902039285749197,-0.004033623728901148,0.007835552096366882
1761916147999692800,2.47369287109375,-0.00047697214176878333,0.0006303702248260379,0.007130879908800125
1761916148009747700,2.483747802734375,-0.0016668725293129683,0.0013406352372840047,0.01218715775758028
1761916148019803600,2.4938037109375,0.0022445120848715305,-0.0012418320402503014,0.009545834735035896
1761916148029858800,2.50385888671875,0.00020293287525419146,0.000838895735796541,0.013804495334625244
1761916148039914000,2.5139140625,-0.0016492956783622503,-0.003440005239099264,0.011539210565388203
1761916148049969700,2.5239697265625,-0.0001536643976578489,0.0034463966730982065,0.009328520856797695
1761916148060024800,2.53402490234375,-0.0015635418239980936,0.002329733222723007,0.010157829150557518
1761916148070079700,2.544079833984375,0.000040746363083599135,-0.0032738239970058203,0.014403972774744034
1761916148080136000,2.554135986328125,0.0011728560784831643,0.0017422399250790477,0.01022946834564209
1761916148090190800,2.56419091796875,-0.00015339808305725455,0.0010309095960110426,0.012229502201080322
1761916148100245800,2.574245849609375,-0.0028570392169058323,0.002046905690804124,0.010400975123047829
1761916148110301700,2.5843017578125,0.0008623315370641649,-0.002639192622154951,0.011950935237109661
1761916148120356900,2.59435693359375,-0.0013797837309539318,-0.001469798618927598,0.013340306468307972
1761916148130412800,2.604412841796875,-0.003483414649963379,0.0007576693315058947,0.011406052857637405
1761916148140468000,2.614468017578125,-0.00169563468080014,-0.0005877596559002995,0.010061422362923622
1761916148150522600,2.624522705078125,0.00020160128769930452,0.0007147924043238163,0.011030280962586403
1761916148160578800,2.634578857421875,-0.001466869143769145,0.00017710021347738802,0.011739746667444706
1761916148170633700,2.6446337890625,-0.0009121326729655266,0.0006889597862027586,0.012339756824076176
1761916148180689000,2.65468896484375,-0.0031273500062525272,-0.0012181298807263374,0.010921090841293335
1761916148190744800,2.664744873046875,0.0007424892974086106,0.0019062906503677368,0.010130930691957474
1761916148200799700,2.6747998046875,-0.00034461304312571883,-0.0010122675448656082,0.013081180863082409
1761916148210854700,2.684854736328125,-0.0007739146240055561,-0.00036751621519215405,0.010757040232419968
1761916148220910800,2.694910888671875,-0.00221974472515285,-0.002100168727338314,0.011933624744415283
1761916148230965800,2.7049658203125,-0.0015188007382676005,-0.0007321029552258551,0.01245294138789177
1761916148241020700,2.715020751953125,-0.0011078750248998404,-0.00005725796290789731,0.0132713308557868
1761916148251076600,2.72507666015625,0.00017976337403524667,0.0002407497668173164,0.012027634307742119
1761916148261131800,2.7351318359375,-0.00002157160452043172,-0.0010801780736073852,0.012329104356467724
1761916148271187700,2.745187744140625,-0.0005600627628155053,0.00002370213405811228,0.01091709639877081
1761916148281243000,2.755242919921875,-0.0021547635551542044,-0.00047111319145187736,0.013522466644644737
1761916148291297800,2.7652978515625,-0.002237321576103568,0.0020274645648896694,0.011178085580468178
1761916148301353700,2.775353759765625,0.000987766426987946,-0.0002378202771069482,0.011355718597769737
1761916148311408600,2.78540869140625,0.0018881811993196607,-0.0025065671652555466,0.012077702209353447
1761916148321463800,2.7954638671875,0.0012412993237376213,0.0014215953415259719,0.009702960960566998
1761916148331519700,2.805519775390625,-0.0034852789249271154,0.0011592740193009377,0.013007943518459797
1761916148341575000,2.815574951171875,0.000499875342939049,0.000014913702216290403,0.010002566501498222
1761916148351629800,2.8256298828125,-0.0013494236627593637,-0.0008450209861621261,0.011508317664265633
1761916148361685800,2.835685791015625,-0.001356614287942648,-0.0004801679460797459,0.012145346030592918
1761916148371741000,2.845740966796875,0.001178448786959052,-0.002624012529850006,0.011547200381755829
1761916148381796900,2.855796875,0.0016892430139705539,-0.004460794851183891,0.011033742688596249
1761916148391851800,2.865851806640625,0.0006559365428984165,0.000853809411637485,0.012683837674558163
1761916148401906700,2.87590673828125,0.001139033935032785,-0.00020506340661086142,0.013189838267862797
1761916148411962600,2.885962646484375,0.0003531351685523987,-0.002040247665718198,0.012888900935649872
1761916148422017800,2.896017822265625,-0.0003307645965833217,0.0015504923649132252,0.011816445738077164
1761916148432073000,2.906072998046875,-0.0008580705034546554,-0.0004886900424025953,0.010244115255773067
1761916148442129000,2.91612890625,0.0008916263468563557,-0.0005624596378766,0.009719206020236015
1761916148452183800,2.926183837890625,-0.0005350290448404849,-0.001210939371958375,0.009768208488821983
1761916148462238700,2.93623876953125,0.00046046054922044277,0.00043995422311127186,0.00987260416150093
1761916148472295000,2.946294921875,0.0012809804175049067,-0.002650377806276083,0.010214554145932198
1761916148482349800,2.956349853515625,0.00029108350281603634,-0.0012452941155061126,0.010952782817184925
1761916148492404700,2.96640478515625,-0.000010120012120751198,-0.0007784419576637447,0.011992746964097023
1761916148502460700,2.976460693359375,-0.0014168017078191042,-0.000010652644050423987,0.01119060255587101
1761916148512515800,2.986515869140625,-0.0006929545197635889,0.0011140003334730864,0.012234295718371868
1761916148522571800,2.99657177734375,0.001633316627703607,0.0020072245970368385,0.008496548980474472
1761916148532627000,3.006626953125,-0.00017949705943465233,0.002764893928542733,0.008609999902546406
1761916148542681600,3.016681640625,0.0006452839006669819,-0.000746750389225781,0.013096094131469727
1761916148552737800,3.02673779296875,0.0015393070643767715,-0.00004234426160110161,0.010506968945264816
1761916148562792700,3.036792724609375,-0.000055660068028373644,0.0010950918076559901,0.01158501673489809
1761916148572847900,3.046847900390625,0.002861566608771682,0.0003195793251506984,0.012478773482143879
1761916148582903800,3.05690380859375,0.0012058793799951673,-0.00224903947673738,0.01038419734686613
1761916148592959000,3.066958984375,-0.0007454187725670636,-0.00043116576853208244,0.012095279060304165
1761916148603014000,3.077013916015625,-0.0024921861477196217,0.0011233213590458035,0.011938418261706829
1761916148613070000,3.087070068359375,-0.001374723738990724,0.0017355820164084435,0.010559167712926865
1761916148623125000,3.097125,-0.0012562130577862263,-0.001796834752894938,0.010931743308901787
1761916148633180000,3.107179931640625,-0.0018820558907464147,0.0005411543534137309,0.010993529111146927
1761916148643235800,3.11723583984375,-0.0007145261042751372,0.001425057533197105,0.012508600950241089
1761916148653291000,3.127291015625,-0.00129695946816355,-0.0010628675809130073,0.01203775405883789
1761916148663347000,3.137346923828125,-0.003087136195972562,-0.001600826159119606,0.011537612415850163
1761916148673402000,3.147402099609375,-0.0018349179299548268,-0.0011299792677164078,0.013521134853363037
1761916148683457000,3.15745703125,-0.0007720504072494805,0.0016162724932655692,0.012206599116325378
1761916148693513000,3.167512939453125,-0.0018463695887476206,0.0019172097090631723,0.010529073886573315
1761916148703568000,3.17756787109375,-0.0024399880785495043,-0.0003281014505773783,0.011507252231240273
1761916148713623000,3.187623046875,-0.0002258360618725419,-0.004006725735962391,0.011216169223189354
1761916148723679000,3.197678955078125,-0.0003576625313144177,0.0015126754296943545,0.009314405731856823
1761916148733734000,3.20773388671875,0.0007233145297504961,0.0004900216590613127,0.009188172407448292
1761916148743789000,3.2177890625,-0.00016831177345011383,0.00013608753215521574,0.012262258678674698
1761916148753845000,3.227844970703125,-0.0009259810904040933,-0.0003195793251506984,0.01053306832909584
1761916148763900200,3.237900146484375,0.0011552792275324464,-0.0020668793004006147,0.010836401954293251
1761916148773954800,3.247954833984375,-0.0021901836153119802,-0.00042211104300804436,0.011806858703494072
1761916148784011000,3.258010986328125,0.0009992180857807398,-0.0009502158500254154,0.011596201919019222
1761916148794066000,3.26806591796875,-0.0018192053539678454,-0.0014173343079164624,0.012442288920283318
1761916148804121900,3.278121826171875,0.0004828310920856893,-0.0029734193813055754,0.01079965103417635
1761916148814177000,3.288177001953125,0.000014381069377122913,-0.0003438140847720206,0.012496350333094597
1761916148824232000,3.29823193359375,-0.0024913870729506016,0.0008396946941502392,0.010696319863200188
1761916148834287900,3.308287841796875,0.0004897553008049726,0.0015078817959874868,0.012199408374726772
1761916148844343000,3.318343017578125,-0.0012231898726895452,-0.00039468047907575965,0.010905911214649677
1761916148854398000,3.32839794921875,-0.0003712446487043053,-0.0025600967928767204,0.01062388252466917
1761916148864454100,3.3384541015625,0.00037151097785681486,0.002088717184960842,0.008970857597887516
1761916148874508800,3.3485087890625,-0.0014109427575021982,0.0017004283145070076,0.010844391770660877
1761916148884564000,3.35856396484375,-0.00040559942135587335,0.0002985403698403388,0.01104492787271738
1761916148894620000,3.368619873046875,-0.0029755497816950083,0.0005768407136201859,0.011363442055881023
1761916148904675000,3.378675048828125,0.001490304945036769,0.0025904567446559668,0.01008299458771944
1761916148914731000,3.38873095703125,-0.0014892396284267306,0.00141041015740484,0.010536796413362026
1761916148924786000,3.398785888671875,0.0008303736103698611,-0.0014769891276955605,0.00959563534706831
1761916148934840800,3.4088408203125,-0.011060107499361038,0.014593323692679405,0.00999324582517147
1761916148944897000,3.41889697265625,-0.003826429834589362,0.020446952432394028,0.0173781905323267
1761916148954952000,3.428951904296875,-0.0007249124464578927,0.0178181454539299,0.026100575923919678
1761916148965007000,3.439007080078125,-0.0016532903537154198,-0.015199725516140461,0.005938316695392132
1761916148975062800,3.449062744140625,0.003050118451938033,-0.02653760090470314,-0.006028064992278814
1761916148985118000,3.459117919921875,-0.000934236915782094,-0.005030977539718151,0.006036853417754173
1761916148995172900,3.4691728515625,-0.0033539850264787674,0.015912387520074844,0.018874088302254677
1761916149005229000,3.47922900390625,0.0004426173691172153,0.009396164678037167,0.004747617058455944
1761916149015284000,3.489283935546875,-0.0008823052630759776,-0.014737134799361229,0.004039482679218054
1761916149025339000,3.4993388671875,-0.0015446334145963192,-0.014219149947166443,0.012953615747392178
1761916149035394800,3.509394775390625,-0.001752360025420785,0.015535816550254822,0.013972806744277477
1761916149045450000,3.519449951171875,-0.001255946815945208,0.017289241775870323,0.012955479323863983
1761916149055506000,3.529505859375,0.000218645524000749,-0.007698399480432272,0.007729825098067522
1761916149065561000,3.53956103515625,-0.0012604740913957357,-0.01278743427246809,0.011082745157182217
1761916149075616000,3.549615966796875,-0.0009741843095980585,0.003462908323854208,0.011774634011089802
1761916149085672000,3.559671875,-0.000901480030734092,0.014907843433320522,0.012673184275627136
1761916149095726800,3.569726806640625,0.0015124091878533363,0.003483681008219719,0.012016715481877327
1761916149105782000,3.579781982421875,0.0017504957504570484,-0.017645306885242462,0.009029979817569256
1761916149115838000,3.589837890625,0.0018679412314668298,-0.0031353395897895098,0.011440673843026161
1761916149125892900,3.599892822265625,0.001273523666895926,0.013012205250561237,0.011107511818408966
1761916149135948000,3.609947998046875,0.0009454221581108868,0.0068243504501879215,0.011714712716639042
1761916149146004000,3.62000390625,0.00037497308221645653,-0.0076062544248998165,0.010328271426260471
1761916149156059100,3.63005908203125,-0.0018844527658075094,-0.008407599292695522,0.011996741406619549
1761916149166115000,3.640114990234375,-0.0016743293963372707,0.00755032803863287,0.009927998296916485
1761916149176170000,3.650169921875,-0.0003480751474853605,0.010207363404333591,0.01378372311592102
1761916149186225000,3.660224853515625,-0.0013129384024068713,-0.001817873795516789,0.012418586760759354
1761916149196280800,3.67028076171875,-0.0003028014034498483,-0.009755158796906471,0.008262457326054573
1761916149206336000,3.6803359375,0.0025209481827914715,-0.0011030812747776508,0.010584999807178974
1761916149216391000,3.690390869140625,0.0007030745036900043,0.006163886282593012,0.01155625469982624
1761916149226446800,3.70044677734375,-0.0002623213513288647,0.0022833943367004395,0.013243100605905056
1761916149236502000,3.710501953125,-0.0009635316673666239,-0.004650411661714315,0.009887784719467163
1761916149246557000,3.720556884765625,-0.00021172130072955042,-0.006098905112594366,0.010105631314218044
1761916149256613000,3.730613037109375,0.0004780374001711607,0.0010785802733153105,0.009403089061379433
1761916149266667800,3.740667724609375,0.0008490157779306173,0.0023752732668071985,0.011836419813334942
1761916149276723000,3.750722900390625,-0.00016644757124595344,-0.000963797967415303,0.011416705325245857
1761916149286779000,3.76077880859375,-0.00033449303009547293,-0.006150304339826107,0.011211375705897808
1761916149296834000,3.770833984375,-0.0026517093647271395,-0.0013406352372840047,0.009371663443744183
1761916149306890000,3.780889892578125,0.0007693872321397066,0.004532167688012123,0.014799452386796474
1761916149316945200,3.790945068359375,-0.00003462109452812001,-0.0014793860027566552,0.0116737000644207
1761916149326999800,3.800999755859375,-0.00007270430069183931,-0.004036819562315941,0.010762632824480534
1761916149337056000,3.811055908203125,0.0011648666113615036,-0.000035686356568476185,0.011936554685235023
1761916149347111000,3.82111083984375,-0.00019893812714144588,0.003674895968288183,0.010470750741660595
1761916149357166000,3.831166015625,-0.0015720640076324344,0.0009949569357559085,0.011593539267778397
1761916149367222000,3.841221923828125,0.0005946838646195829,-0.0031095067970454693,0.009615343064069748
1761916149377277000,3.85127685546875,-0.0007350324303843081,-0.00321922916918993,0.01002413872629404
1761916149387331800,3.861331787109375,-0.0008303736103698611,-0.0013126720441505313,0.009075254201889038
1761916149397388000,3.871387939453125,0.0009712548344396055,-0.0023033679462969303,0.012177570722997189
1761916149407443000,3.88144287109375,0.0003094593121204525,-0.0020058928057551384,0.01287718303501606
1761916149417499100,3.8914990234375,-0.002799514913931489,-0.00070493872044608,0.010731207206845284
1761916149427553800,3.9015537109375,0.00115394766908139,0.001529453438706696,0.009493903256952763
1761916149437609000,3.91160888671875,-0.001008539111353457,0.004256263840943575,0.012916597537696362
1761916149447665000,3.921664794921875,-0.0002793656021822244,0.0004918858758173883,0.013176788575947285
1761916149457720000,3.931719970703125,0.0011110707418993115,-0.0023840616922825575,0.01270034909248352
1761916149467775000,3.94177490234375,-0.00032384038786403835,-0.005616873037070036,0.009559948928654194
1761916149477831000,3.951830810546875,0.0016974988393485546,-0.00029880666988901794,0.012576778419315815
1761916149487885800,3.9618857421875,-0.00023515711654908955,-0.000922519015148282,0.010511497035622597
1761916149497941000,3.97194091796875,-0.002353435382246971,-0.0019142802339047194,0.009241701103746891
1761916149507997000,3.981996826171875,-0.0020759340841323137,-0.003373692510649562,0.008730107918381691
1761916149518051800,3.9920517578125,-0.0017291904659941792,-0.002276470186188817,0.008837167173624039
1761916149528107800,4.002107666015625,0.0002170476218452677,-0.002263953210785985,0.010282731615006924
1761916149538163000,4.012162841796875,0.001330249011516571,-0.001585912425071001,0.012031628750264645
1761916149548218000,4.022218017578125,0.0015899071004241705,-0.0015126754296943545,0.0084249097853899
1761916149558274000,4.032274169921875,-0.001698830397799611,-0.00023196132679004222,0.010516556911170483
1761916149568329000,4.042328857421875,-0.00043569316039793193,0.00307595101185143,0.0122428173199296
1761916149578384000,4.0523837890625,-0.0022836606949567795,0.004400340840220451,0.012564261443912983
1761916149588439000,4.06243896484375,-0.002305232221260667,-0.0044469465501606464,0.010437460616230965
1761916149598494000,4.072493896484375,-0.0016815199051052332,-0.002073537092655897,0.010725880973041058
1761916149608549000,4.082549072265625,-0.002138518262654543,0.0017441042000427842,0.01028832420706749
1761916149618605000,4.09260498046875,-0.0006436860421672463,0.001588841900229454,0.012575979344546795
1761916149628660000,4.102659912109375,-0.0005560680292546749,-0.001169394003227353,0.01158901210874319
1761916149638716000,4.1127158203125,-0.000811997801065445,-0.00472577940672636,0.010990066453814507
1761916149648771000,4.12277099609375,-0.0018482337472960353,-0.00007936220208648592,0.01389637403190136
1761916149658826200,4.132826171875,0.00009214537567459047,0.005212871357798576,0.011607120744884014
1761916149668882200,4.142882080078125,-0.0010242518037557602,-0.0043686493299901485,0.011422564275562763
1761916149678936800,4.152936767578125,0.0015808524331077933,-0.0017829863354563713,0.009529323317110538
1761916149688992000,4.162991943359375,0.0005675196298398077,0.004319114610552788,0.01329742930829525
1761916149699048000,4.1730478515625,0.0015779229579493403,0.0014985607704147696,0.011943744495511055
1761916149709103000,4.18310302734375,0.0007488809060305357,0.0023694143164902925,0.012026568874716759
1761916149719158000,4.193157958984375,0.001252484624274075,-0.00239231763407588,0.010973288677632809
1761916149729214000,4.2032138671875,-0.0001882854849100113,0.0012322446564212441,0.011129883117973804
1761916149739269000,4.21326904296875,0.0006772418855689466,0.0021140172611922026,0.01312299259006977
1761916149749325000,4.223324951171875,-0.0024224112275987864,0.0018761969404295087,0.013849768787622452
1761916149759380200,4.233380126953125,0.00180855265352875,-0.0005014732014387846,0.0073354109190404415
1761916149769435000,4.243434814453125,-0.002418949268758297,0.0019438412273302674,0.01044305320829153
1761916149779491000,4.253490966796875,0.0016136092599481344,0.002799781272187829,0.01068247202783823
1761916149789546000,4.2635458984375,-0.0011906992876902223,0.0018112158868461847,0.011507784947752953
1761916149799601200,4.27360107421875,-0.0005009406013414264,0.001541171339340508,0.011756790801882744
1761916149809657000,4.283656982421875,0.0014479606179520488,-0.0008476841612718999,0.011374893598258495
1761916149819712000,4.2937119140625,0.0002205097407568246,0.0002460760879330337,0.010330401360988617
1761916149829767000,4.303766845703125,-0.00002157160452043172,-0.0014982944121584296,0.013772537931799889
1761916149839823000,4.313822998046875,-0.000835966260638088,0.0019108180422335863,0.011490208096802235
1761916149849878000,4.3238779296875,0.0025563682429492474,-0.0018937737913802266,0.009839581325650215
1761916149859934200,4.333934326171875,0.0013025520602241158,-0.0012183962389826775,0.00983372237533331
1761916149869989000,4.343989013671875,-0.0003371562052052468,-0.0017044231062754989,0.01519013848155737
1761916149880044000,4.3540439453125,0.0014759238110855222,-0.0016357135027647018,0.011758655309677124
1761916149890100000,4.364099853515625,-0.0004918858758173883,-0.0016519587952643633,0.013132313266396523
1761916149900155100,4.374155029296875,0.00039068571641109884,-0.002213353058323264,0.012231099419295788
1761916149910210000,4.3842099609375,0.00032144354190677404,0.0008402272942475975,0.011756790801882744
1761916149920266200,4.394266357421875,-0.0001294296234846115,0.0023451796732842922,0.014149907045066357
1761916149930321000,4.40432080078125,-0.005555354058742523,0.029330991208553314,0.023745276033878326
1761916149940376000,4.4143759765625,0.007011836860328913,0.03634469211101532,0.03887549415230751
1761916149950432000,4.424431884765625,-0.0021664814557880163,-0.020304473116993904,0.003120425855740905
1761916149960487200,4.434487060546875,0.004027498420327902,-0.0626005306839943,-0.020548151805996895
1761916149970543000,4.444543212890625,0.003698331769555807,-0.0003230414295103401,0.0054392400197684765
1761916149980598000,4.454597900390625,0.000056459015468135476,0.023669110611081123,0.033549439162015915
1761916149990653000,4.46465283203125,0.0029952572658658028,0.011990349739789963,0.003325489116832614
1761916150000709000,4.474709228515625,0.0005113269435241818,-0.012807141989469528,-0.0034493261482566595
1761916150010764000,4.484763916015625,0.0005062668933533132,-0.029390113428235054,0.017731325700879097
1761916150020819000,4.49481884765625,-0.0027470507193356752,0.020065320655703545,0.018765432760119438
1761916150030875000,4.504875,-0.0018184063956141472,0.03620780631899834,0.010914965532720089
1761916150040930000,4.514929931640625,-0.0018852517241612077,-0.005036570131778717,0.013045760802924633
1761916150050985200,4.524985107421875,0.0014295848086476326,-0.0200397539883852,0.007302387617528439
1761916150061041200,4.535041259765625,0.001246625673957169,-0.0075782909989356995,0.012161857448518276
1761916150071096000,4.545095947265625,0.0016498282784596086,0.012539760209619999,0.01257970742881298
1761916150081152000,4.555152099609375,0.0030887341126799583,0.012024970725178719,0.007250189781188965
1761916150091207000,4.56520703125,-0.0010423612548038363,-0.01647964119911194,0.014473481103777885
1761916150101262000,4.575261962890625,0.0007712514488957822,-0.009001484140753746,0.012948023155331612
1761916150111318000,4.585318115234375,-0.0014056164072826505,0.013089703395962715,0.007903729565441608
1761916150121373000,4.595373046875,-0.0022205437999218702,0.013222594745457172,0.015269500203430653
1761916150131428000,4.605427978515625,0.00013076121103949845,-0.004505269695073366,0.011811918579041958
1761916150141484000,4.615484130859375,0.0002426139690214768,-0.01293577253818512,0.00965449120849371
1761916150151539200,4.625539306640625,0.0012980246683582664,-0.00028868665685877204,0.008711466565728188
1761916150161594000,4.635593994140625,-0.0003880225704051554,0.013442305848002434,0.01426202617585659
1761916150171650000,4.645650146484375,-0.0013129384024068713,0.0024469124618917704,0.012605274096131325
1761916150181705000,4.655705078125,-0.0007656587986275554,-0.010574347339570522,0.01161804050207138
1761916150191761000,4.665760986328125,-0.001740642124786973,-0.004414988216012716,0.009340238757431507
1761916150201816000,4.675816162109375,-0.0013004215434193611,0.009157812222838402,0.010792726650834084
1761916150211871200,4.685871337890625,-0.0021638183388859034,0.005627791862934828,0.011953865177929401
1761916150221927000,4.695927001953125,0.0011081412667408586,-0.0049156625755131245,0.010162089951336384
1761916150231982000,4.705982177734375,-0.0008602010202594101,-0.006678408943116665,0.008535430766642094
1761916150242037000,4.716037109375,0.000029294771593413316,0.0023667511995881796,0.014434599317610264
1761916150252093200,4.72609326171875,0.00041625206358730793,0.0038488004356622696,0.013591442257165909
1761916150262148000,4.736148193359375,-0.0017156084068119526,0.0007313040550798178,0.010513893328607082
1761916150272203000,4.746203125,0.0006138586322776973,-0.008747951127588749,0.01053440012037754
1761916150282259000,4.756259033203125,-0.0010396981379017234,-0.000862864195369184,0.012138688005506992
1761916150292314000,4.766314208984375,-0.0001651159836910665,0.002773415995761752,0.0092334458604455
1761916150302370000,4.7763701171875,-0.0016548882704228163,-0.0000953411654336378,0.012427108362317085
1761916150312425200,4.78642529296875,0.0006314354832284153,-0.0022040321491658688,0.011914183385670185
1761916150322479900,4.79647998046875,0.0007605988066643476,-0.0021654162555933,0.011027351021766663
1761916150332536000,4.8065361328125,0.0017068199813365936,0.0008000136003829539,0.011089668609201908
1761916150342591000,4.816591064453125,-0.001035436987876892,0.0036770266015082598,0.009893377311527729
1761916150352646100,4.826646240234375,-0.0022032330743968487,0.001303084660321474,0.01296506728976965
1761916150362702000,4.8367021484375,0.0016431703697890043,-0.003236806020140648,0.012485431507229805
1761916150372757000,4.846757080078125,0.001332645770162344,-0.001264468883164227,0.009939716197550297
1761916150382812000,4.85681201171875,0.0010194580536335707,0.002298840554431081,0.01044545043259859
1761916150392868000,4.8668681640625,-0.0021140172611922026,0.001020523370243609,0.014169082045555115
1761916150402923000,4.876923095703125,-0.0011150655336678028,-0.003960653208196163,0.01079778652638197
1761916150412976000,4.88697607421875,0.000012250540748937055,-0.0010580739472061396,0.010959174484014511
1761916150423031000,4.897031005859375,-0.00016724651504773647,0.0027206854429095984,0.009210809133946896
1761916150433087200,4.907087158203125,-0.0006697850185446441,0.0032381375785917044,0.00996155384927988
1761916150443142000,4.917141845703125,0.0005001416429877281,-0.002912699244916439,0.011171428486704826
1761916150453197000,4.927197021484375,-0.0008178567513823509,-0.000943025341257453,0.00996395107358694
1761916150463253000,4.9372529296875,0.0002492718631401658,0.0016793893883004785,0.010581005364656448
1761916150473308200,4.94730810546875,-0.002118278294801712,-0.0007089334540069103,0.011866512708365917
1761916150483363000,4.957363037109375,-0.00023622238950338215,-0.0003403519804123789,0.012748552486300468
1761916150493419000,4.9674189453125,-0.003192863892763853,-0.0008503473363816738,0.011140269227325916
1761916150503474000,4.977473876953125,-0.0002884203568100929,-0.00013662016135640442,0.009274724870920181
1761916150513529000,4.987529052734375,0.00005699164830730297,-0.0031190942972898483,0.010180998593568802
1761916150523585000,4.9975849609375,0.00018375810759607702,-0.0020354539155960083,0.00935328844934702
1761916150533640200,5.00764013671875,0.0022037657909095287,-0.005516471806913614,0.012193549424409866
1761916150543696000,5.01769580078125,0.001219727797433734,-0.0022474415600299835,0.01182177197188139
1761916150553751000,5.0277509765625,0.0012538161827251315,-0.004163053352385759,0.008267783559858799
1761916150563806000,5.037805908203125,0.0003382214636076242,-0.0014511564513668418,0.010306433774530888
1761916150573862100,5.047862060546875,0.00019734023953787982,-0.0009864348685368896,0.012662265449762344
1761916150583917000,5.0579169921875,-0.000544350128620863,0.001169394003227353,0.011656655929982662
1761916150593972700,5.06797265625,0.0005081311101093888,-0.004652276169508696,0.009609217755496502
1761916150604028700,5.078028564453125,-0.0006535397260449827,-0.00015899071877356619,0.012892629019916058
1761916150614083800,5.088083740234375,-0.001916144392453134,0.0011057445080950856,0.012428706511855125
1761916150624138500,5.098138427734375,-0.0010221211705356836,0.00030173614504747093,0.011200190521776676
1761916150634194700,5.108194580078125,-0.003238936420530081,0.0005467469454742968,0.01014131773263216
1761916150644249600,5.11824951171875,-0.0013235911028459668,-0.0011707255616784096,0.009265669621527195
1761916150654305800,5.128305908203125,-0.0012958941515535116,0.00040559942135587335,0.011463310569524765
1761916150664360700,5.138360595703125,-0.0019244002178311348,0.0018868496408686042,0.010340788401663303
1761916150674415600,5.14841552734375,-0.0006146575906313956,0.00007776429993100464,0.015845276415348053
1761916150684471600,5.158471435546875,-0.0024650217965245247,-0.0028786107432097197,0.010269149206578732
1761916150694526700,5.168526611328125,-0.0012607404496520758,0.000925448490306735,0.009701895527541637
1761916150704581600,5.17858154296875,-0.00015819176041986793,0.0013880395563319325,0.011788482777774334
1761916150714637800,5.188637939453125,0.0016636766958981752,-0.00020106865849811584,0.008323444053530693
1761916150724692700,5.198692626953125,-0.0024311996530741453,-0.0012271846644580364,0.012194348499178886
1761916150734747600,5.20874755859375,-0.0006748450105078518,0.0020668793004006147,0.01461729221045971
1761916150744803600,5.218803466796875,-0.0003813646617345512,-0.0012831110507249832,0.011120028793811798
1761916150754858800,5.228858642578125,-0.0019430422689765692,0.0023430490400642157,0.009831058792769909
1761916150764914700,5.238914794921875,-0.0007305050967261195,-0.0031848743092268705,0.00869095977395773
1761916150774969900,5.248969970703125,-0.0012572783743962646,-0.0010226538870483637,0.011374094523489475
1761916150785024800,5.259024658203125,-0.000041012681322172284,0.0017382452497258782,0.010960771702229977
1761916150795080700,5.269080810546875,0.0019433086272329092,-0.0011837751371785998,0.009680324234068394
1761916150805135600,5.279135498046875,-0.000023169501218944788,-0.002109223511070013,0.010566357523202896
1761916150815190800,5.289190673828125,0.00031611722079105675,-0.000434361572843045,0.013340040110051632
1761916150825246700,5.299246826171875,-0.0006106628570705652,0.0018575548892840743,0.011462777853012085
1761916150835301600,5.309301513671875,0.0016255935188382864,0.0004697816038969904,0.010701646097004414
1761916150845356800,5.319356689453125,0.00003062635369133204,-0.00016112125013023615,0.013590376824140549
1761916150855412700,5.329412841796875,-0.00011638013529591262,-0.0011534150689840317,0.01137089915573597
1761916150865468000,5.339468017578125,0.00014514227223116904,-0.0006676545017398894,0.013580789789557457
1761916150875523800,5.34952392578125,0.0003254382754676044,0.00003968110104324296,0.01184840314090252
1761916150885578800,5.359578857421875,-0.0013582120882347226,-0.0009763148264028132,0.010868893004953861
1761916150895633700,5.369633544921875,0.0022122878581285477,0.002070873975753784,0.008294148370623589
1761916150905689600,5.379689697265625,-0.0009960222523659468,-0.001674595638178289,0.012322446331381798
1761916150915744800,5.389744873046875,-0.02509097196161747,0.026102174073457718,0.01275920495390892
1761916150925799700,5.399799560546875,0.0019142802339047194,0.03934873640537262,0.04111068323254585
1761916150935855600,5.409855712890625,-0.00030599720776081085,0.01780296489596367,0.019154785200953484
1761916150945910800,5.419910888671875,0.002829342382028699,-0.05489147827029228,-0.014520086348056793
1761916150955965700,5.429965576171875,0.00407516909763217,-0.023666180670261383,-0.006030195392668247
1761916150966022000,5.44002197265625,0.0008306399104185402,0.023452861234545708,0.02834375761449337
1761916150976076500,5.45007666015625,0.0016562198288738728,0.01575526036322117,0.016055665910243988
1761916150986132700,5.4601328125,-0.0005773733137175441,-0.0030868700705468655,-0.007653658743947744
1761916150996187600,5.470187744140625,-0.00012783173588104546,-0.031199198216199875,0.011208978481590748
1761916151006242800,5.480242919921875,-0.0015494271647185087,-0.0011182613670825958,0.025120534002780914
1761916151016298800,5.490298828125,-0.001398159540258348,0.04512087255716324,0.013934724032878876
1761916151026353700,5.500353759765625,-0.002377670258283615,0.008956210687756538,0.009446232579648495
1761916151036408600,5.51040869140625,-0.0005624596378766,-0.02556980773806572,0.01010829396545887
1761916151046464800,5.52046484375,0.0005677859298884869,-0.014629276469349861,0.012799684889614582
1761916151056519700,5.530519775390625,0.00034674355993047357,0.015157114714384079,0.014150706119835377
1761916151066574800,5.540574951171875,0.0013909690314903855,0.018254904076457024,0.01094772294163704
1761916151076630500,5.550630615234375,-0.0010343717876821756,-0.010270747356116772,0.011062771081924438
1761916151086685700,5.560685791015625,-0.0020575581584125757,-0.021433386951684952,0.01303137931972742
1761916151096741600,5.57074169921875,-0.0003680488734971732,0.007456318475306034,0.009811618365347385
1761916151106796800,5.580796875,-0.0004242415598127991,0.01691426895558834,0.008440356701612473
1761916151116851700,5.590851806640625,-0.0013816480059176683,-0.0017449031583964825,0.01507242675870657
1761916151126908000,5.600907958984375,0.0010942928493022919,-0.012748552486300468,0.011431884951889515
1761916151136962600,5.610962646484375,-0.0006167881074361503,-0.004309527110308409,0.010845457203686237
1761916151147017700,5.621017822265625,0.0008892294717952609,0.008627310395240784,0.010160491801798344
1761916151157073700,5.63107373046875,-0.0002692455891519785,0.0049042110331356525,0.012690761126577854
1761916151167128800,5.64112890625,-0.002519350266084075,-0.01224627997726202,0.011288341134786606
1761916151177183700,5.651183837890625,0.00033422670094296336,-0.008914931677281857,0.009981527924537659
1761916151187239700,5.66123974609375,-0.00138031633105129,0.008053398691117764,0.012045743875205517
1761916151197294600,5.671294677734375,-0.002115082461386919,0.008669654838740826,0.014180000871419907
1761916151207350800,5.681350830078125,-0.00046818371629342437,-0.002930542454123497,0.011262241750955582
1761916151217405700,5.69140576171875,-0.0028735508676618338,-0.00749227125197649,0.011182347312569618
1761916151227460600,5.701460693359375,-0.002298840554431081,-0.0006266417913138866,0.008009190671145916
1761916151237516500,5.7115166015625,0.00008841694943839684,0.005334844347089529,0.011973039247095585
1761916151247571700,5.72157177734375,-0.0020844561513513327,0.00015526228526141495,0.012622850947082043
1761916151257627000,5.731626953125,0.000031957933970261365,-0.005212871357798576,0.010324276052415371
1761916151267682800,5.741682861328125,-0.0006641923682764173,-0.0036192359402775764,0.010323211550712585
1761916151277737700,5.75173779296875,0.0002146507758880034,0.005057342816144228,0.011782623827457428
1761916151287792600,5.761792724609375,-0.002380866091698408,0.0027257453184574842,0.010636931285262108
1761916151297848600,5.7718486328125,-0.000006125270374468528,0.0004974784678779542,0.01188222598284483
1761916151307903700,5.78190380859375,-0.001802693703211844,-0.0033047166652977467,0.011426292359828949
1761916151317959700,5.791959716796875,0.002522546099498868,-0.0007779093575663865,0.010700847953557968
1761916151328014600,5.8020146484375,0.00017896443023346364,0.004195011220872402,0.01022440753877163
1761916151338069800,5.81206982421875,0.0008412926108576357,-0.0029984530992805958,0.012664396315813065
1761916151348125700,5.822125732421875,-0.0018290589796379209,-0.0036282907240092754,0.010967429727315903
1761916151358180900,5.832180908203125,0.0005885586142539978,0.0004271710349712521,0.008734103292226791
1761916151368235800,5.84223583984375,-0.001210406655445695,0.002147573046386242,0.01254189107567072
1761916151378291700,5.852291748046875,0.00023089606838766485,0.0015169365797191858,0.013844975270330906
1761916151388346600,5.8623466796875,-0.0004106594424229115,-0.002261556452140212,0.009754626080393791
1761916151398401800,5.87240185546875,-0.0017070862231776118,-0.0009334379574283957,0.010579939931631088
1761916151408457700,5.882457763671875,0.0006732470938004553,-0.000011984225238848012,0.011114702560007572
1761916151418513000,5.892512939453125,0.0011430287268012762,-0.002264485927298665,0.01067821029573679
1761916151428568600,5.902568603515625,-0.00040799626731313765,-0.0020748688839375973,0.00951014831662178
1761916151438623700,5.912623779296875,-0.0005073322099633515,-0.005118595436215401,0.011331483721733093
1761916151448678700,5.9226787109375,-0.0007430219557136297,-0.0027196200098842382,0.010939733125269413
1761916151458734800,5.93273486328125,0.0017073525814339519,-0.0031076427549123764,0.010570352897047997
1761916151468789800,5.942789794921875,0.000185888638952747,-0.004033091012388468,0.010387127287685871
1761916151478844700,5.9528447265625,-0.0021973741240799427,-0.0015779229579493403,0.011682755313813686
1761916151488900600,5.962900634765625,-0.002948119305074215,0.0018945727497339249,0.011648932471871376
1761916151498955800,5.972955810546875,-0.0007592672482132912,0.002130262553691864,0.012867328710854053
1761916151509010700,5.9830107421875,0.0004905542591586709,-0.0020876519847661257,0.008378837257623672
1761916151519067000,5.99306689453125,-0.0008442220860160887,-0.0014319816837087274,0.010151437483727932
1761916151529121500,6.00312158203125,-0.0026439863722771406,0.0036064526066184044,0.01001961063593626
1761916151539177700,6.013177734375,-0.0007874967413954437,0.0006186523241922259,0.01182470191270113
1761916151549232600,6.023232666015625,-0.0002950782363768667,0.0021726067643612623,0.008036088198423386
1761916151559287800,6.033287841796875,-0.00003355582884978503,0.0012724583502858877,0.010701646097004414
1761916151569343700,6.04334375,0.0012303803814575076,-0.001386175281368196,0.009973005391657352
1761916151579398700,6.053398681640625,-0.000431432097684592,0.0025121597573161125,0.013290771283209324
1761916151589453800,6.063453857421875,0.0007283745799213648,0.0008839031797833741,0.0121251055970788
1761916151599510000,6.073510009765625,0.0016596820205450058,-0.0035031221341341734,0.01010696217417717
1761916151609565000,6.08356494140625,-0.0025952504947781563,-0.000859934720210731,0.01058979332447052
1761916151619619800,6.093619873046875,0.0007076018955558538,0.00005752427750849165,0.011304586194455624
1761916151629675800,6.10367578125,-0.0002846919232979417,-0.0006410228670574725,0.013845774345099926
1761916151639731000,6.11373095703125,-0.00123783724848181,-0.003968109842389822,0.012151471339166164
1761916151649787000,6.123786865234375,0.0006242449744604528,-0.0018434401135891676,0.011814048513770103
1761916151659842000,6.133842041015625,0.0002836266648955643,0.000800279900431633,0.01302259135991335
1761916151669897000,6.14389697265625,-0.0000881506348378025,0.0005219795857556164,0.010546384379267693
1761916151679953000,6.153952880859375,-0.001163002452813089,-0.0019409117521718144,0.014181599020957947
1761916151690007800,6.1640078125,-0.0014319816837087274,-0.0054216631688177586,0.010026801377534866
1761916151700063000,6.17406298828125,0.001466336427256465,0.0013608753215521574,0.009722135961055756
1761916151710119000,6.184118896484375,-0.0024594292044639587,0.0032567796297371387,0.010792193934321404
1761916151720174000,6.194174072265625,-0.0013909690314903855,0.004055195488035679,0.011375692673027515
1761916151730229000,6.20422900390625,-0.0022927154786884785,-0.004077299498021603,0.010519485920667648
1761916151740285000,6.214284912109375,-0.0021406488958746195,-0.0020809939596801996,0.010371946729719639
1761916151750340000,6.224340087890625,-0.00010599380766507238,0.0034173682797700167,0.010891796089708805
1761916151760396000,6.23439599609375,0.00010066748654935509,0.00250576832331717,0.012002333998680115
1761916151770451000,6.244450927734375,0.000258859246969223,-0.0034173682797700167,0.011110708117485046
1761916151780505900,6.254505859375,-0.0013393036788329482,-0.0041002025827765465,0.010237723588943481
1761916151790561800,6.264561767578125,0.000036485307646216825,0.000624777574557811,0.014207964763045311
1761916151800617000,6.274616943359375,0.0008649947121739388,0.004201402887701988,0.013490241952240467
1761916151810672000,6.284672119140625,0.00378994457423687,0.000639691308606416,0.013161608017981052
1761916151820728000,6.29472802734375,0.0005579322460107505,-0.000015712650565546937,0.011427357792854309
1761916151830783000,6.304782958984375,-0.0014064153656363487,0.0038067223504185677,0.011799135245382786
1761916151840839000,6.3148388671875,-0.0031731564085930586,0.005261873826384544,0.012287026271224022
1761916151850894000,6.32489404296875,0.0014085458824411035,-0.00041518680518493056,0.011284612119197845
1761916151860949000,6.334948974609375,0.0008064051507972181,-0.0031707596499472857,0.010440390557050705
1761916151871005200,6.345005126953125,-0.00007590009045088664,0.0012724583502858877,0.011758655309677124
1761916151881059800,6.355059814453125,0.0006274407496675849,0.0025965820532292128,0.009185508824884892
1761916151891115000,6.365114990234375,0.000601075473241508,0.004436027258634567,0.011379687115550041
1761916151901171000,6.3751708984375,-0.001677525113336742,0.002005626680329442,0.010831342078745365
1761916151911226000,6.38522607421875,-0.0022652847692370415,-0.0007829693495295942,0.013220996595919132
1761916151921280800,6.39528076171875,0.0012860405258834362,-0.001856223214417696,0.010571683757007122
1761916151931337000,6.4053369140625,-0.0008458199445158243,-0.0014202637830749154,0.012856942601501942
1761916151941392000,6.415391845703125,0.0007986819837242365,0.0017353157745674253,0.014405570924282074
1761916151951447000,6.425447021484375,-0.00025832661776803434,-0.001288171042688191,0.008748483844101429
1761916151961503000,6.4355029296875,0.0005728459218516946,0.0026469158474355936,0.01432327926158905
1761916151971558000,6.445557861328125,0.0009217200567945838,-0.0014881744282320142,0.011411112733185291
1761916151981613800,6.45561376953125,0.00021651499264407903,0.000597879639826715,0.012587164528667927
1761916151991669000,6.4656689453125,-0.035362519323825836,0.07214290648698807,0.0199848935008049
1761916152001724000,6.475723876953125,0.019245333969593048,0.02429948002099991,0.048227183520793915
1761916152011780000,6.485780029296875,0.005830192007124424,-0.009748500771820545,0.00008229167724493891
1761916152021834800,6.495834716796875,0.0013105415273457766,-0.054001182317733765,-0.017853032797574997
1761916152031890000,6.505889892578125,0.00500940578058362,0.0019180085510015488,0.010787400417029858
1761916152041945900,6.51594580078125,0.0032373385038226843,0.011346664279699326,0.03206419199705124
1761916152052001000,6.5260009765625,0.001651426195167005,-0.0003081277245655656,-0.005029379855841398
1761916152062057000,6.536056884765625,0.0016788567882031202,-0.011177552863955498,-0.010978348553180695
1761916152072111900,6.54611181640625,0.0010253170039504766,-0.03561045974493027,0.023299463093280792
1761916152082166800,6.556166748046875,-0.00022317290131468326,0.013579457998275757,0.01788126304745674
1761916152092223000,6.566222900390625,-0.002103897277265787,0.03338645398616791,0.006626743823289871
1761916152102278000,6.57627783203125,-0.00301656243391335,-0.005790777504444122,0.010430802591145039
1761916152112333000,6.5863330078125,-0.001748897833749652,-0.014344051480293274,0.014481737278401852
1761916152122388700,6.596388671875,-0.0002950782363768667,-0.0008551410282962024,0.017429323866963387
1761916152132444000,6.60644384765625,-0.001017593895085156,0.020708473399281502,0.013734187930822372
1761916152142499000,6.6164990234375,0.0012684636749327183,0.014785603620111942,0.00965795386582613
1761916152152555000,6.626554931640625,-0.00012996226723771542,-0.0193161740899086,0.015276957303285599
1761916152162610200,6.636610107421875,-0.0014956312952563167,-0.01785968989133835,0.012618856504559517
1761916152172666000,6.646666015625,0.0010820423485711217,0.012036423198878765,0.008810536004602909
1761916152182721000,6.656720947265625,0.001347559504210949,0.00814820732921362,0.012198609299957752
1761916152192776000,6.66677587890625,-0.00033103092573583126,-0.007836617529392242,0.010445983149111271
1761916152202832000,6.676831787109375,0.0004090615548193455,-0.012527775950729847,0.012269715778529644
1761916152212887000,6.686886962890625,0.0006703176186420023,0.0026080335956066847,0.012291020713746548
1761916152222942000,6.69694189453125,-0.0020455741323530674,0.015044462867081165,0.01426522247493267
1761916152232998000,6.706997802734375,-0.000844754686113447,0.0017419736832380295,0.011938684619963169
1761916152243053000,6.717052978515625,-0.000931307440623641,-0.009470467455685139,0.012803146615624428
1761916152253108000,6.72710791015625,-0.0023007048293948174,-0.00008122641156660393,0.010821755044162273
1761916152263164200,6.7371640625,0.0001893507578643039,0.004214984830468893,0.01088886708021164
1761916152273218800,6.74721875,-0.0012146678054705262,0.004199805203825235,0.013335512951016426
1761916152283274000,6.75727392578125,-0.003337739733979106,-0.004538292996585369,0.010144246742129326
1761916152293330000,6.767329833984375,-0.0004527373821474612,-0.004367584362626076,0.011299526318907738
1761916152303385000,6.777385009765625,-0.0008245146600529552,0.004463990684598684,0.010582337155938148
1761916152313441000,6.78744091796875,-0.0015520902816206217,0.004358529578894377,0.01398985181003809
1761916152323496000,6.797495849609375,0.0003475425182841718,-0.00047111319145187736,0.014423946850001812
1761916152333550800,6.80755078125,0.0005757753970101476,-0.0026463831309229136,0.01047554425895214
1761916152343607000,6.81760693359375,-0.002323608146980405,-0.001913214917294681,0.012681706808507442
1761916152353662000,6.827661865234375,-0.0003115898580290377,0.0030802120454609394,0.009225988760590553
1761916152363716900,6.837716796875,-0.0021017666440457106,-0.0005805690889246762,0.012172509916126728
1761916152373772800,6.847772705078125,-0.0012085424968972802,-0.0005347627447918057,0.010553840547800064
1761916152383828000,6.857827880859375,0.001514273346401751,-0.0025561018846929073,0.012883308343589306
1761916152393884000,6.8678837890625,-0.0014421016676351428,0.0006213154993019998,0.01206784788519144
1761916152403939000,6.87793896484375,-0.0005163869354873896,0.004195543937385082,0.010421481914818287
1761916152413994000,6.887993896484375,-0.00013635384675581008,0.0006319681415334344,0.010617757216095924
1761916152424050000,6.8980498046875,-0.0018373148050159216,-0.003242931328713894,0.012174108065664768
1761916152434104800,6.908104736328125,-0.0009230516152456403,-0.003239202778786421,0.010843859054148197
1761916152444160000,6.918159912109375,-0.0006197175825946033,-0.002490854589268565,0.009950635023415089
1761916152454216000,6.9282158203125,0.0011257182341068983,-0.002855974016711116,0.011214571073651314
1761916152464271000,6.93827099609375,0.0028122980147600174,-0.007119428366422653,0.010013485327363014
1761916152474326000,6.948325927734375,0.00042530681821517646,-0.009816145524382591,0.0091759217903018
1761916152484382000,6.9583818359375,-0.0004034689045511186,-0.005268265027552843,0.0078544607385993
1761916152494436900,6.968436767578125,-0.00004367584188003093,-0.0005406216951087117,0.011083011515438557
1761916152504493000,6.9784931640625,-0.0016373114194720984,0.003055444685742259,0.013916880823671818
1761916152514548000,6.9885478515625,0.0003507383225951344,0.0007994809420779347,0.012908874079585075
1761916152524603000,6.998602783203125,-0.0012085424968972802,-0.00321816373616457,0.010498447343707085
1761916152534658800,7.008658935546875,0.0006972155533730984,-0.0013648699969053268,0.010823885910212994
1761916152544714000,7.0187138671875,-0.001231711939908564,0.002807770622894168,0.009355418384075165
1761916152554769200,7.02876904296875,-0.00016192019393201917,0.0023401195649057627,0.013130716048181057
1761916152564825000,7.0388251953125,0.0009286442655138671,-0.0008314388687722385,0.010977815836668015
1761916152574880000,7.0488798828125,-0.00039015308720991015,-0.004424842074513435,0.011260643601417542
1761916152584935000,7.058934814453125,-0.003388606244698167,-0.0011531487107276917,0.01356640923768282
1761916152594997500,7.06899755859375,0.0005147890187799931,0.005107942968606949,0.010999388061463833
1761916152605052400,7.079052490234375,-0.0012607404496520758,-0.0029880667570978403,0.009168464690446854
1761916152615107300,7.089107421875,-0.0022335932590067387,-0.0036282907240092754,0.008252603933215141
1761916152625163300,7.099163330078125,-0.0015928366919979453,-0.0005065332516096532,0.012850284576416016
1761916152635218400,7.109218505859375,0.00042504051816649735,0.00016591492749284953,0.013916880823671818
1761916152645274400,7.1192744140625,-0.0006729807937517762,-0.0038900794461369514,0.011484082788228989
1761916152655329500,7.12932958984375,-0.001020523370243609,-0.0010215885704383254,0.009159942157566547
1761916152665384400,7.139384521484375,-0.002998719457536936,0.0023960459511727095,0.01050617080181837
1761916152675440400,7.1494404296875,0.0008482168195769191,0.002097505610436201,0.010202303528785706
1761916152685495300,7.159495361328125,-0.000850879936479032,-0.0012945625931024551,0.011030280962586403
1761916152695550500,7.169550537109375,-0.0010186590952798724,-0.0006820355774834752,0.014215953648090363
1761916152705606400,7.1796064453125,0.0017470336752012372,-0.00042770366417244077,0.012446549721062183
1761916152715661600,7.18966162109375,0.00049108691746369,0.0010910971323028207,0.01133894082158804
1761916152725716500,7.199716552734375,-0.000556334329303354,-0.0037207023706287146,0.010644122026860714
1761916152735772400,7.2097724609375,-0.0013097425689920783,0.0006567355012521148,0.011816712096333504
1761916152745827300,7.219827392578125,-0.0017787253018468618,-0.0013164004776626825,0.009718673303723335
1761916152755883500,7.229883544921875,-0.0007305050967261195,0.002541188383474946,0.009286442771553993
1761916152765938400,7.2399384765625,-0.0005571332876570523,-0.001270327833481133,0.012537895701825619
1761916152775993300,7.249993408203125,-0.0015132081462070346,0.0007123955874703825,0.009049953892827034
1761916152786049300,7.26004931640625,0.0007837683078832924,-0.0015267902053892612,0.008056594990193844
1761916152796104400,7.2701044921875,-0.001603755634278059,-0.0009153284481726587,0.011530156247317791
1761916152806159600,7.28015966796875,-0.0008349010022357106,0.000606934423558414,0.015276957303285599
1761916152816215600,7.290215576171875,-0.0016937704058364034,0.0020940436515957117,0.012596218846738338
1761916152826270500,7.3002705078125,0.0006149238906800747,-0.0005547364708036184,0.008588694036006927
1761916152836325400,7.310325439453125,-0.00013768543431069702,-0.0026703516487032175,0.010184993036091328
1761916152846381300,7.32038134765625,0.000254331884207204,-0.0017193368403241038,0.011321097612380981
1761916152856436500,7.3304365234375,0.0004665858286898583,-0.0003062635369133204,0.01230220589786768
1761916152866492400,7.340492431640625,-0.0009584716754034162,-0.0007483482477255166,0.013167466968297958
1761916152876547300,7.35054736328125,-0.0030426615849137306,0.004526308737695217,0.012315255589783192
1761916152886602500,7.3606025390625,-0.0001691107318038121,0.0015960324089974165,0.011627627536654472
1761916152896658400,7.370658447265625,-0.0005270395777188241,0.000964064325671643,0.012687033042311668
1761916152906713600,7.380713623046875,0.001781921018846333,0.00045060686534270644,0.010245979763567448
1761916152916768300,7.390768310546875,0.0011321097845211625,0.00033422670094296336,0.012078766711056232
1761916152926824400,7.400824462890625,-0.0016666061710566282,0.0010671286145225167,0.010849185287952423
1761916152936879400,7.41087939453125,0.0000697748182574287,-0.001413073274306953,0.01230620127171278
1761916152946934500,7.4209345703125,0.003576092654839158,0.0003499393642414361,0.01110618095844984
1761916152956990500,7.430990478515625,-0.00022770027862861753,0.0003731088654603809,0.010750115849077702
1761916152967045400,7.44104541015625,-0.002240251051262021,-0.0003049319493584335,0.01170272845774889
1761916152977101300,7.451101318359375,0.0004394215648062527,-0.0000673779723001644,0.011389540508389473
1761916152987156500,7.461156494140625,-0.00009747169679030776,-0.001264468883164227,0.012691560201346874
1761916152997211400,7.47121142578125,0.0006064017652533948,-0.0007262440049089491,0.010418286547064781
1761916153007267600,7.481267578125,0.000143544384627603,0.00015100123709999025,0.011332815513014793
1761916153017322200,7.491322265625,0.0002210423699580133,-0.002478337613865733,0.013193832710385323
1761916153027377400,7.50137744140625,0.001350488979369402,-0.000494016392622143,0.01028352975845337
1761916153037433300,7.511433349609375,0.0014508900931105018,0.00005246427463134751,0.01146730501204729
1761916153047488500,7.521488525390625,0.00006498113361885771,-0.0004135889175813645,0.012064119800925255
1761916153057543400,7.53154345703125,0.00048602689639665186,-0.0022157500497996807,0.01074106153100729
1761916153067599400,7.541599365234375,-0.0012090750969946384,-0.0013142699608579278,0.012486763298511505
1761916153077654300,7.551654296875,-0.001461010193452239,-0.0004159857635386288,0.010446515865623951
1761916153087710500,7.56171044921875,0.0005803027888759971,-0.0007749798824079335,0.009435313753783703
1761916153097765400,7.571765380859375,0.0006239786162041128,0.000883636821527034,0.01107635349035263
1761916153107820500,7.581820556640625,-0.013481986708939075,0.07639570534229279,0.03906111419200897
1761916153117876500,7.59187646484375,0.023321833461523056,0.047453802078962326,0.055098406970500946
1761916153127931400,7.601931396484375,-0.01044252049177885,-0.02695119008421898,-0.01763571798801422
1761916153137986300,7.611986328125,-0.0008676578872837126,-0.083385169506073,-0.0315784327685833
1761916153148042500,7.62204248046875,0.005112203769385815,0.00424374733120203,0.02208532765507698
1761916153158097400,7.632097412109375,0.00058323226403445,0.038125015795230865,0.04036233574151993
1761916153168152300,7.64215234375,-0.001290834159590304,0.011523498222231865,-0.00990109983831644
1761916153178208300,7.652208251953125,0.0010567422723397613,-0.03383173421025276,-0.012434565462172031
1761916153188263400,7.662263427734375,0.00039468047907575965,-0.05153270065784454,0.025829732418060303
1761916153198318600,7.672318603515625,-0.0015422365395352244,0.0312519297003746,0.02418576367199421
1761916153208374500,7.68237451171875,0.0014516890514642,0.05157717317342758,0.004620584659278393
1761916153218429400,7.692429443359375,-0.004505536053329706,-0.015784023329615593,0.009526127018034458
1761916153228485400,7.7024853515625,-0.0015614113071933389,-0.028989573940634727,0.01456083357334137
1761916153238540300,7.712540283203125,-0.0010482202051207423,0.0018407768802717328,0.01685061864554882
1761916153248595500,7.722595458984375,0.00030173614504747093,0.03367460519075394,0.015736352652311325
1761916153258651400,7.7326513671875,-0.0005688511882908642,0.01378132589161396,0.00860387459397316
1761916153268706300,7.742706298828125,0.0019595539197325706,-0.036255743354558945,0.012146944180130959
1761916153278761500,7.752761474609375,-0.00006364954606397077,-0.022771624848246574,0.013218333944678307
1761916153288817400,7.7628173828125,-0.00034408041392453015,0.02195669710636139,0.006954578682780266
1761916153298872600,7.77287255859375,-0.004454935900866985,0.01637364737689495,0.012463327497243881
1761916153308927200,7.78292724609375,0.000051399008953012526,-0.010688597336411476,0.014260162599384785
1761916153318983400,7.7929833984375,0.0014397049089893699,-0.01509852521121502,0.01101323589682579
1761916153329038300,7.803038330078125,-0.0031670311000198126,0.0037561224307864904,0.008857940323650837
1761916153339094500,7.813094482421875,-0.002697782125324011,0.0225609689950943,0.0167949590831995
1761916153349149400,7.8231494140625,-0.001966744428500533,0.0011944277212023735,0.00974610447883606
1761916153359204600,7.83320458984375,-0.0021579593885689974,-0.015869777649641037,0.011117898859083652
1761916153369260300,7.84326025390625,-0.0011792477453127503,-0.0037886130157858133,0.010686466470360756
1761916153379315500,7.8533154296875,-0.0008016114588826895,0.011902199126780033,0.013207148760557175
1761916153389370400,7.863370361328125,0.00007217166421469301,0.008889365009963512,0.013225790113210678
1761916153399426600,7.873426513671875,-0.0016088156262412667,-0.009730124846100807,0.010717359371483326
1761916153409481500,7.8834814453125,-0.002357163932174444,-0.00914582796394825,0.007233412005007267
1761916153419536400,7.893536376953125,0.0008543420699425042,0.0056893108412623405,0.011530156247317791
1761916153429592300,7.90359228515625,-0.0010466222884133458,0.00768721429631114,0.013164271600544453
1761916153439647500,7.9136474609375,0.0010551444720476866,-0.0014860439114272594,0.011188472621142864
1761916153449703400,7.923703369140625,-0.0011427623685449362,-0.010949852876365185,0.010322412475943565
1761916153459758600,7.933758544921875,-0.0016024239594116807,-0.003984621725976467,0.011445201002061367
1761916153469813200,7.943813232421875,0.0006612628931179643,0.004381432663649321,0.013942713849246502
1761916153479869400,7.953869384765625,-0.0012442287988960743,0.0016815199051052332,0.009869941510260105
1761916153489924400,7.96392431640625,-0.001190433045849204,-0.009888849221169949,0.008352738805115223
1761916153499979500,7.9739794921875,0.0018311894964426756,-0.008278968743979931,0.01149659976363182
1761916153510035500,7.984035400390625,-0.0010098706698045135,-0.0030575753189623356,0.011358914896845818
1761916153520090400,7.99409033203125,-0.0011369034182280302,0.00004234426160110161,0.009291236288845539
1761916153530145300,8.004145263671875,0.0026586337480694056,-0.00993066094815731,0.007752195466309786
1761916153540201500,8.014201416015625,0.0003038666909560561,-0.01209794171154499,0.008380701765418053
1761916153550256400,8.02425634765625,0.0012082761386409402,-0.0030362699180841446,0.010342918336391449
1761916153560312600,8.0343125,0.00022530343267135322,0.003491936717182398,0.010244914330542088
1761916153570367200,8.0443671875,0.001142229768447578,0.0007076018955558538,0.013677995651960373
1761916153580422400,8.05442236328125,-0.0018756643403321505,-0.003465571440756321,0.013736585155129433
1761916153590472400,8.064472412109374,0.0003193130251020193,-0.002270078519359231,0.009182047098875046
1761916153600527600,8.074527587890625,0.00281948852352798,0.0025712819769978523,0.012258796952664852
1761916153610582500,8.08458251953125,0.0005904228310100734,0.004048537462949753,0.010506702587008476
1761916153620638700,8.094638671875,0.000005592638444795739,0.0010921623324975371,0.006137254647910595
1761916153630693400,8.104693359375,-0.004001932218670845,-0.006067213602364063,0.010930677875876427
1761916153640748500,8.11474853515625,-0.0009219863568432629,0.0004572647449094802,0.009652627632021904
1761916153650804500,8.124804443359375,0.0010663296561688185,0.001966211711987853,0.013035907410085201
1761916153660859600,8.134859619140625,-0.0020325244404375553,0.0006327670416794717,0.01059139147400856
1761916153670915600,8.14491552734375,-0.0011656655697152019,-0.0008197209681384265,0.012425510212779045
1761916153680970500,8.154970458984375,0.0026911243330687284,-0.00011957593233091757,0.009179649874567986
1761916153691025400,8.165025390625,-0.0022359900176525116,0.0013406352372840047,0.011726696975529194
1761916153701081600,8.17508154296875,0.001882854849100113,0.0016434367280453444,0.013011139817535877
1761916153711136500,8.185136474609376,0.0018439727136865258,-0.00507065886631608,0.013187973760068417
1761916153721191700,8.195191650390624,-0.0026967169251292944,-0.0009323726990260184,0.01107582077383995
1761916153731247400,8.205247314453125,-0.0009456885163672268,-0.0010626012226566672,0.010434531606733799
1761916153741302500,8.215302490234375,0.0003414172388147563,0.0015374429058283567,0.00956820510327816
1761916153751357400,8.225357421875,-0.00054142065346241,-0.0018559569725766778,0.012714996002614498
1761916153761413600,8.23541357421875,-0.0006570018595084548,-0.005712214391678572,0.01116157416254282
1761916153771468500,8.245468505859375,-0.0011014834744855762,-0.0031164311803877354,0.009740511886775494
1761916153781523500,8.2555234375,-0.000020772657080669887,0.002150502521544695,0.011294999159872532
1761916153791579400,8.265579345703125,-0.0021920478902757168,0.000002663161012605997,0.013515009544789791
1761916153801634600,8.275634521484376,0.0011113371001556516,0.0005986785981804132,0.01110431645065546
1761916153811690500,8.2856904296875,0.0005904228310100734,-0.0027316042687743902,0.011560781858861446
1761916153821745700,8.29574560546875,-0.0007334345718845725,0.0022895196452736855,0.010606572031974792
1761916153831800600,8.305800537109375,0.000395745737478137,0.001517202821560204,0.014365357346832752
1761916153841856500,8.3158564453125,0.0014748586108908057,0.001157143502496183,0.010340522043406963
1761916153851911400,8.325911376953124,0.00023169501218944788,-0.0018005631864070892,0.010706174187362194
1761916153861966600,8.335966552734375,0.0015819176333025098,0.0026170883793383837,0.00984251033514738
1761916153872022500,8.3460224609375,0.00047857005847617984,0.0004569984448608011,0.009705890901386738
1761916153882077400,8.356077392578126,0.0007600661483593285,0.0002258360618725419,0.010694722644984722
1761916153892132600,8.366132568359374,-0.0009739180095493793,-0.0034144388046115637,0.012006063014268875
1761916153902188500,8.3761884765625,0.00007137271313695237,-0.0015736619243398309,0.010068080388009548
1761916153912243700,8.38624365234375,-0.0008194546680897474,0.0010783139150589705,0.008186557330191135
1761916153922299600,8.396299560546876,0.00005858954318682663,0.002418416552245617,0.010470750741660595
1761916153932354600,8.4063544921875,0.0005241101025603712,-0.0022309301421046257,0.009515474550426006
1761916153942409500,8.416409423828124,0.00019467707898002118,-0.002630137838423252,0.009724532254040241
1761916153952465400,8.42646533203125,-0.003920705523341894,-0.0021291973534971476,0.01200766023248434
1761916153962520600,8.4365205078125,0.0003225088003091514,0.004824049770832062,0.012515791691839695
1761916153972575500,8.446575439453126,0.0011715245200321078,0.0021558289881795645,0.01398745458573103
1761916153982631400,8.45663134765625,-0.0021614215802401304,-0.0038365498185157776,0.011166900396347046
1761916153992686600,8.4666865234375,-0.0010961571242660284,-0.0006362291751429439,0.009678459726274014
1761916154002741500,8.476741455078125,0.0011611381778493524,0.0008349010022357106,0.012811402790248394
1761916154012797700,8.486797607421876,0.000027963191314483993,0.00045300371129997075,0.011114968918263912
1761916154022852600,8.4968525390625,0.0009680590592324734,0.00019973708549514413,0.01110484916716814
1761916154032907500,8.506907470703124,-0.0013821806060150266,-0.001133441342972219,0.009345298632979393
1761916154042963500,8.51696337890625,-0.001505484920926392,0.0005004079430364072,0.013352024368941784
1761916154053018600,8.5270185546875,0.0002745719102676958,0.0037997981999069452,0.013079316355288029
1761916154063074600,8.537074462890626,0.00017363809456583112,-0.002430933527648449,0.009332781657576561
1761916154073129700,8.547129638671874,-0.0017864484107121825,-0.0007978830835781991,0.012103001587092876
1761916154083184400,8.557184326171875,-0.0006807039608247578,-0.0010913633741438389,0.009383647702634335
1761916154093240600,8.567240478515625,0.0021225393284112215,0.00005912217602599412,0.012947756797075272
1761916154103295500,8.57729541015625,0.0012096078135073185,-0.0009984191274270415,0.012715262360870838
1761916154113350700,8.5873505859375,-0.0007811051327735186,-0.0011651329696178436,0.012012188322842121
1761916154123406600,8.597406494140625,-0.00038775624125264585,-0.001773398951627314,0.009856092743575573
1761916154133461500,8.60746142578125,-0.0029851372819393873,0.0019592875614762306,0.011507518589496613
1761916154143516400,8.617516357421875,-0.0007811051327735186,0.0006585997180081904,0.011484881862998009
1761916154153572600,8.627572509765624,-0.0002689792599994689,0.0004522047529462725,0.011884089559316635
1761916154163627500,8.63762744140625,0.00008602010348113254,-0.001157143502496183,0.011653194203972816
1761916154173683700,8.64768359375,0.00009400958515470847,0.00036139096482656896,0.008443552069365978
1761916154183738400,8.65773828125,-0.005528988782316446,0.0032658344134688377,0.00945289060473442
1761916154193793500,8.66779345703125,0.002225337317213416,0.07254823297262192,0.06474517285823822
1761916154203849500,8.677849365234374,0.011218300089240074,0.050346795469522476,0.05265016108751297
1761916154213904600,8.687904541015625,-0.0007297061383724213,-0.055819589644670486,-0.031911060214042664
1761916154223959600,8.69795947265625,0.002114816103130579,-0.10074871778488159,-0.03658730536699295
1761916154234015500,8.708015380859376,0.0032860743813216686,-0.00983478780835867,0.022603046149015427
1761916154244070700,8.718070556640624,0.00009480853623244911,0.04860774800181389,0.03738811984658241
1761916154254125600,8.72812548828125,0.0020501012913882732,0.03485491871833801,-0.009512544609606266
1761916154264181500,8.738181396484375,-0.0006495449924841523,-0.04246197268366814,-0.010436927899718285
1761916154274236400,8.748236328125,-0.002034122357144952,-0.059650812298059464,0.02358255721628666
1761916154284291600,8.75829150390625,-0.0021704763639718294,0.041721880435943604,0.02526487596333027
1761916154294347500,8.768347412109375,-0.004985969979315996,0.06896601617336273,0.012684369459748268
1761916154304402700,8.778402587890625,-0.0034650389570742846,-0.004489024169743061,0.010415356606245041
1761916154314458600,8.788458740234375,-0.0016503608785569668,-0.03877562656998634,0.014872423373162746
1761916154324513500,8.798513427734376,-0.0008372978190891445,-0.014487862586975098,0.011416438966989517
1761916154334568400,8.808568359375,0.0012516856659203768,0.032046083360910416,0.009705624543130398
1761916154344624600,8.818624755859375,0.0008974852971732616,0.01774837076663971,0.006511695217341185
1761916154354679600,8.828679443359375,0.0006474144756793976,-0.03570073843002319,0.01179300993680954
1761916154364734700,8.838734619140626,-0.0009805759182199836,-0.02401825040578842,0.009011338464915752
1761916154374790400,8.848790283203124,0.0003608583356253803,0.023504527285695076,0.010570619255304337
1761916154384845600,8.858845458984375,-0.001216265605762601,0.02628726325929165,0.013509949669241905
1761916154394900500,8.868900390625,-0.0012916331179440022,-0.004560929723083973,0.01629854552447796
1761916154404956700,8.878956787109376,-0.00040000680019147694,-0.022787338122725487,0.013399162329733372
1761916154415011600,8.889011474609376,-0.0009291769238188863,-0.0032469260040670633,0.008613195270299911
1761916154425067500,8.899067626953125,0.0009973538108170033,0.01859898492693901,0.01158475037664175
1761916154435122400,8.909122314453125,0.0006876281695440412,0.003242931328713894,0.013863883912563324
1761916154445177600,8.919177490234375,-0.00010812433902174234,-0.017051154747605324,0.01098633836954832
1761916154455233500,8.929233642578126,-0.0018530274974182248,-0.005650429055094719,0.011313107796013355
1761916154465288700,8.939288818359374,-0.0005163869354873896,0.008219047449529171,0.011180749163031578
1761916154475343400,8.94934326171875,-0.0015662050573155284,0.012485964223742485,0.013877199962735176
1761916154485399600,8.959399658203125,0.00210682675242424,-0.003819771809503436,0.009653426706790924
1761916154495454500,8.969454345703125,0.0004932174342684448,-0.013493704609572887,0.010365555062890053
1761916154505509600,8.979509521484376,0.0024612934794276953,0.00224877311848104,0.012681440450251102
1761916154515565600,8.989565673828125,0.0005717806634493172,0.006718356627970934,0.012489160522818565
1761916154525620500,8.999620361328125,-0.0006862966110929847,0.004773450084030628,0.013073723763227463
1761916154535675600,9.009675537109375,-0.0013755226973444223,-0.0049007488414645195,0.010889931581914425
1761916154545731600,9.019731689453126,-0.0034730283077806234,-0.002511627273634076,0.010281932540237904
1761916154555786500,9.029786376953124,-0.000657534459605813,0.003412840887904167,0.011299259960651398
1761916154565842700,9.0398427734375,0.00038216362008824944,0.006112487055361271,0.010348510928452015
1761916154575897300,9.0498974609375,-0.0003683151735458523,-0.006914098747074604,0.0076147764921188354
1761916154585952500,9.059952392578126,0.002073537092655897,-0.006110356654971838,0.011081147007644176
1761916154596007700,9.070007568359374,0.0001680454588495195,-0.002171008847653866,0.008096009492874146
1761916154606062600,9.0800625,-0.001876995898783207,0.0011944277212023735,0.008498946204781532
1761916154616117800,9.09011767578125,-0.0000876179983606562,-0.001782187377102673,0.009473662823438644
1761916154626173700,9.100173583984375,-0.00018216021999251097,-0.011110441759228706,0.00774553744122386
1761916154636228600,9.110228515625,-0.0012604740913957357,-0.0054514906369149685,0.0076155755668878555
1761916154646283500,9.120283447265624,0.0016852483386173844,-0.004406466148793697,0.0067633637227118015
1761916154656339700,9.130339599609375,0.0003350256592966616,-0.006362824235111475,0.007533017545938492
1761916154666394600,9.14039453125,0.0009171926649287343,-0.01107688620686531,0.007616640534251928
1761916154676449800,9.15044970703125,0.00020746025256812572,-0.009119994938373566,0.00640836451202631
1761916154686505500,9.16050537109375,-0.0005374259199015796,0.0028818065766245127,0.01107315719127655
1761916154696560600,9.170560546875,-0.00006844323797849938,0.007466704584658146,0.014099840074777603
1761916154706616600,9.180616455078125,-0.001142496126703918,-0.002624545246362686,0.010787400417029858
1761916154716671700,9.190671630859375,0.0003094593121204525,-0.007173224352300167,0.006961769424378872
1761916154726726700,9.2007265625,0.000737695605494082,0.0004426173691172153,0.008186823688447475
1761916154736782600,9.210782470703125,-0.0020775320008397102,0.003034938359633088,0.011566374450922012
1761916154746837500,9.22083740234375,-0.0013813816476613283,0.0021409152541309595,0.009575395844876766
1761916154756892700,9.230892578125,-0.0011624698527157307,-0.0038772961124777794,0.009543171152472496
1761916154766948600,9.240948486328126,0.0015038870042189956,-0.004343615844845772,0.010252371430397034
1761916154777003800,9.251003662109374,0.00088949577184394,0.006738330237567425,0.011743741109967232
1761916154787058700,9.26105859375,-0.0008820389630272985,0.0023513049818575382,0.01116184052079916
1761916154797114600,9.271114501953125,0.0009177253232337534,-0.003269562730565667,0.011597533710300922
1761916154807169800,9.281169677734376,-0.0005259743193164468,-0.004552407655864954,0.008156463503837585
1761916154817224700,9.291224609375,0.0006197175825946033,0.0003515372518450022,0.010508833453059196
1761916154827280600,9.30128076171875,-0.0023438481148332357,0.004147074185311794,0.00884861871600151
1761916154837335600,9.31133544921875,-0.0009020126308314502,0.0011526161106303334,0.010632404126226902
1761916154847391500,9.3213916015625,-0.0009616674506105483,-0.004036286845803261,0.010399910621345043
1761916154857446700,9.33144677734375,-0.00030599720776081085,-0.002008289797231555,0.011005247011780739
1761916154867501800,9.341501708984374,-0.00013129384024068713,0.0018442390719428658,0.01269608736038208
1761916154877557800,9.351557861328125,-0.0009153284481726587,0.002341717481613159,0.01278876606374979
1761916154887612700,9.36161279296875,-0.0005701828049495816,-0.0036573191173374653,0.010413758456707
1761916154897667600,9.37166748046875,-0.0026818031910806894,-0.003983556292951107,0.00800253264605999
1761916154907723800,9.381723876953124,-0.001210406655445695,0.0021020330023020506,0.013961887918412685
1761916154917778700,9.39177880859375,-0.0007874967413954437,-0.00028815402765758336,0.014062022790312767
1761916154927833600,9.40183349609375,-0.0010218549286946654,0.0032205607276409864,0.012428706511855125
1761916154937889500,9.4118896484375,-0.0007523429812863469,-0.00014061490946915,0.011833223514258862
1761916154947944700,9.42194482421875,-0.0005728459218516946,0.0013736584223806858,0.012541358359158039
1761916154957999600,9.43199951171875,0.00006844323797849938,-0.0017925737192854285,0.01320768054574728
1761916154968055800,9.442055908203125,-0.0001613875647308305,-0.00034461304312571883,0.012014584615826607
1761916154978110500,9.4521103515625,-0.0021949773654341698,0.002567820018157363,0.009917079471051693
1761916154988166700,9.462166748046876,-0.002025333931669593,0.0014594122767448425,0.010332798585295677
1761916154998224000,9.472223876953125,-0.0011648666113615036,-0.0023126890882849693,0.01227211207151413
1761916155008278500,9.482278564453125,-0.00024980452144518495,-0.000969923275988549,0.01281885989010334
1761916155018333700,9.492333740234375,-0.0005723133217543364,0.0009270463488064706,0.013166136108338833
1761916155028389600,9.5023896484375,0.0026442527305334806,-0.001419198582880199,0.011212972924113274
1761916155038444800,9.51244482421875,-0.001820803270675242,0.0003504719934426248,0.010981811210513115
1761916155048500700,9.522500732421875,-0.0014623417519032955,0.001008272753097117,0.013583986088633537
1761916155058555600,9.5325556640625,0.001782187377102673,-0.0033838124945759773,0.014196512289345264
1761916155068610600,9.542610595703126,0.00042317630141042173,-7.989483492565341e-7,0.010464625433087349
1761916155078666800,9.552666748046875,-0.0005142564186826348,0.002243446884676814,0.008556203916668892
1761916155088721700,9.5627216796875,0.0014530207263305783,0.00003462109452812001,0.010387393645942211
1761916155098776600,9.572776611328125,0.0009483516332693398,-0.0036735644098371267,0.010034258477389812
1761916155108832500,9.58283251953125,-0.0002287655370309949,0.0030722226947546005,0.012377840466797352
1761916155118887700,9.5928876953125,0.0014434333425015211,0.0013920343481004238,0.012464925646781921
1761916155128942800,9.60294287109375,-0.000041811628761934116,0.0004932174342684448,0.009277121163904667
1761916155138998800,9.612998779296875,-0.00047404266661033034,-0.0016330503858625889,0.010637730360031128
1761916155149053700,9.6230537109375,0.0012783173006027937,0.0020791299175471067,0.011176222003996372
1761916155159108600,9.633108642578126,-0.0009480853332206607,0.0027720844373106956,0.01074186060577631
1761916155169164500,9.64316455078125,0.0008620652370154858,0.0013422331539914012,0.012076370418071747
1761916155179219700,9.6532197265625,-0.00020133497309871018,-0.0024764735717326403,0.012518188916146755
1761916155189275600,9.663275634765625,0.000723048229701817,0.0003379551344551146,0.012445484288036823
1761916155199330600,9.67333056640625,-0.0005518069956451654,0.001579787116497755,0.012948023155331612
1761916155209385700,9.6833857421875,-0.0023068301379680634,0.0036330842413008213,0.010486995801329613
1761916155219441700,9.693441650390625,-0.000041012681322172284,-0.0008066715090535581,0.01167609728872776
1761916155229496800,9.703496826171875,-0.000055926382628967986,0.06660592555999756,0.03683631122112274
1761916155239551700,9.7135517578125,0.007664044853299856,0.028386101126670837,0.040591899305582047
1761916155249607700,9.723607666015624,-0.003981958609074354,-0.03593989089131355,-0.00694845337420702
1761916155259662600,9.73366259765625,-0.0012777847005054355,-0.04440421611070633,-0.01595393195748329
1761916155269717800,9.7437177734375,0.0037292244378477335,0.015018098056316376,0.02634931541979313
1761916155279773700,9.753773681640626,0.0006524744676426053,0.02147999219596386,0.02756558172404766
1761916155289828900,9.763828857421874,0.0032615733798593283,-0.0009307747823186219,-0.014757907018065453
1761916155299883500,9.773883544921874,-0.0011078750248998404,-0.02949637360870838,0.0037763623986393213
1761916155309939700,9.783939697265625,-0.003198190126568079,-0.022586269304156303,0.028658809140324593
1761916155319994600,9.79399462890625,0.0027334685437381268,0.042577289044857025,0.011225223541259766
1761916155330049800,9.8040498046875,-0.002061553066596389,0.021497568115592003,0.004512193612754345
1761916155340105700,9.814105712890624,-0.0008237157016992569,-0.019148660823702812,0.012015383690595627
1761916155350160600,9.82416064453125,-0.0031902005430310965,-0.009441970847547054,0.009131446480751038
1761916155360216600,9.834216552734375,0.0012128035305067897,0.008702144958078861,0.016265789046883583
1761916155370271700,9.844271728515626,0.000303334032651037,0.02311357483267784,0.011657721363008022
1761916155380326700,9.85432666015625,0.000025566347176209092,-0.00009054747351910919,0.009417204186320305
1761916155390382800,9.8643828125,-0.001116130850277841,-0.02622894011437893,0.014071877114474773
1761916155400437500,9.8744375,0.001549693406559527,-0.0033422671258449554,0.010104832239449024
1761916155410492700,9.88449267578125,0.0009478190331719816,0.020080234855413437,0.011113903485238552
1761916155420548600,9.894548583984376,0.0006639260682277381,0.004372111521661282,0.012886770069599152
1761916155430603800,9.904603759765624,0.0006878945278003812,-0.014221546240150928,0.015021559782326221
1761916155440658700,9.91465869140625,-0.0013723268639296293,-0.0063066319562494755,0.01031575445085764
1761916155450714600,9.924714599609375,-0.0011004181578755379,0.010154100134968758,0.010802313685417175
1761916155460769500,9.93476953125,0.0012516856659203768,0.0099596893414855,0.013946708291769028
1761916155470824700,9.94482470703125,0.000050333743274677545,-0.01179354265332222,0.010421481914818287
1761916155480880600,9.954880615234375,0.0011534150689840317,-0.016327042132616043,0.009648365899920464
1761916155490935600,9.964935546875,0.002511360915377736,0.0000697748182574287,0.011289140209555626
1761916155500990700,9.97499072265625,0.0005049353349022567,0.00692022405564785,0.012022840790450573
1761916155511046700,9.985046630859374,0.00037497308221645653,-0.005358546506613493,0.009729326702654362
1761916155521101800,9.995101806640625,0.002772616920992732,-0.01094772294163704,0.009277920238673687
1761916155531157800,10.00515771484375,0.0017246630741283298,-0.013226589187979698,0.008055795915424824
1761916155541212700,10.015212646484375,0.0014687333023175597,-0.005285841878503561,0.007018494885414839
1761916155551267600,10.025267578125,0.0025153555907309055,-0.009048888459801674,0.007795871235430241
1761916155561323500,10.035323486328124,0.0016460998449474573,-0.005224056541919708,0.00917245913296938
1761916155571378700,10.045378662109375,-0.0005020058597438037,0.00014381069922819734,0.011506720446050167
1761916155581433900,10.055433837890625,0.000027696874894900247,0.0031944618094712496,0.013108078390359879
1761916155591490000,10.065489990234376,-0.0011001517996191978,-0.001642371411435306,0.010483799502253532
1761916155601545200,10.075545166015624,0.00007350324449362233,-0.005366003140807152,0.01056156400591135
1761916155611600000,10.085599853515625,0.0007091998122632504,0.0028999161440879107,0.0105929896235466
1761916155621656000,10.095656005859375,-0.0010242518037557602,0.0032684975303709507,0.009762615896761417
1761916155631711000,10.1057109375,0.0003968109958805144,-0.0006194512825459242,0.010730674490332603
1761916155641766100,10.11576611328125,0.0003856257244478911,-0.0041374871507287025,0.013116600923240185
1761916155651822000,10.125822021484375,-0.0003677825443446636,-0.0028674255590885878,0.012916597537696362
1761916155661877200,10.135877197265625,0.0020991035271435976,0.004387557972222567,0.012160525657236576
1761916155671932000,10.145931884765625,-0.0006716492353007197,0.0014061490073800087,0.009219330735504627
1761916155681988000,10.155988037109376,-0.0009701895760372281,-0.0002008023438975215,0.009672334417700768
1761916155692043000,10.16604296875,0.00015925703337416053,-0.003038134193047881,0.01104599330574274
1761916155702099200,10.17609912109375,-0.0004966795677319169,-0.0018317222129553556,0.009693906642496586
1761916155712154000,10.186154052734375,-0.002168345730751753,0.0007741809240542352,0.013292103074491024
1761916155722209000,10.196208984375,0.00058323226403445,0.0031396006233990192,0.010722152888774872
1761916155732265000,10.206264892578124,0.00025033715064637363,-0.0020325244404375553,0.012236160226166248
1761916155742320000,10.216320068359375,0.0015611450653523207,-0.004138818476349115,0.011788482777774334
1761916155752375000,10.226375,-0.0004415521107148379,-0.0033212280832231045,0.009371130727231503
1761916155762431200,10.23643115234375,-0.0012096078135073185,0.0017859158106148243,0.008860869333148003
1761916155772486000,10.24648583984375,-0.0023824640084058046,0.003403253620490432,0.013128585182130337
1761916155782541000,10.256541015625,0.0002306297537870705,0.00020346550445538014,0.010902448557317257
1761916155792597000,10.266596923828125,-0.0005720470217056572,-0.0023933828342705965,0.01318078301846981
1761916155802652200,10.276652099609375,-0.0008109325426630676,0.0019446401856839657,0.011438809335231781
1761916155812707000,10.28670703125,0.0014146711910143495,0.0024770060554146767,0.009345298632979393
1761916155822763000,10.296762939453124,-0.0002926813904196024,-0.001246892032213509,0.011533884331583977
1761916155832818000,10.30681787109375,-0.000577107013668865,-0.0010724549647420645,0.01119513064622879
1761916155842873000,10.316873046875,-0.0019949739798903465,0.00033182985498569906,0.010302438400685787
1761916155852929000,10.326928955078126,0.0012186624808236957,-0.000046871635277057067,0.015391739085316658
1761916155862984000,10.33698388671875,-0.0004106594424229115,0.004448544234037399,0.012716327793896198
1761916155873040000,10.347039794921875,0.0015957661671563983,-0.00045034053619019687,0.013666011393070221
1761916155883095000,10.357094970703125,-0.00010226538870483637,-0.0033417344093322754,0.012560000643134117
1761916155893150200,10.367150146484375,0.0012697952333837748,0.002525209216400981,0.014572551473975182
1761916155903206100,10.3772060546875,-0.0013709953054785728,0.0012423646403476596,0.010279535315930843
1761916155913261000,10.387260986328124,-0.0014093448407948017,-0.000601075473241508,0.011887019500136375
1761916155923316000,10.39731591796875,-0.0027414578944444656,-0.0009113337146118283,0.012690494768321514
1761916155933372000,10.407371826171875,0.0007107976707629859,-0.0023228090722113848,0.012124840170145035
1761916155943427000,10.417427001953126,0.0004913532175123692,0.0044349622912704945,0.010823885910212994
1761916155953482200,10.427482177734374,-0.00015046859334688634,0.0014199974248185754,0.011464376002550125
1761916155963538000,10.437537841796875,0.001344896387308836,0.0004386226355563849,0.022495189681649208
1761916155973593000,10.447593017578125,0.0006439523422159255,0.0031284152064472437,0.017941981554031372
1761916155983648000,10.45764794921875,-0.000434361572843045,0.004853877238929272,0.009815879166126251
1761916155993704200,10.4677041015625,-0.006615292280912399,0.013074522837996483,0.020804081112146378
1761916156003759000,10.477759033203125,0.0032778186723589897,0.0049215215258300304,0.017706293612718582
1761916156013814000,10.48781396484375,-0.0026437200140208006,0.00413482403382659,0.01326706912368536
1761916156023870000,10.497869873046875,0.000035686356568476185,-0.0016266588354483247,0.008702677674591541
1761916156033925000,10.507925048828126,-0.0013052152935415506,-0.005762547720223665,0.009939183481037617
1761916156043981000,10.51798095703125,-0.0013222594279795885,0.0008279767935164273,0.01583489030599594
1761916156054036200,10.5280361328125,0.0024567660875618458,0.00577799417078495,0.013078783638775349
1761916156064091000,10.5380908203125,0.00021971078240312636,0.0013217268278822303,0.010041981004178524
1761916156074147000,10.54814697265625,-0.004073038697242737,0.005253351293504238,0.015914784744381905
1761916156084202000,10.558201904296874,-0.0005313006113283336,0.006059490609914064,0.017354754731059074
1761916156094257200,10.568257080078125,-0.0002564624010119587,0.010597783140838146,0.014402374625205994
1761916156104313000,10.57831298828125,-0.026222549378871918,0.13770326972007751,0.3313086926937103
1761916156114368000,10.588367919921875,-0.00720438314601779,0.12327293306589127,0.3351407051086426
1761916156124423000,10.5984228515625,0.0009712548344396055,0.060750167816877365,-0.09089821577072144
1761916156134479000,10.60847900390625,0.007532484829425812,-0.03470525145530701,-0.1780027598142624
1761916156144534000,10.618533935546875,0.0041247038170695305,-0.06401999294757843,-0.11094995588064194
1761916156154589000,10.6285888671875,0.00159443449229002,-0.11034674942493439,-0.11439421772956848
1761916156164644900,10.638644775390626,-0.0018500980222597718,-0.13039928674697876,-0.04466121271252632
1761916156174700000,10.648699951171874,-0.00010146643762709573,-0.012177304364740849,0.05036729946732521
