time,seconds_elapsed,z,y,x
1761916107199826400,0.078826416015625,0.1928302642762661,0.00523522235591663,-0.056293403499573465
1761916107209881300,0.08888134765625,0.03754851714968681,0.0009231952425441704,0.025099369943141936
1761916107219936300,0.098936279296875,0.0009895955592393875,-0.003861981790931895,0.057520168815553184
1761916107229991400,0.108991455078125,0.09148235191106796,-0.008374851538916117,0.000460822444781661
1761916107240047400,0.11904736328125,0.1921761842817068,-0.002716544932720717,-0.038723917604610324
1761916107250102300,0.129102294921875,0.14639642988145352,0.012349232779315206,-0.013115940552204847
1761916107260157400,0.139157470703125,0.03885375452935695,0.013796139085420872,0.03511215684823692
1761916107270212400,0.14921240234375,0.049808279263973236,0.000829116901056841,0.028804727267101406
1761916107280268500,0.1592685546875,0.14640636675357818,-0.0006765133053646422,-0.00834733791090548
1761916107290323500,0.169323486328125,0.1635334426432848,0.0072227885770960705,-0.019095745614171027
1761916107300378400,0.17937841796875,0.08401391572654247,-0.004834818011615425,0.014619257787242532
1761916107310433300,0.189433349609375,0.026065000104904174,-0.0034887828306760637,0.014613193372637032
1761916107320488400,0.199488525390625,0.09960194548070431,-0.00984991536042653,-0.008835852080211043
1761916107330544400,0.20954443359375,0.1780412759453058,0.007389710675796959,-0.023648659678176046
1761916107340599300,0.219599365234375,0.12036182491481304,0.008986932722385972,0.0028332506645470856
1761916107350654500,0.229654541015625,0.038815760606527326,0.0052316284596105106,0.023094825187698006
1761916107360709400,0.23970947265625,0.06432663396000862,-0.006006387108215131,0.012423209047690034
1761916107370765600,0.249765625,0.14508768537044525,-0.0031432116628624497,-0.011176935313642024
1761916107380820200,0.2598203125,0.153053549683094,-0.01161325122154085,-0.007366144853830337
1761916107390875400,0.26987548828125,0.05986439385414123,-0.009754407680255825,0.008131357072666287
1761916107400930300,0.279930419921875,0.060413259908556935,-0.007177504113665781,0.009013838995620608
1761916107410985500,0.2899853515625,0.13623393230736255,-0.005853685331111773,0.0017632833454757928
1761916107421041400,0.30004150390625,0.1392564949989319,-0.002381951816647779,-0.004060235176235437
1761916107431096300,0.310096435546875,0.09113573043048381,-0.010266229659912642,0.0011467588823288678
1761916107441151500,0.3201513671875,0.06240472598671913,-0.00996729922897648,0.014017565567046404
1761916107451206400,0.330206298828125,0.10202712680101395,0.003786959776363801,0.0049087417643517255
1761916107461261300,0.34026123046875,0.1274742872685194,-0.0015889953576494007,-0.0033027678724378345
1761916107471317200,0.350317138671875,0.10431377643346786,0.0036282598000252617,0.00009513093754649162
1761916107481372400,0.360372314453125,0.08741174147129058,-0.00036859128379728643,0.014054755772277713
1761916107491427300,0.37042724609375,0.10789689561724662,-0.006192719443573151,0.013238617083802818
1761916107501482500,0.380482421875,0.1135702650785446,0.005622390476020519,-0.0025867285575717686
1761916107511538200,0.3905380859375,0.105941669896245,0.0025527440895792095,0.0018671090461313724
1761916107521593300,0.40059326171875,0.10025836356282233,0.0060427941454458045,0.007807897271960973
1761916107531648500,0.4106484375,0.08394786475300789,-0.005218887709046248,0.006171747437492012
1761916107541703000,0.420702880859375,0.08812076652348041,-0.005275218722876161,0.001030292895808816
1761916107551757800,0.4307578125,0.1149041440308094,0.002520764349005185,-0.004331014941632748
1761916107561813800,0.440813720703125,0.10699030216634273,-0.002049790402967483,0.003951367974281311
1761916107571869000,0.450868896484375,0.09143968181312084,-0.0005955524570657871,-0.0014567016143351792
1761916107581923800,0.460923828125,0.0824573339343071,0.000055983953957911575,0.0027960604593157768
1761916107591979000,0.47097900390625,0.10684650978147983,-0.0046761180352768855,0.005360065728425979
1761916107602034700,0.48103466796875,0.11014555132687091,-0.006910713253507856,0.000613601853698492
1761916107612089900,0.49108984375,0.09953121833205222,0.008963848674320615,0.00644939533509314
1761916107622145000,0.50114501953125,0.10956161395907402,-0.0009412583389086649,0.013859160134941338
1761916107632200000,0.511199951171875,0.10956570561230182,0.006102257831278257,-0.0011678747355937957
1761916107642254800,0.5212548828125,0.10911328566968441,0.00375541614391841,0.0026317367430776354
1761916107652310800,0.531310791015625,0.10403612853586673,0.007846539648761973,0.002626549111306667
1761916107662366000,0.541365966796875,0.10359832164049149,-0.006225544000940862,0.008894815725833177
1761916107672420900,0.5514208984375,0.10419570301175117,-0.005482196554041001,0.007121887769177555
1761916107682476000,0.56147607421875,0.09820026198923587,0.0024353510878747328,0.009210165285319089
1761916107692531700,0.57153173828125,0.09938684142529963,-0.0007019788234727456,0.002925166731700301
1761916107702587000,0.5815869140625,0.10522972223460673,-0.008512387712928466,0.005368906622007489
1761916107712642000,0.59164208984375,0.1032926166921854,-0.005936239914875477,0.006297858035191894
1761916107722697000,0.601697021484375,0.10479074629545211,0.001022984088899102,0.0007363514505326748
1761916107732752000,0.611751953125,0.09311375250518321,0.0027043042223667724,0.0054528585784137246
1761916107742807800,0.621807861328125,0.09776654674708843,-0.003456232267944142,0.0031457506798207757
1761916107752863000,0.631863037109375,0.10270751028060912,-0.009678266854258254,0.002059782074019313
1761916107762918000,0.64191796875,0.09656243165433406,-0.011526100377761759,0.009382964568957685
1761916107772972800,0.651972900390625,0.1056669446080923,0.0025228855241439304,0.004502864377200603
1761916107783028700,0.66202880859375,0.11508885294795036,0.005081534198124427,0.0012883593101054428
1761916107793084000,0.672083984375,0.10536533131301402,0.002312512442783918,-0.0005561725780367851
1761916107803139000,0.68213916015625,0.08905833963453769,0.002410908483073581,0.009412117598205804
1761916107813194000,0.692194091796875,0.1061158574193716,-0.002462346409366,0.006882818316295743
1761916107823250000,0.70225,0.0996761797606945,-0.007216575748729519,0.0017317191634327173
1761916107833304800,0.712304931640625,0.09848843128085136,-0.0005619013492134399,0.005639467191696166
1761916107843360000,0.722360107421875,0.10882862350940704,-0.0010051493213977664,0.003764540165290236
1761916107853415000,0.732414794921875,0.10105389785468578,0.0004917518725851551,0.010705591474846005
1761916107863469800,0.7424697265625,0.1107692361831665,0.005674152629298624,0.0012917933762073516
1761916107873525800,0.75252587890625,0.114520697671175,0.00300979910811875,-0.0036607875298708677
1761916107883581000,0.762580810546875,0.1079419038027525,0.008029636564129031,0.006430909830331802
1761916107893636000,0.772635986328125,0.0992623382627964,0.00831996584679,-0.005675196092203259
1761916107903690800,0.782690673828125,0.10105682046413421,0.005147722168976907,-0.0010206482846289873
1761916107913747000,0.792746826171875,0.09806289934515952,0.007478742949408479,0.0073761547911912195
1761916107923801900,0.8028017578125,0.09580898293852806,0.0009865496522048487,0.007676745172962546
1761916107933857000,0.81285693359375,0.10494622911810875,-0.0017852051996276714,0.0037928894769400355
1761916107943912000,0.822911865234375,0.09761223296821117,0.005919373261753935,0.0015752134274691343
1761916107953966800,0.832966796875,0.09402209952175616,0.005115817776927724,0.0075542878370732066
1761916107964022800,0.843022705078125,0.09357494027614593,-0.0035530779552529566,0.007068477081507444
1761916107974078000,0.853077880859375,0.10059446364939212,-0.004978500798624008,-0.00006473579928278923
1761916107984133000,0.863133056640625,0.10629062946438789,0.0018744064365979283,-0.0005098492182791232
1761916107994187800,0.873187744140625,0.09730302088856696,0.00013424138851696624,0.00890402194559574
1761916108004244000,0.883243896484375,0.09970072968006133,-0.0005273803083924577,0.008850538192689418
1761916108014299000,0.893298828125,0.10000058940947056,-0.003509469425678253,0.00943389103859663
1761916108024354000,0.90335400390625,0.10254910484850406,0.00010024093750398605,0.009518500582128763
1761916108034408700,0.91340869140625,0.09761924723088741,0.003060563464264851,0.0019078794479370116
1761916108044463900,0.9234638671875,0.1001554877102375,-0.0006498011116636916,0.0032142128061503172
1761916108054519800,0.933519775390625,0.0998544589370489,0.0010580211529508231,-0.0004966244105249643
1761916108064575000,0.943574951171875,0.10524784241318702,-0.0052845550900907255,0.0003039513826370239
1761916108074630100,0.953630126953125,0.10151625466942786,-0.00972754478950519,0.001654562273994088
1761916108084684800,0.963684814453125,0.09328969359397887,0.0032571728817536493,0.012231339737400412
1761916108094741000,0.973740966796875,0.10166939940452575,0.00542394072789466,0.00938771380931139
1761916108104796000,0.9837958984375,0.108093879494071,-0.0018475138630950822,-0.005133490430936217
1761916108114851000,0.99385107421875,0.09955752181708812,0.004429436098097358,-0.0017383680999279022
1761916108124905700,1.00390576171875,0.1046434467792511,0.004925884695397689,0.009507394666224718
1761916108134962000,1.0139619140625,0.10316226831078529,-0.0029096084029646588,0.016756342881172896
1761916108145016800,1.024016845703125,0.09852174902856349,-0.0021851917021092956,0.011992927871644497
1761916108155072000,1.034072021484375,0.1015109939724207,0.008774415633000899,-0.0033620968442410228
1761916108165127000,1.044126953125,0.10645078846216201,-0.0023694393949466757,0.0036553076371550557
1761916108175181800,1.054181884765625,0.10570318496525287,-0.0058084237005678,0.000654079994559288
1761916108185237800,1.06423779296875,0.10196049130558967,-0.0006149444274138659,0.0069737114701420065
1761916108195293000,1.07429296875,0.10239771367907524,-0.0012880898820469156,0.003548997718468308
1761916108205348000,1.08434814453125,0.09477087206244468,-0.0035809865921968592,-0.0022035744588822124
1761916108215402800,1.09440283203125,0.10345862090885638,0.0024418424774543383,0.0030479893937706945
1761916108225459000,1.104458984375,0.09582944120466709,0.0006686473760288208,0.010642901502177119
1761916108235513900,1.114513916015625,0.10838906304836272,-0.008890682973410002,0.010041866869106889
1761916108245569000,1.124569091796875,0.10479308438301085,-0.009410526146029587,0.008014306564256548
1761916108255624000,1.1346240234375,0.0940203459560871,-0.01115864160512574,-0.0014297405421733855
1761916108265680000,1.144679931640625,0.10330255356431006,-0.00648484795767581,0.0019353519767522811
1761916108275734800,1.15473486328125,0.10015256510078907,-0.0001795486848335713,0.009233034704253077
1761916108285790000,1.1647900390625,0.10268997462391853,0.008217656249785795,0.0025962270382791754
1761916108295845000,1.17484521484375,0.10089490790069103,-0.0021776111838524227,0.00243329156152904
1761916108305899800,1.184899658203125,0.11377601678371428,-0.006967658471979666,0.001800765811651945
1761916108315956000,1.1949560546875,0.10465689078271388,0.005120838728628587,0.010207798020541668
1761916108326011000,1.205010986328125,0.10092471851706504,-0.0006975560933933593,0.011872224101424217
1761916108336066000,1.215066162109375,0.09973346290588378,-0.008031132118182722,0.001014583870023489
1761916108346121000,1.225120849609375,0.10168167436420916,-0.0008925489425309933,0.009656374682858586
1761916108356177000,1.235177001953125,0.1009352399110794,-0.00503948743797373,0.006184533853828907
1761916108366231800,1.245231689453125,0.10213877048194407,-0.0063825155277852895,-0.007229512862116098
1761916108376287000,1.255286865234375,0.09749825119972229,-0.0032190990438219157,-0.0012239888370037077
1761916108386342000,1.265341796875,0.11306348460018634,-0.0061483391624409705,0.005024477098509669
1761916108396396800,1.275396728515625,0.10754618248343467,-0.002193409257894382,0.007578034038841724
1761916108406453000,1.285452880859375,0.10111585717499255,0.0048660191507660785,0.0019818945322185753
1761916108416508000,1.2955078125,0.10545710124969482,0.0012974125495296902,0.0076507339488714925
1761916108426563000,1.30556298828125,0.10005904159843922,-0.00003296383797423914,-0.0034109774872660634
1761916108436617700,1.31561767578125,0.10948737967908381,0.005156190886511467,-0.002083747471496463
1761916108446674000,1.325673828125,0.10440203923881053,0.003994919421640225,0.005072188697755336
1761916108456728800,1.335728759765625,0.10125614242851734,0.0011086987441289238,0.0007801905922591686
1761916108466784000,1.345783935546875,0.10993103179335594,0.001089267957874108,-0.0007992606189101934
1761916108476839000,1.3558388671875,0.1093225445061922,0.0012463787653250618,0.009523249822482467
1761916108486894800,1.365894775390625,0.10753273847997188,-0.0027977135602850465,0.008088394713774323
1761916108496950000,1.375949951171875,0.09555822304785251,-0.002626213467877824,0.0027552900575101374
1761916108507005000,1.3860048828125,0.1078285065561533,0.004523329493205528,0.0006684007808566093
1761916108517060000,1.39606005859375,0.10513912134170532,-0.003400816852855496,0.008234452120959758
1761916108527115800,1.40611572265625,0.09720365216732024,0.003761302462010644,-0.0011355068359524012
1761916108537171000,1.4161708984375,0.10379296742975712,0.00304230400507804,-0.0021102701522409915
1761916108547226600,1.4262265625,0.11456102968156337,-0.005850470460718497,-0.000977758990973234
1761916108557281500,1.436281494140625,0.09928981079161167,-0.0042838558982359245,-0.0014515139825642107
1761916108567336400,1.44633642578125,0.10602233391702175,0.011318930750351864,0.013829203388094902
1761916108577392600,1.456392578125,0.0989922891497612,0.004743064057955052,0.021267098303884267
1761916108587447600,1.466447509765625,0.08356792552471161,-0.017042400130804162,0.00019245383217930792
1761916108597502500,1.47650244140625,0.11856208201646803,-0.02803050519132521,0.005144815542548894
1761916108607557600,1.4865576171875,0.11334171701967716,0.0006119282031315378,-0.0031925854962319136
1761916108617613600,1.496613525390625,0.09838087925314902,0.019824258534831458,-0.0017372721213847397
1761916108627668700,1.506668701171875,0.10660744032859802,0.011042198451492003,0.004005363183841109
1761916108637723400,1.516723388671875,0.10105740498602389,-0.0002126974691869691,0.002559767485409975
1761916108647778600,1.526778564453125,0.09775719439685344,-0.014835622217971831,-0.0033123394183814524
1761916108657834500,1.53683447265625,0.10300737001001835,-0.000054381085338536645,-0.0005145984586328268
1761916108667889700,1.5468896484375,0.09821721312403678,0.0002525111730559729,0.007739727406576275
1761916108677944600,1.556944580078125,0.0875935277789831,-0.009006628370122052,0.004891936760023236
1761916108687999500,1.56699951171875,0.10614099186062813,-0.0038935459729749705,0.006491773172095418
1761916108698055400,1.577055419921875,0.10570844566226005,0.007940574607765302,0.0056450932148844
1761916108708110600,1.587110595703125,0.10766016425192355,0.0063397244155406944,0.0018108488142490385
1761916108718165800,1.597165771484375,0.10213643239438533,0.0026981667425250632,0.0035646336790174245
1761916108728220400,1.607220458984375,0.10409691881239413,-0.009403671713557559,0.0033458032965660092
1761916108738275600,1.617275634765625,0.08809329399466514,-0.00929978893068619,0.002624503284692764
1761916108748331500,1.62733154296875,0.08539455642998219,-0.006402071894914842,-0.0014874620787799356
1761916108758386700,1.63738671875,0.11816811426281928,-0.0005358604423701763,0.0002564589790999889
1761916108768441300,1.64744140625,0.11294365761280059,-0.0011652032878948374,0.004851750880107283
1761916108778496500,1.65749658203125,0.0963344681173563,0.001615065947244875,0.0120341366648674
1761916108788552400,1.667552490234375,0.08792904334366321,0.00272421221594559,0.0016490823812782764
1761916108798607600,1.677607666015625,0.10797463702857493,0.014241752544627524,0.005169146266207098
1761916108808662500,1.68766259765625,0.11666355491876601,-0.001053637238778174,-0.0012562106061726809
1761916108818717400,1.697717529296875,0.09272913710176944,-0.002587835952558089,0.009103782301396132
1761916108828773400,1.7077734375,0.08927695082128047,-0.016816550919099244,-0.0013691694613546133
1761916108838828500,1.71782861328125,0.11097674145400524,-0.003815206340025179,-0.0002063362270593643
1761916108848883700,1.7278837890625,0.10651508587002753,0.0043712853032280685,0.0016376111391931771
1761916108858938400,1.7379384765625,0.0861865835905075,0.006861236672149971,0.00879376650415361
1761916108868994600,1.74799462890625,0.09500584986209869,0.003682270992605481,0.004741787699609995
1761916108879049500,1.758049560546875,0.10666589251756667,-0.0028703404050786046,0.007761208586022257
1761916108889104600,1.768104736328125,0.11447042878866195,0.002584584549546707,-0.007254501172900199
1761916108899159600,1.77815966796875,0.10611059672236442,-0.005619324019388295,0.005766089246049523
1761916108909215500,1.788215576171875,0.0944429552823305,-0.006994509946287144,0.00510265690125525
1761916108919270400,1.7982705078125,0.1080500403523445,0.0046043360072770155,-0.007616174092143773
1761916108929325600,1.80832568359375,0.1073047749429941,-0.001262542165548075,0.0011618103209882975
1761916108939380700,1.818380615234375,0.08473463121652602,-0.007671479909378103,0.0010769815817475317
1761916108949435400,1.828435302734375,0.10164426496326923,-0.001865531293686945,0.0037586949463933703
1761916108959491600,1.83849169921875,0.10014145918488503,-0.010847185052756685,-0.001976633835211396
1761916108969546500,1.84854638671875,0.10057634347081183,-0.009627057256828993,0.0025740882717072964
1761916108979601700,1.8586015625,0.1044821187376976,-0.003797832796827424,-0.0028929449625313282
1761916108989656600,1.868656494140625,0.10419161135852337,0.005506043220509309,0.004009454837068915
1761916108999712500,1.87871240234375,0.0988093337982893,-0.002581913101847749,0.012763035461306572
1761916109009767400,1.888767333984375,0.10209902299344539,-0.007950337949953973,0.003520210015401244
1761916109019822600,1.898822509765625,0.09582067337632179,0.0004856897412682883,0.0013384820621460676
1761916109029877800,1.908877685546875,0.10629413659572601,-0.0013539833086659199,-0.0007470920402556658
1761916109039933400,1.918933349609375,0.10748773029446601,0.0013042578488471916,0.0012575988456606864
1761916109049988600,1.928988525390625,0.09971125107407569,-0.0023809951187111437,-0.0007573942385613918
1761916109060043500,1.93904345703125,0.10180851561427116,0.0004378365781274624,0.008939093258976936
1761916109070098700,1.9490986328125,0.10344576142728328,0.005130396574840415,0.002492036011442542
1761916109080154600,1.959154541015625,0.09491758705675601,-0.0030815103541710414,0.0032182313941419125
1761916109090209500,1.96920947265625,0.09851298120021819,0.007193491700664162,0.003754676358401775
1761916109100264400,1.979264404296875,0.09866671045720576,-0.002515932910260744,0.0059443684224039315
1761916109110319600,1.989319580078125,0.097597619920969,-0.0007124956509098411,-0.0015081395406275986
1761916109120374500,1.99937451171875,0.10402326905429363,0.004378660325508099,-0.001528232480585575
1761916109130430500,2.009430419921875,0.11240355938673019,-0.0024869419945054688,-0.0012375789709389209
1761916109140485600,2.019485595703125,0.10747779342234134,-0.001895140980661381,0.0009684797059744596
1761916109150540500,2.02954052734375,0.11003156955838203,-0.01231806817278266,0.00306976283416152
1761916109160595700,2.039595703125,0.11047989784777164,0.0025827921679709106,-0.0043988194808363915
1761916109170651400,2.0496513671875,0.10883563777208327,0.0006702570945140905,0.0015513210952281952
1761916109180706600,2.05970654296875,0.1085468839585781,-0.006661948957096319,0.007528057417273521
1761916109190761500,2.069761474609375,0.08550386202335357,0.005418600115785375,0.000182516960054636
1761916109200816600,2.079816650390625,0.09880699571073055,0.0020141551172942855,0.0023366993192583323
1761916109210872600,2.08987255859375,0.10582710360586643,0.0049256974657299,0.0028316432293504475
1761916109220927500,2.099927490234375,0.10672843635976315,0.0005373194638057611,0.009965659827739
1761916109230982700,2.109982666015625,0.09535890108346938,-0.009069733901321887,0.010222118806838989
1761916109241037600,2.12003759765625,0.09699263976514338,-0.0001851336088264361,-0.0032160394370555874
1761916109251093500,2.130093505859375,0.10417407570183276,0.0014768630529521031,-0.005285100796073675
1761916109261148400,2.1401484375,0.10732172607779503,-0.00512369055612944,-0.0011740852806717157
1761916109271203600,2.15020361328125,0.10359832164049149,0.004161519576644059,0.0023100305080413818
1761916109281258500,2.160258544921875,0.09595862054228782,0.00692388782891212,0.0030284809757024048
1761916109291314700,2.170314697265625,0.10252689301669597,0.0005666391731239855,-0.0037722850803285834
1761916109301369600,2.18036962890625,0.09713935475945472,-0.005748263611702714,-0.004808496260270476
1761916109311424500,2.190424560546875,0.1043336501777172,-0.007982066528778522,0.003684533731639385
1761916109321479700,2.200479736328125,0.10373626880645752,0.0003367622402729466,0.0015700988609343765
1761916109331534600,2.21053466796875,0.09414777172803879,-0.0057340843893005505,0.007880816377699374
1761916109341590500,2.220590576171875,0.11149112071692943,-0.00797602494705934,0.005555369104817509
1761916109351645400,2.2306455078125,0.10489946736693381,0.0021426997006754388,-0.0037556992717087266
1761916109361700600,2.24070068359375,0.09517068503499031,0.010396603157487697,-0.0014784750547260045
1761916109371755500,2.250755615234375,0.09981880310177803,0.0005591819524532184,0.008117036286368966
1761916109381811700,2.260811767578125,0.10146364769935608,-0.011324065866484306,0.00139729957729578
1761916109391866400,2.270866455078125,0.09771803143024443,-0.009215391732996795,0.004606032490730286
1761916109401921500,2.280921630859375,0.10310849229693413,0.00015572028467431662,-0.009662658293172716
1761916109411976400,2.2909765625,0.09518529808223247,0.0017632057136623188,-0.0003583849836140871
1761916109422032600,2.30103271484375,0.09595219080150127,-0.016169583368627352,0.003403232572227716
1761916109432087600,2.311087646484375,0.09670271690785884,-0.0049993426572531455,0.005160451503098011
1761916109442142500,2.321142578125,0.10568974096179008,0.0018899693319108337,0.013709011074528097
1761916109452197600,2.33119775390625,0.09552256721258164,0.0014759520207880995,0.008653481250628828
1761916109462253600,2.341253662109375,0.1028524717092514,0.00013239192472537978,0.002106763020902872
1761916109472308700,2.351308837890625,0.10554127240180969,0.00447496943998849,-0.0024630291126668453
1761916109482363400,2.36136328125,0.10898819798529147,0.004291840558580588,-0.00029138416200876236
1761916109492418600,2.37141845703125,0.10061316834986209,-0.00414228515321156,0.001581862363964319
1761916109502474500,2.381474609375,0.09283025938868522,-0.003799109155172482,0.004309314566478133
1761916109512529700,2.39152978515625,0.10001286436915396,-0.01241038153215777,-0.007366290984302758
1761916109522584300,2.401584228515625,0.09808043500185012,-0.011616984398453496,-0.006217413210123777
1761916109532639500,2.411639404296875,0.106773444545269,-0.015068465142755302,0.0015095277801156044
1761916109542695000,2.42169482421875,0.09287000687718391,-0.013980185848858672,0.002514028647542
1761916109552749800,2.431749755859375,0.10319032536149024,-0.004542499984556343,0.010221022828295826
1761916109562804700,2.4418046875,0.11066109963357448,-0.0029511528396164066,0.004705766538158059
1761916109572859600,2.451859619140625,0.09898469036519526,0.012361448373494203,-0.0015078472796827553
1761916109582915800,2.461915771484375,0.1108165824562311,0.007266814948490355,-0.0031618250317871567
1761916109592970800,2.471970703125,0.1006482396632433,0.006070047478552442,0.006452683270722627
1761916109603026000,2.48202587890625,0.0954103390097618,0.00013127767987316475,0.003027604192867875
1761916109613080800,2.492080810546875,0.0985474679917097,-0.004247156600060407,-0.00018215163387358188
1761916109623136800,2.50213671875,0.09794950209856033,-0.001561552511586342,0.0049055999591946595
1761916109633192000,2.51219189453125,0.09932137497365474,0.00038045296823838724,0.0016843728903681039
1761916109643246800,2.522246826171875,0.10769874269664287,-0.003594574442843441,0.0021664573188871143
1761916109653301800,2.5323017578125,0.10859539927542208,-0.005940669494820758,0.0005455781187862158
1761916109663357700,2.542357666015625,0.113239425688982,-0.00016424608442466704,0.010336904292926191
1761916109673412900,2.552412841796875,0.095728903439641,-0.0014580419047619216,0.012324132587388157
1761916109683467800,2.5624677734375,0.09047580521702765,-0.0006491458078264258,-0.0024046499889343975
1761916109693522700,2.572522705078125,0.10931845285296439,0.011680852548056281,-0.00462152232080698
1761916109703578600,2.58257861328125,0.10992109492123127,0.01258720853694249,-0.00019186931028962134
1761916109713633800,2.5926337890625,0.09825520704686641,0.003570469764759764,-0.006266147722676396
1761916109723689000,2.60268896484375,0.10154606528580189,-0.0028264030819409526,-0.005650353911891579
1761916109733743900,2.612743896484375,0.09944061743915081,0.0005471924038487487,-0.005198372360691428
1761916109743799800,2.6227998046875,0.10662263789772987,0.0000019522117800079283,-0.005342457006499171
1761916109753854700,2.632854736328125,0.10019874233007431,-0.008520098378637339,0.006772562874853611
1761916109763910000,2.642909912109375,0.09721183547377586,-0.0030655729995225553,0.005038651754334569
1761916109773964800,2.65296484375,0.09225684341490269,-0.009258365508331918,0.007832885582745074
1761916109784021000,2.66302099609375,0.11125438935160636,-0.0030393517128773965,0.014368351766094564
1761916109794075600,2.67307568359375,0.09929507148861884,-0.005257169326243456,0.006268851136416197
1761916109804130800,2.683130859375,0.08583762402236461,0.008081679561908823,-0.0003156418204307556
1761916109814186000,2.69318603515625,0.0950964507550001,0.003972657357482239,0.0043042730651795865
1761916109824242000,2.703241943359375,0.10705986027121543,-0.004676631775218993,-0.0017109686363488434
1761916109834296600,2.713296630859375,0.10422376006245612,0.0010980494859511964,0.005812120344862341
1761916109844351700,2.723351806640625,0.10005261185765266,0.009539696350495796,-0.002691431041061878
1761916109854407000,2.733406982421875,0.10201076018810272,0.0032192839902010746,-0.004380699302256107
1761916109864462800,2.743462890625,0.10394903477430344,-0.007455202243616804,-0.0033816783275455236
1761916109874518000,2.75351806640625,0.1210042144715786,-0.0016749474748969078,-0.00018675474375486374
1761916109884572700,2.76357275390625,0.09482114094495772,-0.0024542293182807044,-0.0024872867710888386
1761916109894627800,2.7736279296875,0.09541735327243804,0.0036335752959595993,0.006381590795889496
1761916109904683800,2.783683837890625,0.1030354270607233,0.009003086989454458,0.0014959376461803912
1761916109914739000,2.793739013671875,0.10512392377257347,0.005834421224927063,-0.001544745223969221
1761916109924793600,2.803793701171875,0.10259235946834087,-0.0074526586600812145,-0.00741882488913834
1761916109934848800,2.813848876953125,0.09601765725314616,-0.000027116335788741707,-0.0017226590741425752
1761916109944904700,2.82390478515625,0.09885551102757453,0.0006077201021835207,-0.0026958880204707384
1761916109954960000,2.8339599609375,0.09706044430434703,-0.0020146483076387083,-0.0004519815512001514
1761916109965014800,2.844014892578125,0.09586451251804828,-0.0006121291325311176,-0.0013666121780872343
1761916109975069700,2.854069580078125,0.09511690902113915,0.00337866895312909,0.002508548754826188
1761916109985126000,2.8641259765625,0.09706512047946453,0.01032308583012782,0.00007226151861250401
1761916109995180800,2.874180908203125,0.10229600687026977,-0.004412099087517708,-0.00402056075297296
1761916110005236000,2.884236083984375,0.11337503476738929,-0.0034888353463145903,-0.0024616408731788397
1761916110015290600,2.89429052734375,0.10500877296030521,0.0042720855453400874,0.0034774668522179124
1761916110025346800,2.904346923828125,0.101266079300642,0.005028141776763368,0.0036603491384536026
1761916110035401700,2.914401611328125,0.11995265959203243,-0.0026701005586655807,0.013499606107547878
1761916110045457000,2.924456787109375,0.09376432536840439,-0.0047447491249651644,0.006349588222429156
1761916110055511800,2.93451171875,0.09465747481584548,-0.0027969966076547277,0.002978942745551467
1761916110065567700,2.944567626953125,0.0976408745408058,0.00460859890715219,0.005509484136477113
1761916110075623000,2.954622802734375,0.11139350556135177,0.006501965772546827,0.0030272388666868206
1761916110085677800,2.964677734375,0.10316577544212341,0.007050336353329476,-0.0020962416268885133
1761916110095732700,2.974732666015625,0.10138239915668963,0.0024790303993970156,-0.003922653336450458
1761916110105788700,2.98478857421875,0.08986497984230518,0.0035405244343564846,-0.007289572486281395
1761916110115843800,2.99484375,0.10452303526997565,0.004807261001120787,-0.012876724968850612
1761916110125898800,3.004898681640625,0.10961246736347674,0.008127473198703956,0.0004106266275048256
1761916110135954000,3.014953857421875,0.10796996085345745,-0.0011729756023967637,0.005448255468532443
1761916110146009600,3.025009521484375,0.09285188669860363,-0.006612947299773805,0.00566642826385796
1761916110156064800,3.035064697265625,0.08760872534811497,-0.0023064982605283148,0.0051433542378246785
1761916110166120000,3.045119873046875,0.10541793828308582,0.006513756675040349,-0.0041751667927950615
1761916110176174800,3.0551748046875,0.10587094274759291,0.00012906288990052417,-0.0007847937021404505
1761916110186230800,3.065230712890625,0.09450199199318886,0.0017723137520137243,0.006192059573158621
1761916110196285700,3.07528564453125,0.09644085110127926,0.0034232478803722186,-0.004183496229723096
1761916110206340900,3.0853408203125,0.10436346079409121,-0.0034057396231452,0.000126768184825778
1761916110216395800,3.095395751953125,0.10557751275897026,0.00764193187119672,-0.004920359136909246
1761916110226452000,3.105451904296875,0.10738777705132961,0.005474326058127917,0.00534326072409749
1761916110236506600,3.115506591796875,0.08926116873025894,-0.003286120415024925,0.002810015919432044
1761916110246561800,3.125561767578125,0.09972235698997974,0.008566978860821108,0.0022662644315510987
1761916110256616700,3.13561669921875,0.11020166542828082,0.004383637894724961,0.0036876024715602395
1761916110266673000,3.1456728515625,0.086269585698843,0.0014570920566911807,0.004437909382209181
1761916110276727800,3.155727783203125,0.09015198009014129,0.0017815998868783935,0.0101040453851223
1761916110286782700,3.16578271484375,0.08820201506614685,-0.009085472609859426,-0.0000032879356294870375
1761916110296838700,3.175838623046875,0.09792086052596569,-0.003466041275905445,-0.0028849077865481373
1761916110306893800,3.185893798828125,0.09719020816385746,-0.0007230238947900943,0.003136617525294423
1761916110316949000,3.195948974609375,0.09720832834243774,0.011998517362214625,0.0024151713829487563
1761916110327003600,3.206003662109375,0.10363982269465923,0.009509904000430834,0.009190876062959432
1761916110337059800,3.216059814453125,0.10572247418761253,-0.0010993007281213066,0.003392199721559882
1761916110347114800,3.22611474609375,0.10422200649678706,-0.0004635121587896719,-0.0020773907959461212
1761916110357170000,3.236169921875,0.10930851598083972,0.0018005899984273126,0.0036240357160568235
1761916110367224600,3.246224609375,0.09540098665952682,-0.001401436896296218,0.006189794550836086
1761916110377280800,3.25628076171875,0.08925181638002395,0.0005578233957174234,0.0004176408901810646
1761916110387335700,3.266335693359375,0.09791501530706882,-0.015839214336522855,-0.009527633736655116
1761916110397390800,3.276390869140625,0.10345043760240077,-0.007251943889632821,-0.005467179364711046
1761916110407446000,3.286446044921875,0.10450257700383662,0.006486610656499397,0.0019430968917906284
1761916110417501700,3.296501708984375,0.09760638774931431,0.012946223708218895,-0.0017551000390201806
1761916110427556900,3.306556884765625,0.09551029225289821,0.0033298271260107865,0.0023071809638291595
1761916110437611800,3.31661181640625,0.10986965699493885,-0.0037279801477212455,0.005084609787911177
1761916110447667000,3.3266669921875,0.1070224508702755,0.0029245319774607193,0.006042568099871278
1761916110457723000,3.336722900390625,0.09729366853833198,0.007081354829389602,0.00607120967246592
1761916110467777800,3.34677783203125,0.10192132833898067,-0.010309475146594922,-0.0015383885484188794
1761916110477832700,3.356832763671875,0.10191431407630443,-0.013095096410287077,-0.0018860329423099754
1761916110487888000,3.366887939453125,0.10146832387447356,0.0028156921749701723,0.000764773827418685
1761916110497943800,3.37694384765625,0.10116787962317467,0.007120924221375026,0.004671791203320026
1761916110507998700,3.386998779296875,0.1022077440649271,0.0037581789231626314,0.011512231682613491
1761916110518054000,3.397053955078125,0.09846505040526389,0.0014500252783764152,0.0025659780304878948
1761916110528108800,3.40710888671875,0.09756488669514655,-0.009865405190503225,-0.005331570286303758
1761916110538164700,3.417164794921875,0.0966740753352642,-0.001964436507341452,-0.001550078986212611
1761916110548219600,3.4272197265625,0.09233400030434132,0.004528288796113338,-0.005430354485660791
1761916110558274800,3.43727490234375,0.09307809666991233,-0.005207338835147675,0.0027051673054695126
1761916110568330800,3.447330810546875,0.10638239940106868,-0.011049370261083822,0.0024529461100697516
1761916110578386000,3.457385986328125,0.10009995813071727,-0.008231397080770694,0.006310790582001209
1761916110588440600,3.467440673828125,0.09381517877280711,-0.0060459610667778175,0.004664850005879998
1761916110598495700,3.477495849609375,0.10264087478518485,-0.005995598569430876,0.007699906852841377
1761916110608551700,3.4875517578125,0.1027782374292612,0.003327155678311828,0.00624342443421483
1761916110618606800,3.49760693359375,0.10397592278122901,0.008596239204634912,0.0015905571270734072
1761916110628661800,3.507661865234375,0.09410685519576072,0.011885015084338374,-0.0006084872871637344
1761916110638716700,3.517716552734375,0.10457564224004745,0.012926726706593762,-0.0018658669371157883
1761916110648772600,3.527772705078125,0.1096580600708723,0.009214501250430475,0.004197817016020417
1761916110658827800,3.537827880859375,0.09901976167857646,0.003382411263196263,0.006351049527153372
1761916110668883000,3.547883056640625,0.0930447789222002,-0.0025378844471648336,0.006501710044220089
1761916110678937600,3.5579375,0.08122048561573028,-0.005060219698748551,-0.0030324264984577893
1761916110688993800,3.567993896484375,0.10169570288956165,-0.0009553233968792482,0.007370236507058143
1761916110699048700,3.578048583984375,0.10767185468971728,0.004590097419370431,0.003322495486214757
1761916110709103900,3.588103759765625,0.08702420345842837,0.002196503113990184,-0.004944178403913975
1761916110719158500,3.598158447265625,0.0975105261594057,0.004211519031098578,0.0011635638866573572
1761916110729214700,3.608214599609375,0.10887070908546446,0.005349316005548462,0.002394859247282147
1761916110739269600,3.61826953125,0.09794599496722221,0.007671858935290947,-0.001927095605060458
1761916110749324800,3.62832470703125,0.10094050060808658,0.006292204612540081,0.0070313599415123456
1761916110759380700,3.638380615234375,0.09434943177998065,-0.005420566027297172,0.0069760495577007526
1761916110769435600,3.648435546875,0.09911445422470569,-0.00910195567049086,-0.0013496610432863236
1761916110779490800,3.65849072265625,0.10568915643990039,-0.006392007158626802,-0.001217266835272312
1761916110789545700,3.668545654296875,0.0911754779189825,-0.004411882175097708,-0.0004782119709998369
1761916110799602000,3.678601806640625,0.10119827476143836,-0.0031364759613992646,0.005998071371018886
1761916110809656800,3.68865673828125,0.10299334148466587,-0.002891022433503531,0.00016344693340361116
1761916110819711700,3.698711669921875,0.10448504134714603,-0.0018380176656763068,0.00696866996884346
1761916110829766700,3.7087666015625,0.09297112916409969,0.0015276296923868358,0.0022122692219913006
1761916110839822800,3.71882275390625,0.10404314279854297,-0.000034068949671927834,0.004323123896121979
1761916110849877800,3.728877685546875,0.10150047257840633,-0.0038766907362965865,0.0022114655043929815
1761916110859932700,3.7389326171875,0.10674129584133625,-0.007634333086630795,0.003212166979536414
1761916110869987800,3.74898779296875,0.1085515601336956,-0.008731702152569777,0.0023997546181082725
1761916110880043800,3.759043701171875,0.09868073898255825,-0.010642689156334382,0.008601604932919144
1761916110890098700,3.7690986328125,0.09179974729716778,0.0022061089092632754,0.004378580410405993
1761916110900153900,3.77915380859375,0.11245441279113293,0.011154522552434354,0.0007127513792365788
1761916110910209500,3.78920947265625,0.09868599967956543,0.013473825495608617,-0.007345248196274042
1761916110920264700,3.7992646484375,0.09330021498799324,-0.0005453703395207413,0.002071180250868201
1761916110930320000,3.80931982421875,0.10004092141985893,0.00012796006149146704,0.0019641396798193455
1761916110940374800,3.819374755859375,0.10662731407284735,0.0009416076820692979,-0.004208557605743408
1761916110950431000,3.829430908203125,0.09659808748960494,-0.0003624743535532616,-0.0014684651173651217
1761916110960485600,3.839485595703125,0.10751286473572254,-0.003561026082979515,0.005839592873677611
1761916110970540800,3.849540771484375,0.10227847121357918,-0.0034116099582170135,0.0037079146072268483
1761916110980595700,3.859595703125,0.10076748212873936,0.014409416712133678,0.0022771511517465115
1761916110990652000,3.86965185546875,0.09344400737285613,0.00035951292819809167,0.001996215318515897
1761916111000706600,3.87970654296875,0.10617314056456088,-0.007926103124418295,0.00603387333676219
1761916111010761700,3.88976171875,0.09943827935159205,-0.0128999414476566,0.007689750785008072
1761916111020817000,3.89981689453125,0.09463643202781677,-0.009894202026724815,0.0034072511602193114
1761916111030872800,3.909872802734375,0.09538754265606403,0.004709241703455336,0.0023098113123327492
1761916111040927700,3.919927734375,0.1055751746714115,0.007056873408681713,0.001980360162258148
1761916111050982700,3.929982666015625,0.10542787515521049,0.005097343688609544,0.010926906075328587
1761916111061038800,3.940038818359375,0.08807984999120234,-0.00016709106205962598,0.007785173983499407
1761916111071093800,3.95009375,0.08822714950740337,-0.0044988138231681655,0.002876359153911471
1761916111081149000,3.96014892578125,0.10063538018167019,-0.00793519517974928,0.0009588350947946309
1761916111091203600,3.97020361328125,0.10767419277727604,-0.006845940921606961,0.0007244418170303106
1761916111101259800,3.980259765625,0.09630933367609977,0.0018923279690672642,0.0025583792459219694
1761916111111314700,3.990314697265625,0.09271861570775508,0.005759043017332442,-0.001039352985098958
1761916111121369900,4.000369873046875,0.10185352379977702,0.009037242704094388,0.0004978665195405483
1761916111131424800,4.0104248046875,0.10440087019503116,0.009008080541691742,0.004031447473168373
1761916111141478000,4.020477783203125,0.10442191298305988,0.009135341916861944,0.003726765438169241
1761916111151532500,4.030532470703125,0.10517828430831432,-0.025384191933623512,0.0025629092905670404
1761916111161588700,4.040588623046875,0.09290916984379291,-0.01255696409572847,0.0013414777368307112
1761916111171643600,4.0506435546875,0.10099544566571712,0.0057093723564408715,0.0011056231543421745
1761916111181698800,4.06069873046875,0.11432488283812998,0.014853970725415274,0.0036261546079069374
1761916111191754000,4.07075390625,0.10580372273027897,0.006254783795156982,0.0015622078154236077
1761916111201809700,4.0808095703125,0.10564999347329139,0.004250522167503368,0.005670373786613345
1761916111211864800,4.09086474609375,0.11027765327394008,-0.003518684778595343,0.022151918314397334
1761916111221919700,4.100919677734375,0.07703238627612591,-0.016842776772321665,0.0072714523077011105
1761916111231975000,4.110974853515625,0.07345043613612652,-0.023419168621103742,-0.026392770754545925
1761916111242030800,4.12103076171875,0.1282668989509344,-0.004450698081834707,-0.0197902306843549
1761916111252085800,4.131085693359375,0.11870938153266906,0.02143227140349336,0.0029695903953164816
1761916111262140700,4.141140625,0.08576105165481566,0.0019070140815456397,0.025839155459776518
1761916111272195800,4.15119580078125,0.05699614494144916,0.004952361710369587,0.014082885888218879
1761916111282251800,4.161251708984375,0.11074176365435123,-0.00532326368226204,-0.0020134587142616508
1761916111292306700,4.171306640625,0.13756547317206858,0.004331859758426435,0.00968706208206713
1761916111302361600,4.181361572265625,0.08052022839188576,-0.0008325144345406443,0.017519143947213888
1761916111312417800,4.191417724609375,0.06432195778489112,-0.007483425974391866,0.013141367254406212
1761916111322472700,4.20147265625,0.1071264957666397,-0.012832593566179275,0.00015190262608230114
1761916111332527900,4.21152783203125,0.1264542965710163,-0.008812736066104844,-0.011890928801894187
1761916111342582800,4.221582763671875,0.09622457800209522,0.00006684099140111356,-0.006311155908182263
1761916111352638700,4.231638671875,0.07000877124965191,-0.005353448757971636,0.0048914983686059715
1761916111362694000,4.24169384765625,0.10039631072878837,0.0035564047067891806,-0.0024563801761716604
1761916111372748800,4.251748779296875,0.12781506353020666,0.014608571996446698,-0.00222732066065073
1761916111382805000,4.261804931640625,0.10193360329866409,0.012815843360777944,-0.000970817793533206
1761916111392859600,4.271859619140625,0.07767419131100177,0.010624543861579148,0.010672931314259768
1761916111402914800,4.281914794921875,0.09741291100382804,-0.010766064374253618,0.01087378764860332
1761916111412969700,4.2919697265625,0.11163842023313045,-0.009561748352099676,-0.004381576085090637
1761916111423026000,4.30202587890625,0.10670973165929316,-0.0027311077476129867,-0.004828443069756031
1761916111433080600,4.31208056640625,0.09322481166422367,0.006337363495095632,-0.0023201135106384755
1761916111443135700,4.3221357421875,0.1024906526595354,0.01377408251723973,0.0072777359180152415
1761916111453191000,4.33219091796875,0.106978611728549,-0.0014104239203501492,0.004445435101538896
1761916111463246800,4.342246826171875,0.11269114415645598,-0.0063421675343764946,-0.0055159869424998755
1761916111473301800,4.3523017578125,0.10446867473423481,-0.004542650681606028,0.00648402825705707
1761916111483356700,4.362356689453125,0.08515139532387256,-0.001438010613596998,0.005048661691695451
1761916111493412600,4.37241259765625,0.09277648337483406,0.00449364445770625,0.006344765916839241
1761916111503467800,4.3824677734375,0.10117197127640247,0.0011882827693829312,-0.0003269669320434332
1761916111513523000,4.39252294921875,0.10655424883663654,0.0015651235750061459,0.005271510662138461
1761916111523577600,4.40257763671875,0.0884393309533596,-0.0019423023073468356,0.008098623846843837
1761916111533633800,4.4126337890625,0.08979074556231498,-0.0005094998751184903,0.0014450111765414476
1761916111543688700,4.422688720703125,0.10161562339067458,-0.0072400342561304565,0.0007883738987147807
1761916111553744000,4.432743896484375,0.09624211365878581,-0.01347321357425535,0.0037258886553347107
1761916111563798800,4.442798828125,0.0960901379674673,-0.0070329354106681416,0.005856470943242311
1761916111573854700,4.452854736328125,0.10207038142085074,0.0073785225615021766,0.0007024491809308528
1761916111583909600,4.46290966796875,0.10415186387002467,-0.003935999158502091,0.006144932495802641
1761916111593964800,4.47296484375,0.09995733478963374,-0.006966827354917768,0.00291800633855164
1761916111604020700,4.483020751953125,0.0972580127030611,0.0018683785546105354,0.002407353402674198
1761916111614076000,4.493075927734375,0.09470599013268947,0.005886267859884537,0.007763181347399949
1761916111624130800,4.503130859375,0.10068740262985229,0.0036541385933756827,0.004237199178338051
1761916111634185700,4.513185791015625,0.09664601828455924,-0.008759311678702943,-0.003832856161147356
1761916111644242000,4.523241943359375,0.09919044207036494,0.0017312351062428206,0.011423968877270816
1761916111654296800,4.533296875,0.08497077805995941,-0.0035003568207495842,0.00789199535883963
1761916111664351700,4.543351806640625,0.09169570240080356,-0.01573582474399591,-0.0011116875689476727
1761916111674406700,4.55340673828125,0.10471943462491035,-0.005004327076335903,-0.0016423603795468807
1761916111684462800,4.563462890625,0.0963560954272747,0.007698306267510634,0.004845759530737996
1761916111694517800,4.573517822265625,0.09442308153808117,-0.0004254154879716225,-0.009253273774683475
1761916111704573000,4.583572998046875,0.09024608811438083,0.0044651079163886605,0.0043269963536411524
1761916111714628600,4.593628662109375,0.0890489872843027,0.011631700193684081,0.00836414291523397
1761916111724683800,4.603683837890625,0.1098456915974617,-0.008593611139419954,0.0076617667995393275
1761916111734739000,4.613739013671875,0.11509469816684723,0.0014971500724437646,0.007032967376708984
1761916111744793900,4.6237939453125,0.09833061037063598,0.008260630025120917,-0.0014176847781985997
1761916111754849800,4.633849853515625,0.0974234323978424,0.019903490933636202,-0.003528466387093067
1761916111764904700,4.64390478515625,0.10625029745399951,0.006874258267215918,0.0023331191226840017
1761916111774959900,4.6539599609375,0.09787234520912169,-0.012965830307698342,-0.009968436306715012
1761916111785015800,4.664015869140625,0.0942775355875492,-0.012813375125767197,-0.00048654140792787074
1761916111795071000,4.674071044921875,0.08814356287717819,-0.01016869670272572,0.0065343702048063276
1761916111805125600,4.684125732421875,0.10714753855466842,-0.012430296375602484,-0.004382160606980323
1761916111815180800,4.694180908203125,0.10057166729569435,-0.008658693998574744,-0.003006488339602947
1761916111825236700,4.70423681640625,0.09294774828851222,-0.0053257821496226826,0.0022668489534407852
1761916111835292000,4.7142919921875,0.08756079455316067,0.011819948208204005,0.00046221068426966665
1761916111845346800,4.724346923828125,0.10462883373200893,0.011142946279072202,0.0021267828956246376
1761916111855402800,4.73440283203125,0.10762918459177016,-0.00046942359305685385,0.0003618921149522066
1761916111865457700,4.744457763671875,0.10658464397490024,-0.006414255523052997,-0.005508826549351215
1761916111875512800,4.754512939453125,0.10552432126700878,-0.011614653160760643,0.002455284197628498
1761916111885568000,4.764568115234375,0.09310732276439666,-0.004372431514121126,0.006908683409914374
1761916111895623700,4.774623779296875,0.10598492451608181,-0.0012788471296662463,0.00033982641361653804
1761916111905678800,4.784678955078125,0.10075111551582813,-0.0030625773248379117,-0.0018053689215332268
1761916111915733800,4.794733642578125,0.09971125107407569,0.0027960855754907243,0.0010625146649777888
1761916111925790000,4.8047900390625,0.09253332226872443,-0.0023016691050725055,0.0030869331646710633
1761916111935844900,4.814844970703125,0.09477730180323124,0.00713271969044581,-0.0004961860191076994
1761916111945899800,4.824899658203125,0.10270575671494006,0.0013715440815314649,0.006271189223974943
1761916111955954700,4.83495458984375,0.10000994175970554,-0.0032661096734576856,-0.0010152414571493863
1761916111966011000,4.845010986328125,0.0934282252818346,-0.021148488309339155,0.00043926820009946823
1761916111976065800,4.855065673828125,0.10255670363306998,-0.00040301414320711044,0.004171002074331045
1761916111986120700,4.86512060546875,0.10525777928531169,0.003955155950121116,-0.011951719078421592
1761916111996176600,4.8751767578125,0.10167290653586387,0.0007414683003560639,-0.009057678137347102
1761916112006231800,4.885231689453125,0.09808628022074699,-0.0025058179416228084,-0.002100479410588741
1761916112016287000,4.895286865234375,0.09015899435281753,-0.009263571406411937,-0.005894684061780572
1761916112026342000,4.905341796875,0.09675766196548938,-0.006683457536005881,-0.00237111304551363
1761916112036397600,4.9153974609375,0.10003916785418987,0.0005129476409521885,0.0001885813746601343
1761916112046452700,4.92545263671875,0.09420330130755901,0.003535359635471832,0.0010878683019429445
1761916112056508000,4.9355078125,0.10274667324721813,-0.007564580902224406,-0.0009152151487767696
1761916112066562800,4.945562744140625,0.10993979962170124,-0.0037350240931496954,-0.003020005408301949
1761916112076619000,4.955618896484375,0.09348258581757544,0.0013454894749564117,-0.003367430606484413
1761916112086673700,4.965673583984375,0.09977437943816185,-0.0024661252520512787,0.0008702069632709026
1761916112096728800,4.975728759765625,0.11115618967413901,-0.0008278062933823094,-0.00015643267072737216
1761916112106784800,4.98578466796875,0.11655717193484305,-0.0029778604667400938,-0.0014118395593017339
1761916112116840000,4.99583984375,0.10458967076539993,-0.009751416572148446,0.0021240794818848372
1761916112126894600,5.00589453125,0.10009294386804103,-0.0026494482129928655,0.011967647299915552
1761916112136949800,5.01594970703125,0.10307575907111168,-0.002886353108251933,0.00837751385346055
1761916112147005700,5.026005615234375,0.11745090590417384,0.004840832193871028,-0.007031652202457189
1761916112157060900,5.036060791015625,0.1116273143172264,0.016988197141978887,-0.00048135377615690227
1761916112167115800,5.04611572265625,0.09248422242999076,0.029105685258342416,0.0014507102649658917
1761916112177171700,5.056171630859375,0.10266659374833106,0.07676145124710164,0.007042173596471548
1761916112187227000,5.066226806640625,0.12588088059723376,0.02593074729994405,0.032042394014075395
1761916112197281800,5.07628173828125,0.049528877800703044,-0.048416459579393265,0.037370384103804825
1761916112207337000,5.0863369140625,0.053231823971867556,-0.10444877359052188,-0.04332074387557804
1761916112217392600,5.096392578125,0.17192483889162538,-0.058867423272621816,-0.030754911486804485
1761916112227447800,5.10644775390625,0.15421090302467344,0.060150910044787446,-0.03887289762124419
1761916112237502700,5.116502685546875,0.10008066890835761,0.05266580585325136,0.012921440893411636
1761916112247559000,5.126558837890625,0.040464112335443496,0.01776609302916331,0.051532399642840024
1761916112257613800,5.13661376953125,0.052094344374537464,-0.003975739797134883,0.0066657414995133875
1761916112267668700,5.146668701171875,0.1905734252601862,-0.01130291119731264,-0.00612359744682908
1761916112277724000,5.156723876953125,0.14064414996504782,-0.0031805845311842855,0.009439370931312441
1761916112287779800,5.16677978515625,0.030290508845448493,-0.02521789773929631,0.007201090485230088
1761916112297834800,5.176834716796875,0.08530746266841888,-0.02575551631391281,-0.0025265958681702613
1761916112307889700,5.1868896484375,0.15226386061012745,0.005993187416635919,-0.010582330421358347
1761916112317945600,5.196945556640625,0.1337789403706789,0.04651247085528448,-0.012088789461553097
1761916112328000800,5.207000732421875,0.07298398766815661,0.028004562465893102,0.01668408136256039
1761916112338056000,5.217055908203125,0.058092123484611506,-0.02140202239570208,0.02622910462543368
1761916112348110800,5.22711083984375,0.12111352006494998,-0.05351919867903925,-0.0016667641684412955
1761916112358166800,5.237166748046875,0.13539631243944167,-0.018761741586565038,-0.0076114979170262805
1761916112368221700,5.2472216796875,0.08241700192391872,0.02449001728958683,0.010004092141985893
1761916112378276900,5.25727685546875,0.07054594686627387,0.03137094732618425,0.0165970606662333
1761916112388332800,5.267332763671875,0.1027086793243885,-0.0023423847079509868,0.004312821697816252
1761916112398388000,5.277387939453125,0.1289285777300596,-0.004580754202289972,-0.006948430898413062
1761916112408442600,5.287442626953125,0.10693944876193999,0.0029245022947085087,-0.0036289310868829485
1761916112418498800,5.297498779296875,0.10018062215149402,0.004458433863718528,0.005284881600365042
1761916112428553700,5.3075537109375,0.08697451909780501,-0.005797141971439123,0.020515987675637004
1761916112438609000,5.31760888671875,0.1103249995470047,0.000028942966694012282,-0.006229030582681298
1761916112448663800,5.327663818359375,0.11783259869813918,0.015123661362135317,-0.007965937377884983
1761916112458719700,5.3377197265625,0.08998948300480843,0.026123602990922517,0.003420622098445892
1761916112468775000,5.34777490234375,0.0895201119273901,0.0054088527566171244,0.008371157177910208
1761916112478829800,5.357829833984375,0.09430500811636447,-0.023101394209091086,-0.002355257889255881
1761916112488885800,5.3678857421875,0.10809037236273288,-0.01578171884549083,-0.008915712383389472
1761916112498940700,5.377940673828125,0.11198095006048679,-0.010968612625473178,0.002749517903849482
1761916112508995800,5.387995849609375,0.08472469434440136,0.007455567569797858,0.007270356329157948
1761916112519050800,5.39805078125,0.09712532623410225,0.014787090918107423,0.009513166819885373
1761916112529107000,5.40810693359375,0.11329261718094348,-0.005038368626544252,0.00013202888183295726
1761916112539161600,5.41816162109375,0.1143418339729309,-0.0024415867491276,-0.004832388592511415
1761916112549217500,5.428217529296875,0.11164601901769637,-0.0007757655788911506,-0.008680953779444098
1761916112559273500,5.4382734375,0.09397650681436061,0.0022204045793856493,-0.0035555005244910713
1761916112569328400,5.448328369140625,0.09830138427615165,-0.013477035799424629,-0.00019172317981719968
1761916112579383300,5.45838330078125,0.09620821138918399,-0.010042293844080995,-0.013531974007189272
1761916112589439500,5.468439453125,0.0894762727856636,-0.006660592683649156,-0.014910788079723715
1761916112599494400,5.478494384765625,0.1016062710404396,-0.007963724871200974,-0.007121157116815447
1761916112609549300,5.48854931640625,0.10355623606443405,-0.0063209238169481975,-0.000016147417202591894
1761916112619604200,5.498604248046875,0.10626081884801387,-0.004440555713733192,-0.01215652093552053
1761916112629660400,5.508660400390625,0.11047814428210258,-0.005510073224944062,-0.0026912849105894562
1761916112639715300,5.51871533203125,0.09296762203276157,0.01236037751112599,0.014252835627645254
1761916112649770500,5.5287705078125,0.07739946602284908,0.007522924584429711,-0.005263108159974217
1761916112659826200,5.538826171875,0.11751169618070124,0.010659151667368132,0.004026698232814669
1761916112669881300,5.54888134765625,0.10555880805850028,0.0014468583570444024,0.0015016367346048355
1761916112679936500,5.5589365234375,0.09881634806096554,-0.004359818627720233,0.009565773789957165
1761916112689991400,5.568991455078125,0.09984510658681392,-0.005411759383045137,-0.010053995698317884
1761916112700047600,5.579047607421875,0.10629413659572601,0.0043642710405518296,-0.00413417719528079
1761916112710102300,5.589102294921875,0.11125497387349605,-0.00976263665248407,0.0027086013715714214
1761916112720157400,5.599157470703125,0.10211889673769474,-0.0016920104908407666,0.006572291062399744
1761916112730213400,5.60921337890625,0.0836906751215458,0.010310913618432824,0.011547156865522264
1761916112740268500,5.6192685546875,0.10374737472236156,0.004831721872230991,-0.002594473472610116
1761916112750323200,5.6293232421875,0.12353168712258338,0.004582756646419875,-0.0014256488889455795
1761916112760379400,5.63937939453125,0.0964513724952936,0.012276784031034911,0.0018106296185404062
1761916112770434300,5.649434326171875,0.08640636382102966,0.011668324143334756,0.009128186090290546
1761916112780489500,5.659489501953125,0.09075111502707003,0.021232159421243704,0.005758125135302544
1761916112790544400,5.66954443359375,0.10514730464816092,0.001125736643897835,-0.011460793756321072
1761916112800600300,5.679600341796875,0.11891980941295623,-0.008582843150233384,-0.0033143121797591444
1761916112810655200,5.6896552734375,0.09914777197241782,-0.017363455628580413,0.0002728255920112133
1761916112820710400,5.69971044921875,0.09703297177553176,0.0035373415300040505,-0.011258037725836037
1761916112830766300,5.709766357421875,0.10663491285741329,0.003447838898934424,-0.0039927959632128475
1761916112840821200,5.7198212890625,0.10395078833997248,0.00404623633363517,-0.0009862345583736896
1761916112850876400,5.72987646484375,0.09167115248143673,-0.004456312688579782,0.0012500731263309717
1761916112860932400,5.739932373046875,0.10302139853537082,-0.008808311052736826,0.012954977836832403
1761916112870987500,5.749987548828125,0.09329553881287574,-0.009175413632346316,-0.009800313198193907
1761916112881042400,5.76004248046875,0.10647650742530822,-0.011118190863728523,0.003626227673143148
1761916112891097300,5.770097412109375,0.10528174468278884,0.0008452437686617486,-0.001039718311280012
1761916112901153300,5.7801533203125,0.09524433479309082,0.007539825486880727,0.00032280221357941627
1761916112911208400,5.79020849609375,0.0917898104250431,0.016315551727556155,0.011584493201225995
1761916112921263400,5.800263427734375,0.09463350941836833,0.004090637164365034,0.0015467910505831241
1761916112931319600,5.810319580078125,0.11888999879658221,0.00022441758973291143,-0.0010720862109214067
1761916112941374200,5.820374267578125,0.08776888434588909,-0.014821655341412405,0.001562865402549505
1761916112951429400,5.830429443359375,0.07966624191105365,-0.0031343022706219925,0.004887333650141954
1761916112961485300,5.8404853515625,0.09883154563009738,-0.00470138262398541,-0.0026210692185908552
1761916112971540500,5.85054052734375,0.11127075596451759,0.006526134382712189,0.004575052830576897
1761916112981595400,5.860595458984375,0.1081155068039894,0.006740740681195166,0.005806786582618952
1761916112991650300,5.870650390625,0.08849486053287982,-0.0003205280581023544,-0.0029046354003250596
1761916113001706200,5.880706298828125,0.09254559722840786,-0.002925089099886827,-0.0036545769847929474
1761916113011761400,5.890761474609375,0.11321253768205643,-0.008634374691359699,-0.008099208368733525
1761916113021816600,5.900816650390625,0.10123919129371642,0.003977032138500362,-0.0007265607088804244
1761916113031872300,5.910872314453125,0.08909867164492606,0.009126414258312433,0.007641893055289983
1761916113041927400,5.920927490234375,0.09838438638448714,0.00848036230658181,0.00048632221221923825
1761916113051982300,5.930982421875,0.09705167647600173,0.00410016304453602,-0.00405607045777142
1761916113062038500,5.94103857421875,0.11816343808770179,0.006593493680632673,0.0009899608854204416
1761916113072093400,5.951093505859375,0.09916004693210125,-0.00724351855458226,0.001889540073648095
1761916113082148400,5.9611484375,0.09197042768895626,-0.010950396548770367,0.0016977438285946844
1761916113092203300,5.971203369140625,0.10902502286434174,0.008431244201539083,0.002952493130043149
1761916113102259500,5.981259521484375,0.10349486126601695,-0.001087420777371153,0.0024059651631861924
1761916113112314400,5.991314453125,0.0904740516513586,0.009293617201515007,-0.0022030630022287366
1761916113122369300,6.001369384765625,0.08928162699639797,0.01035702919892501,0.0017713205214589833
1761916113132425200,6.01142529296875,0.1027566101193428,0.005849614227481652,0.005995441022515297
1761916113142480400,6.02148046875,0.10066577531993388,-0.005414866938872728,0.005177987159788608
1761916113152535600,6.03153564453125,0.095572251573205,0.0005955410406226292,0.0018277268838137388
1761916113162591500,6.041591552734375,0.09211889624893664,-0.004189553794462699,-0.00996573289297521
1761916113172646400,6.051646484375,0.10363806912899017,-0.005427242363255936,-0.012761574156582354
1761916113182701300,6.061701416015625,0.11068915668427944,-0.000045939767267554994,-0.010203925563022494
1761916113192756500,6.071756591796875,0.09332067325413226,-0.003397145324735902,-0.00495353075414896
1761916113202812400,6.0818125,0.10139642768204211,0.004496037344192154,-0.0023443711690604684
1761916113212867600,6.09186767578125,0.11023381413221359,0.0004878588654682971,0.007548296487703919
1761916113222922200,6.101922119140625,0.0984212112635374,-0.0031420700185466554,-0.0006657704323530197
1761916113232978400,6.111978515625,0.09049217182993888,-0.0033261007989640345,-0.0003949906669557094
1761916113243033300,6.122033447265625,0.08735212023854255,-0.0027976016791420987,-0.0025311259128153324
1761916113253088500,6.132088623046875,0.09649638068079948,-0.007334388875542208,0.00560600331351161
1761916113263144400,6.14214453125,0.11102993294596672,-0.0040014245109516195,-0.0002186842519789934
1761916113273199400,6.152199462890625,0.10039338811933994,-0.001868858045223169,-0.006464958230406046
1761916113283254300,6.162254150390625,0.10053718050420284,0.005900143404898699,-0.004585574224591255
1761916113293309400,6.172309326171875,0.10488485431969165,0.004735524638893548,-0.005303878561779857
1761916113303365400,6.182365478515625,0.09967501071691512,0.0020743174894480034,-0.005871741577610373
1761916113313420300,6.192420166015625,0.08830255283117294,-0.00316149852151284,-0.002576280228793621
1761916113323475500,6.202475341796875,0.09997896209955215,-0.011375063118070829,0.0021416151385754345
1761916113333531400,6.212531494140625,0.10851999595165251,-0.00827614497137256,0.0003312047157436609
1761916113343586600,6.222586669921875,0.10627601641714572,0.004930453555949498,-0.0017797960888594388
1761916113353641200,6.23264111328125,0.11151625515818596,0.007975346810335758,-0.0007749298952519893
1761916113363697400,6.242697509765625,0.10267886870801449,0.0013345388226793148,0.005939399986341595
1761916113373752300,6.25275244140625,0.09459025479853153,0.0006588406513561494,-0.0017209055084735155
1761916113383807500,6.262807373046875,0.10147826074659824,-0.008429262307006866,0.0010560849241912364
1761916113393862400,6.2728623046875,0.1192868891596794,0.00048289271269459275,0.008961085895076394
1761916113403918300,6.28291845703125,0.1022287868529558,0.009775014360155909,0.00012253040112555026
1761916113413973200,6.29297314453125,0.1047691189855337,0.0022256424435065127,0.006605535744875669
1761916113424028400,6.3030283203125,0.11808628119826316,-0.005013040105754043,-0.0017637948021292686
1761916113434084400,6.31308447265625,0.10372457836866378,-0.0015655802327324635,-0.00211633456684649
1761916113444139500,6.323139404296875,0.10117664745151995,0.003336912170634605,-0.001162394842877984
1761916113454194400,6.3331943359375,0.10490005188882351,-0.001946403093729168,0.002996478402242064
1761916113464250400,6.34325048828125,0.10953998664915561,-0.005773882110149134,-0.0038977380909025667
1761916113474305300,6.35330517578125,0.09817980372309684,0.00035211735632037744,-0.0036325843486934898
1761916113484360400,6.3633603515625,0.09951660528481006,0.0028393287788843736,-0.0019875936206430194
1761916113494416400,6.37341650390625,0.09097615595459937,0.001820112116227392,0.00805076611712575
1761916113504471300,6.38347119140625,0.10295242495238781,0.006499881130026188,0.0015428455278277396
1761916113514526500,6.3935263671875,0.12135434308350085,-0.0012690472548594698,-0.0028960867676883933
1761916113524581400,6.403581298828125,0.11820435461997986,0.000053714365058112884,-0.009513897472247481
1761916113534637600,6.413637451171875,0.0999509050488472,-0.003139711381390225,0.0013718728750944137
1761916113544692200,6.423692138671875,0.10189677841961384,-0.0071933866693871095,-0.004774959316849708
1761916113554747600,6.43374755859375,0.1161065055578947,-0.00019730810381006448,-0.0069352060906589024
1761916113564803600,6.443803466796875,0.10309095664024352,0.001909030225407332,-0.0050350715577602385
1761916113574858800,6.453858642578125,0.11984686112999915,0.003732670022570528,0.00668999915793538
1761916113584913400,6.463913330078125,0.10113456187546252,-0.0010100378423579968,0.007550634575262665
1761916113594969600,6.473969482421875,0.1075625490963459,0.00031656198574928567,-0.0011821224566549062
1761916113605024500,6.4840244140625,0.12807342220544815,-0.005237496511393692,-0.003732099200412631
1761916113615079700,6.49407958984375,0.11087211203575134,0.005414880638604518,0.0039512949090451
1761916113625135600,6.504135498046875,0.11041092426478862,0.009099823078908957,-0.0009611731823533773
1761916113635190500,6.5141904296875,0.11595219177901744,0.0026379746876191348,-0.0005819646064192057
1761916113645245400,6.524245361328125,0.12732640323042868,-0.009157709012296981,-0.005099295900389552
1761916113655301600,6.534301513671875,0.11685469357669352,-0.002386997884523589,-0.003941431102156639
1761916113665356500,6.5443564453125,0.1102636247485876,-0.0037496439902577547,-0.0006955079834908246
1761916113675411500,6.554411376953125,0.10112579404711723,0.0000716587304137647,0.002301262679696083
1761916113685467400,6.56446728515625,0.12356792747974395,0.013471236246300394,0.002798471612110734
1761916113695522600,6.5745224609375,0.1184896013021469,0.01056249777630437,-0.0006298223361372947
1761916113705577700,6.58457763671875,0.10053834954798221,-0.00140210133328801,-0.0044541298646479845
1761916113715632400,6.59463232421875,0.10816519116461276,-0.005787100068037398,0.004591565573960542
1761916113725688600,6.6046884765625,0.1108516537696123,-0.003759085388749372,-0.0017377105128020048
1761916113735743500,6.614743408203125,0.12207096692025661,-0.00003796195678878575,-0.0067697133306413885
1761916113745798700,6.624798583984375,0.11502455554008484,0.004145308227359782,-0.0014736527491360902
1761916113755854600,6.6348544921875,0.09436521387100219,-0.0035425771108362823,-0.007175882978737354
1761916113765909500,6.644909423828125,0.10452946501076221,-0.0027374895393382755,-0.0041673488125205035
1761916113775964400,6.65496435546875,0.12609247752130032,0.002318656772491522,-0.0027506869476288556
1761916113786020600,6.6650205078125,0.10797872868180275,0.00012953324735863133,-0.003836874749138951
1761916113796075500,6.675075439453125,0.10272387689352035,-0.0034173158965073525,0.006747793759778142
1761916113806130700,6.685130615234375,0.11199614762961864,-0.01046805867521325,-0.004390197782963514
1761916113816186600,6.6951865234375,0.10556757588684558,-0.012953466299758291,-0.010312573569267987
1761916113826241500,6.705241455078125,0.11155717169046402,-0.006468125151738059,0.0006996727019548416
1761916113836296400,6.71529638671875,0.12247896319925784,0.005529784855700564,-0.00018171324245631695
1761916113846352600,6.7253525390625,0.1070791494935751,-0.00310880935305031,-0.006350318874791264
1761916113856407600,6.735407470703125,0.11727145768404006,-0.0037704378998256287,-0.005711436449363828
1761916113866462500,6.74546240234375,0.1039630632996559,0.0060988922638352955,-0.0012169745743274688
1761916113876518400,6.755518310546875,0.10830898354947566,0.001163104945642408,0.007958046332374215
1761916113886573600,6.765573486328125,0.10635492687225341,-0.007796471695648506,0.006438873941078782
1761916113896628700,6.775628662109375,0.11442658964693546,-0.006245867553050629,0.006119359663128853
1761916113906684700,6.7856845703125,0.11666940013766289,-0.0061640162221854545,0.00315853709615767
1761916113916739600,6.795739501953125,0.1048480294406414,0.002874370409513358,-0.0014909692101180553
1761916113926794500,6.80579443359375,0.10154606528580189,0.002564642306638416,-0.002835515686869621
1761916113936850400,6.815850341796875,0.10618249291479587,0.0035664534600568,0.002136938963457942
1761916113946905600,6.825905517578125,0.10273732089698315,-0.009058048030105419,-0.005293357167765498
1761916113956960500,6.83596044921875,0.10856909579038619,-0.004856776398385409,-0.003436769515648484
1761916113967016400,6.846016357421875,0.0925479353159666,-0.0025614434192655607,0.0007471651054918766
1761916113977071600,6.856071533203125,0.10795125615298748,0.006586429185606539,0.002087692994251847
1761916113987126500,6.86612646484375,0.11647592339217662,0.011317483145359438,0.000815115775167942
1761916113997182700,6.8761826171875,0.10478957725167273,0.012501448215940035,-0.004351400142535567
1761916114007237400,6.8862373046875,0.10596914242506027,0.006385422154213302,-0.002746887555345893
1761916114017292500,6.89629248046875,0.10625672719478607,0.0011644246864714659,0.007604995111003518
1761916114027348500,6.906348388671875,0.10356383484899997,-0.007222943840723019,-0.0012306377734988927
1761916114037403600,6.916403564453125,0.09577157353758811,-0.010217410665680654,-0.010497940073534846
1761916114047458600,6.92645849609375,0.09697568863034248,-0.006882462123269215,-0.0011738660849630832
1761916114057514800,6.9365146484375,0.11420914750397204,-0.015249370101036037,-0.012769246006384492
1761916114067569400,6.9465693359375,0.10134615879952907,-0.013668345703999512,-0.004781242927163839
1761916114077624600,6.95662451171875,0.08682546601593494,-0.014197808371623977,-0.0051456923253834245
1761916114087680500,6.966680419921875,0.09969254637360572,-0.011616208080318756,0.0017621143016964195
1761916114097735700,6.976735595703125,0.1049392148554325,-0.004742872261709999,-0.003916954248026013
1761916114107790600,6.98679052734375,0.10345511377751826,-0.001170845294103492,0.0015961831502616405
1761916114117846500,6.996846435546875,0.09537409865260124,0.0012433351415791548,0.007438698633387684
1761916114127901400,7.0069013671875,0.09762275436222553,-0.013927056005690245,0.004384937085956335
1761916114137956600,7.01695654296875,0.10495733503401279,0.003678291220520623,0.004200374299287796
1761916114148012500,7.027012451171875,0.10646072533428669,0.0022032022828352635,0.0028960867676883933
1761916114158067500,7.0370673828125,0.1075140337795019,0.0015264423822984098,0.006854103678464889
1761916114168122600,7.04712255859375,0.11065350084900856,-0.0009136282631778158,0.005097177008539438
1761916114178178600,7.057178466796875,0.098830376586318,-0.006953262337157502,0.00287891643717885
1761916114188233700,7.067233642578125,0.1127472582578659,0.000726989967143163,-0.01135236494578421
1761916114198288400,7.077288330078125,0.11141045669615268,-0.001776323206850793,-0.008051862095668912
1761916114208344600,7.087344482421875,0.10631751747131347,0.0008351767490850761,0.00025770108811557293
1761916114218399500,7.0973994140625,0.1055710830181837,-0.002649939120048657,-0.00006634323447942733
1761916114228454700,7.10745458984375,0.10527473042011261,-0.00044581667189486324,-0.01343216689452529
1761916114238510600,7.117510498046875,0.11545184104144572,-0.0037422484183800403,-0.0005823299326002597
1761916114248565500,7.1275654296875,0.09839373873472212,0.002045490970474202,0.0010460019215941428
1761916114258620400,7.137620361328125,0.09524608835875988,0.004934673073340673,-0.007848594608530402
1761916114268676600,7.147676513671875,0.09944587813615799,0.0025648044201312587,-0.00439691978469491
1761916114278731500,7.1577314453125,0.10962591136693954,0.003170191001333296,-0.0016245324619114398
1761916114288786700,7.16778662109375,0.09882920754253864,0.0006497919785091653,0.0011071575243026017
1761916114298842600,7.177842529296875,0.09852525615990161,-0.00045976528214523567,0.005665259220078587
1761916114308897500,7.1878974609375,0.10615326682031154,0.0038310455132625062,-0.005654957021772861
1761916114318952400,7.197952392578125,0.1071966383934021,-0.001831672406569123,-0.005291895863041281
1761916114329008600,7.208008544921875,0.10044774865508078,-0.0011953289981000124,-0.0013216770578175783
1761916114339063600,7.2180634765625,0.0823398450344801,-0.005543877313134726,0.004247720572352409
1761916114349118500,7.228118408203125,0.10163315904736518,-0.011333936523238662,0.006637830579280853
1761916114359174400,7.23817431640625,0.10403145236074923,-0.0160462287003058,-0.0030018121644854543
1761916114369229600,7.2482294921875,0.10882745446562767,-0.0077488263117731545,-0.006707388684153557
1761916114379284700,7.25828466796875,0.10104162289500236,-0.005501291696866974,-0.0055951896585524075
1761916114389340700,7.268340576171875,0.0969873790681362,0.002859305271122139,0.0016530279040336607
1761916114399395600,7.2783955078125,0.10806932957470416,-0.006963918445201125,-0.0001283756200224161
1761916114409451500,7.288451416015625,0.10299217244088649,-0.0031460360908997244,0.003461977022141218
1761916114419506400,7.29850634765625,0.11105974356234073,0.00042158184635918583,0.001115267765522003
1761916114429561600,7.3085615234375,0.0965390507787466,-0.0016654330111690796,-0.002236892206594348
1761916114439617500,7.318617431640625,0.1017763669103384,0.0013802182950428687,-0.002833542925491929
1761916114449672400,7.32867236328125,0.10252338588535785,-0.0072325907351914786,-0.0062668053098022935
1761916114459727600,7.3387275390625,0.09609130701124667,0.0030418473473517223,-0.009290317849442363
1761916114469783600,7.348783447265625,0.09907119960486889,0.0013882646041805855,-0.0004206365648657083
1761916114479838700,7.358838623046875,0.10026771591305732,-0.007607075186946894,0.0013805676382035016
1761916114489893400,7.368893310546875,0.10595336033403872,-0.001148576380079612,0.0027332974214106798
1761916114499949600,7.378949462890625,0.09233809195756912,-0.003580616699438542,-0.004477583805471658
1761916114510004500,7.38900439453125,0.10656710831820965,0.0028031660535372794,0.0023600801948457954
1761916114520059600,7.3990595703125,0.09758943661451339,0.009904205114219803,0.004150763003900647
1761916114530115600,7.409115478515625,0.10192191286087035,0.009354108367231674,-0.006816621212288737
1761916114540170800,7.419170654296875,0.09414484911859035,0.004782875478535425,-0.0037329759832471607
1761916114550225700,7.4292255859375,0.09714519997835158,0.0016091682127094826,0.003334405119717121
1761916114560281900,7.43928173828125,0.10192775807976723,0.0015075618686038069,-0.0045043256819248196
1761916114570336800,7.449336669921875,0.09638298343420028,-0.000887815685197711,-0.0031751229047775266
1761916114580392000,7.459391845703125,0.09203647866249084,-0.005519039699400309,0.0021647768184542655
1761916114590447900,7.46944775390625,0.10774258183836936,-0.00555099889037665,0.0022531857542693614
1761916114600502800,7.479502685546875,0.1023468602746725,-0.008991369152197148,0.004922185767814517
1761916114610557700,7.4895576171875,0.0899292772501707,-0.002547695738414768,0.0047353579588234425
1761916114620614000,7.49961376953125,0.09877601605057716,-0.0038864175458671523,-0.0036165830619633195
1761916114630668800,7.509668701171875,0.09459902262687682,-0.002981730640970636,-0.008900587879493832
1761916114640723700,7.5197236328125,0.10821721361279486,-0.010423141821252648,-0.003235182528942823
1761916114650779600,7.529779541015625,0.10103811576366424,0.0046533810470835305,-0.0028352234259247776
1761916114660834800,7.539834716796875,0.10912906776070594,-0.007889159514359197,0.0011894289802759886
1761916114670889700,7.5498896484375,0.10495032077133655,0.004201388079440221,0.00431705948151648
1761916114680946000,7.55994580078125,0.10136077184677124,0.0005728542847791686,-0.007079217671230435
1761916114691000600,7.57000048828125,0.10135843375921248,-0.00248205575683387,-0.0013594517849385738
1761916114701055700,7.5800556640625,0.10958850196599959,-0.0041132736878586,0.0004328384593129158
1761916114711111700,7.590111572265625,0.11453472619652748,-0.00935528197758831,-0.001184606674686074
1761916114721166800,7.600166748046875,0.10959843883812427,-0.006302753406018018,0.0005960661970078945
1761916114731222000,7.610221923828125,0.10943886436223983,0.0027230294724344276,0.006732669255882501
1761916114741277700,7.620277587890625,0.1095838257908821,-0.0035699012258904985,0.0039515871699899435
1761916114751332900,7.630332763671875,0.10959551622867583,0.0013311116064433008,-0.0019083178393542765
1761916114761387800,7.6403876953125,0.10975918235778807,0.0021562647184357048,-0.0010655834048986434
1761916114771444000,7.65044384765625,0.10062252070009708,0.0038391671709250654,-0.0015343699604272842
1761916114781499000,7.660498779296875,0.10346563517153262,-0.0013900044701178557,-0.004828662265464663
1761916114791553800,7.6705537109375,0.11050386324524879,-0.005618732647632714,-0.0035598113734275102
1761916114801609700,7.680609619140625,0.11245733540058135,0.00238067317501409,-0.0042779695801436896
1761916114811665000,7.690664794921875,0.10587854153215885,0.005050184645212721,-0.006592676263302564
1761916114821719800,7.7007197265625,0.09480185172259807,-0.0021927311211708002,0.0006327449455857276
1761916114831776000,7.71077587890625,0.10212941813170909,0.003185457069124095,0.0002555091310292482
1761916114841830700,7.72083056640625,0.10631868651509284,0.00023420148151926694,-0.0007829670712351798
1761916114851885800,7.7308857421875,0.10512392377257347,-0.004034991137124598,0.002174421429634094
1761916114861941800,7.740941650390625,0.10137596941590309,0.002495056802302133,-0.0025074527762830256
1761916114871997000,7.750996826171875,0.11230419066548347,-0.012960062720614951,-0.00003178337775170803
1761916114882051600,7.761051513671875,0.09524667288064956,-0.004970943113253452,-0.007535875397548079
1761916114892107800,7.771107666015625,0.10183540362119674,-0.010342619364371057,-0.006406652171909809
1761916114902162700,7.78116259765625,0.11050678585469723,-0.005324540040607098,-0.001360620828717947
1761916114912217900,7.7912177734375,0.09958324078023433,0.0012114786985912358,0.005376213145628571
1761916114922273800,7.801273681640625,0.09269172770082951,0.006677342889050487,0.008050035464763641
1761916114932328700,7.81132861328125,0.11020809516906738,-0.0016306219926918856,0.000590074847638607
1761916114942384600,7.821384521484375,0.1003384430617094,-0.003605634692974854,-0.001754953908547759
1761916114952439800,7.831439697265625,0.10273673637509345,-0.005064158371638041,0.008956701980903745
1761916114962495000,7.841494873046875,0.0980944635272026,0.002568361783819273,0.007960165224224328
1761916114972551000,7.851551025390625,0.09179682468771934,0.0031055328338639807,-0.002772825714200735
1761916114982605600,7.86160546875,0.1099105735272169,-0.0017948520940961315,-0.004673179442808032
1761916114992660700,7.87166064453125,0.0997328783839941,0.001867526887950953,-0.006881137815862894
1761916115002716700,7.881716552734375,0.08805646911561489,0.0019583789426018483,-0.004116495408117771
1761916115012771800,7.891771728515625,0.09836860429346561,0.004039196954783983,-0.005115662513300776
1761916115022827000,7.901826904296875,0.09671557638943194,-0.0012863751322845928,0.002014554692804813
1761916115032882700,7.911882568359375,0.11332944205999373,0.0000803078277502209,-0.005678191766887903
1761916115042937900,7.921937744140625,0.11601648918688297,-0.001282048300327733,-0.0073789312701672315
1761916115052992800,7.93199267578125,0.11001929459869861,0.0016142553797806611,-0.002419774492830038
1761916115063049000,7.942049072265625,0.10089373885691165,-0.001784963171032723,-0.0008059826206415891
1761916115073104000,7.952103759765625,0.09609715223014355,0.007615676335222087,0.005894099539890885
1761916115083158800,7.96215869140625,0.10058452677726745,0.0060051586989313364,-0.000960442529991269
1761916115093214700,7.972214599609375,0.1115057337641716,-0.0011652809197083116,0.0013127630989998578
1761916115103270000,7.982269775390625,0.10581307508051395,0.003956208546180278,0.005145911521092057
1761916115113324800,7.99232470703125,0.10925883162021637,0.004310995066910982,0.0062769613776355974
1761916115123381000,8.002381103515624,0.0962298386991024,0.005996833828580565,0.0026961802814155817
1761916115133435600,8.012435546875,0.0980289970755577,0.006045709905028343,0.0008577128078788519
1761916115143490800,8.02249072265625,0.0918903481900692,-0.002655905353242997,-0.0028373423177748915
1761916115153546800,8.032546630859375,0.1058107369929552,0.004037719667039346,0.0018962620753794907
1761916115163602000,8.042601806640626,0.0998334161490202,-0.0033033615274820475,-0.006010127134993672
1761916115173656600,8.052656494140624,0.10343056385815143,-0.009548064603330566,-0.0014633505508303642
1761916115183712800,8.062712646484375,0.09938333429396153,-0.00392199574932456,0.0038737726934254166
1761916115193767700,8.072767578125,0.09385200365185738,0.008580158002802636,-0.0029331308424472807
1761916115203823900,8.082823974609376,0.10357903241813182,-0.0004047288929694332,0.00424516328908503
1761916115213878800,8.092878662109374,0.09879413622915745,-0.0022635473180795088,0.004043137910962105
1761916115223933700,8.10293359375,0.09430909976959229,0.0017659799093496984,-0.002755363122746348
1761916115233989600,8.11298974609375,0.09820084651112555,0.004476049435511231,-0.003671308923885226
1761916115244044800,8.123044921875,0.09340776701569557,-0.0015368884277879259,0.0011866525012999773
1761916115254100000,8.133099853515626,0.11045593245029449,-0.0031041811269940807,0.006131123166158795
1761916115264156000,8.143156005859375,0.09384908104240894,0.0020606268908130005,0.0022024054151028394
1761916115274210800,8.1532109375,0.1091179618448019,0.0012155109863146208,-0.0031239772394299507
1761916115284265700,8.163265625,0.10417992092072963,0.0015420189773431047,-0.0020801672749221323
1761916115294321700,8.17332177734375,0.10596154364049434,-0.005319877565221395,-0.0011243278548121452
1761916115304376800,8.183376953125,0.1029699606090784,0.009556405456701758,-0.005636544582247734
1761916115314432000,8.193431884765625,0.1115051492422819,0.005456959364796057,0.00445106112472713
1761916115324487700,8.20348779296875,0.10716624325513839,-0.000239003237511497,0.0007008417457342147
1761916115334542800,8.21354296875,0.0977455039590597,-0.00034813301765825597,0.000304316708818078
1761916115344597800,8.22359765625,0.09399696508049965,-0.008981288432888685,0.005200491252541542
1761916115354654000,8.233654052734375,0.0981768811136484,-0.009279305548372212,0.005351444030553102
1761916115364708900,8.243708984375,0.0886094268232584,-0.009508200667111668,0.005965338145196437
1761916115374763800,8.253763671875,0.09069266283810139,-0.00026252111041685566,0.004502791311964393
1761916115384819700,8.26381982421875,0.10746259585320948,0.001144845486455597,0.0009029401890933513
1761916115394875000,8.273875,0.10193944851756095,-0.003448375471762847,-0.00453274805881083
1761916115404929800,8.2839296875,0.10478723916411399,-0.003448364055319689,-0.00609517506994307
1761916115414986000,8.293986083984375,0.09564239419996738,-0.0043591541907284405,0.0017976240064948796
1761916115425040600,8.30404052734375,0.09952712667882442,-0.005144568947376683,-0.006650909256562591
1761916115435095800,8.314095703125,0.10028349800407886,-0.0016973214201978406,-0.0039317134257406
1761916115445151700,8.32415185546875,0.10492401728630066,-0.0019496225306997075,-0.007402677471935749
1761916115455207000,8.33420703125,0.09431085333526133,-0.0024392600780120117,-0.004424173117801547
1761916115465262800,8.344262939453126,0.09431202237904071,-0.005696184081304818,-0.002790507501363754
1761916115475317800,8.35431787109375,0.09551672199368476,0.011638673357164953,-0.0008104396000504494
1761916115485372700,8.36437255859375,0.1019546460866928,0.005586248300271109,-0.005493555914983153
1761916115495428900,8.374428955078125,0.10808160453438759,-0.0019052308331243694,0.0034554742161184548
1761916115505483800,8.38448388671875,0.09789923321604728,-0.004758163445675746,0.005211597168445587
1761916115515538700,8.39453857421875,0.10088087937533854,-0.003184906796563882,0.00402319110147655
1761916115525594600,8.4045947265625,0.10372340932488441,-0.0006893042882787994,0.00612630086056888
1761916115535649800,8.41464990234375,0.10266600922644138,0.003815831961110234,-0.0017993045069277286
1761916115545705000,8.424705078125,0.09397650681436061,0.008055729986610822,-0.0035853111408650873
1761916115555760000,8.434760009765625,0.09247896173298359,0.004207536975725088,-0.0005715162776410579
1761916115565815300,8.444815185546876,0.09652677581906319,-0.005537057129992172,0.006942439549043774
1761916115575870200,8.4548701171875,0.10296177730262279,0.002813258189288899,-0.0048883565634489055
1761916115585926400,8.464926513671875,0.0995236195474863,0.002214235133503098,0.002534559978917241
1761916115595981000,8.47498095703125,0.09667758246660232,0.0020144336785073392,0.00004091653227806091
1761916115606036200,8.4850361328125,0.10640870288610457,0.011104943223088047,-0.007807385815307498
1761916115616092200,8.495092041015624,0.09982990901768207,0.006825731533928774,-0.007737097058072686
1761916115626147300,8.505147216796875,0.09715279876291752,0.008914029599667993,0.0020405659168958664
1761916115636202000,8.515201904296875,0.093410689625144,-0.0023843629694427363,0.004001636856794357
1761916115646258200,8.525258056640626,0.09594576106071472,-0.0018425705432076936,-0.004248451224714517
1761916115656313000,8.53531298828125,0.10731646538078785,-0.004008258393825963,-0.001832987580820918
1761916115666368300,8.5453681640625,0.10207447307407855,-0.0007816907128901221,-0.002062558552995324
1761916115676424200,8.555424072265625,0.09878010770380496,0.0009966669041314162,0.002912307250127196
1761916115686479000,8.56547900390625,0.09876841726601124,-0.005818177909601945,0.0005392214432358741
1761916115696534300,8.5755341796875,0.09653086747229099,-0.0018755138315842486,0.0037215047411620615
1761916115706590200,8.585590087890624,0.10179156447947024,-0.006281639836041722,0.001719444203749299
1761916115716645000,8.59564501953125,0.10464227773547172,0.005168226100888569,-0.00019406126737594602
1761916115726701300,8.605701416015625,0.09355798914134501,0.002254644775704946,-0.004972746911272407
1761916115736756000,8.615755859375,0.09610592005848884,-0.005242012856306973,-0.0005459434449672699
1761916115746811100,8.62581103515625,0.11585983732044697,0.00037337020690320056,-0.0038639088865369555
1761916115756867000,8.6358671875,0.09940028542876243,-0.005946482747676782,-0.001928337714076042
1761916115766922200,8.645922119140625,0.10148702857494353,-0.0033090880153700706,-0.005095642638579011
1761916115776977200,8.65597705078125,0.09638824413120746,-0.007339071900525596,-0.0019392244342714548
1761916115787033000,8.666033203125,0.08831073613762855,-0.003954094220907427,0.0008497486971318721
1761916115797088300,8.676088134765624,0.10417349117994308,-0.012587215386808383,0.0017338380552828312
1761916115807143200,8.68614306640625,0.10012801518142223,-0.0028795626078615896,-0.006866451703384518
1761916115817199000,8.69619921875,0.0929401495039463,0.00036089431782020256,-0.0008037175983190536
1761916115827254000,8.70625390625,0.09847498727738857,-0.000574726581457071,-0.004515577728301286
1761916115837309200,8.71630908203125,0.09548281972408294,0.0006128597848932258,-0.000781651896983385
1761916115847365000,8.726365234375,0.09024901072382926,0.007015970576135441,0.0003721943132579326
1761916115857420300,8.736420166015625,0.09788052851557731,-0.0021316896828939206,-0.007560059990733861
1761916115867475200,8.74647509765625,0.09189327079951763,-0.002356744310155045,0.006370557945221662
1761916115877531400,8.756531494140624,0.09997779305577277,-0.005292971291986759,-0.0044662586938589805
1761916115887586000,8.7665859375,0.11060615457594394,0.0016872315677348524,-0.006467515513673424
1761916115897641200,8.77664111328125,0.10057517442703247,0.0009188387278351001,0.0030301614761352536
1761916115907697200,8.786697265625,0.10700783782303333,0.005042985436157323,-0.0033778789352625605
1761916115917752300,8.79675244140625,0.10505378114581107,-0.002874192313000094,0.0012516074962913989
1761916115927807000,8.806806884765624,0.11433715779781341,-0.0035985519316396675,-0.001383344117179513
1761916115937863200,8.81686328125,0.11030044962763785,-0.0017496954948292114,-0.0011397446196526287
1761916115947918000,8.82691796875,0.10595979007482528,0.0035117572808871043,0.00156951433904469
1761916115957973200,8.83697314453125,0.10191957477331161,-0.013838925631088204,0.0006599982786923646
1761916115968029200,8.847029296875,0.09472878648638725,-0.005242421564972028,0.0007767565261572599
1761916115978084000,8.857083984375,0.10609656819701194,0.0033554844403639434,-0.0021409575514495373
1761916115988140000,8.86714013671875,0.10535539444088936,-0.0070729660269571466,-0.006885083338618278
1761916115998195200,8.8771953125,0.11090542978346347,0.0008759334511589258,-0.00035370880849659443
1761916116008250000,8.88725,0.10970715990960597,0.0073667704749153925,-0.00018229776434600353
1761916116018306300,8.897306396484375,0.10970306825637817,0.005731529389321804,0.002870294739305973
1761916116028361000,8.90736083984375,0.1082242278754711,0.0008225524462410249,-0.0024807108998298644
1761916116038416100,8.917416015625,0.10897884563505648,-0.0035893091792589984,-0.003323591464757919
1761916116048472000,8.92747216796875,0.10328677147328853,-0.016323052330710925,-0.004878785017505288
1761916116058527200,8.93752734375,0.09700491472482681,-0.007384468245098833,-0.0077668346092104905
1761916116068582100,8.94758203125,0.11601356657743453,0.0010922636325587517,-0.007836246583610772
1761916116078638000,8.95763818359375,0.11002923147082329,-0.0011778275907388888,-0.0038132746778428554
1761916116088693200,8.967693359375,0.09685001642405987,0.0011355251022614537,-0.005898337323591113
1761916116098748200,8.977748046875,0.10748246959745883,0.000942931989475619,0.0044619478449225425
1761916116108804400,8.987804443359375,0.10913023680448532,0.011091266324184834,0.005486833913251757
1761916116118859300,8.997859375,0.10224398442208767,-0.0037730248658452183,0.0011873831536620854
1761916116128914200,9.0079140625,0.1109217963963747,-0.007605750879540574,-0.0017872487429529428
1761916116138970000,9.01797021484375,0.10926467683911323,0.002493919724563602,-0.00042677404470741745
1761916116149025300,9.028025390625,0.11120996568799019,0.006657962335145567,-0.011340455312281846
1761916116159081200,9.038081298828125,0.09818506442010402,0.0030421236252761445,-0.0018199819687753915
1761916116169136400,9.048136474609375,0.10700725330114363,-0.0006610143421334214,-0.001720247921347618
1761916116179191000,9.05819091796875,0.10819558630287647,0.0036965917789028024,-0.005776683705300092
1761916116189247200,9.068247314453124,0.10414835673868655,-0.0029419078039471056,0.005548793233558535
1761916116199302100,9.07830224609375,0.1069914712101221,0.004259847118274774,0.0012084990069270132
1761916116209357300,9.088357421875,0.1165682778507471,-0.008224704761791508,0.000016439678147435186
1761916116219413200,9.098413330078126,0.11492869395017623,-0.009499896346358581,-0.00038205812014639376
1761916116229468200,9.10846826171875,0.10473872384727001,-0.0029870963692548683,-0.0003021978169679642
1761916116239523000,9.118523193359374,0.10338321758508681,0.008356292968918568,-0.0030082419052720067
1761916116249579300,9.128579345703125,0.11849252391159534,0.0034699730989290398,-0.010275967885926366
1761916116259634200,9.13863427734375,0.11535188779830932,-0.008638733489357401,0.005111424729600548
1761916116269689000,9.148689208984376,0.10068038836717605,-0.016657538132218177,-0.001518295608460903
1761916116279745000,9.1587451171875,0.0987257471680641,-0.0067501067311619405,-0.0037693624708801505
1761916116289800200,9.16880029296875,0.10739596035778522,-0.009639923588267993,-0.006333002413809299
1761916116299856100,9.178856201171875,0.11113631592988968,-0.009121749499638098,-0.0018287497971206902
1761916116309911300,9.188911376953126,0.1117278520822525,-0.014431941354484296,0.0008191343631595373
1761916116319966000,9.198966064453124,0.11306173103451728,-0.005091219908499625,-0.0015326894599944352
1761916116330022100,9.209022216796875,0.11021803204119204,0.01165718626138987,-0.007649711035564542
1761916116340077000,9.2190771484375,0.11337094311416149,0.00606512927484,0.00252469617202878
1761916116350132200,9.22913232421875,0.097205990254879,0.00010063366314861923,-0.0002517097387462854
1761916116360188200,9.239188232421874,0.09135492613911628,0.00400389731253963,0.005820522847026586
1761916116370243000,9.2492431640625,0.11199673215150832,0.008378150890988763,0.0004119418017566204
1761916116380298200,9.25929833984375,0.11528525230288506,0.001374071682046633,-0.001629354767501354
1761916116390354200,9.269354248046875,0.10526537806987762,-0.0028936733316048046,-0.0011238163981586694
1761916116400409300,9.279409423828126,0.09867664732933044,0.00696336588935228,0.004036635104939341
1761916116410464300,9.28946435546875,0.11378712269961833,-0.00021777093652635812,-0.003548194000869989
1761916116420520200,9.299520263671875,0.10182137509584427,-0.00914018248876091,-0.006775850810483097
1761916116430575000,9.3095751953125,0.11141980904638767,-0.009509719054051674,-0.011585662245005368
1761916116440631000,9.319631103515626,0.10078910943865775,-0.01382861201633932,0.007358253808319568
1761916116450686200,9.329686279296874,0.10032909071147442,0.0035100105650839393,0.01066511333398521
1761916116460741400,9.339741455078125,0.10840426061749457,0.008856298929906916,-0.0061569882597774265
1761916116470797000,9.349797119140625,0.10601824226379394,0.0023547418660251423,-0.009577171966806054
1761916116480852200,9.359852294921875,0.0972013140797615,-0.002243762622086797,-0.010193331103771925
1761916116490907100,9.3699072265625,0.10184534049332142,0.004372374431905336,0.0027470336858183143
1761916116500963300,9.37996337890625,0.10753098491430282,-0.00009116258190479129,0.010540244845300912
1761916116511018200,9.390018310546875,0.11217968750298023,-0.006045486142742447,0.0011179711792618035
1761916116521073200,9.4000732421875,0.10159048894941806,-0.013238973276829347,-0.007766615413501858
1761916116531129000,9.410129150390626,0.1409983702301979,0.024431512584979644,0.004625394778326153
1761916116541184300,9.420184326171874,0.1260889703899622,-0.010694894267607015,-0.0374809318061918
1761916116551240200,9.430240234375,0.08676233765184879,0.0030405755555839276,0.015079787971079348
1761916116561294800,9.440294921875,0.059819385668635365,-0.00101882622030098,-0.006782134420797228
1761916116571349800,9.450349853515625,0.1260100599348545,0.0008668071464984677,-0.0082914430052042
1761916116581406000,9.460406005859374,0.12064882516264915,0.009515600805566645,0.0021072014123201368
1761916116591460900,9.4704609375,0.07619768901765346,-0.00898891461691819,-0.017073226810619235
1761916116601515800,9.480515869140625,0.06598550708293914,0.0011392788287717848,0.02911598517335951
1761916116611571700,9.49057177734375,0.0912450360238552,0.00889503720483044,0.008164309494197369
1761916116621627000,9.500626953125,0.15084171885251998,0.004580040674592601,-0.007106982460990547
1761916116631681800,9.510681884765624,0.1140367135465145,0.0027832569183141457,-0.002400850596651435
1761916116641738000,9.520738037109375,0.057144613501429554,-0.0019075072718900627,-0.005243161350488662
1761916116651793000,9.53079296875,0.10174246464073658,0.0022914468218688854,0.0008004296626895666
1761916116661848800,9.540848876953126,0.14098843335807323,0.0039667561980139,-0.012076003045216202
1761916116671903700,9.55090380859375,0.11258885282576084,-0.0014043343895697035,-0.015102876585721969
1761916116681959000,9.560958984375,0.07593231607973575,-0.008488885823043529,0.006079612174630164
1761916116692014800,9.571014892578125,0.09523615148663521,-0.0013945858887571376,0.0036785423822700974
1761916116702070000,9.581070068359375,0.11366788023412228,-0.004432406656607054,-0.005238412110134959
1761916116712125000,9.591125,0.11145546488165854,-0.008111110010725679,-0.0012294687297195195
1761916116722180900,9.601180908203125,0.08466858024299144,0.0025992775118909776,0.00028911913968622684
1761916116732236000,9.611236083984375,0.081359017303586,-0.0019626806583837603,0.005494724958762526
1761916116742292000,9.6212919921875,0.10651450134813785,-0.01626036464133067,0.004346066380292177
1761916116752347000,9.631346923828126,0.10473930836915969,-0.0034691168656921945,-0.010179375643655657
1761916116762401800,9.64140185546875,0.10116437249183655,0.008885324094991666,-0.0035442484781146046
1761916116772457700,9.651457763671875,0.10355682058632373,0.008089669930475066,-0.0029129648372530933
1761916116782513000,9.661512939453125,0.09741700265705584,0.01154484275249415,0.002699395151808858
1761916116792568000,9.671568115234376,0.10162029956579208,-0.0014192933550395536,-0.013370792096108197
1761916116802624000,9.6816240234375,0.10881751759350299,-0.008671497539576375,-0.0017631372150033711
1761916116812679000,9.691678955078125,0.10419453396797179,0.004345874584047124,0.0026342940263450144
1761916116822734800,9.70173486328125,0.10720423717796802,0.016724172485998133,0.005828048566356301
1761916116832790000,9.7117900390625,0.10406944628357886,0.00231301134134992,-0.0004220978695899248
1761916116842845000,9.721844970703126,0.09449614677429198,-0.00255160929512931,-0.0019731997691094876
1761916116852900900,9.73190087890625,0.0911976897507906,-0.003745338849542895,-0.0068108490586280815
1761916116862955800,9.741955810546875,0.09883739084899425,-0.005032460617210017,-0.003937558644637466
1761916116873011000,9.752010986328125,0.11112345644831657,-0.00642959123114706,-0.0011779577381908894
1761916116883067000,9.76206689453125,0.09736556473076342,-0.00988036529761739,0.0037756460811942815
1761916116893122000,9.7721220703125,0.08599427588880061,-0.006910696128843119,0.005551496647298336
1761916116903176700,9.7821767578125,0.10725392153859138,0.004798676977510331,0.001195420329645276
1761916116913233000,9.79223291015625,0.11429916387498378,0.000362089619418839,-0.0105010088134557
1761916116923287800,9.802287841796876,0.10186404519379139,-0.0005758716507058125,-0.001440261936187744
1761916116933344000,9.812343994140624,0.09121113375425338,-0.0006753739443374797,0.004973623694106936
1761916116943399000,9.82239892578125,0.09298632673323154,-0.005218393377057509,-0.0008471183486282825
1761916116953453800,9.832453857421875,0.1128822828143835,-0.0044381799519120245,0.007617489266395569
1761916116963509800,9.842509765625,0.10853343995511532,0.0024228877568792085,-0.0013765490502119064
1761916116973565000,9.85256494140625,0.10986322725415229,0.002284539873758331,-0.008752265449985861
1761916116983619800,9.862619873046874,0.10401625479161739,-0.008392927193368087,0.008317673425003886
1761916116993676000,9.872676025390625,0.10762217032909392,0.0026137284456402995,-0.0023728666111826895
1761916117003730700,9.882730712890625,0.11242635574042796,0.0009379738282121252,-0.004412701875716448
1761916117013787000,9.892786865234376,0.09689093295633792,0.0007632006415515206,0.004462167040631175
1761916117023841800,9.902841796875,0.1043774893194437,-0.002159866606252035,-0.0018897592693567274
1761916117033897000,9.91289697265625,0.1115793835222721,-0.0015553088588232638,-0.012955197032541036
1761916117043953000,9.922952880859375,0.09924187999665736,-0.006159513577003963,0.0034798780050128695
1761916117054007800,9.9330078125,0.2271580658137798,0.012600562350504333,-0.027018355306982992
1761916117064062700,9.943062744140626,1.8618682228684424,0.28436695845676585,-0.12929054291024802
1761916117074119000,9.953118896484375,0.04480068023502826,0.03732833962694276,0.0648247196752578
1761916117084173800,9.963173828125,-2.549272979402542,-0.48546015202980486,0.30592297497093673
1761916117094229000,9.97322900390625,-0.48067573076486586,-0.027277775711438152,0.001362593590095639
1761916117104285000,9.983284912109376,0.7314771224945783,0.06655608721224125,-0.17835465274341403
1761916117114339800,9.99333984375,0.3070259677767753,-0.03532560780267231,-0.04111344308964908
1761916117124395800,10.003395751953125,-0.01644084719121456,0.023649591259937732,0.05799984209127724
1761916117134451000,10.013450927734375,0.5295189643889665,0.09408720978037453,-0.014073752733692525
