time,seconds_elapsed,z,y,x
1761916107159605500,0.03860546875,-0.00030360036180354655,0.049438923597335815,0.005260808393359184
1761916107169660400,0.048660400390625,-0.000827177835162729,-0.016820259392261505,0.002380866091698408
1761916107179715300,0.05871533203125,0.000003994741746282671,-0.050156377255916595,0.009070460684597492
1761916107189771500,0.068771484375,0.0008932242053560913,-0.002493517706170678,0.011607653461396694
1761916107199826400,0.078826416015625,-0.000538491178303957,0.037156689912080765,0.014679077081382275
1761916107209881300,0.08888134765625,-0.001017327536828816,0.017228521406650543,0.013156814500689507
1761916107219936300,0.098936279296875,-0.0011856392957270145,-0.027287013828754425,0.01025716494768858
1761916107229991400,0.108991455078125,0.003400324145331979,-0.022519690915942192,0.00890774093568325
1761916107240047400,0.11904736328125,-0.000041012681322172284,0.016940368339419365,0.008971656672656536
1761916107250102300,0.129102294921875,0.00039228363311849535,0.021097561344504356,0.012065717950463295
1761916107260157400,0.139157470703125,0.0014261227333918214,-0.011430553160607815,0.012357866391539574
1761916107270212400,0.14921240234375,-0.0015443670563399792,-0.020596088841557503,0.00890800729393959
1761916107280268500,0.1592685546875,-0.0022069616243243217,0.00010120012302650139,0.009111206978559494
1761916107290323500,0.169323486328125,-0.0007776430575177073,0.014931545592844486,0.013252954930067062
1761916107300378400,0.17937841796875,0.000526773277670145,0.007247526664286852,0.01312059536576271
1761916107310433300,0.189433349609375,0.0017725999932736158,-0.0143493777140975,0.007457383442670107
1761916107320488400,0.199488525390625,-0.0010255833622068167,-0.005951898638159037,0.00506985979154706
1761916107330544400,0.20954443359375,0.0016335829859599471,0.012169580906629562,0.01136983372271061
1761916107340599300,0.219599365234375,-0.0013345100451260805,0.008777512237429619,0.013521134853363037
1761916107350654500,0.229654541015625,-0.0017153420485556126,-0.007859254255890846,0.009411611594259739
1761916107360709400,0.23970947265625,-0.000693220819812268,-0.012312060222029686,0.008744489401578903
1761916107370765600,0.249765625,-0.001332645770162344,-0.0012639362830668688,0.011241469532251358
1761916107380820200,0.2598203125,0.00008016114588826895,0.009155148640275002,0.014315023086965084
1761916107390875400,0.26987548828125,0.0017265273490920663,-0.0007946872501634061,0.010635866783559322
1761916107400930300,0.279930419921875,0.00027856664382852614,-0.011842544190585613,0.01010696217417717
1761916107410985500,0.2899853515625,-0.002441852353513241,-0.0027209515683352947,0.0129924975335598
1761916107421041400,0.30004150390625,-0.00023968449386302382,0.009043562225997448,0.012435364536941051
1761916107431096300,0.310096435546875,-0.001865544356405735,0.0061521683819592,0.012896623462438583
1761916107441151500,0.3201513671875,-0.0001131843455368653,-0.00555295730009675,0.010363158769905567
1761916107451206400,0.330206298828125,-0.00210709311068058,-0.0017867147689685225,0.008741027675569057
1761916107461261300,0.34026123046875,0.0008777778712101281,0.003751328680664301,0.015305719338357449
1761916107471317200,0.350317138671875,-0.0005307680112309754,0.004230697639286518,0.011000719852745533
1761916107481372400,0.360372314453125,0.0011827098205685616,-0.0022306637838482857,0.010435064323246479
1761916107491427300,0.37042724609375,0.00035659727291204035,-0.003793140407651663,0.011214038357138634
1761916107501482500,0.380482421875,-0.0020727382507175207,0.0010418286547064781,0.010974087752401829
1761916107511538200,0.3905380859375,-0.00041492050513625145,0.0005499427788890898,0.014712100848555565
1761916107521593300,0.40059326171875,-0.002621615771204233,0.0005193164106458426,0.014033527113497257
1761916107531648500,0.4106484375,-0.0016668725293129683,-0.00036378781078383327,0.012200740166008472
1761916107541703000,0.420702880859375,-0.0013515542959794402,-0.001728657865896821,0.008980445563793182
1761916107551757800,0.4307578125,-0.000847950461320579,0.0037822213489562273,0.011365838348865509
1761916107561813800,0.440813720703125,0.00040746363811194897,0.0034906051587313414,0.011953066103160381
1761916107571869000,0.450868896484375,0.0007605988066643476,0.0012884372845292091,0.012073440477252007
1761916107581923800,0.460923828125,-0.0009555422002449632,-0.0008844357798807323,0.01098340842872858
1761916107591979000,0.47097900390625,-0.0023339942563325167,0.0014000238152220845,0.010269948281347752
1761916107602034700,0.48103466796875,-0.0013709953054785728,0.00032863407977856696,0.010179666802287102
1761916107612089900,0.49108984375,-0.0022066952660679817,0.0014644722687080503,0.010264089331030846
1761916107622145000,0.50114501953125,-0.0002972087822854519,0.0002585929469205439,0.010471017099916935
1761916107632200000,0.511199951171875,0.0015699334908276796,-0.0002569950302131474,0.011960255913436413
1761916107642254800,0.5212548828125,0.0027473168447613716,-0.0008620652370154858,0.012389558367431164
1761916107652310800,0.531310791015625,0.00017443705291952938,0.0010154632618650794,0.01101323589682579
1761916107662366000,0.541365966796875,0.0011805793037638068,-0.0006058691651560366,0.010588728822767735
1761916107672420900,0.5514208984375,-0.002373675350099802,-0.0020450414158403873,0.014359764754772186
1761916107682476000,0.56147607421875,0.00008362325752386823,-0.000556600687559694,0.010802846401929855
1761916107692531700,0.57153173828125,0.0015094797126948833,-0.0022040321491658688,0.010840663686394691
1761916107702587000,0.5815869140625,-0.0012575446162372828,0.0004415521107148379,0.011420966126024723
1761916107712642000,0.59164208984375,0.0007795072160661221,0.0015515576815232635,0.013136841356754303
1761916107722697000,0.601697021484375,-0.0010104032699018717,0.0009230516152456403,0.011773568578064442
1761916107732752000,0.611751953125,0.0015960324089974165,0.0002966761530842632,0.010186058469116688
1761916107742807800,0.621807861328125,0.00005805691034765914,0.0024530377704650164,0.011539743281900883
1761916107752863000,0.631863037109375,0.0002884203568100929,-0.0024282701779156923,0.011405520141124725
1761916107762918000,0.64191796875,0.0009781790431588888,-0.0024639565963298082,0.011094196699559689
1761916107772972800,0.651972900390625,-0.002433063928037882,-0.004692223388701677,0.011592740193009377
1761916107783028700,0.66202880859375,-0.0008053398923948407,0.0010487528052181005,0.011922705918550491
1761916107793084000,0.672083984375,0.0002902845444623381,-0.0011941614793613553,0.009849434718489647
1761916107803139000,0.68213916015625,0.001113201375119388,0.00017337177996523678,0.01076902449131012
1761916107813194000,0.692194091796875,-0.0004037352045997977,-0.001178182428702712,0.015360314399003983
1761916107823250000,0.70225,-0.0010213222121819854,0.0024434502702206373,0.01327106449753046
1761916107833304800,0.712304931640625,-0.0009384979493916035,0.00033342777169309556,0.010016947984695435
1761916107843360000,0.722360107421875,0.0001877528557088226,0.00003328951424919069,0.012912869453430176
1761916107853415000,0.732414794921875,-0.0009028115891851485,0.000264718197286129,0.013248427771031857
1761916107863469800,0.7424697265625,-0.0017060210229828954,0.0002569950302131474,0.009279518388211727
1761916107873525800,0.75252587890625,0.0006410228670574725,0.0022479742765426636,0.008459797129034996
1761916107883581000,0.762580810546875,-0.0010333064710721374,0.000036218989407643676,0.011484881862998009
1761916107893636000,0.772635986328125,-0.0023068301379680634,-0.0024679512716829777,0.01272831205278635
1761916107903690800,0.782690673828125,-0.0010391654213890433,0.000565389113035053,0.01302498858422041
1761916107913747000,0.792746826171875,0.0005097290268167853,-0.0033803503029048443,0.012119513005018234
1761916107923801900,0.8028017578125,0.0013614079216495156,0.0007097324123606086,0.011537878774106503
1761916107933857000,0.81285693359375,-0.0009446232579648495,0.0018663433147594333,0.01179167814552784
1761916107943912000,0.822911865234375,-0.0021022993605583906,-0.0005643238546326756,0.011230284348130226
1761916107953966800,0.832966796875,0.001412806916050613,0.0019923108629882336,0.01311979629099369
1761916107964022800,0.843022705078125,0.0020817930344492197,-0.0026019082870334387,0.009139969013631344
1761916107974078000,0.853077880859375,-0.000028762138754245825,-0.00015925703337416053,0.0101389205083251
1761916107984133000,0.863133056640625,0.0002181128947995603,0.0011233213590458035,0.010890997014939785
1761916107994187800,0.873187744140625,0.0017686053179204464,-0.0007765777409076691,0.013009808026254177
1761916108004244000,0.883243896484375,-0.0018013621447607875,-0.0005198490689508617,0.011547200381755829
1761916108014299000,0.893298828125,-0.0004247741890139878,0.0006346312584355474,0.010351174511015415
1761916108024354000,0.90335400390625,-0.001973136095330119,0.0001227717293659225,0.010567955672740936
1761916108034408700,0.91340869140625,-0.0010226538870483637,-0.00023435817274730653,0.009464608505368233
1761916108044463900,0.9234638671875,0.001088433898985386,-0.0016666061710566282,0.011867578141391277
1761916108054519800,0.933519775390625,0.00015659387281630188,0.001047421246767044,0.0102592958137393
1761916108064575000,0.943574951171875,-0.0016679377295076847,0.000957939017098397,0.010596451349556446
1761916108074630100,0.953630126953125,0.00019707392493728548,0.0008793757879175246,0.013594105839729309
1761916108084684800,0.963684814453125,0.002782204421237111,-0.0007605988066643476,0.012019910849630833
1761916108094741000,0.973740966796875,-0.000041545314161339775,-0.0016711335629224777,0.010073672980070114
1761916108104796000,0.9837958984375,0.0004040015337523073,-0.002630404196679592,0.010662231594324112
1761916108114851000,0.99385107421875,-0.0007928230334073305,-0.0011938951211050153,0.010301905684173107
1761916108124905700,1.00390576171875,0.0004194478678982705,0.001383778522722423,0.012711001560091972
1761916108134962000,1.0139619140625,0.000013848437447450124,0.0013885721564292908,0.00971254799515009
1761916108145016800,1.024016845703125,-0.0009267800487577915,-0.002639192622154951,0.011690744198858738
1761916108155072000,1.034072021484375,-0.0004213120846543461,-0.0009302421822212636,0.011600996367633343
1761916108165127000,1.044126953125,0.0010327738709747791,0.0001715075777610764,0.014269749633967876
1761916108175181800,1.054181884765625,-0.0026170883793383837,0.0008791094878688455,0.012764264829456806
1761916108185237800,1.06423779296875,-0.0016495619202032685,-0.003453587181866169,0.009302954189479351
1761916108195293000,1.07429296875,0.00021385183208622038,-0.0006868292111903429,0.009770605713129044
1761916108205348000,1.08434814453125,-0.0024865935556590557,0.00036938043194822967,0.012048141099512577
1761916108215402800,1.09440283203125,-0.0003962783666793257,0.000919323181733489,0.011974371038377285
1761916108225459000,1.104458984375,0.00007323692989302799,-0.0014642059104517102,0.01079991739243269
1761916108235513900,1.114513916015625,0.0012330436147749424,0.00037284253630787134,0.011856392957270145
1761916108245569000,1.124569091796875,-0.0024311996530741453,-0.0006095975404605269,0.011485148221254349
1761916108255624000,1.1346240234375,-0.0016101471846923232,-0.0012990899849683046,0.008646485395729542
1761916108265680000,1.144679931640625,-0.0008024104172363877,-0.0016849819803610444,0.011348261497914791
1761916108275734800,1.15473486328125,-0.0024684839881956577,-0.0014913701452314854,0.011301656253635883
1761916108285790000,1.1647900390625,-0.0009709885343909264,0.000046871635277057067,0.009500560350716114
1761916108295845000,1.17484521484375,-0.0015534218400716782,-0.0005406216951087117,0.012544820085167885
1761916108305899800,1.184899658203125,-0.0013347762869670987,0.0013699301052838564,0.011480887420475483
1761916108315956000,1.1949560546875,-0.0007502124644815922,-0.0005083974683657289,0.012838833034038544
1761916108326011000,1.205010986328125,-0.0004628573951777071,-0.0002412823960185051,0.010216951370239258
1761916108336066000,1.215066162109375,-0.0026056368369609118,0.0013230583863332868,0.014124074950814247
1761916108346121000,1.225120849609375,0.0012964267516508698,0.000016777914424892515,0.012118981219828129
1761916108356177000,1.235177001953125,-0.0007877630414441228,0.001139033935032785,0.010595119558274746
1761916108366231800,1.245231689453125,-0.0024138891603797674,-0.0002519350382499397,0.01188116054981947
1761916108376287000,1.255286865234375,-0.0006391586503013968,-0.0008719189208932221,0.01119086891412735
1761916108386342000,1.265341796875,-0.00029055087361484766,0.0006988134700804949,0.013622068800032139
1761916108396396800,1.275396728515625,-0.0016729978378862143,0.0008492820779792964,0.011961054988205433
1761916108406453000,1.285452880859375,0.0008743157959543169,0.0008777778712101281,0.010232930071651936
1761916108416508000,1.2955078125,0.0000250337143370416,-0.0051534827798604965,0.01070830412209034
1761916108426563000,1.30556298828125,0.0012250541476532817,0.0022098910994827747,0.012418054044246674
1761916108436617700,1.31561767578125,-0.000523577444255352,0.0004492752777878195,0.0116763636469841
1761916108446674000,1.325673828125,-0.0014708638191223145,0.00005725796290789731,0.011154117062687874
1761916108456728800,1.335728759765625,-0.0001699096756055951,0.0001304948964389041,0.010096309706568718
1761916108466784000,1.345783935546875,-0.00020266656065359712,-0.0013901700731366873,0.014402109198272228
1761916108476839000,1.3558388671875,0.0006609965930692852,0.0002008023438975215,0.011698467656970024
1761916108486894800,1.365894775390625,-0.0008309062686748803,0.0007270429632626474,0.009428389370441437
1761916108496950000,1.375949951171875,0.0013350426452234387,-0.000336090917699039,0.01278530340641737
1761916108507005000,1.3860048828125,0.00013129384024068713,0.001324123702943325,0.012048141099512577
1761916108517060000,1.39606005859375,0.0009574064170010388,-0.0024077638518065214,0.010657438077032566
1761916108527115800,1.40611572265625,0.0019832560792565346,0.00250550196506083,0.00917245913296938
1761916108537171000,1.4161708984375,0.00236328924074769,-0.0006700513185933232,0.011008708737790585
1761916108547226600,1.4262265625,-0.0010791128734126687,-0.0022807312197983265,0.013040434569120407
1761916108557281500,1.436281494140625,-0.00043888893560506403,-0.0012239888310432434,0.009346364066004753
1761916108567336400,1.44633642578125,-0.0033875408116728067,-0.00009400958515470847,0.011749600060284138
1761916108577392600,1.456392578125,-0.001984587637707591,-0.0010719223646447062,0.011862251907587051
1761916108587447600,1.466447509765625,-0.0008303736103698611,-0.0038306908681988716,0.012563728727400303
1761916108597502500,1.47650244140625,-0.0010274475207552314,-0.0006921555614098907,0.01034718006849289
1761916108607557600,1.4865576171875,-0.0002556634717620909,0.003977164626121521,0.013236709870398045
1761916108617613600,1.496613525390625,-0.0014945659786462784,-0.0006106628570705652,0.011860387399792671
1761916108627668700,1.506668701171875,0.0017084177816286683,-0.002088717184960842,0.013501428067684174
1761916108637723400,1.516723388671875,-0.0012825783342123032,-0.0010226538870483637,0.00857218261808157
1761916108647778600,1.526778564453125,-0.00023675501870457083,-0.0006815029191784561,0.010746654123067856
1761916108657834500,1.53683447265625,0.00009161273919744417,0.0021949773654341698,0.010968495160341263
1761916108667889700,1.5468896484375,-0.0015686018159613013,0.0011326423846185207,0.011416705325245857
1761916108677944600,1.556944580078125,0.001160339335910976,-0.0012570120161399245,0.009721070528030396
1761916108687999500,1.56699951171875,0.00009187905379803851,-0.0006295712664723396,0.012191951274871826
1761916108698055400,1.577055419921875,0.00033955302205868065,0.001463939668610692,0.010889398865401745
1761916108708110600,1.587110595703125,-0.0021787320729345083,-0.00001704423084447626,0.011288074776530266
1761916108718165800,1.597165771484375,0.0014887070283293724,-0.00018988338706549257,0.013585583306849003
1761916108728220400,1.607220458984375,-0.001573928166180849,0.00384453940205276,0.01076929084956646
1761916108738275600,1.617275634765625,-0.0012815131340175867,-0.00016298545233439654,0.011481420136988163
1761916108748331500,1.62733154296875,0.0017142767319455743,-0.0015387744642794132,0.01053093746304512
1761916108758386700,1.63738671875,0.0007858988246880472,0.0026008430868387222,0.011172759346663952
1761916108768441300,1.64744140625,-0.0005858954391442239,0.0007084008539095521,0.013611149974167347
1761916108778496500,1.65749658203125,-0.001347559504210949,-0.002938798163086176,0.013740845955908298
1761916108788552400,1.667552490234375,-0.00009667274571256712,-0.0022173479665070772,0.01158847939223051
1761916108798607600,1.677607666015625,-0.0005203816690482199,0.0027113643009215593,0.011532286182045937
1761916108808662500,1.68766259765625,0.0014381069922819734,0.0009885653853416443,0.01095464639365673
1761916108818717400,1.697717529296875,-0.0011201255256310105,-0.00005352953667170368,0.011378355324268341
1761916108828773400,1.7077734375,-0.003287672298029065,-0.00173717993311584,0.011041732504963875
1761916108838828500,1.71782861328125,0.0005957491230219603,0.004561728797852993,0.012979980558156967
1761916108848883700,1.7278837890625,-0.000056459015468135476,0.003962783608585596,0.014850584790110588
1761916108858938400,1.7379384765625,0.001353684812784195,0.0005065332516096532,0.014256433583796024
1761916108868994600,1.74799462890625,0.0010359697043895721,0.00021385183208622038,0.010964234359562397
1761916108879049500,1.758049560546875,0.0017635452095419168,0.0013544837711378932,0.010389523580670357
1761916108889104600,1.768104736328125,-0.0006974819116294384,0.003728159237653017,0.011859056539833546
1761916108899159600,1.77815966796875,0.00018216021999251097,0.0015313175972551107,0.010656106285750866
1761916108909215500,1.788215576171875,-0.0012253203894942999,-0.0009952232940122485,0.010559434071183205
1761916108919270400,1.7982705078125,-0.0005715143634006381,-0.00015632755821570754,0.009819340892136097
1761916108929325600,1.80832568359375,-0.0021787320729345083,0.0016138756182044744,0.010557569563388824
1761916108939380700,1.818380615234375,-0.0001294296234846115,0.003867975203320384,0.012338425032794476
1761916108949435400,1.828435302734375,-0.0012141350889578462,-0.0012058793799951673,0.012091550044715405
1761916108959491600,1.83849169921875,0.00048655952559784055,-0.0031992553267627954,0.01005236804485321
1761916108969546500,1.84854638671875,0.00019414443522691727,0.0023784691002219915,0.012630574405193329
1761916108979601700,1.8586015625,-0.0018314558546990156,0.0018224010709673166,0.012111257761716843
1761916108989656600,1.868656494140625,0.0003153182624373585,0.00112465291749686,0.012289955280721188
1761916108999712500,1.87871240234375,-0.0028477180749177933,0.0004918858758173883,0.012025769799947739
1761916109009767400,1.888767333984375,-0.0006886934279464185,-0.0008322378271259367,0.011924570426344872
1761916109019822600,1.898822509765625,-0.0013907026732340455,0.0022772690281271935,0.01233576238155365
1761916109029877800,1.908877685546875,-0.001106809708289802,0.00010679275874281302,0.01248383428901434
1761916109039933400,1.918933349609375,0.0015433018561452627,0.001630120910704136,0.010913101024925709
1761916109049988600,1.928988525390625,0.00041252365917898715,-0.0005986785981804132,0.011637480929493904
1761916109060043500,1.93904345703125,0.0006527407676912844,0.0017632789677008986,0.012340822257101536
1761916109070098700,1.9490986328125,-0.000957939017098397,-0.0008578042034059763,0.012655074708163738
1761916109080154600,1.959154541015625,-0.00140987744089216,-0.0006788397440686822,0.012210593558847904
1761916109090209500,1.96920947265625,-0.0031529164407402277,-0.0013022858183830976,0.012220180593430996
1761916109100264400,1.979264404296875,-0.0001597896625753492,-0.0022032330743968487,0.012833506800234318
1761916109110319600,1.989319580078125,0.000922519015148282,-0.002001631772145629,0.01155758649110794
1761916109120374500,1.99937451171875,-0.003955326974391937,-0.0019837887957692146,0.012762933038175106
1761916109130430500,2.009430419921875,0.00012436961696948856,0.004191549029201269,0.012872123159468174
1761916109140485600,2.019485595703125,0.0005731122801080346,-0.0013622068800032139,0.009248092770576477
1761916109150540500,2.02954052734375,-0.0023933828342705965,0.002074069809168577,0.012977051548659801
1761916109160595700,2.039595703125,0.0008735168376006186,-0.001511610229499638,0.011286476626992226
1761916109170651400,2.0496513671875,0.00005406216951087117,-0.0004649879119824618,0.012915798462927341
1761916109180706600,2.05970654296875,0.0005957491230219603,0.0012213257141411304,0.011430553160607815
1761916109190761500,2.069761474609375,-0.0013741911388933659,-0.0012519520241767168,0.010575146414339542
1761916109200816600,2.079816650390625,-0.0022061625495553017,-0.002481267089024186,0.011115501634776592
1761916109210872600,2.08987255859375,-0.0011400992516428232,-0.000021837920940015465,0.011757323518395424
1761916109220927500,2.099927490234375,-0.0010908307740464807,0.0018756643403321505,0.009839581325650215
1761916109230982700,2.109982666015625,-0.0005456816870719194,0.0007576693315058947,0.010838799178600311
1761916109241037600,2.12003759765625,-0.0024399880785495043,-0.00019201391842216253,0.013259612955152988
1761916109251093500,2.130093505859375,-0.0010048106778413057,-0.0019254654180258512,0.011847604997456074
1761916109261148400,2.1401484375,-0.0009395632077939808,0.0018130800453945994,0.011179683730006218
1761916109271203600,2.15020361328125,-0.0015901734586805105,0.0016000272007659078,0.010641193017363548
1761916109281258500,2.160258544921875,-0.0001675128296483308,-0.005076517816632986,0.011959457769989967
1761916109291314700,2.170314697265625,-0.0009539442835375667,-0.0002442118711769581,0.011202054098248482
1761916109301369600,2.18036962890625,-0.0026104305870831013,-0.00012863067968282849,0.009987919591367245
1761916109311424500,2.190424560546875,0.00026312030968256295,0.002581934677436948,0.009216934442520142
1761916109321479700,2.200479736328125,0.0004569984448608011,-0.0016969662392511964,0.01190885715186596
1761916109331534600,2.21053466796875,-0.0011733887949958444,-0.0005912217311561108,0.010761301033198833
1761916109341590500,2.220590576171875,-0.0017259946325793862,-0.0029491845052689314,0.011530954390764236
1761916109351645400,2.2306455078125,-0.0009134642314165831,0.0011566109023988247,0.011661449447274208
1761916109361700600,2.24070068359375,-0.002394714392721653,0.0012013519881293178,0.014464693143963814
1761916109371755500,2.250755615234375,0.0003938815207220614,-0.0008668589289300144,0.011991148814558983
1761916109381811700,2.260811767578125,0.0017584852175787091,-0.0021939121652394533,0.01261139940470457
1761916109391866400,2.270866455078125,0.0012570120161399245,0.0002969424531329423,0.009779926389455795
1761916109401921500,2.280921630859375,-0.000107858024421148,-0.000642620783764869,0.010651845484972
1761916109411976400,2.2909765625,0.001592037733644247,0.0014817827614024282,0.011608985252678394
1761916109422032600,2.30103271484375,-0.0015251922886818647,0.0021789984311908484,0.010509898886084557
1761916109432087600,2.311087646484375,-0.0024319987278431654,-0.00009267800487577915,0.009245696477591991
1761916109442142500,2.321142578125,0.00009081379539566115,0.0004439489566721022,0.008654474280774593
1761916109452197600,2.33119775390625,-0.0009736517095007002,-0.0015472965314984322,0.015139271505177021
1761916109462253600,2.341253662109375,-0.0005299690528772771,-0.0004697816038969904,0.010263556614518166
1761916109472308700,2.351308837890625,0.0025808694772422314,-0.0005483448621816933,0.012749350629746914
1761916109482363400,2.36136328125,-0.000892425247002393,0.0002564624010119587,0.013147760182619095
1761916109492418600,2.37141845703125,0.0009944243356585503,0.0014327806420624256,0.010693657211959362
1761916109502474500,2.381474609375,-0.0017648768844082952,0.0004207794554531574,0.012719256803393364
1761916109512529700,2.39152978515625,-0.002490055514499545,0.0021731394808739424,0.010604174807667732
1761916109522584300,2.401584228515625,0.000143544384627603,-0.0013273194199427962,0.010310428217053413
1761916109532639500,2.411639404296875,0.0002743055811151862,0.001710548298433423,0.011580489575862885
1761916109542695000,2.42169482421875,0.0001102548703784123,0.0010330402292311192,0.012499280273914337
1761916109552749800,2.431749755859375,-0.000185888638952747,-0.003984888084232807,0.011355984956026077
1761916109562804700,2.4418046875,0.0004958806093782187,-0.001065264455974102,0.012164254672825336
1761916109572859600,2.451859619140625,-0.0022303974255919456,0.0002948119363281876,0.009067530743777752
1761916109582915800,2.461915771484375,0.0002479403046891093,0.002013616031035781,0.012353605590760708
1761916109592970800,2.471970703125,-0.0007874967413954437,-0.0004106594424229115,0.013411412946879864
1761916109603026000,2.48202587890625,-0.0004141215467825532,0.0023760723415762186,0.011329886503517628
1761916109613080800,2.492080810546875,-0.0015430354978889227,-0.005411010701209307,0.011999937705695629
1761916109623136800,2.50213671875,-0.0013395700370892882,0.0046331011690199375,0.013253221288323402
1761916109633192000,2.51219189453125,-0.001945705502294004,0.0016373114194720984,0.009811618365347385
1761916109643246800,2.522246826171875,0.00152306177187711,-0.0023134879302233458,0.010967429727315903
1761916109653301800,2.5323017578125,-0.0002561961009632796,0.0009052084642462432,0.01047341339290142
1761916109663357700,2.542357666015625,-0.0017893778858706355,-0.0011709919199347496,0.011007376946508884
1761916109673412900,2.552412841796875,0.00039974047103896737,0.001246892032213509,0.013193033635616302
1761916109683467800,2.5624677734375,-0.000687361869495362,-0.003950266633182764,0.01076982356607914
1761916109693522700,2.572522705078125,-0.0018719359068199992,0.002630670554935932,0.011650530621409416
1761916109703578600,2.58257861328125,0.0014924354618415236,0.0008966863388195634,0.010951717384159565
1761916109713633800,2.5926337890625,-0.0030269487760961056,0.0003880225704051554,0.009679258801043034
1761916109723689000,2.60268896484375,-0.0007329019135795534,-0.0019648801535367966,0.012969594448804855
1761916109733743900,2.612743896484375,-0.0014823154779151082,-0.0015600797487422824,0.01073626708239317
1761916109743799800,2.6227998046875,-0.0004165183927398175,0.000862864195369184,0.010272877290844917
1761916109753854700,2.632854736328125,-0.0016538230702280998,-0.00026312030968256295,0.011113637126982212
1761916109763910000,2.642909912109375,-0.00004846953015658073,0.0007472829893231392,0.011271828785538673
1761916109773964800,2.65296484375,0.0023939155507832766,-0.0031617048662155867,0.011187407188117504
1761916109784021000,2.66302099609375,-0.0013659353135153651,0.0012170645641162992,0.010971158742904663
1761916109794075600,2.67307568359375,-0.00011877698125317693,0.0006836334359832108,0.013590643182396889
1761916109804130800,2.683130859375,-0.0016729978378862143,-0.0009920274605974555,0.012170646339654922
1761916109814186000,2.69318603515625,-0.0006103964988142252,-0.004519917070865631,0.010244914330542088
1761916109824242000,2.703241943359375,0.0003312972257845104,-0.0009267800487577915,0.0130920996889472
1761916109834296600,2.713296630859375,-0.002460494404658675,0.003343332326039672,0.010750115849077702
1761916109844351700,2.723351806640625,-0.0010871023405343294,0.003323358716443181,0.012028433382511139
1761916109854407000,2.733406982421875,0.002469815546646714,0.001332912128418684,0.012684635818004608
1761916109864462800,2.743462890625,-0.0012037487467750907,-0.001549693406559527,0.009706955403089523
1761916109874518000,2.75351806640625,-0.0012205267557874322,0.0013960290234535933,0.01323910616338253
1761916109884572700,2.76357275390625,0.00002210423735959921,-0.000009054747351910919,0.012105931527912617
1761916109894627800,2.7736279296875,-0.0013643373968079686,-0.0006199838826432824,0.011291536502540112
1761916109904683800,2.783683837890625,-0.000556334329303354,-0.003704190719872713,0.01113174669444561
1761916109914739000,2.793739013671875,0.0004655205411836505,-0.0002008023438975215,0.01053226925432682
1761916109924793600,2.803793701171875,-0.0001978728687390685,0.0030370689928531647,0.010727745480835438
1761916109934848800,2.813848876953125,-0.0013640711549669504,0.0015632755821570754,0.011461179703474045
1761916109944904700,2.82390478515625,-0.00020133497309871018,-0.0008764463127590716,0.013000220991671085
1761916109954960000,2.8339599609375,-0.0013409015955403447,0.0014506238512694836,0.010806042701005936
1761916109965014800,2.844014892578125,-0.0010908307740464807,0.0011707255616784096,0.011944809928536415
1761916109975069700,2.854069580078125,0.0018106831703335047,-0.0009584716754034162,0.010961837135255337
1761916109985126000,2.8641259765625,-0.0006511429091915488,-0.0007057376787997782,0.011622034944593906
1761916109995180800,2.874180908203125,0.0002282329078298062,0.0016250609187409282,0.010144779458642006
1761916110005236000,2.884236083984375,0.0002798982313834131,0.0030426615849137306,0.009972206316888332
1761916110015290600,2.89429052734375,-0.0007360977469943464,0.002695119008421898,0.014813833869993687
1761916110025346800,2.904346923828125,0.00019707392493728548,-0.004569718148559332,0.011544004082679749
1761916110035401700,2.914401611328125,-0.0018927085911855102,-0.0011797803454101086,0.011169563978910446
1761916110045457000,2.924456787109375,-0.004157194402068853,0.0005118595436215401,0.011724832467734814
1761916110055511800,2.93451171875,-0.0001613875647308305,-0.0001978728687390685,0.011741344816982746
1761916110065567700,2.944567626953125,-0.0002817624481394887,-0.0037321539130061865,0.013746971264481544
1761916110075623000,2.954622802734375,-0.0007656587986275554,-0.00016591492749284953,0.01435284037142992
1761916110085677800,2.964677734375,-0.002055427758023143,0.001979261403903365,0.01130884699523449
1761916110095732700,2.974732666015625,-0.0025217472575604916,0.001683650421909988,0.010745055973529816
1761916110105788700,2.98478857421875,-0.001059139147400856,-0.0030005834996700287,0.00942146498709917
1761916110115843800,2.99484375,0.0017235978739336133,-0.000036485307646216825,0.010861702263355255
1761916110125898800,3.004898681640625,0.0009797769598662853,-0.0014138722326606512,0.013035907410085201
1761916110135954000,3.014953857421875,-0.00048629322554916143,-0.0025752766523510218,0.009267001412808895
1761916110146009600,3.025009521484375,-0.0016876452136784792,-0.00007270430069183931,0.010011888109147549
1761916110156064800,3.035064697265625,-0.001603489276021719,0.00004394215648062527,0.009898969903588295
1761916110166120000,3.045119873046875,0.0006788397440686822,0.001401089015416801,0.009618006646633148
1761916110176174800,3.0551748046875,-0.0002884203568100929,-0.00008602010348113254,0.010609234683215618
1761916110186230800,3.065230712890625,-0.0020333235152065754,0.0004189152386970818,0.012359198182821274
1761916110196285700,3.07528564453125,-0.0006644586683250964,-0.001461010193452239,0.011172759346663952
1761916110206340900,3.0853408203125,0.0012977584265172482,0.002469016704708338,0.00996022205799818
1761916110216395800,3.095395751953125,-0.00010972223390126601,0.0032109732273966074,0.012207397259771824
1761916110226452000,3.105451904296875,0.0007898935582488775,-0.0021824603900313377,0.012236426584422588
1761916110236506600,3.115506591796875,-0.0004207794554531574,-0.0040735709480941296,0.013598100282251835
1761916110246561800,3.125561767578125,0.00037044569035060704,-0.0005510080372914672,0.012041216716170311
1761916110256616700,3.13561669921875,-0.00045540055725723505,0.001038366463035345,0.014985607005655766
1761916110266673000,3.1456728515625,-0.000916393706575036,0.00028868665685877204,0.013896108604967594
1761916110276727800,3.155727783203125,-0.0008921589469537139,-0.003961452282965183,0.010780476033687592
1761916110286782700,3.16578271484375,-0.0001280980504816398,-0.0014415690675377846,0.012076104059815407
1761916110296838700,3.175838623046875,-0.0008878979133442044,-0.0008849684381857514,0.012209794484078884
1761916110306893800,3.185893798828125,-0.0024823325220495462,0.003492735791951418,0.010552509687840939
1761916110316949000,3.195948974609375,-0.00015206649550236762,-0.00028043086058460176,0.010787933133542538
1761916110327003600,3.206003662109375,-0.0030037793330848217,-0.0010626012226566672,0.012380236759781837
1761916110337059800,3.216059814453125,0.0006876281695440412,-0.002781671704724431,0.011871307156980038
1761916110347114800,3.22611474609375,0.001371794263832271,0.0010751180816441774,0.011930429376661777
1761916110357170000,3.236169921875,0.0018170748371630907,0.0015219965716823936,0.011236143298447132
1761916110367224600,3.246224609375,-0.0006982808117754757,0.000964064325671643,0.010382600128650665
1761916110377280800,3.25628076171875,-0.001832521171309054,-0.0027174896094948053,0.012821788899600506
1761916110387335700,3.266335693359375,-0.0016753945965319872,0.00021731393644586205,0.010882741771638393
1761916110397390800,3.276390869140625,-0.002243446884676814,0.0008399609941989183,0.010574080981314182
1761916110407446000,3.286446044921875,-0.0003587277897167951,0.000428502622526139,0.012458533979952335
1761916110417501700,3.296501708984375,-0.0019225359428673983,0.0005012069013901055,0.013028983026742935
1761916110427556900,3.306556884765625,-0.0012042814632877707,0.0005779059720225632,0.013485448434948921
1761916110437611800,3.31661181640625,-0.0014000238152220845,-0.0012101404136046767,0.010435064323246479
1761916110447667000,3.3266669921875,-0.0011880361707881093,-0.0020964404102414846,0.010657704435288906
1761916110457723000,3.336722900390625,0.0006173207075335085,-0.0003451456723269075,0.010821222327649593
1761916110467777800,3.34677783203125,0.0006836334359832108,-0.0009179916232824326,0.01152722630649805
1761916110477832700,3.356832763671875,-0.00017656758427619934,0.0014090784825384617,0.01104279700666666
1761916110487888000,3.366887939453125,-0.00014460964302998036,-0.0011523497523739934,0.009815080091357231
1761916110497943800,3.37694384765625,0.0005664543714374304,-0.0018018947448581457,0.008358065038919449
1761916110507998700,3.386998779296875,-0.0011954930378124118,-0.002213619416579604,0.013058011420071125
1761916110518054000,3.397053955078125,-0.000007723167072981596,-0.0002436792419757694,0.010511763393878937
1761916110528108800,3.40710888671875,-0.0008431567694060504,0.0006327670416794717,0.009347694925963879
1761916110538164700,3.417164794921875,-0.0004564658156596124,0.002579537918791175,0.01326706912368536
1761916110548219600,3.4272197265625,-0.0014985607704147696,0.0011736550368368626,0.007715444080531597
1761916110558274800,3.43727490234375,0.0002796319022309035,-0.00031372037483379245,0.009614543989300728
1761916110568330800,3.447330810546875,0.0019166769925504923,-0.002168878447264433,0.010939466767013073
1761916110578386000,3.457385986328125,-0.0003802994033321738,-0.000045806369598722085,0.013279053382575512
1761916110588440600,3.467440673828125,0.0004881574132014066,-0.00048416267964057624,0.011489675380289555
1761916110598495700,3.477495849609375,0.00017177389236167073,-0.001517735538072884,0.011906460858881474
1761916110608551700,3.4875517578125,-0.0011270497925579548,0.0002777676854748279,0.010830809362232685
1761916110618606800,3.49760693359375,0.00044794369023293257,0.0010133327450603247,0.011501659639179707
1761916110628661800,3.507661865234375,-0.00011531487689353526,-0.0007302387384697795,0.010803645476698875
1761916110638716700,3.517716552734375,-0.001047687605023384,-0.0005201153689995408,0.009727994911372662
1761916110648772600,3.527772705078125,0.001776062068529427,-0.003695935010910034,0.011256116442382336
1761916110658827800,3.537827880859375,-0.001279116258956492,-0.000952080066781491,0.012170379981398582
1761916110668883000,3.547883056640625,-0.0018229337874799967,0.000010918960470007733,0.012261193245649338
1761916110678937600,3.5579375,-0.0005906891310587525,-0.0030330740846693516,0.012375176884233952
1761916110688993800,3.567993896484375,-0.00159443449229002,-0.005847236607223749,0.012197277508676052
1761916110699048700,3.578048583984375,-0.001976331928744912,-0.000431432097684592,0.010207629762589931
1761916110709103900,3.588103759765625,-0.001555552356876433,0.0015033544041216373,0.01014105137437582
1761916110719158500,3.598158447265625,-0.0021134845446795225,0.00039867521263659,0.011078217066824436
1761916110729214700,3.608214599609375,-0.0017339842161163688,-0.0016231966437771916,0.013411679305136204
1761916110739269600,3.61826953125,-0.0004948153509758413,-0.002344913315027952,0.012616725638508797
1761916110749324800,3.62832470703125,0.0005041363765485585,0.00039068571641109884,0.011200989596545696
1761916110759380700,3.638380615234375,-0.0022021678742021322,-0.004700479097664356,0.008106661960482597
1761916110769435600,3.648435546875,0.00046365635353140533,-0.0029441246297210455,0.009945575147867203
1761916110779490800,3.65849072265625,-0.0012420982820913196,-0.0003635214816313237,0.012528841383755207
1761916110789545700,3.668545654296875,-0.0013768542557954788,0.0005392901366576552,0.008211856707930565
1761916110799602000,3.678601806640625,-0.001207743538543582,-0.0001358212175546214,0.012522982433438301
1761916110809656800,3.68865673828125,0.000568052229937166,-0.000821318884845823,0.013323795050382614
1761916110819711700,3.698711669921875,-0.0007861651247367263,0.00017736652807798237,0.013879862613976002
1761916110829766700,3.7087666015625,-0.0016879114555194974,-0.0003480751474853605,0.012337359599769115
1761916110839822800,3.71882275390625,-0.0006151901907287538,0.00012996226723771542,0.014310762286186218
1761916110849877800,3.728877685546875,0.0015627428656443954,0.0006743124104104936,0.009169530123472214
1761916110859932700,3.7389326171875,-0.0004902879591099918,0.0027148264925926924,0.011446532793343067
1761916110869987800,3.74898779296875,-0.0012253203894942999,0.002886600326746702,0.011840946972370148
1761916110880043800,3.759043701171875,-0.0006591323763132095,0.0002902845444623381,0.011054781265556812
1761916110890098700,3.7690986328125,-0.000472977408207953,0.0024256070610135794,0.011326956562697887
1761916110900153900,3.77915380859375,-0.0019113506423309445,-0.0015121428295969963,0.009889914654195309
1761916110910209500,3.78920947265625,0.0007978830835781991,0.0008902947301976383,0.009467803873121738
1761916110920264700,3.7992646484375,0.000791491474956274,0.0034269557800143957,0.009637447074055672
1761916110930320000,3.80931982421875,-0.00007084008393576369,-0.00005299690383253619,0.00923238042742014
1761916110940374800,3.819374755859375,0.0002271676348755136,0.00016644757124595344,0.011711250990629196
1761916110950431000,3.829430908203125,-0.0007667240570299327,-0.0009744506096467376,0.0085452850908041
1761916110960485600,3.839485595703125,-0.002261290093883872,-0.0007592672482132912,0.009291236288845539
1761916110970540800,3.849540771484375,-0.0005707154050469398,0.0004700479330495,0.01176025252789259
1761916110980595700,3.859595703125,0.00040772996726445854,-0.0005765743553638458,0.012367187067866325
1761916110990652000,3.86965185546875,-0.00041305628838017583,0.004246144089847803,0.011752796359360218
1761916111000706600,3.87970654296875,-0.0005211806274019182,-0.000297475082334131,0.009865679778158665
1761916111010761700,3.88976171875,0.00034914040588773787,-0.003635214874520898,0.011582620441913605
1761916111020817000,3.89981689453125,0.0006711165769957006,-0.0009408948244526982,0.010684335604310036
1761916111030872800,3.909872802734375,-0.001017061178572476,0.0012599414912983775,0.011099256575107574
1761916111040927700,3.919927734375,-0.0032764871139079332,0.0009446232579648495,0.011200456880033016
1761916111050982700,3.929982666015625,0.0013670006301254034,0.0007368966471403837,0.01179114542901516
1761916111061038800,3.940038818359375,-0.00013209278404247016,0.00035366779775358737,0.011449728161096573
1761916111071093800,3.95009375,-0.0007749798824079335,-0.0021614215802401304,0.010693390853703022
1761916111081149000,3.96014892578125,-0.0001430117554264143,0.000672448193654418,0.010815896093845367
1761916111091203600,3.97020361328125,-0.0009901633020490408,0.003704457078129053,0.012714729644358158
1761916111101259800,3.980259765625,0.00038056570338085294,-0.00023382554354611784,0.011353855021297932
1761916111111314700,3.990314697265625,0.001136637176387012,0.0008423578692600131,0.011038269847631454
1761916111121369900,4.000369873046875,-0.0026109630707651377,0.0014415690675377846,0.01299462839961052
1761916111131424800,4.0104248046875,0.001716939965263009,0.0010010822443291545,0.010528807528316975
1761916111141478000,4.020477783203125,0.0005757753970101476,0.002537992550060153,0.012547483667731285
1761916111151532500,4.030532470703125,0.00264851376414299,-0.00048123320448212326,0.014051370322704315
1761916111161588700,4.040588623046875,0.00021065604232717305,0.0007547398563474417,0.009721869602799416
1761916111171643600,4.0506435546875,-0.0011265170760452747,0.0011520835105329752,0.010965566150844097
1761916111181698800,4.06069873046875,0.0006162554491311312,0.0015270565636456013,0.011590342968702316
1761916111191754000,4.07075390625,-0.0007283745799213648,-0.001246625673957169,0.01224361639469862
1761916111201809700,4.0808095703125,0.00006870955257909372,-0.0002665824140422046,0.014825019054114819
1761916111211864800,4.09086474609375,-0.0016548882704228163,-0.004342017695307732,0.013369068503379822
1761916111221919700,4.100919677734375,-0.0003880225704051554,-0.004061587154865265,0.008579107001423836
1761916111231975000,4.110974853515625,-0.00030599720776081085,0.008043012581765652,0.008261125534772873
1761916111242030800,4.12103076171875,-0.0007877630414441228,0.003992877434939146,0.014177338220179081
1761916111252085800,4.131085693359375,0.0011182613670825958,0.0012966931099072099,0.01353658176958561
1761916111262140700,4.141140625,0.0011906992876902223,-0.007656588219106197,0.008423312567174435
1761916111272195800,4.15119580078125,-0.000559530162718147,0.0011020160745829344,0.011563711799681187
1761916111282251800,4.161251708984375,-0.0016341155860573053,0.005567604675889015,0.013968279585242271
1761916111292306700,4.171306640625,-0.0024530377704650164,0.0014895059866830707,0.011641476303339005
1761916111302361600,4.181361572265625,0.0009299758239649236,-0.008842759765684605,0.010129067115485668
1761916111312417800,4.191417724609375,0.00022929816623218358,-0.0008886968716979027,0.009571134112775326
1761916111322472700,4.20147265625,0.0008812400046736002,0.0024282701779156923,0.011611116118729115
1761916111332527900,4.21152783203125,-0.0010604707058519125,0.0032740901224315166,0.010775416158139706
1761916111342582800,4.221582763671875,-0.001538241864182055,-0.00379021093249321,0.008756473660469055
1761916111352638700,4.231638671875,-0.0014021543320268393,-0.0037033918779343367,0.010643322952091694
1761916111362694000,4.24169384765625,0.0006322344415821135,0.004792624618858099,0.012832441367208958
1761916111372748800,4.251748779296875,-0.0007731156656518579,0.0032344090286642313,0.011772769503295422
1761916111382805000,4.261804931640625,-0.00040027310024015605,-0.0002772350562736392,0.01053093746304512
1761916111392859600,4.271859619140625,-0.0007446198142133653,-0.001913481275551021,0.00993252545595169
1761916111402914800,4.281914794921875,0.0003153182624373585,0.0010120011866092682,0.013970410451292992
1761916111412969700,4.2919697265625,-0.00007430219557136297,0.002267681760713458,0.010305101983249187
1761916111423026000,4.30202587890625,0.0006894923863001168,-0.00008175904804375023,0.01082867942750454
1761916111433080600,4.31208056640625,0.001996838254854083,-0.0034117756877094507,0.010617224499583244
1761916111443135700,4.3221357421875,0.0020479708909988403,-0.0019403791520744562,0.011172759346663952
1761916111453191000,4.33219091796875,-0.003841343568637967,0.0015358449891209602,0.011483550071716309
1761916111463246800,4.342246826171875,0.0003944141499232501,0.00481472909450531,0.01167663000524044
1761916111473301800,4.3523017578125,-0.001151018193922937,-0.002409095410257578,0.011451059952378273
1761916111483356700,4.362356689453125,0.00010120012302650139,-0.002629871480166912,0.011243865825235844
1761916111493412600,4.37241259765625,-0.00021411814668681473,0.000107858024421148,0.010863300412893295
1761916111503467800,4.3824677734375,-0.0011432950850576162,0.0026410568971186876,0.010496050119400024
1761916111513523000,4.39252294921875,0.0003787015157286078,-0.003979561384767294,0.008331699296832085
1761916111523577600,4.40257763671875,-0.0010668623726814985,-0.0007278419216163456,0.011231881566345692
1761916111533633800,4.4126337890625,0.0009914948605000973,-0.00022130868455860764,0.009973538108170033
1761916111543688700,4.422688720703125,0.0010929612908512354,0.0011089402250945568,0.011125621385872364
1761916111553744000,4.432743896484375,-0.0005510080372914672,0.0012351741315796971,0.0120702451094985
1761916111563798800,4.442798828125,-0.0007906925166025758,-0.0004868258547503501,0.011127485893666744
1761916111573854700,4.452854736328125,-0.00034914040588773787,-0.001728657865896821,0.013279586099088192
1761916111583909600,4.46290966796875,-0.0023347933311015368,-0.0008298410102725029,0.012203136458992958
1761916111593964800,4.47296484375,-0.0008474178612232208,-0.0012088088551536202,0.012682505883276463
1761916111604020700,4.483020751953125,-0.0006354302167892456,0.0008551410282962024,0.011030546389520168
1761916111614076000,4.493075927734375,0.0013691311469301581,-0.0014961638953536749,0.011722169816493988
1761916111624130800,4.503130859375,-0.0012487561907619238,0.0014801849611103535,0.01249022502452135
1761916111634185700,4.513185791015625,0.0025561018846929073,-0.0005320995696820319,0.011698734015226364
1761916111644242000,4.523241943359375,-0.0020301276817917824,0.0010013486025854945,0.011892079375684261
1761916111654296800,4.533296875,-0.0005725796218030155,-0.0015454323729500175,0.011783688329160213
1761916111664351700,4.543351806640625,-0.001711081014946103,-0.00256409146822989,0.00827737059444189
1761916111674406700,4.55340673828125,0.001748897833749652,0.0005515406373888254,0.011913117952644825
1761916111684462800,4.563462890625,0.00018269284919369966,0.0026138925459235907,0.01221618615090847
1761916111694517800,4.573517822265625,-0.002085521351546049,0.00119629199616611,0.011963185854256153
1761916111704573000,4.583572998046875,0.00029534456552937627,0.0015494271647185087,0.011981561779975891
1761916111714628600,4.593628662109375,-0.00210602767765522,-0.003703658003360033,0.010803379118442535
1761916111724683800,4.603683837890625,0.0016397082945331931,0.00046365635353140533,0.012231898494064808
1761916111734739000,4.613739013671875,0.0012953615514561534,0.002264485927298665,0.012605007737874985
1761916111744793900,4.6237939453125,-0.0011339739430695772,-0.0012916331179440022,0.010675281286239624
1761916111754849800,4.633849853515625,0.0005808354471810162,0.0009616674506105483,0.01149819791316986
1761916111764904700,4.64390478515625,-0.0013510215794667602,0.00023941817926242948,0.011578891426324844
1761916111774959900,4.6539599609375,-0.0022743395529687405,0.00028069718973711133,0.009469135664403439
1761916111785015800,4.664015869140625,-0.002004561247304082,0.0004820321628358215,0.011028416454792023
1761916111795071000,4.674071044921875,-0.000018109494703821838,-0.004008590243756771,0.011938950978219509
1761916111805125600,4.684125732421875,-0.0006194512825459242,-0.0001651159836910665,0.014100372791290283
1761916111815180800,4.694180908203125,-0.000574177538510412,0.0015430354978889227,0.013340839184820652
1761916111825236700,4.70423681640625,0.002694852650165558,-0.00006844323797849938,0.009340771473944187
1761916111835292000,4.7142919921875,0.0018245317041873932,0.0017747305100783706,0.012910472229123116
1761916111845346800,4.724346923828125,0.00030786142451688647,0.0007084008539095521,0.011744007468223572
1761916111855402800,4.73440283203125,0.0019374496769160032,-0.0007941546500660479,0.011094729416072369
1761916111865457700,4.744457763671875,0.000800279900431633,-0.00002902845517382957,0.01131204329431057
1761916111875512800,4.754512939453125,-0.0018008295446634293,-0.0034000577870756388,0.01221325621008873
1761916111885568000,4.764568115234375,0.0009153284481726587,0.0014809839194640517,0.009122392162680626
1761916111895623700,4.774623779296875,-0.0002695118892006576,0.0021108214277774096,0.011599664576351643
1761916111905678800,4.784678955078125,0.0005752427969127893,-0.0006356965750455856,0.01041349209845066
1761916111915733800,4.794733642578125,-0.000553404854144901,0.002173938322812319,0.009876066818833351
1761916111925790000,4.8047900390625,-0.0001411475386703387,-0.0014982944121584296,0.009679791517555714
1761916111935844900,4.814844970703125,-0.0015518239233642817,-0.00011771172285079956,0.01227264478802681
1761916111945899800,4.824899658203125,-0.0001102548703784123,-0.0012604740913957357,0.01227717287838459
1761916111955954700,4.83495458984375,0.0000023968450477696024,-0.001981125446036458,0.010300308465957642
1761916111966011000,4.845010986328125,-0.000041278995922766626,0.0021457087714225054,0.008732238784432411
1761916111976065800,4.855065673828125,-0.0009227853151969612,0.001537975505925715,0.012292352505028248
1761916111986120700,4.86512060546875,-0.0007776430575177073,0.00021252025908324867,0.010379936546087265
1761916111996176600,4.8751767578125,-0.0013294500531628728,0.001612277701497078,0.013734987005591393
1761916112006231800,4.885231689453125,-0.001449025934562087,0.0015534218400716782,0.010674482211470604
1761916112016287000,4.895286865234375,-0.0003097256412729621,0.0007866977830417454,0.01333098579198122
1761916112026342000,4.905341796875,-0.0016298545524477959,0.0008961536805145442,0.013221262954175472
1761916112036397600,4.9153974609375,0.0009488842915743589,-0.0009976201690733433,0.010453440248966217
1761916112046452700,4.92545263671875,-0.0008122641011141241,0.0013518205378204584,0.010176205076277256
1761916112056508000,4.9355078125,0.0024229439441114664,0.001773398951627314,0.013836453668773174
1761916112066562800,4.945562744140625,0.0012599414912983775,0.0007342335302382708,0.011636681854724884
1761916112076619000,4.955618896484375,-0.0005089300684630871,0.0017398431664332747,0.0112236263230443
1761916112086673700,4.965673583984375,-0.0006330333999358118,0.0009624664089642465,0.014278538525104523
1761916112096728800,4.975728759765625,0.00008229167724493891,0.0024860608391463757,0.012148275971412659
1761916112106784800,4.98578466796875,0.0009235842735506594,0.0018343853298574686,0.01401595026254654
1761916112116840000,4.99583984375,0.00006924218905624002,-0.0010301107540726662,0.011404454708099365
1761916112126894600,5.00589453125,0.001249821507371962,-0.0018847191240638494,0.009309878572821617
1761916112136949800,5.01594970703125,-0.0005914880894124508,0.00023515711654908955,0.012820190750062466
1761916112147005700,5.026005615234375,0.0004844290087930858,0.0010705908061936498,0.013546168804168701
1761916112157060900,5.036060791015625,0.0014287859667092562,0.0015736619243398309,0.012540825642645359
1761916112167115800,5.04611572265625,-0.0031936627347022295,0.0008516788948327303,0.011413242667913437
1761916112177171700,5.056171630859375,-0.00029294771957211196,0.0025712819769978523,0.019598202779889107
1761916112187227000,5.066226806640625,-0.0007012102869339287,0.002432531211525202,0.010742126032710075
1761916112197281800,5.07628173828125,0.0013568805297836661,-0.010820423252880573,0.0065497783944010735
1761916112207337000,5.0863369140625,-0.0005278385360725224,-0.0019230686593800783,0.009310677647590637
1761916112217392600,5.096392578125,-0.00010972223390126601,0.012043613009154797,0.013524331152439117
1761916112227447800,5.10644775390625,-0.001189900329336524,0.0128761176019907,0.013606356456875801
1761916112237502700,5.116502685546875,0.00007909588020993397,-0.0043931505642831326,0.009759952314198017
1761916112247559000,5.126558837890625,-0.0011198592837899923,-0.012242285534739494,0.01050164271146059
1761916112257613800,5.13661376953125,0.0005842975224368274,0.0013576794881373644,0.013028450310230255
1761916112267668700,5.146668701171875,-0.0005938849062658846,0.012411662377417088,0.009671268984675407
1761916112277724000,5.156723876953125,-0.00039867521263659,-0.0027534421533346176,0.012285161763429642
1761916112287779800,5.16677978515625,0.0012892362428829074,-0.01498028077185154,0.01062041986733675
1761916112297834800,5.176834716796875,-0.0015643407823517919,0.003567037871107459,0.010233462788164616
1761916112307889700,5.1868896484375,0.0007044061203487217,0.016271647065877914,0.013227388262748718
1761916112317945600,5.196945556640625,0.0015696671325713396,0.001776062068529427,0.011597267352044582
1761916112328000800,5.207000732421875,-0.0011201255256310105,-0.014191985130310059,0.012939766980707645
1761916112338056000,5.217055908203125,-0.0016724651213735342,-0.004461593925952911,0.010260360315442085
1761916112348110800,5.22711083984375,-0.0008165251929312944,0.012085691094398499,0.011987154372036457
1761916112358166800,5.237166748046875,-0.0011443602852523327,0.0034916705917567015,0.009041165933012962
1761916112368221700,5.2472216796875,-0.002429601736366749,-0.005785717628896236,0.014436996541917324
1761916112378276900,5.25727685546875,-0.00042317630141042173,-0.007315969560295343,0.012806076556444168
1761916112388332800,5.267332763671875,-0.0006332996999844909,0.003093261504545808,0.009520001709461212
1761916112398388000,5.277387939453125,0.0017917747609317303,0.005218996666371822,0.012567723169922829
1761916112408442600,5.287442626953125,-0.0007821703911758959,-0.0023523701820522547,0.011612181551754475
1761916112418498800,5.297498779296875,0.0001853560097515583,-0.005116465035825968,0.012650014832615852
1761916112428553700,5.3075537109375,-0.0012189288390800357,-0.0026373283471912146,0.01002014335244894
1761916112438609000,5.31760888671875,-0.0005350290448404849,0.0034788872580975294,0.010846522636711597
1761916112448663800,5.327663818359375,0.00042211104300804436,0.0008820389630272985,0.013862818479537964
1761916112458719700,5.3377197265625,-0.0016106797847896814,-0.00475480780005455,0.010595918633043766
1761916112468775000,5.34777490234375,-0.00025486451340839267,-0.0014333132421597838,0.012040950357913971
1761916112478829800,5.357829833984375,-0.0012170645641162992,-0.001189900329336524,0.010629741474986076
1761916112488885800,5.3678857421875,0.00033396040089428425,0.002442651428282261,0.012885970994830132
1761916112498940700,5.377940673828125,-0.00007456851017195731,-0.0022021678742021322,0.010612696409225464
1761916112508995800,5.387995849609375,0.0003057308786083013,-0.0036970002111047506,0.01185266487300396
1761916112519050800,5.39805078125,-0.0011201255256310105,0.0008612662786617875,0.011752263642847538
1761916112529107000,5.40810693359375,0.0008942894637584686,0.002406698651611805,0.007106112781912088
1761916112539161600,5.41816162109375,-0.002691923175007105,-0.0006562029011547565,0.013377058319747448
1761916112549217500,5.428217529296875,-0.0011715245200321078,-0.0010013486025854945,0.014754978008568287
1761916112559273500,5.4382734375,-0.001085770782083273,-0.0009262474486604333,0.01158688124269247
1761916112569328400,5.448328369140625,-0.0006295712664723396,-0.0015472965314984322,0.009780725464224815
1761916112579383300,5.45838330078125,-0.001526523963548243,0.002267681760713458,0.013294500298798084
1761916112589439500,5.468439453125,-0.0001579254458192736,-0.0014919028617441654,0.010641459375619888
1761916112599494400,5.478494384765625,-0.00018881811411119998,0.0007004113867878914,0.010344250127673149
1761916112609549300,5.48854931640625,-0.0008221178431995213,-0.0003885551996063441,0.008279767818748951
1761916112619604200,5.498604248046875,-0.0019238675013184547,0.003340935567393899,0.014116351492702961
1761916112629660400,5.508660400390625,-0.0008516788948327303,0.003284476464614272,0.010487794876098633
1761916112639715300,5.51871533203125,0.0004444815858732909,-0.0028674255590885878,0.010734936222434044
1761916112649770500,5.5287705078125,-0.000437291048001498,0.002686863299459219,0.009863283485174179
1761916112659826200,5.538826171875,-0.001458080718293786,0.0030216225422918797,0.010118680074810982
1761916112669881300,5.54888134765625,0.003055444685742259,0.0014849785948172212,0.011070228181779385
1761916112679936500,5.5589365234375,-0.001585646066814661,-0.0030631679110229015,0.010145578533411026
1761916112689991400,5.568991455078125,0.001107076066546142,-0.0000798948312876746,0.011867844499647617
1761916112700047600,5.579047607421875,0.000287088769255206,0.0026146916206926107,0.011913384310901165
1761916112710102300,5.589102294921875,-0.001050617080181837,0.003203782718628645,0.013097159564495087
1761916112720157400,5.599157470703125,-0.0024343954864889383,-0.006638994440436363,0.01062121894210577
1761916112730213400,5.60921337890625,0.00010040117194876075,-0.0033305492252111435,0.012046542949974537
1761916112740268500,5.6192685546875,-0.0002263686910737306,0.001746234716847539,0.012419119477272034
1761916112750323200,5.6293232421875,-0.00162399560213089,0.0034075146540999413,0.012662265449762344
1761916112760379400,5.63937939453125,0.001449292292818427,-0.0011523497523739934,0.013524597510695457
1761916112770434300,5.649434326171875,-0.0005446164286695421,-0.002118811011314392,0.012240687385201454
1761916112780489500,5.659489501953125,-0.0007488809060305357,0.004270378965884447,0.012263057753443718
1761916112790544400,5.66954443359375,-0.0017097494564950466,0.0057588196359574795,0.010219880379736423
1761916112800600300,5.679600341796875,-0.003724963404238224,-0.0013254552613943815,0.011537612415850163
1761916112810655200,5.6896552734375,0.00017896443023346364,-0.004959338344633579,0.011574364267289639
1761916112820710400,5.69971044921875,0.0028091021813452244,0.00018881811411119998,0.011412444524466991
1761916112830766300,5.709766357421875,-0.00032197617110796273,0.005357214715331793,0.012023373506963253
1761916112840821200,5.7198212890625,0.0005667206714861095,-0.002694586291909218,0.012101669795811176
1761916112850876400,5.72987646484375,0.0023917849175632,-0.005312207154929638,0.012144546955823898
1761916112860932400,5.739932373046875,-0.00410526292398572,-0.0041494714096188545,0.011842544190585613
1761916112870987500,5.749987548828125,-0.0008535431115888059,0.0036666402593255043,0.012592757120728493
1761916112881042400,5.76004248046875,0.0010567422723397613,-0.00025592977181077003,0.011426292359828949
1761916112891097300,5.770097412109375,-0.0029353362042456865,0.0009166600648313761,0.010990066453814507
1761916112901153300,5.7801533203125,-0.0024770060554146767,-0.0037707698065787554,0.010440124198794365
1761916112911208400,5.79020849609375,0.00034168356796726584,-0.0013435647124424577,0.010792726650834084
1761916112921263400,5.800263427734375,-0.0005696501466445625,0.0003376888344064355,0.009526393376290798
1761916112931319600,5.810319580078125,0.0006194512825459242,0.001722798915579915,0.013075321912765503
1761916112941374200,5.820374267578125,-0.0002133192028850317,-0.0014325142838060856,0.010522948578000069
1761916112951429400,5.830429443359375,-0.0020684772171080112,-0.0013342436868697405,0.009286442771553993
1761916112961485300,5.8404853515625,0.0005336974863894284,0.0033787523861974478,0.01423246506601572
1761916112971540500,5.85054052734375,-0.0008088020258583128,0.0008053398923948407,0.01107582077383995
1761916112981595400,5.860595458984375,-0.0004700479330495,-0.0024799355305731297,0.009678193368017673
1761916112991650300,5.870650390625,0.0003427488263696432,-0.0034322820138186216,0.011060373857617378
1761916113001706200,5.880706298828125,0.00021518341964110732,0.004266916774213314,0.012979447841644287
1761916113011761400,5.890761474609375,0.0005909554311074317,0.0018852517241612077,0.011532818898558617
1761916113021816600,5.900816650390625,0.00021385183208622038,-0.0014588796766474843,0.011053716763854027
1761916113031872300,5.910872314453125,-0.001561944023706019,-0.0014839133946225047,0.011355984956026077
1761916113041927400,5.920927490234375,-0.0011906992876902223,0.001110005541704595,0.010397513397037983
1761916113051982300,5.930982421875,0.0005464806454256177,0.0028522454667836428,0.012895026244223118
1761916113062038500,5.94103857421875,0.0010868359822779894,0.0010721886064857244,0.012181831523776054
1761916113072093400,5.951093505859375,0.00148151651956141,-0.0018018947448581457,0.012266785837709904
1761916113082148400,5.9611484375,-0.00036751621519215405,0.0012154667638242245,0.013403156772255898
1761916113092203300,5.971203369140625,-0.0021528995130211115,-0.00042344260145910084,0.00959723349660635
1761916113102259500,5.981259521484375,-0.00019973708549514413,0.0010050770360976458,0.011406851932406425
1761916113112314400,5.991314453125,0.0004628573951777071,0.0007563377148471773,0.010907508432865143
1761916113122369300,6.001369384765625,0.002189384773373604,0.00033342777169309556,0.010672351345419884
1761916113132425200,6.01142529296875,-0.0013976269401609898,0.0006644586683250964,0.012227371335029602
1761916113142480400,6.02148046875,0.00054142065346241,-0.0003230414295103401,0.012465991079807281
1761916113152535600,6.03153564453125,-0.000008255799002654385,-0.002635996788740158,0.01344576757401228
1761916113162591500,6.041591552734375,-0.0018434401135891676,0.0007243797881528735,0.013522999361157417
1761916113172646400,6.051646484375,0.0006538060260936618,0.0010042780777439475,0.008299741894006729
1761916113182701300,6.061701416015625,-0.001201618229970336,0.0015550197567790747,0.010716826654970646
1761916113192756500,6.071756591796875,-0.0009363674325868487,-0.002900714986026287,0.012223110534250736
1761916113202812400,6.0818125,-0.0010615360224619508,0.0008724515791982412,0.009797769598662853
1761916113212867600,6.09186767578125,0.0013028184184804559,-0.00008442220860160887,0.010991664603352547
1761916113222922200,6.101922119140625,-0.0005270395777188241,0.000050866376113845035,0.011871573515236378
1761916113232978400,6.111978515625,0.0005872269975952804,-0.000874582096002996,0.00896872766315937
1761916113243033300,6.122033447265625,-0.0010373012628406286,0.0011885687708854675,0.012110725045204163
1761916113253088500,6.132088623046875,-0.0022309301421046257,0.0065380604937672615,0.009463543072342873
1761916113263144400,6.14214453125,0.001210406655445695,0.0013198626693338156,0.010432933457195759
1761916113273199400,6.152199462890625,-0.0006013417732901871,-0.002109756227582693,0.013137639500200748
1761916113283254300,6.162254150390625,0.0010812433902174234,-0.00019121496006846428,0.010493920184671879
1761916113293309400,6.172309326171875,-0.0007624630234204233,0.002398176584392786,0.012400477193295956
1761916113303365400,6.182365478515625,-0.0010538127971813083,0.0027113643009215593,0.010235327295958996
1761916113313420300,6.192420166015625,-0.0016913736471906304,0.0008692557457834482,0.01540771871805191
1761916113323475500,6.202475341796875,-0.00006444849714171141,0.0009384979493916035,0.012804744765162468
1761916113333531400,6.212531494140625,-0.0010008158860728145,0.003376089269295335,0.013041766360402107
1761916113343586600,6.222586669921875,-0.00029587719473056495,-0.00028096348978579044,0.01050403993576765
1761916113353641200,6.23264111328125,-0.00006151902198325843,-0.000008255799002654385,0.012867595069110394
1761916113363697400,6.242697509765625,0.0010479538468644023,-0.0012876383261755109,0.009455020539462566
1761916113373752300,6.25275244140625,0.0006298375665210187,-0.00105328019708395,0.011385546065866947
1761916113383807500,6.262807373046875,-0.0008362325606867671,0.0023430490400642157,0.011574896983802319
1761916113393862400,6.2728623046875,-0.000669518718495965,0.0008788431296125054,0.011781558394432068
1761916113403918300,6.28291845703125,0.0005395564367063344,0.00024048343766480684,0.01290168333798647
1761916113413973200,6.29297314453125,0.0007054713787510991,-0.0011739213950932026,0.010403372347354889
1761916113424028400,6.3030283203125,-0.002100168727338314,0.0007957525085657835,0.013235644437372684
1761916113434084400,6.31308447265625,0.0014556838432326913,-0.0013584784464910626,0.010878480039536953
1761916113444139500,6.323139404296875,0.0005805690889246762,0.00032437301706522703,0.011420966126024723
1761916113454194400,6.3331943359375,0.00023222764139063656,-0.0024559672456234694,0.012202870100736618
1761916113464250400,6.34325048828125,0.00133903743699193,0.0017955031944438815,0.01287798210978508
1761916113474305300,6.35330517578125,-0.00003914846820407547,0.0005691175465472043,0.012011389248073101
1761916113484360400,6.3633603515625,0.00045859633246436715,-0.0024045680183917284,0.009216668084263802
1761916113494416400,6.37341650390625,-0.003023486817255616,0.0018977685831487179,0.011118963360786438
1761916113504471300,6.38347119140625,-0.0006956176948733628,0.00015180018090177327,0.012170912697911263
1761916113514526500,6.3935263671875,0.00039840888348408043,0.0009108011145144701,0.009488577023148537
1761916113524581400,6.403581298828125,0.0010631339391693473,-0.0010863033821806312,0.010805243626236916
1761916113534637600,6.413637451171875,-0.0014511564513668418,-0.000365918327588588,0.010896855965256691
1761916113544692200,6.423692138671875,-0.0013289173366501927,-0.0000881506348378025,0.010527475737035275
1761916113554747600,6.43374755859375,0.0017030915478244424,-0.0012538161827251315,0.010209227912127972
1761916113564803600,6.443803466796875,-0.00039840888348408043,0.0008048072922974825,0.011352256871759892
1761916113574858800,6.453858642578125,-0.0006327670416794717,-0.0009717874927446246,0.011002317070960999
1761916113584913400,6.463913330078125,0.0006538060260936618,-0.0018216022290289402,0.012413525953888893
1761916113594969600,6.473969482421875,-0.0009329052991233766,-0.0006697850185446441,0.012665461748838425
1761916113605024500,6.4840244140625,-0.001312405802309513,0.0008194546680897474,0.013050554320216179
1761916113615079700,6.49407958984375,0.001255946815945208,-0.000574177538510412,0.007786017842590809
1761916113625135600,6.504135498046875,-0.0012367720482870936,-0.0015606123488396406,0.010755442082881927
1761916113635190500,6.5141904296875,-0.000859934720210731,0.002532399957999587,0.011590342968702316
1761916113645245400,6.524245361328125,-0.0024000408593565226,-0.0011017497163265944,0.010103766806423664
1761916113655301600,6.534301513671875,-0.000574177538510412,0.000031425301131093875,0.012537895701825619
1761916113665356500,6.5443564453125,-0.0008833705214783549,0.0002348908019484952,0.011753062717616558
1761916113675411500,6.554411376953125,-0.002225870033726096,-0.0021318604703992605,0.011831092648208141
1761916113685467400,6.56446728515625,0.00008708536915946752,0.002139050979167223,0.011326157487928867
1761916113695522600,6.5745224609375,0.00000958738019107841,-0.0007520766812376678,0.012141351588070393
1761916113705577700,6.58457763671875,0.0003539340978022665,0.0008370315190404654,0.012225240468978882
1761916113715632400,6.59463232421875,-0.001374723738990724,0.001945439144037664,0.012836968526244164
1761916113725688600,6.6046884765625,-0.0023723437916487455,-0.0013315805699676275,0.010060889646410942
1761916113735743500,6.614743408203125,-0.0007390272221527994,-0.0014421016676351428,0.010577542707324028
1761916113745798700,6.624798583984375,-0.0015456987312063575,-0.0015504923649132252,0.011068630032241344
1761916113755854600,6.6348544921875,-0.0006942860782146454,-0.0033483924344182014,0.011196994222700596
1761916113765909500,6.644909423828125,-0.0009235842735506594,0.0011757856700569391,0.009167132899165154
1761916113775964400,6.65496435546875,0.00023568976030219346,-0.00027031084755435586,0.009770605713129044
1761916113786020600,6.6650205078125,0.0002846919232979417,-0.004245877731591463,0.012721920385956764
1761916113796075500,6.675075439453125,-0.002484196564182639,-0.0008346347021870315,0.01329982653260231
1761916113806130700,6.685130615234375,-0.0024021712597459555,0.0012367720482870936,0.012473447248339653
1761916113816186600,6.6951865234375,0.000023169501218944788,0.0015659386990591884,0.009015332907438278
1761916113826241500,6.705241455078125,-0.0030099046416580677,-0.0021979068405926228,0.011945609003305435
1761916113836296400,6.71529638671875,0.0014482269762083888,0.001740109408274293,0.00959590170532465
1761916113846352600,6.7253525390625,-0.0018551580142229795,0.0035441347863525152,0.011570902541279793
1761916113856407600,6.735407470703125,-0.0016674051294103265,0.004465588368475437,0.01079698745161295
1761916113866462500,6.74546240234375,-0.001291100517846644,0.00021118867152836174,0.009988185949623585
1761916113876518400,6.755518310546875,0.00025779398856684566,0.00007376955909421667,0.00950775109231472
1761916113886573600,6.765573486328125,-0.0020455741323530674,-0.0011515507940202951,0.009588711895048618
1761916113896628700,6.775628662109375,-0.00019520970818120986,-0.001978195970878005,0.012507003732025623
1761916113906684700,6.7856845703125,0.0011491540353745222,0.0014362427173182368,0.010280068032443523
1761916113916739600,6.795739501953125,-0.0012743226252496243,0.000060986389144090936,0.01110484916716814
1761916113926794500,6.80579443359375,0.0015214639715850353,-0.0008045409340411425,0.013309946283698082
1761916113936850400,6.815850341796875,-0.0008197209681384265,-0.00011664645717246458,0.010877414606511593
1761916113946905600,6.825905517578125,-0.0008309062686748803,-0.00029640982393175364,0.0078531289473176
1761916113956960500,6.83596044921875,-0.000037017940485384315,-0.0035020567011088133,0.014579741284251213
1761916113967016400,6.846016357421875,0.0005110605852678418,-0.0009451558580622077,0.013139504007995129
1761916113977071600,6.856071533203125,-0.0004966795677319169,-0.0024980450980365276,0.009162605740129948
1761916113987126500,6.86612646484375,0.000690291344653815,0.0001968075957847759,0.010552776046097279
1761916113997182700,6.8761826171875,-0.003180346917361021,-0.0024972460232675076,0.009912551380693913
1761916114007237400,6.8862373046875,-0.0006681871018372476,-0.003524960018694401,0.011316037736833096
1761916114017292500,6.89629248046875,-0.0013334447285160422,-0.0025923210196197033,0.010763431899249554
1761916114027348500,6.906348388671875,-0.0018615495646372437,-0.0023422501981258392,0.010840930044651031
1761916114037403600,6.916403564453125,-0.001350755337625742,-0.0008948221220634878,0.012140286155045033
1761916114047458600,6.92645849609375,-0.000055660068028373644,0.0037502634804695845,0.011520035564899445
1761916114057514800,6.9365146484375,0.0004697816038969904,0.003644269658252597,0.012269982136785984
1761916114067569400,6.9465693359375,-0.0014314490836113691,-0.00033103092573583126,0.010063020512461662
1761916114077624600,6.95662451171875,-0.0006849650526419282,-0.002255431143566966,0.011292868293821812
1761916114087680500,6.966680419921875,-0.000013848437447450124,0.000028762138754245825,0.011122958734631538
1761916114097735700,6.976735595703125,-0.00036432043998502195,0.0024895230308175087,0.013159211724996567
1761916114107790600,6.98679052734375,0.0016460998449474573,-0.0013004215434193611,0.011718441732227802
1761916114117846500,6.996846435546875,-0.0009779128013178706,0.0000798948312876746,0.010772752575576305
1761916114127901400,7.0069013671875,-0.001788312685675919,0.0013768542557954788,0.010447581298649311
1761916114137956600,7.01695654296875,-0.0006269080913625658,0.0015065502375364304,0.014435931108891964
1761916114148012500,7.027012451171875,-0.002141447737812996,0.0006743124104104936,0.011611116118729115
1761916114158067500,7.0370673828125,-0.0001882854849100113,0.0006841660942882299,0.009900568053126335
1761916114168122600,7.04712255859375,-0.0004828310920856893,-0.0002924150903709233,0.010506702587008476
1761916114178178600,7.057178466796875,-0.0014620753936469555,0.0002711098059080541,0.011030546389520168
1761916114188233700,7.067233642578125,0.0010365023044869304,0.0024775387719273567,0.011937352828681469
1761916114198288400,7.077288330078125,0.0012767193838953972,-0.00026551715563982725,0.011296063661575317
1761916114208344600,7.087344482421875,-0.0022770026698708534,-0.002627741079777479,0.012585566379129887
1761916114218399500,7.0973994140625,-0.00008229167724493891,0.00016351809608750045,0.011874236166477203
1761916114228454700,7.10745458984375,-0.00011851066665258259,0.0007808388327248394,0.011270231567323208
1761916114238510600,7.117510498046875,-0.0019795275293290615,0.0015374429058283567,0.010693657211959362
1761916114248565500,7.1275654296875,-0.0009049421059899032,-0.0018354506464675069,0.010693390853703022
1761916114258620400,7.137620361328125,-0.0007222492713481188,0.002123604528605938,0.010794058442115784
1761916114268676600,7.147676513671875,0.0007909588166512549,0.0025784724857658148,0.013353622518479824
1761916114278731500,7.1577314453125,0.0008921589469537139,-0.0021291973534971476,0.01215946115553379
1761916114288786700,7.16778662109375,0.0014570154016837478,-0.0010940266074612737,0.012602077797055244
1761916114298842600,7.177842529296875,-0.0015132081462070346,-0.0020785972010344267,0.007740211207419634
1761916114308897500,7.1878974609375,-0.0007898935582488775,-0.001886050682514906,0.013261742889881134
1761916114318952400,7.197952392578125,0.00032410668791271746,-0.0017571536591276526,0.01398559007793665
1761916114329008600,7.208008544921875,0.00022317290131468326,-0.0010221211705356836,0.010335462167859077
1761916114339063600,7.2180634765625,-0.0005515406373888254,-0.0025515747256577015,0.011517639271914959
1761916114349118500,7.228118408203125,-0.001734250457957387,0.00044554684427566826,0.009301356039941311
1761916114359174400,7.23817431640625,-0.002371544949710369,0.0007776430575177073,0.010598848573863506
1761916114369229600,7.2482294921875,-0.001008805469609797,0.001255680457688868,0.010513626970350742
1761916114379284700,7.25828466796875,-0.00018349179299548268,-0.0011134676169604063,0.01210060529410839
1761916114389340700,7.268340576171875,0.00019361180602572858,-0.0019507654942572117,0.012741894461214542
1761916114399395600,7.2783955078125,0.0004993426846340299,0.0030655646696686745,0.012502209283411503
1761916114409451500,7.288451416015625,-0.002234392100945115,-0.0029286781791597605,0.013263607397675514
1761916114419506400,7.29850634765625,-0.0007155913626775146,-0.001312139444053173,0.012280634604394436
1761916114429561600,7.3085615234375,0.0002817624481394887,0.002376604825258255,0.01233416423201561
1761916114439617500,7.318617431640625,-0.002208026824519038,-0.0011648666113615036,0.010725880973041058
1761916114449672400,7.32867236328125,-0.0014085458824411035,0.0005054679932072759,0.010802580043673515
1761916114459727600,7.3387275390625,0.00020000340009573847,0.000434361572843045,0.012114719487726688
1761916114469783600,7.348783447265625,-0.0013670006301254034,-0.0026399914640933275,0.012024172581732273
1761916114479838700,7.358838623046875,0.00025060345069505274,0.0002564624010119587,0.009809221141040325
1761916114489893400,7.368893310546875,-0.0013606089632958174,-0.0011092065833508968,0.010667824186384678
1761916114499949600,7.378949462890625,-0.00045673211570829153,-0.00020639497961383313,0.009111206978559494
1761916114510004500,7.38900439453125,0.0007475492893718183,0.0009568737586960196,0.014059093780815601
1761916114520059600,7.3990595703125,0.0006668555433861911,-0.00025246766745112836,0.011684618890285492
1761916114530115600,7.409115478515625,-0.00023675501870457083,-0.0006183860241435468,0.011040933430194855
1761916114540170800,7.419170654296875,-0.0013930995482951403,0.0015723302494734526,0.012979181483387947
1761916114550225700,7.4292255859375,-0.0016743293963372707,-0.0010343717876821756,0.010542655363678932
1761916114560281900,7.43928173828125,0.000037550569686573,0.00020959076937288046,0.011606588959693909
1761916114570336800,7.449336669921875,-0.0018122810870409012,0.0013547500129789114,0.012613529339432716
1761916114580392000,7.459391845703125,0.0010847054654732347,-0.0008250473183579743,0.010299775749444962
1761916114590447900,7.46944775390625,-0.0016676714876666665,-0.0013619405217468739,0.01080018375068903
1761916114600502800,7.479502685546875,-0.0008484831196255982,0.000529702752828598,0.006115150637924671
1761916114610557700,7.4895576171875,-0.001871403306722641,0.0013992248568683863,0.011509915813803673
1761916114620614000,7.49961376953125,0.0012783173006027937,0.002897519152611494,0.011817511171102524
1761916114630668800,7.509668701171875,-0.0011033476330339909,0.0008631304954178631,0.011637214571237564
1761916114640723700,7.5197236328125,-0.0033782199025154114,0.0004958806093782187,0.009808688424527645
1761916114650779600,7.529779541015625,-0.00063356600003317,0.0012056130217388272,0.011804727837443352
1761916114660834800,7.539834716796875,-0.00041332258842885494,0.0021025657188147306,0.010085124522447586
1761916114670889700,7.5498896484375,-0.0014037522487342358,0.0008402272942475975,0.012268916703760624
1761916114680946000,7.55994580078125,-0.0011920308461412787,-0.0006676545017398894,0.012958142906427383
1761916114691000600,7.57000048828125,0.0013084110105410218,-0.00007137271313695237,0.011405786499381065
1761916114701055700,7.5800556640625,-0.0022509037517011166,0.00021252025908324867,0.01167556457221508
1761916114711111700,7.590111572265625,0.00007776429993100464,0.002674079965800047,0.013769075274467468
1761916114721166800,7.600166748046875,-0.0007909588166512549,-0.001032507512718439,0.011488078162074089
1761916114731222000,7.610221923828125,-0.0003475425182841718,-0.001281779375858605,0.011721370741724968
1761916114741277700,7.620277587890625,-0.0006799050024710596,-0.001038366463035345,0.013528858311474323
1761916114751332900,7.630332763671875,-0.0013571468880400062,0.00452790642157197,0.013407684862613678
1761916114761387800,7.6403876953125,-0.0018940401496365666,0.0016596820205450058,0.013396498747169971
1761916114771444000,7.65044384765625,-0.0002820287481881678,-0.0017355820164084435,0.013234579004347324
1761916114781499000,7.660498779296875,-0.0009214537567459047,0.0008969526388682425,0.010087788105010986
1761916114791553800,7.6705537109375,0.001208009896799922,0.00030652983696199954,0.012208196334540844
1761916114801609700,7.680609619140625,-0.0006679208017885685,-0.0004141215467825532,0.011343734338879585
1761916114811665000,7.690664794921875,0.0016381103778257966,0.0015531554818153381,0.010607902891933918
1761916114821719800,7.7007197265625,-0.001228782464750111,-0.0007621967233717442,0.01187849696725607
1761916114831776000,7.71077587890625,0.0005523395957425237,0.0012455604737624526,0.012163455598056316
1761916114841830700,7.72083056640625,0.0009092031978070736,-0.002629871480166912,0.010748251341283321
1761916114851885800,7.7308857421875,0.00027537086862139404,0.0005994775565341115,0.010765030048787594
1761916114861941800,7.740941650390625,-0.0004929511342197657,0.0014317154418677092,0.01446895394474268
1761916114871997000,7.750996826171875,0.00012144014181103557,0.0011430287268012762,0.009522398933768272
1761916114882051600,7.761051513671875,-0.0005989448982290924,0.0002713761059567332,0.012168781831860542
1761916114892107800,7.771107666015625,-0.002154231071472168,-0.0008431567694060504,0.01050617080181837
1761916114902162700,7.78116259765625,-0.0013156015193089843,-0.00009933590627042577,0.010281932540237904
1761916114912217900,7.7912177734375,-0.002397910226136446,-0.001648496720008552,0.012997024692595005
1761916114922273800,7.801273681640625,0.0016655409708619118,0.0001579254458192736,0.01164653617888689
1761916114932328700,7.81132861328125,0.0008644621120765805,0.0004956142511218786,0.009761284105479717
1761916114942384600,7.821384521484375,0.00239205127581954,0.0010668623726814985,0.010735468938946724
1761916114952439800,7.831439697265625,-0.0003177151083946228,0.00009986854274757206,0.011742675676941872
1761916114962495000,7.841494873046875,-0.000215716048842296,-0.0021821942646056414,0.012348012998700142
1761916114972551000,7.851551025390625,-0.0008972189389169216,-0.0032437301706522703,0.011997007764875889
1761916114982605600,7.86160546875,0.0024349282030016184,0.002909237053245306,0.011535216122865677
1761916114992660700,7.87166064453125,0.0009331716573797166,0.00023142869758885354,0.011397263966500759
1761916115002716700,7.881716552734375,0.0005542038124985993,-0.0014735270524397492,0.014401043765246868
1761916115012771800,7.891771728515625,-0.0011387676931917667,-0.0015536881983280182,0.008591357618570328
1761916115022827000,7.901826904296875,0.000031691615731688216,0.0013579458463937044,0.009996973909437656
1761916115032882700,7.911882568359375,0.000012250540748937055,-0.0006953513366170228,0.012198875658214092
1761916115042937900,7.921937744140625,-0.0008407599525526166,-0.0021113541442900896,0.00811891257762909
1761916115052992800,7.93199267578125,-0.0022655511274933815,0.00038216362008824944,0.010571151971817017
1761916115063049000,7.942049072265625,0.0014623417519032955,0.0007928230334073305,0.009927199222147465
1761916115073104000,7.952103759765625,-0.00242134602740407,-0.00014647385978605598,0.012220713309943676
1761916115083158800,7.96215869140625,-0.0009307747823186219,0.00043569316039793193,0.01013865415006876
1761916115093214700,7.972214599609375,0.0002079928817693144,-0.001395230065099895,0.00996315199881792
1761916115103270000,7.982269775390625,0.000925182132050395,0.0005430185701698065,0.009443835355341434
1761916115113324800,7.99232470703125,0.0005158542771823704,-0.001972337020561099,0.009260077029466629
1761916115123381000,8.002381103515624,-0.003020024625584483,0.0014045510906726122,0.014270815066993237
1761916115133435600,8.012435546875,-0.0013579458463937044,-0.00026525085559114814,0.01212856825441122
1761916115143490800,8.02249072265625,-0.00019867181254085153,0.0013693973887711763,0.010937069542706013
1761916115153546800,8.032546630859375,-0.002302036387845874,0.0009960222523659468,0.012318185530602932
1761916115163602000,8.042601806640626,-0.00236302288249135,0.002368615474551916,0.011786618269979954
1761916115173656600,8.052656494140624,-0.00041199102997779846,0.0005475459038279951,0.013025520369410515
1761916115183712800,8.062712646484375,0.0014998923288658261,-0.0015595471486449242,0.012259063310921192
1761916115193767700,8.072767578125,-0.00014913702034391463,-0.0005065332516096532,0.011914716102182865
1761916115203823900,8.082823974609376,-0.0020639498252421618,-0.000847950461320579,0.011490208096802235
1761916115213878800,8.092878662109374,-0.0009448895580135286,0.00025007082149386406,0.012015383690595627
1761916115223933700,8.10293359375,-0.0022389194928109646,0.001799764228053391,0.009492837823927402
1761916115233989600,8.11298974609375,-0.0006141249323263764,-0.0016695356462150812,0.01068247202783823
1761916115244044800,8.123044921875,0.0005611280212178826,-0.0022120214998722076,0.008420382626354694
1761916115254100000,8.133099853515626,-0.00032623723382130265,0.0002567287301644683,0.013158412650227547
1761916115264156000,8.143156005859375,-0.0002759034978225827,-0.0011896340874955058,0.01278610248118639
1761916115274210800,8.1532109375,-0.0007286408799700439,0.001936650718562305,0.009324791841208935
1761916115284265700,8.163265625,-0.000011451592399680521,0.0003539340978022665,0.011158112436532974
1761916115294321700,8.17332177734375,-0.00029401297797448933,0.0006018743733875453,0.012828446924686432
1761916115304376800,8.183376953125,-0.0007198524544946849,0.0025451830588281155,0.010432400740683079
1761916115314432000,8.193431884765625,-0.0020868529099971056,0.002549976808950305,0.011381817981600761
1761916115324487700,8.20348779296875,-0.001967010786756873,-0.0015491608064621687,0.01010856032371521
1761916115334542800,8.21354296875,0.0024194817524403334,0.0020269318483769894,0.007305583450943232
1761916115344597800,8.22359765625,-0.0019118833588436246,-0.0024549018125981092,0.01287585124373436
1761916115354654000,8.233654052734375,-0.004500742070376873,0.0008077367674559355,0.012977584265172482
1761916115364708900,8.243708984375,0.0006689860601909459,0.001026382320560515,0.011144263669848442
1761916115374763800,8.253763671875,-0.0019409117521718144,0.0004487426485866308,0.011057444848120213
1761916115384819700,8.26381982421875,-0.0011590076610445976,0.0018429075134918094,0.011603392660617828
1761916115394875000,8.273875,0.00039068571641109884,0.0007416903390549123,0.012297678738832474
1761916115404929800,8.2839296875,-0.0013464941876009107,-0.001163268811069429,0.011535748839378357
1761916115414986000,8.293986083984375,-0.0022863238118588924,-0.0019504991360008717,0.011863583698868752
1761916115425040600,8.30404052734375,-0.0011829761788249016,0.0014650048688054085,0.0110457269474864
1761916115435095800,8.314095703125,-0.00035206988104619086,0.0015755260828882456,0.013175456784665585
1761916115445151700,8.32415185546875,0.00019041601626668125,0.0008878979133442044,0.013110475614666939
1761916115455207000,8.33420703125,0.0014405038673430681,-0.00010412959818495438,0.01053333468735218
1761916115465262800,8.344262939453126,0.00034914040588773787,0.0020751350093632936,0.01239142194390297
1761916115475317800,8.35431787109375,-0.0008245146600529552,0.0014588796766474843,0.013998107053339481
1761916115485372700,8.36437255859375,-0.0013054815353825688,-0.0013608753215521574,0.011357849463820457
1761916115495428900,8.374428955078125,0.0009499495499767363,0.0006463492172770202,0.009158344939351082
1761916115505483800,8.38448388671875,-0.0013488910626620054,-0.0020506340079009533,0.009335710667073727
1761916115515538700,8.39453857421875,0.0011643340112641454,0.0004844290087930858,0.009321862831711769
1761916115525594600,8.4045947265625,-0.002532399957999587,-0.0014410364674404263,0.010510697960853577
1761916115535649800,8.41464990234375,-0.0019467707024887204,-0.001853826455771923,0.010061955079436302
1761916115545705000,8.424705078125,-0.0007302387384697795,-0.002073803450912237,0.013035907410085201
1761916115555760000,8.434760009765625,0.0016445019282400608,0.00009214537567459047,0.010351174511015415
1761916115565815300,8.444815185546876,-0.0010237190872430801,-0.000070307454734575,0.01338744442909956
1761916115575870200,8.4548701171875,0.0011701929615810513,-0.001240766723640263,0.01215812936425209
1761916115585926400,8.464926513671875,-0.0009970874525606632,0.0014535533264279366,0.008646219037473202
1761916115595981000,8.47498095703125,-0.001811482128687203,-0.002481799805536866,0.013581588864326477
1761916115606036200,8.4850361328125,0.00038535939529538155,0.0007025419035926461,0.013141901232302189
1761916115616092200,8.495092041015624,-0.0005424859118647873,0.002359294332563877,0.010411628521978855
1761916115626147300,8.505147216796875,0.0005869606975466013,0.002338521648198366,0.011710984632372856
1761916115636202000,8.515201904296875,0.0030304109677672386,-0.0008609999786131084,0.0088789789006114
1761916115646258200,8.525258056640626,-0.00016591492749284953,0.00013662016135640442,0.01209554448723793
1761916115656313000,8.53531298828125,-0.002338788006454706,-0.0017630126094445586,0.010321080684661865
1761916115666368300,8.5453681640625,0.0001917476038215682,-0.0024261397775262594,0.011493404395878315
1761916115676424200,8.555424072265625,-0.002222674200311303,0.00021491710504051298,0.009322129189968109
1761916115686479000,8.56547900390625,-0.001261805766262114,0.000180029688635841,0.010952516458928585
1761916115696534300,8.5755341796875,-0.0007683219737373292,0.005606486462056637,0.01056529302150011
1761916115706590200,8.585590087890624,-0.0016626114957034588,0.004868524614721537,0.010457701049745083
1761916115716645000,8.59564501953125,-0.00041278995922766626,-0.0007574030314572155,0.008658736012876034
1761916115726701300,8.605701416015625,0.0012032161466777325,-0.002116147894412279,0.009191634133458138
1761916115736756000,8.615755859375,-0.0031073763966560364,-0.00022077605535741895,0.009228918701410294
1761916115746811100,8.62581103515625,-0.0015419702976942062,0.001493234420195222,0.012138155288994312
1761916115756867000,8.6358671875,-0.0036072516813874245,-0.0005880259559489787,0.010765562765300274
1761916115766922200,8.645922119140625,0.0010410296963527799,-0.0008162588928826153,0.010363957844674587
1761916115776977200,8.65597705078125,0.0010801780736073852,0.0008649947121739388,0.009543703868985176
1761916115787033000,8.666033203125,-0.0005845638806931674,-0.0007986819837242365,0.011573298834264278
1761916115797088300,8.676088134765624,-0.0007427555974572897,0.0019313243683427572,0.012778112664818764
1761916115807143200,8.68614306640625,0.000020240024241502397,0.00026365293888375163,0.009227586910128593
1761916115817199000,8.69619921875,-0.0006612628931179643,-0.0008415589109063148,0.012584500946104527
1761916115827254000,8.70625390625,-0.0009257147903554142,-0.0020237360149621964,0.010757572948932648
1761916115837309200,8.71630908203125,-0.0010002832859754562,0.0033017871901392937,0.013756291940808296
1761916115847365000,8.726365234375,-0.001797101111151278,-0.0010809770319610834,0.011530954390764236
1761916115857420300,8.736420166015625,0.00011877698125317693,0.001511343871243298,0.010269149206578732
1761916115867475200,8.74647509765625,0.0015869776252657175,-0.00004926848123432137,0.011295264586806297
1761916115877531400,8.756531494140624,0.000032490566809428856,0.0015712650492787361,0.01239302009344101
1761916115887586000,8.7665859375,-0.0009568737586960196,0.0005259743193164468,0.010550112463533878
1761916115897641200,8.77664111328125,-0.00012170646368758753,0.0012069445801898837,0.012774650938808918
1761916115907697200,8.786697265625,-0.002031991956755519,-0.0022447784431278706,0.013686250895261765
1761916115917752300,8.79675244140625,-0.002388855442404747,0.0019265307346358895,0.01338584627956152
1761916115927807000,8.806806884765624,-0.0007906925166025758,0.0016335829859599471,0.01158714760094881
1761916115937863200,8.81686328125,0.001169394003227353,-0.002266882685944438,0.010174873284995556
1761916115947918000,8.82691796875,-0.00040293627534992993,-0.0018522285390645266,0.009722135961055756
1761916115957973200,8.83697314453125,0.002739860210567713,0.000015712650565546937,0.009504822082817554
1761916115968029200,8.847029296875,-0.0007182545377872884,-0.0018378474051132798,0.011814314872026443
1761916115978084000,8.857083984375,0.0010237190872430801,-0.000660463934764266,0.00971760880202055
1761916115988140000,8.86714013671875,0.002112152986228466,0.0023989754263311625,0.013608486391603947
1761916115998195200,8.8771953125,0.000013848437447450124,-0.0008511462947353721,0.01209554448723793
1761916116008250000,8.88725,-0.0008607336785644293,-0.0002466087171342224,0.012747487053275108
1761916116018306300,8.897306396484375,-0.0005430185701698065,0.0010607370641082525,0.012461729347705841
1761916116028361000,8.90736083984375,-0.0021315941121429205,0.0005669869715347886,0.009345032274723053
1761916116038416100,8.917416015625,-0.0006034722900949419,-0.0007840346079319715,0.01161830686032772
1761916116048472000,8.92747216796875,0.001353152096271515,0.00006684534309897572,0.01209607720375061
1761916116058527200,8.93752734375,-0.0013014868600293994,0.0005102616851218045,0.013096626847982407
1761916116068582100,8.94758203125,0.0001371527905575931,0.003513242118060589,0.012938435189425945
1761916116078638000,8.95763818359375,-0.0014924354618415236,-0.0014021543320268393,0.009677127934992313
1761916116088693200,8.967693359375,-0.0007275756215676665,-0.00005299690383253619,0.011183678172528744
1761916116098748200,8.977748046875,-0.0006463492172770202,0.002627474721521139,0.013197294436395168
1761916116108804400,8.987804443359375,-0.001228782464750111,0.0002868224401026964,0.012702212668955326
1761916116118859300,8.997859375,-0.0006636597099713981,0.0015393070643767715,0.011405520141124725
1761916116128914200,9.0079140625,0.00044341632747091353,-0.0007491472060792148,0.011406585574150085
1761916116138970000,9.01797021484375,-0.00029880666988901794,-0.0009992180857807398,0.0107093695551157
1761916116149025300,9.028025390625,0.000675111310556531,0.0014181332662701607,0.013167200610041618
1761916116159081200,9.038081298828125,0.0020245350897312164,0.0004601942200679332,0.010789796710014343
1761916116169136400,9.048136474609375,-0.0015606123488396406,-0.00008335694292327389,0.013233779929578304
1761916116179191000,9.05819091796875,-0.0027212179265916348,-0.0022208099253475666,0.012530439533293247
1761916116189247200,9.068247314453124,-0.000975782226305455,0.0011712582781910896,0.009210010059177876
1761916116199302100,9.07830224609375,0.0006000102148391306,0.0005616606795229018,0.01332592498511076
1761916116209357300,9.088357421875,-0.001969673903658986,0.0020098877139389515,0.011889150366187096
1761916116219413200,9.098413330078126,-0.0007582019316032529,0.00008628641808172688,0.011996475048363209
1761916116229468200,9.10846826171875,-0.001686579897068441,-0.0036373452749103308,0.010844924487173557
1761916116239523000,9.118523193359374,-0.0013853764394298196,-0.00015872440417297184,0.012680641375482082
1761916116249579300,9.128579345703125,0.0004873584839515388,-0.0006804376607760787,0.011847871355712414
1761916116259634200,9.13863427734375,0.0011771172285079956,-0.0004218447138555348,0.01209687627851963
1761916116269689000,9.148689208984376,-0.0004346278728917241,-0.00296250032261014,0.011980229988694191
1761916116279745000,9.1587451171875,0.0011004181578755379,-0.0029622339643538,0.01164813432842493
1761916116289800200,9.16880029296875,-0.0012482235906645656,0.0004679173871409148,0.014357900246977806
1761916116299856100,9.178856201171875,0.0014879080699756742,-0.0023523701820522547,0.012062255293130875
1761916116309911300,9.188911376953126,-0.0014468954177573323,-0.002171275205910206,0.012724583968520164
1761916116319966000,9.198966064453124,-0.00016005597717594355,-0.0017467673169448972,0.010999920777976513
1761916116330022100,9.209022216796875,0.0008966863388195634,0.00213638786226511,0.014942198060452938
1761916116340077000,9.2190771484375,-0.0008644621120765805,0.0006703176186420023,0.013569604605436325
1761916116350132200,9.22913232421875,-0.0011427623685449362,-0.001597630325704813,0.013076653704047203
1761916116360188200,9.239188232421874,-0.0013976269401609898,-0.0020248014479875565,0.013745373114943504
1761916116370243000,9.2492431640625,-0.0017965685110539198,-0.00010492854926269501,0.013076653704047203
1761916116380298200,9.25929833984375,-0.00019281286222394556,0.00008921589324017987,0.007138869725167751
1761916116390354200,9.269354248046875,-0.001335575245320797,-0.0005515406373888254,0.011991415172815323
1761916116400409300,9.279409423828126,0.0006495449924841523,0.0016990967560559511,0.010005230084061623
1761916116410464300,9.28946435546875,0.0008247809601016343,0.00036724991514347494,0.009759952314198017
1761916116420520200,9.299520263671875,0.0008255799184553325,0.002129463478922844,0.00999324582517147
1761916116430575000,9.3095751953125,0.0016386429779231548,0.0010399643797427416,0.012368785217404366
1761916116440631000,9.319631103515626,0.0014362427173182368,-0.0005589975044131279,0.012095279060304165
1761916116450686200,9.329686279296874,0.0001757686259225011,-0.002523078816011548,0.010784470476210117
1761916116460741400,9.339741455078125,-0.0010045443195849657,0.0024383901618421078,0.011797270737588406
1761916116470797000,9.349797119140625,-0.000046339002437889576,0.0016266588354483247,0.012628177180886269
1761916116480852200,9.359852294921875,0.0008474178612232208,0.003462641965597868,0.011378088966012001
1761916116490907100,9.3699072265625,-0.001017327536828816,-0.0015070828376337886,0.013377058319747448
1761916116500963300,9.37996337890625,-0.0009739180095493793,-0.00045060686534270644,0.0115573201328516
1761916116511018200,9.390018310546875,-0.000702009245287627,0.004072239622473717,0.013219664804637432
1761916116521073200,9.4000732421875,-0.0014990933705121279,0.012648417614400387,0.02183978445827961
1761916116531129000,9.410129150390626,-0.00009400958515470847,0.010974087752401829,0.019272230565547943
1761916116541184300,9.420184326171874,-0.001216798322275281,0.0049156625755131245,0.014304104261100292
1761916116551240200,9.430240234375,-0.0031254857312887907,-0.0030573089607059956,0.014189056120812893
1761916116561294800,9.440294921875,-0.0046445527113974094,0.004313788376748562,0.013919809833168983
1761916116571349800,9.450349853515625,0.0011824434623122215,0.0017955031944438815,0.01458773110061884
1761916116581406000,9.460406005859374,-0.0003073287953156978,0.0038088529836386442,0.015002917498350143
1761916116591460900,9.4704609375,0.0027273432351648808,-0.004226969089359045,0.007261374965310097
1761916116601515800,9.480515869140625,-0.0034322820138186216,-0.007090133614838123,0.01050457265228033
1761916116611571700,9.49057177734375,-0.0008476841612718999,0.002579005202278495,0.01458959560841322
1761916116621627000,9.500626953125,-0.0006585997180081904,0.007880027405917645,0.015558985993266106
1761916116631681800,9.510681884765624,-0.001773132593370974,-0.004064782522618771,0.01059085875749588
1761916116641738000,9.520738037109375,-0.0020069582387804985,-0.002667954657226801,0.0090542146936059
1761916116651793000,9.53079296875,-0.002043177140876651,0.003260241821408272,0.013063870370388031
1761916116661848800,9.540848876953126,0.0005464806454256177,0.008273109793663025,0.012801283039152622
1761916116671903700,9.55090380859375,-0.0015835155500099063,0.003802194958552718,0.010362892411649227
1761916116681959000,9.560958984375,0.0013169331941753626,-0.0002008023438975215,0.010204168036580086
1761916116692014800,9.571014892578125,0.00048655952559784055,-0.00028868665685877204,0.012053200975060463
1761916116702070000,9.581070068359375,-0.0019510318525135517,0.005702094174921513,0.01540319062769413
1761916116712125000,9.591125,0.0004183826094958931,0.0024554345291107893,0.010251572355628014
1761916116722180900,9.601180908203125,-0.00012543488992378116,-0.0041611893102526665,0.011718708090484142
1761916116732236000,9.611236083984375,-0.0022772690281271935,0.0011824434623122215,0.010393785312771797
1761916116742292000,9.6212919921875,-0.0011193265672773123,0.005000085104256868,0.010309096425771713
1761916116752347000,9.631346923828126,0.0004191815387457609,0.0025979136116802692,0.008446748368442059
1761916116762401800,9.64140185546875,0.0013195963110774755,-0.0002668487431947142,0.012731507420539856
1761916116772457700,9.651457763671875,-0.0018679412314668298,-0.0030216225422918797,0.014215687289834023
1761916116782513000,9.661512939453125,-0.0014988270122557878,0.0007195860962383449,0.01139806304126978
1761916116792568000,9.671568115234376,-0.0032402679789811373,0.003946804907172918,0.01341647282242775
1761916116802624000,9.6816240234375,-0.0002580603177193552,0.0030421288684010506,0.012103267945349216
1761916116812679000,9.691678955078125,-0.0015456987312063575,0.0054640076123178005,0.012631905265152454
1761916116822734800,9.70173486328125,-0.0010897654574364424,0.002089249901473522,0.012454538606107235
1761916116832790000,9.7117900390625,0.0008490157779306173,0.001463673310354352,0.013543505221605301
1761916116842845000,9.721844970703126,-0.0020442423410713673,-0.0011169298086315393,0.011766644194722176
1761916116852900900,9.73190087890625,-0.0003281014505773783,-0.0022210762836039066,0.012105132453143597
1761916116862955800,9.741955810546875,0.0012575446162372828,0.004464789759367704,0.013312609866261482
1761916116873011000,9.752010986328125,0.0009763148264028132,0.000916393706575036,0.013578925281763077
1761916116883067000,9.76206689453125,-0.0010540791554376483,-0.0005787048721686006,0.012009791098535061
1761916116893122000,9.7721220703125,-0.0011848403373733163,0.0011089402250945568,0.01028592698276043
1761916116903176700,9.7821767578125,-0.0018793927738443017,0.0034549187403172255,0.012297412380576134
1761916116913233000,9.79223291015625,-0.0010428938549011946,0.000054861116950633004,0.013234579004347324
1761916116923287800,9.802287841796876,-0.0013936321483924985,-0.001645300886593759,0.011206582188606262
1761916116933344000,9.812343994140624,-0.0023872575256973505,-0.004233893472701311,0.010690727271139622
1761916116943399000,9.82239892578125,0.0009744506096467376,-0.0034501252230256796,0.010165286250412464
1761916116953453800,9.832453857421875,0.00008868326403899118,-0.0024791366886347532,0.009504555724561214
1761916116963509800,9.842509765625,-0.0022034994326531887,-0.0005573995877057314,0.008136223070323467
1761916116973565000,9.85256494140625,-0.0021872541401535273,-0.0026375947054475546,0.012301673181355
1761916116983619800,9.862619873046874,0.0016626114957034588,0.00170788518153131,0.011023889295756817
1761916116993676000,9.872676025390625,-0.0012013519881293178,0.0013749900972470641,0.01284442562609911
1761916117003730700,9.882730712890625,-0.0007209177128970623,0.00640942994505167,0.010793259367346764
1761916117013787000,9.892786865234376,-0.0008114652009680867,0.0014956312952563167,0.011725365184247494
1761916117023841800,9.902841796875,-0.0013930995482951403,0.0026442527305334806,0.013402624055743217
1761916117033897000,9.91289697265625,-0.0003326288133393973,0.003026416292414069,0.011403122916817665
1761916117043953000,9.922952880859375,0.007613178342580795,0.042563971132040024,0.05686754360795021
1761916117054007800,9.9330078125,-0.004310059826821089,0.2392520010471344,0.335813969373703
1761916117064062700,9.943062744140626,-0.006274141371250153,0.07976247370243073,0.22105754911899567
1761916117074119000,9.953118896484375,-0.0022716764360666275,-0.1933007538318634,-0.08943267911672592
1761916117084173800,9.963173828125,0.0016567525453865528,-0.15610730648040771,-0.10961757600307465
1761916117094229000,9.97322900390625,0.0008122641011141241,-0.03780703246593475,-0.11886460334062576
1761916117104285000,9.983284912109376,0.0010940266074612737,0.008182561956346035,-0.12382420897483826
1761916117114339800,9.99333984375,0.004412058740854263,-0.0507047213613987,-0.0843907818198204
1761916117124395800,10.003395751953125,-0.0003837615076918155,0.0014594122767448425,0.014793859794735909
1761916117134451000,10.013450927734375,-0.002426938619464636,0.06668608635663986,0.06787731498479843
