time,seconds_elapsed,z,y,x
1761915748189225700,0.079225830078125,-0.9827423095703125,-0.1697540283203125,0.0260009765625
1761915748199279600,0.089279541015625,-0.9893035888671875,-0.1639862060546875,0.0259246826171875
1761915748209333800,0.099333740234375,-0.9903106689453125,-0.162872314453125,0.02520751953125
1761915748219387600,0.1093876953125,-0.98822021484375,-0.16302490234375,0.0240325927734375
1761915748229441500,0.119441650390625,-0.9816131591796875,-0.1651611328125,0.0246429443359375
1761915748239495700,0.12949560546875,-0.979400634765625,-0.1699066162109375,0.0242156982421875
1761915748249550600,0.139550537109375,-0.9821319580078125,-0.1672821044921875,0.0204620361328125
1761915748259604700,0.149604736328125,-0.9865570068359375,-0.1585540771484375,0.0193634033203125
1761915748269658600,0.15965869140625,-0.9853973388671875,-0.1548004150390625,0.0146484375
1761915748279712800,0.169712646484375,-0.98211669921875,-0.154449462890625,0.0137481689453125
1761915748289766700,0.1797666015625,-0.985626220703125,-0.1560516357421875,0.0174560546875
1761915748299820500,0.189820556640625,-0.991790771484375,-0.1586761474609375,0.0267333984375
1761915748309874400,0.19987451171875,-0.995391845703125,-0.1706085205078125,0.03045654296875
1761915748319928600,0.209928466796875,-0.99615478515625,-0.1778106689453125,0.0302276611328125
1761915748329982700,0.219982666015625,-1.0001373291015625,-0.174591064453125,0.0347442626953125
1761915748340036600,0.23003662109375,-1.0067596435546875,-0.1672210693359375,0.0368194580078125
1761915748350090800,0.2400908203125,-1.005462646484375,-0.1580352783203125,0.0363616943359375
1761915748360144600,0.25014453125,-0.997406005859375,-0.160186767578125,0.031768798828125
1761915748370198800,0.26019873046875,-0.9842376708984375,-0.1628875732421875,0.0245208740234375
1761915748380252700,0.270252685546875,-0.9746551513671875,-0.1661224365234375,0.0183563232421875
1761915748390306800,0.280306884765625,-0.9738006591796875,-0.1613311767578125,0.019195556640625
1761915748400360700,0.290360595703125,-0.9696502685546875,-0.164764404296875,0.017608642578125
1761915748410414600,0.30041455078125,-0.963165283203125,-0.177734375,0.0170745849609375
1761915748420468500,0.310468505859375,-0.95538330078125,-0.1858673095703125,0.015869140625
1761915748430522600,0.320522705078125,-0.951202392578125,-0.189300537109375,0.013946533203125
1761915748440577800,0.330577880859375,-0.9516143798828125,-0.1866607666015625,0.0088348388671875
1761915748450631700,0.340631591796875,-0.9514923095703125,-0.1786956787109375,0.0034637451171875
1761915748460685800,0.350685791015625,-0.9547119140625,-0.1709136962890625,0.00164794921875
1761915748470739700,0.36073974609375,-0.9616851806640625,-0.16754150390625,0.006195068359375
1761915748480793600,0.370793701171875,-0.9686431884765625,-0.1674652099609375,0.0099334716796875
1761915748490847500,0.380847412109375,-0.9696197509765625,-0.1725006103515625,0.010894775390625
1761915748500901600,0.390901611328125,-0.969512939453125,-0.1778106689453125,0.010589599609375
1761915748510955500,0.40095556640625,-0.973175048828125,-0.178680419921875,0.011871337890625
1761915748521009700,0.411009765625,-0.978485107421875,-0.1741180419921875,0.0139617919921875
1761915748531063600,0.4210634765625,-0.97955322265625,-0.1695404052734375,0.014984130859375
1761915748541117700,0.43111767578125,-0.976226806640625,-0.166717529296875,0.0153961181640625
1761915748551171600,0.441171630859375,-0.975799560546875,-0.1671905517578125,0.0162200927734375
1761915748561225700,0.451225830078125,-0.9767913818359375,-0.1712188720703125,0.020172119140625
1761915748571280000,0.46127978515625,-0.9793701171875,-0.174468994140625,0.0243072509765625
1761915748581333800,0.471333740234375,-0.983642578125,-0.1768951416015625,0.0279998779296875
1761915748591387600,0.4813876953125,-0.985260009765625,-0.175445556640625,0.03021240234375
1761915748601441500,0.491441650390625,-0.9854278564453125,-0.1712646484375,0.030487060546875
1761915748611495700,0.50149560546875,-0.98443603515625,-0.168731689453125,0.0304107666015625
1761915748621549600,0.511549560546875,-0.982696533203125,-0.1659698486328125,0.0268096923828125
1761915748631604700,0.521604736328125,-0.9792327880859375,-0.16607666015625,0.024444580078125
1761915748641658600,0.53165869140625,-0.984283447265625,-0.1690673828125,0.025848388671875
1761915748651712800,0.541712646484375,-0.988922119140625,-0.1690826416015625,0.0263519287109375
1761915748661766700,0.5517666015625,-0.991668701171875,-0.16845703125,0.0278778076171875
1761915748671820500,0.561820556640625,-0.9839019775390625,-0.168487548828125,0.0256500244140625
1761915748681874700,0.571874755859375,-0.9715423583984375,-0.171356201171875,0.0217437744140625
1761915748691928600,0.581928466796875,-0.9703216552734375,-0.175628662109375,0.016754150390625
1761915748701982700,0.591982666015625,-0.98248291015625,-0.171661376953125,0.01983642578125
1761915748712036600,0.60203662109375,-1.0026092529296875,-0.1688995361328125,0.027740478515625
1761915748722090800,0.6120908203125,-1.0199737548828125,-0.1688232421875,0.0366668701171875
1761915748732144600,0.62214453125,-1.024322509765625,-0.16851806640625,0.039581298828125
1761915748742198800,0.63219873046875,-1.0167694091796875,-0.1644134521484375,0.035125732421875
1761915748752252700,0.642252685546875,-1.0064239501953125,-0.1588592529296875,0.0277862548828125
1761915748762306800,0.652306884765625,-0.99755859375,-0.1575469970703125,0.0220184326171875
1761915748772360400,0.6623603515625,-0.988250732421875,-0.157806396484375,0.019683837890625
1761915748782414600,0.67241455078125,-0.975982666015625,-0.1653594970703125,0.0192413330078125
1761915748792469800,0.6824697265625,-0.863677978515625,-0.1990203857421875,0.0461883544921875
1761915748802523600,0.692523681640625,-0.863525390625,-0.2830047607421875,0.0614471435546875
1761915748812577800,0.702577880859375,-0.9030303955078125,-0.2734527587890625,0.046722412109375
1761915748822631700,0.712631591796875,-0.941314697265625,-0.217559814453125,0.026153564453125
1761915748832685800,0.722685791015625,-0.9859619140625,-0.160797119140625,0.033355712890625
1761915748842739500,0.732739501953125,-1.0092010498046875,-0.1329498291015625,0.0415802001953125
1761915748852793600,0.742793701171875,-1.0120849609375,-0.1433563232421875,0.027008056640625
1761915748862847500,0.752847412109375,-0.992645263671875,-0.1495819091796875,0.02264404296875
1761915748872901600,0.762901611328125,-1.0047607421875,-0.1506805419921875,0.018341064453125
1761915748882955500,0.77295556640625,-1.0086212158203125,-0.1471099853515625,0.0238189697265625
1761915748893009700,0.783009765625,-1.0039825439453125,-0.1564483642578125,0.0236053466796875
1761915748903063600,0.7930634765625,-0.985504150390625,-0.1689453125,0.021575927734375
1761915748913117700,0.80311767578125,-0.9680938720703125,-0.1843109130859375,0.0198211669921875
1761915748923171800,0.813171875,-0.955657958984375,-0.1915435791015625,0.0191192626953125
1761915748933225700,0.823225830078125,-0.9503173828125,-0.1938323974609375,0.0168304443359375
1761915748943279600,0.833279541015625,-0.9559478759765625,-0.193603515625,0.013397216796875
1761915748953334500,0.84333447265625,-0.9659881591796875,-0.1898040771484375,0.0128021240234375
1761915748963388700,0.853388671875,-0.9787445068359375,-0.1820068359375,0.017333984375
1761915748973442600,0.863442626953125,-0.9837799072265625,-0.17822265625,0.0221710205078125
1761915748983496700,0.87349658203125,-0.985260009765625,-0.1801605224609375,0.0262298583984375
1761915748993550600,0.883550537109375,-0.98712158203125,-0.18310546875,0.0313873291015625
1761915749003604700,0.893604736328125,-0.98516845703125,-0.1826019287109375,0.0369873046875
1761915749013659000,0.903658935546875,-0.9850006103515625,-0.1842803955078125,0.03857421875
1761915749023712500,0.91371240234375,-0.9801788330078125,-0.1854248046875,0.0386810302734375
1761915749033766700,0.9237666015625,-0.9731597900390625,-0.186126708984375,0.037109375
1761915749043820500,0.933820556640625,-0.965911865234375,-0.187530517578125,0.0323944091796875
1761915749053874700,0.943874755859375,-0.9595184326171875,-0.188262939453125,0.0272369384765625
1761915749063928600,0.953928466796875,-0.9595794677734375,-0.1864471435546875,0.0263671875
1761915749073982700,0.963982666015625,-0.96624755859375,-0.18914794921875,0.0280303955078125
1761915749084037600,0.97403759765625,-0.9714202880859375,-0.188995361328125,0.0297698974609375
1761915749094091800,0.984091796875,-0.97283935546875,-0.1894989013671875,0.032562255859375
1761915749104145700,0.994145751953125,-0.9756927490234375,-0.1891937255859375,0.036285400390625
1761915749114199600,1.004199462890625,-0.97857666015625,-0.1885833740234375,0.03729248046875
1761915749124253700,1.014253662109375,-0.9837188720703125,-0.1872100830078125,0.0353240966796875
1761915749134307600,1.0243076171875,-0.985931396484375,-0.183563232421875,0.0311431884765625
1761915749144361700,1.03436181640625,-0.979736328125,-0.182220458984375,0.0249481201171875
1761915749154415600,1.04441552734375,-0.967559814453125,-0.1816253662109375,0.0206756591796875
1761915749164469800,1.0544697265625,-0.963958740234375,-0.1814117431640625,0.01788330078125
1761915749174527500,1.064527587890625,-0.9690093994140625,-0.1799163818359375,0.0197296142578125
1761915749184581600,1.07458154296875,-0.9767608642578125,-0.180938720703125,0.024261474609375
1761915749194635500,1.084635498046875,-0.9828033447265625,-0.1820831298828125,0.027313232421875
1761915749204689400,1.094689453125,-0.9849090576171875,-0.1821136474609375,0.0258636474609375
1761915749214744600,1.10474462890625,-0.9803924560546875,-0.181793212890625,0.02398681640625
1761915749224798500,1.114798583984375,-0.9749603271484375,-0.1809234619140625,0.0228729248046875
1761915749234852600,1.1248525390625,-0.9734344482421875,-0.181732177734375,0.022674560546875
1761915749244906500,1.134906494140625,-0.975189208984375,-0.1803131103515625,0.023773193359375
1761915749254960600,1.144960693359375,-0.9754486083984375,-0.1814117431640625,0.024322509765625
1761915749265014500,1.1550146484375,-0.9738616943359375,-0.1827239990234375,0.020721435546875
1761915749275068400,1.165068359375,-0.9745635986328125,-0.1790618896484375,0.02374267578125
1761915749285122600,1.17512255859375,-0.906707763671875,-0.170654296875,0.0404815673828125
1761915749295176400,1.185176513671875,-0.8831024169921875,-0.232269287109375,0.05572509765625
1761915749305230600,1.195230712890625,-0.9096832275390625,-0.24969482421875,0.0400848388671875
1761915749315284500,1.205284423828125,-0.9416961669921875,-0.2113037109375,0.0195159912109375
1761915749325339600,1.215339599609375,-0.980712890625,-0.16888427734375,0.0200653076171875
1761915749335393500,1.2253935546875,-0.9995880126953125,-0.1503143310546875,0.02130126953125
1761915749345447400,1.235447509765625,-0.9997406005859375,-0.1538238525390625,0.0319671630859375
1761915749355501300,1.245501220703125,-0.99224853515625,-0.1612091064453125,0.0303192138671875
1761915749365555500,1.255555419921875,-0.9855499267578125,-0.162506103515625,0.0278472900390625
1761915749375609600,1.265609619140625,-0.9834136962890625,-0.1650238037109375,0.0251007080078125
1761915749385663500,1.27566357421875,-0.9801025390625,-0.169403076171875,0.0212860107421875
1761915749395717600,1.285717529296875,-0.9736175537109375,-0.17242431640625,0.0200653076171875
1761915749405771500,1.295771484375,-0.9696807861328125,-0.1776275634765625,0.0218658447265625
1761915749415825700,1.30582568359375,-0.9665374755859375,-0.1846160888671875,0.025726318359375
1761915749425879600,1.315879638671875,-0.97088623046875,-0.1935272216796875,0.028900146484375
1761915749435934500,1.3259345703125,-0.9792938232421875,-0.198455810546875,0.030059814453125
1761915749445988400,1.33598828125,-0.9834136962890625,-0.198028564453125,0.029937744140625
1761915749456042500,1.34604248046875,-0.9843292236328125,-0.195220947265625,0.0294342041015625
1761915749466096600,1.3560966796875,-0.982208251953125,-0.18798828125,0.029083251953125
1761915749476150500,1.366150634765625,-0.97637939453125,-0.182647705078125,0.030029296875
1761915749486204700,1.37620458984375,-0.9756317138671875,-0.179046630859375,0.0316162109375
1761915749496258600,1.386258544921875,-0.9793701171875,-0.1816558837890625,0.0330352783203125
1761915749506312700,1.396312744140625,-0.979248046875,-0.1824493408203125,0.0360870361328125
1761915749516366600,1.40636669921875,-0.9774017333984375,-0.183837890625,0.039154052734375
1761915749526420500,1.41642041015625,-0.9819488525390625,-0.1858062744140625,0.0387420654296875
1761915749536474400,1.426474365234375,-0.98590087890625,-0.18463134765625,0.0372314453125
1761915749546529500,1.436529541015625,-0.984161376953125,-0.1820220947265625,0.03472900390625
1761915749556583400,1.44658349609375,-0.978485107421875,-0.1805419921875,0.0325469970703125
1761915749566637600,1.456637451171875,-0.97454833984375,-0.180145263671875,0.030181884765625
1761915749576691700,1.466691650390625,-0.9670867919921875,-0.1805572509765625,0.0302276611328125
1761915749586745600,1.47674560546875,-0.96563720703125,-0.1822357177734375,0.03240966796875
1761915749596799500,1.486799560546875,-0.968536376953125,-0.18389892578125,0.03399658203125
1761915749606853400,1.496853271484375,-0.9696807861328125,-0.1856536865234375,0.0345916748046875
1761915749616907500,1.506907470703125,-0.968292236328125,-0.1878509521484375,0.0341949462890625
1761915749626961400,1.51696142578125,-0.9656219482421875,-0.18682861328125,0.03253173828125
1761915749637015600,1.527015625,-0.9632110595703125,-0.1837005615234375,0.030548095703125
1761915749647070500,1.537070556640625,-0.9644775390625,-0.182952880859375,0.0301361083984375
1761915749657124600,1.54712451171875,-0.9713897705078125,-0.1832122802734375,0.03228759765625
1761915749667178800,1.5571787109375,-0.9754791259765625,-0.1804962158203125,0.03240966796875
1761915749677232400,1.567232421875,-0.97344970703125,-0.17803955078125,0.0306396484375
1761915749687286500,1.57728662109375,-0.968353271484375,-0.1765899658203125,0.027496337890625
1761915749697340400,1.58734033203125,-0.9634552001953125,-0.1761474609375,0.024139404296875
1761915749707394600,1.59739453125,-0.9594573974609375,-0.175537109375,0.022705078125
1761915749717448400,1.607448486328125,-0.96234130859375,-0.179840087890625,0.02130126953125
1761915749727502600,1.617502685546875,-0.9662628173828125,-0.1843109130859375,0.0212249755859375
1761915749737556500,1.627556396484375,-0.969879150390625,-0.1829681396484375,0.021392822265625
1761915749747611600,1.637611572265625,-0.970794677734375,-0.175750732421875,0.023101806640625
1761915749757665500,1.64766552734375,-0.9691162109375,-0.1704559326171875,0.02471923828125
1761915749767719400,1.657719482421875,-0.9695281982421875,-0.169586181640625,0.024261474609375
1761915749777773600,1.667773681640625,-0.9764862060546875,-0.17156982421875,0.0266265869140625
1761915749787827500,1.677827392578125,-0.9876861572265625,-0.1739044189453125,0.026763916015625
1761915749797881600,1.687881591796875,-0.991180419921875,-0.172149658203125,0.0286712646484375
1761915749807935500,1.697935546875,-0.9883270263671875,-0.16876220703125,0.0305023193359375
1761915749817989600,1.70798974609375,-0.985107421875,-0.168365478515625,0.0310821533203125
1761915749828043500,1.71804345703125,-0.9810028076171875,-0.172332763671875,0.0302734375
1761915749838098400,1.728098388671875,-0.979736328125,-0.1779937744140625,0.0298004150390625
1761915749848152600,1.738152587890625,-0.9747314453125,-0.1832427978515625,0.0301513671875
1761915749858206500,1.74820654296875,-0.966888427734375,-0.18756103515625,0.0304107666015625
1761915749868260600,1.758260498046875,-0.963592529296875,-0.190643310546875,0.0289764404296875
1761915749878314500,1.768314453125,-0.9637451171875,-0.1890411376953125,0.02960205078125
1761915749888368600,1.77836865234375,-0.96917724609375,-0.187347412109375,0.0308685302734375
1761915749898422500,1.788422607421875,-0.97222900390625,-0.1836700439453125,0.033935546875
1761915749908476700,1.7984765625,-0.9770050048828125,-0.179412841796875,0.0333251953125
1761915749918530600,1.808530517578125,-0.9821929931640625,-0.178131103515625,0.0313873291015625
1761915749928584400,1.81858447265625,-0.98480224609375,-0.1742706298828125,0.0301971435546875
1761915749938639400,1.828639404296875,-0.9871368408203125,-0.1705322265625,0.0299224853515625
1761915749948693500,1.838693603515625,-0.9820098876953125,-0.163543701171875,0.0290679931640625
1761915749958747600,1.84874755859375,-0.978546142578125,-0.1628265380859375,0.0271453857421875
1761915749968801500,1.858801513671875,-0.9801483154296875,-0.16278076171875,0.0258331298828125
1761915749978855700,1.868855712890625,-0.9830474853515625,-0.1607513427734375,0.0280303955078125
1761915749988909600,1.87890966796875,-0.986907958984375,-0.1623077392578125,0.0289764404296875
1761915749998963700,1.888963623046875,-0.98724365234375,-0.162841796875,0.0291748046875
1761915750009017300,1.899017333984375,-0.985076904296875,-0.16217041015625,0.026336669921875
1761915750019071500,1.909071533203125,-0.98931884765625,-0.160614013671875,0.0269775390625
1761915750029125400,1.91912548828125,-0.9984893798828125,-0.163238525390625,0.02679443359375
1761915750039180500,1.9291806640625,-0.9998626708984375,-0.16094970703125,0.0272979736328125
1761915750049234700,1.939234619140625,-1.0018310546875,-0.154693603515625,0.027313232421875
1761915750059288600,1.94928857421875,-1.0078277587890625,-0.152374267578125,0.0302886962890625
1761915750069342700,1.9593427734375,-1.0067596435546875,-0.155242919921875,0.0323333740234375
1761915750079396600,1.969396728515625,-1.0061187744140625,-0.164459228515625,0.03509521484375
1761915750089450500,1.979450439453125,-1.001373291015625,-0.1718902587890625,0.0370025634765625
1761915750099504400,1.98950439453125,-0.994354248046875,-0.1757354736328125,0.038970947265625
1761915750109558500,1.99955859375,-0.9911346435546875,-0.1779937744140625,0.0409088134765625
1761915750119612400,2.0096123046875,-0.9904022216796875,-0.1815032958984375,0.03955078125
1761915750129667600,2.01966748046875,-0.9844818115234375,-0.1813812255859375,0.037078857421875
1761915750139721700,2.0297216796875,-0.9754791259765625,-0.180938720703125,0.037750244140625
1761915750149775600,2.039775634765625,-0.9686126708984375,-0.1809234619140625,0.0430450439453125
1761915750159829500,2.04982958984375,-0.9702606201171875,-0.1837005615234375,0.0481109619140625
1761915750169883400,2.05988330078125,-0.97528076171875,-0.1873779296875,0.0519256591796875
1761915750179937800,2.069937744140625,-0.97637939453125,-0.1877288818359375,0.055633544921875
1761915750189991700,2.07999169921875,-0.9745635986328125,-0.1912994384765625,0.0553741455078125
1761915750200045800,2.0900458984375,-0.96893310546875,-0.197906494140625,0.0531005859375
1761915750210099700,2.100099609375,-0.9597320556640625,-0.1996002197265625,0.0506591796875
1761915750220153900,2.11015380859375,-0.9541015625,-0.1999053955078125,0.0483856201171875
1761915750230208800,2.120208740234375,-0.947113037109375,-0.200469970703125,0.0484619140625
1761915750240262700,2.1302626953125,-0.9405364990234375,-0.2050323486328125,0.046600341796875
1761915750250316800,2.14031689453125,-0.941986083984375,-0.21136474609375,0.04266357421875
1761915750260370700,2.15037060546875,-0.942535400390625,-0.2150726318359375,0.03936767578125
1761915750270424800,2.1604248046875,-0.9386749267578125,-0.2126617431640625,0.0351715087890625
1761915750280478700,2.170478759765625,-0.9323883056640625,-0.2056884765625,0.033355712890625
1761915750290532900,2.180532958984375,-0.934234619140625,-0.201934814453125,0.028656005859375
1761915750300586800,2.190586669921875,-0.9375152587890625,-0.1980743408203125,0.024078369140625
1761915750310641000,2.200640869140625,-0.940887451171875,-0.193695068359375,0.02130126953125
1761915750320694800,2.21069482421875,-0.9427947998046875,-0.1906280517578125,0.016357421875
1761915750330749700,2.220749755859375,-0.9460296630859375,-0.1890716552734375,0.0121917724609375
1761915750340803800,2.230803955078125,-0.9562835693359375,-0.188568115234375,0.010833740234375
1761915750350857700,2.240857666015625,-0.968475341796875,-0.1837921142578125,0.011871337890625
1761915750360912000,2.250911865234375,-0.98175048828125,-0.1753997802734375,0.0129547119140625
1761915750370965800,2.2609658203125,-0.9920196533203125,-0.170928955078125,0.0130462646484375
1761915750381020000,2.27102001953125,-1.000518798828125,-0.1691436767578125,0.0143280029296875
1761915750391073800,2.28107373046875,-1.00677490234375,-0.1685333251953125,0.0124053955078125
1761915750401128000,2.2911279296875,-1.0046844482421875,-0.166168212890625,0.0112762451171875
1761915750411181600,2.301181640625,-0.998809814453125,-0.1623992919921875,0.0118255615234375
1761915750421235700,2.311235595703125,-0.9993896484375,-0.15972900390625,0.0149688720703125
1761915750431291000,2.321290771484375,-1.00067138671875,-0.156829833984375,0.019500732421875
1761915750441344800,2.3313447265625,-1.0000762939453125,-0.1562042236328125,0.021148681640625
1761915750451399000,2.34139892578125,-0.995880126953125,-0.1563873291015625,0.0226287841796875
1761915750461452800,2.351452880859375,-0.993621826171875,-0.1579437255859375,0.02520751953125
1761915750471507000,2.3615068359375,-0.9993743896484375,-0.1598663330078125,0.02545166015625
1761915750481560800,2.371560791015625,-1.0029144287109375,-0.1658782958984375,0.0294189453125
1761915750491614700,2.38161474609375,-0.999298095703125,-0.1737518310546875,0.0354156494140625
1761915750501668600,2.391668701171875,-0.9844512939453125,-0.184173583984375,0.037384033203125
1761915750511722800,2.40172265625,-0.970306396484375,-0.1940765380859375,0.0392913818359375
1761915750521776600,2.411776611328125,-0.960479736328125,-0.200439453125,0.041595458984375
1761915750531831800,2.421831787109375,-0.95355224609375,-0.207000732421875,0.0422210693359375
1761915750541886000,2.431885986328125,-0.9523162841796875,-0.208953857421875,0.043243408203125
1761915750551939800,2.44193994140625,-0.9552459716796875,-0.2065277099609375,0.0452117919921875
1761915750561993700,2.45199365234375,-0.9610748291015625,-0.2037506103515625,0.0455169677734375
1761915750572047600,2.462047607421875,-0.962188720703125,-0.199493408203125,0.04376220703125
1761915750582101800,2.472101806640625,-0.9644317626953125,-0.1973114013671875,0.044708251953125
1761915750592155600,2.48215576171875,-0.9686737060546875,-0.198516845703125,0.0449066162109375
1761915750602209800,2.492209716796875,-0.9724884033203125,-0.1982879638671875,0.0465850830078125
1761915750612263700,2.502263671875,-0.9767303466796875,-0.1964263916015625,0.0450439453125
1761915750622317800,2.51231787109375,-0.979217529296875,-0.19244384765625,0.043548583984375
1761915750632372700,2.522372802734375,-0.9769287109375,-0.18658447265625,0.0412750244140625
1761915750642426600,2.532426513671875,-0.9763336181640625,-0.182769775390625,0.0375823974609375
1761915750652480800,2.542480712890625,-0.970855712890625,-0.1806488037109375,0.0352935791015625
1761915750662534700,2.55253466796875,-0.967529296875,-0.1830596923828125,0.0331268310546875
1761915750672588800,2.5625888671875,-0.97119140625,-0.183807373046875,0.033050537109375
1761915750682642700,2.572642578125,-0.97393798828125,-0.1820068359375,0.0324859619140625
1761915750692696800,2.58269677734375,-0.9739990234375,-0.1809234619140625,0.0290985107421875
1761915750702750700,2.592750732421875,-0.969085693359375,-0.17730712890625,0.0258331298828125
1761915750712804900,2.602804931640625,-0.9661712646484375,-0.175811767578125,0.0209808349609375
1761915750722858800,2.612858642578125,-0.96923828125,-0.1756591796875,0.0197601318359375
1761915750732913700,2.62291357421875,-0.9750213623046875,-0.175750732421875,0.02276611328125
1761915750742967800,2.6329677734375,-0.9790802001953125,-0.1764373779296875,0.0258636474609375
1761915750753021700,2.643021728515625,-0.981109619140625,-0.176605224609375,0.0303802490234375
1761915750763075800,2.653075927734375,-0.98193359375,-0.1766357421875,0.0315399169921875
1761915750773129700,2.663129638671875,-0.981719970703125,-0.176910400390625,0.03009033203125
1761915750783184000,2.673183837890625,-0.97607421875,-0.175506591796875,0.0278472900390625
1761915750793237800,2.68323779296875,-0.972686767578125,-0.178436279296875,0.026580810546875
1761915750803292000,2.6932919921875,-0.9725494384765625,-0.182098388671875,0.0251617431640625
1761915750813345800,2.703345703125,-0.97674560546875,-0.188232421875,0.025665283203125
1761915750823399700,2.713399658203125,-0.9746246337890625,-0.192108154296875,0.028045654296875
1761915750833454800,2.723454833984375,-0.9709014892578125,-0.196685791015625,0.02874755859375
1761915750843508700,2.7335087890625,-0.9709320068359375,-0.1973876953125,0.031005859375
1761915750853563000,2.74356298828125,-0.9742279052734375,-0.1934814453125,0.032989501953125
1761915750863616800,2.75361669921875,-0.98095703125,-0.187469482421875,0.0335693359375
1761915750873671000,2.7636708984375,-0.9925384521484375,-0.178924560546875,0.0335235595703125
1761915750883724800,2.773724853515625,-0.9968719482421875,-0.1731109619140625,0.0359649658203125
1761915750893778700,2.78377880859375,-0.9969482421875,-0.1721954345703125,0.0351409912109375
1761915750903832600,2.79383251953125,-0.98846435546875,-0.176025390625,0.03509521484375
1761915750913886700,2.80388671875,-0.976898193359375,-0.1833343505859375,0.0341339111328125
1761915750923940600,2.813940673828125,-0.96954345703125,-0.1882781982421875,0.0355072021484375
1761915750933994800,2.823994873046875,-0.97003173828125,-0.1925201416015625,0.036773681640625
1761915750944050000,2.8340498046875,-0.975189208984375,-0.1925048828125,0.037506103515625
1761915750954103800,2.844103759765625,-0.9774627685546875,-0.190032958984375,0.037567138671875
1761915750964157700,2.85415771484375,-0.9756011962890625,-0.18402099609375,0.035980224609375
1761915750974211600,2.864211669921875,-0.9744720458984375,-0.17999267578125,0.033843994140625
1761915750984265700,2.874265625,-0.9753265380859375,-0.1798553466796875,0.031341552734375
1761915750994319600,2.884319580078125,-0.975799560546875,-0.1846160888671875,0.034088134765625
1761915751004373800,2.894373779296875,-0.9756317138671875,-0.19244384765625,0.0365447998046875
1761915751014427600,2.904427734375,-0.9666900634765625,-0.1979827880859375,0.03839111328125
1761915751024481800,2.914481689453125,-0.96319580078125,-0.2036895751953125,0.0364990234375
1761915751034536000,2.924535888671875,-0.9631500244140625,-0.202850341796875,0.0343475341796875
1761915751044590600,2.934590576171875,-0.96697998046875,-0.1966705322265625,0.037384033203125
1761915751054644700,2.944644775390625,-0.977203369140625,-0.1899566650390625,0.0365447998046875
1761915751064698600,2.95469873046875,-0.9827423095703125,-0.1810760498046875,0.0381927490234375
1761915751074752800,2.964752685546875,-0.98345947265625,-0.1744537353515625,0.03643798828125
1761915751084806700,2.974806640625,-0.97637939453125,-0.1814727783203125,0.0313262939453125
1761915751094860800,2.98486083984375,-0.9643096923828125,-0.18060302734375,0.0373077392578125
1761915751104914700,2.994914794921875,-0.9729156494140625,-0.188079833984375,0.0390167236328125
1761915751114968800,3.00496875,-0.98333740234375,-0.1902923583984375,0.0420989990234375
1761915751125023000,3.01502294921875,-0.9849395751953125,-0.1891937255859375,0.0424652099609375
1761915751135076900,3.025076904296875,-0.9799957275390625,-0.1913604736328125,0.0409393310546875
1761915751145130800,3.035130859375,-0.9747314453125,-0.1932525634765625,0.03656005859375
1761915751155185700,3.045185546875,-0.97186279296875,-0.1923828125,0.0355682373046875
1761915751165239800,3.05523974609375,-0.96856689453125,-0.1891326904296875,0.0347900390625
1761915751175291000,3.065290771484375,-0.9676361083984375,-0.1878509521484375,0.0354766845703125
1761915751185344800,3.0753447265625,-0.968536376953125,-0.19049072265625,0.0371246337890625
1761915751195399000,3.08539892578125,-0.97271728515625,-0.1934661865234375,0.0406494140625
1761915751205452800,3.095452880859375,-0.97845458984375,-0.1972198486328125,0.0396575927734375
1761915751215506700,3.105506591796875,-0.97430419921875,-0.1948394775390625,0.039642333984375
1761915751225560600,3.115560546875,-0.9674224853515625,-0.18939208984375,0.036376953125
1761915751235614700,3.12561474609375,-0.9634857177734375,-0.1899871826171875,0.0325469970703125
1761915751245668900,3.1356689453125,-0.9623260498046875,-0.18927001953125,0.0311431884765625
1761915751255723800,3.145723876953125,-0.9618377685546875,-0.1917572021484375,0.032196044921875
1761915751265778000,3.15577783203125,-0.964080810546875,-0.196929931640625,0.0327606201171875
1761915751275831800,3.165831787109375,-0.96875,-0.20111083984375,0.0341644287109375
1761915751285885700,3.1758857421875,-0.9759521484375,-0.2008819580078125,0.0370941162109375
1761915751295939600,3.185939697265625,-0.9828643798828125,-0.197601318359375,0.039886474609375
1761915751305993700,3.19599365234375,-0.987335205078125,-0.194488525390625,0.03948974609375
1761915751316047600,3.206047607421875,-0.982635498046875,-0.189666748046875,0.036346435546875
1761915751326101800,3.216101806640625,-0.9774322509765625,-0.1855926513671875,0.0322418212890625
1761915751336155600,3.22615576171875,-0.9749755859375,-0.1834869384765625,0.0317535400390625
1761915751346209800,3.236209716796875,-0.974609375,-0.1852569580078125,0.0319976806640625
1761915751356264000,3.246263916015625,-0.9759521484375,-0.188262939453125,0.035003662109375
1761915751366318600,3.256318603515625,-0.978057861328125,-0.191619873046875,0.0390625
1761915751376372700,3.266372802734375,-0.97650146484375,-0.195281982421875,0.0421905517578125
1761915751386426600,3.276426513671875,-0.9737396240234375,-0.195343017578125,0.043975830078125
1761915751396480800,3.286480712890625,-0.9707794189453125,-0.1925201416015625,0.04205322265625
1761915751406534700,3.29653466796875,-0.97052001953125,-0.1898956298828125,0.038665771484375
1761915751416588800,3.3065888671875,-0.97357177734375,-0.1872711181640625,0.0384063720703125
1761915751426642700,3.316642578125,-0.973968505859375,-0.18817138671875,0.0380706787109375
1761915751436696800,3.32669677734375,-0.9705963134765625,-0.192535400390625,0.0372467041015625
1761915751446751000,3.3367509765625,-0.9634552001953125,-0.197906494140625,0.0352935791015625
1761915751456804900,3.346804931640625,-0.9586029052734375,-0.2012481689453125,0.0353851318359375
1761915751466859800,3.35685986328125,-0.9593048095703125,-0.2017974853515625,0.0347442626953125
1761915751476913700,3.36691357421875,-0.9612884521484375,-0.1985626220703125,0.0335845947265625
1761915751486967800,3.3769677734375,-0.96038818359375,-0.194305419921875,0.0323486328125
1761915751497021700,3.387021728515625,-0.9608612060546875,-0.1910400390625,0.0296783447265625
1761915751507075800,3.397075927734375,-0.9610137939453125,-0.1891937255859375,0.0298919677734375
1761915751517129700,3.407129638671875,-0.9650421142578125,-0.18878173828125,0.0320587158203125
1761915751527184000,3.417183837890625,-0.9671478271484375,-0.190948486328125,0.033294677734375
1761915751537237800,3.42723779296875,-0.9700775146484375,-0.1945343017578125,0.0361328125
1761915751547291600,3.437291748046875,-0.973388671875,-0.197021484375,0.0387115478515625
1761915751557345800,3.447345703125,-0.973236083984375,-0.1954498291015625,0.03863525390625
1761915751567399700,3.457399658203125,-0.9753265380859375,-0.1938629150390625,0.038848876953125
1761915751577454800,3.467454833984375,-0.9814605712890625,-0.190155029296875,0.0380859375
1761915751587508700,3.4775087890625,-0.9826202392578125,-0.18438720703125,0.035308837890625
1761915751597563000,3.48756298828125,-0.98052978515625,-0.181121826171875,0.0333404541015625
1761915751607616800,3.49761669921875,-0.980255126953125,-0.182891845703125,0.03216552734375
1761915751617670700,3.507670654296875,-0.9768829345703125,-0.1861724853515625,0.031341552734375
1761915751627724800,3.517724853515625,-0.971588134765625,-0.1905670166015625,0.032684326171875
1761915751637778700,3.52777880859375,-0.966522216796875,-0.1922760009765625,0.034759521484375
1761915751647832800,3.537832763671875,-0.9588623046875,-0.1945648193359375,0.0349884033203125
1761915751657886700,3.54788671875,-0.95355224609375,-0.19757080078125,0.0336151123046875
1761915751667940900,3.55794091796875,-0.95977783203125,-0.203277587890625,0.033294677734375
1761915751677995800,3.567995849609375,-0.9642791748046875,-0.2053985595703125,0.0354156494140625
1761915751688050000,3.5780498046875,-0.9634857177734375,-0.2012939453125,0.038818359375
1761915751698103600,3.588103515625,-0.9626007080078125,-0.1962127685546875,0.040802001953125
1761915751708157700,3.59815771484375,-0.9703369140625,-0.191497802734375,0.03924560546875
1761915751718211800,3.6082119140625,-0.973785400390625,-0.1905059814453125,0.0367279052734375
1761915751728265700,3.618265625,-0.9705352783203125,-0.1914825439453125,0.035369873046875
1761915751738320000,3.62831982421875,-0.9716644287109375,-0.1929168701171875,0.0340728759765625
1761915751748373800,3.638373779296875,-0.97381591796875,-0.1944580078125,0.0341949462890625
1761915751758428000,3.648427978515625,-0.9760589599609375,-0.1950836181640625,0.034759521484375
1761915751768481800,3.658481689453125,-0.9766387939453125,-0.195098876953125,0.034332275390625
1761915751778536000,3.668535888671875,-0.9794158935546875,-0.1944580078125,0.0351715087890625
1761915751788590600,3.678590576171875,-0.980377197265625,-0.19097900390625,0.03619384765625
1761915751798644700,3.688644775390625,-0.9819793701171875,-0.187713623046875,0.0372314453125
1761915751808698600,3.69869873046875,-0.979278564453125,-0.18267822265625,0.0358428955078125
1761915751818752800,3.708752685546875,-0.9767608642578125,-0.1809844970703125,0.033233642578125
1761915751828807000,3.718806884765625,-0.980133056640625,-0.1791229248046875,0.0342864990234375
1761915751838860800,3.72886083984375,-0.98284912109375,-0.1816864013671875,0.0367889404296875
1761915751848915000,3.7389150390625,-0.9786376953125,-0.1872406005859375,0.03436279296875
1761915751858968800,3.74896875,-0.97113037109375,-0.193267822265625,0.0312042236328125
1761915751869022700,3.759022705078125,-0.96710205078125,-0.200653076171875,0.032135009765625
1761915751879076600,3.76907666015625,-0.963623046875,-0.204010009765625,0.035675048828125
1761915751889130800,3.779130859375,-0.9660186767578125,-0.2032012939453125,0.036346435546875
1761915751899185700,3.789185546875,-0.974151611328125,-0.1978759765625,0.0347442626953125
1761915751909239800,3.79923974609375,-0.981170654296875,-0.18896484375,0.0337371826171875
1761915751919294000,3.8092939453125,-0.9832305908203125,-0.1818389892578125,0.031768798828125
1761915751929347800,3.819347900390625,-0.9813690185546875,-0.1800994873046875,0.0284576416015625
1761915751939402000,3.829402099609375,-0.9761505126953125,-0.180084228515625,0.02783203125
1761915751949455600,3.83945556640625,-0.9742279052734375,-0.1865997314453125,0.02801513671875
1761915751959509800,3.849509765625,-0.9740753173828125,-0.191650390625,0.0258026123046875
1761915751969563600,3.859563720703125,-0.9740753173828125,-0.1962738037109375,0.026275634765625
1761915751979617800,3.86961767578125,-0.9772796630859375,-0.19598388671875,0.0248870849609375
1761915751989671700,3.879671630859375,-0.9774932861328125,-0.1916961669921875,0.0234222412109375
1761915751999726800,3.889726806640625,-0.9769134521484375,-0.1850128173828125,0.0222930908203125
1761915752009781000,3.899781005859375,-0.9802398681640625,-0.1811981201171875,0.0208282470703125
1761915752019835000,3.9098349609375,-0.98382568359375,-0.1770782470703125,0.0218505859375
1761915752029888800,3.919888671875,-0.9818267822265625,-0.1747589111328125,0.0225067138671875
1761915752039942700,3.929942626953125,-0.9796905517578125,-0.1754913330078125,0.0236968994140625
1761915752049996800,3.939996826171875,-0.9823760986328125,-0.174468994140625,0.0233154296875
1761915752060050700,3.95005078125,-0.980682373046875,-0.17401123046875,0.02337646484375
1761915752070104800,3.960104736328125,-0.9764862060546875,-0.172393798828125,0.0226898193359375
1761915752080158700,3.97015869140625,-0.9760284423828125,-0.175567626953125,0.0195159912109375
1761915752090212900,3.980212890625,-0.975189208984375,-0.17828369140625,0.0188751220703125
1761915752100266800,3.990266845703125,-0.97222900390625,-0.17901611328125,0.0188140869140625
1761915752110321700,4.00032177734375,-0.9693756103515625,-0.1782989501953125,0.02215576171875
1761915752120375800,4.010375732421875,-0.9696807861328125,-0.1797027587890625,0.024017333984375
1761915752130429700,4.0204296875,-0.9719696044921875,-0.182830810546875,0.0255279541015625
1761915752140483800,4.03048388671875,-0.978912353515625,-0.18829345703125,0.02947998046875
1761915752150537700,4.040537841796875,-0.986236572265625,-0.19232177734375,0.034393310546875
1761915752160592000,4.050591796875,-0.982757568359375,-0.1910858154296875,0.0384521484375
1761915752170645800,4.060645751953125,-0.9730224609375,-0.185882568359375,0.0377044677734375
1761915752180706000,4.0707060546875,-0.9664306640625,-0.181671142578125,0.034759521484375
1761915752190760000,4.080760009765625,-0.9668121337890625,-0.180206298828125,0.0320587158203125
1761915752200814000,4.09081396484375,-0.9726715087890625,-0.1832733154296875,0.0315399169921875
1761915752210868000,4.100867919921875,-0.975189208984375,-0.187469482421875,0.0299224853515625
1761915752220923000,4.1109228515625,-0.9758453369140625,-0.1914215087890625,0.0301361083984375
1761915752230976800,4.120976806640625,-0.972442626953125,-0.1940155029296875,0.0309295654296875
1761915752241031000,4.131031005859375,-0.970306396484375,-0.1950836181640625,0.030029296875
1761915752251085000,4.1410849609375,-0.9698638916015625,-0.19525146484375,0.0283966064453125
1761915752261139000,4.151138916015625,-0.9731597900390625,-0.1888275146484375,0.0267333984375
1761915752271193000,4.161193115234375,-0.97607421875,-0.1817474365234375,0.0262908935546875
1761915752281247000,4.1712470703125,-0.97857666015625,-0.1755828857421875,0.0254364013671875
1761915752291301000,4.181301025390625,-0.9797515869140625,-0.1718902587890625,0.026123046875
1761915752301355000,4.19135498046875,-0.97821044921875,-0.1734466552734375,0.025543212890625
1761915752311409000,4.201408935546875,-0.97283935546875,-0.1779327392578125,0.02825927734375
1761915752321463800,4.2114638671875,-0.9681854248046875,-0.1849365234375,0.029083251953125
1761915752331518000,4.22151806640625,-0.9703826904296875,-0.1894073486328125,0.03082275390625
1761915752341572000,4.231572021484375,-0.9749298095703125,-0.184722900390625,0.0313873291015625
1761915752351626000,4.2416259765625,-0.9753265380859375,-0.1788330078125,0.031280517578125
1761915752361680100,4.25168017578125,-0.97857666015625,-0.17572021484375,0.028656005859375
1761915752371734000,4.261734130859375,-0.9825439453125,-0.1757049560546875,0.0262603759765625
1761915752381788000,4.271787841796875,-0.9825897216796875,-0.17572021484375,0.0250091552734375
1761915752391841800,4.281841796875,-0.9780120849609375,-0.17816162109375,0.0232391357421875
1761915752401896000,4.29189599609375,-0.9742279052734375,-0.180389404296875,0.0223388671875
1761915752411949800,4.30194970703125,-0.975799560546875,-0.1837005615234375,0.0252838134765625
1761915752422004000,4.31200390625,-0.97802734375,-0.1857147216796875,0.02764892578125
1761915752432059100,4.32205908203125,-0.9745330810546875,-0.18719482421875,0.02825927734375
1761915752442113000,4.332113037109375,-0.9671630859375,-0.1883087158203125,0.0266265869140625
1761915752452167000,4.3421669921875,-0.9626312255859375,-0.18804931640625,0.024993896484375
1761915752462220800,4.352220703125,-0.9621124267578125,-0.1884765625,0.02459716796875
1761915752472275000,4.36227490234375,-0.96514892578125,-0.18597412109375,0.0266876220703125
1761915752482328800,4.372328857421875,-0.9715728759765625,-0.1865081787109375,0.029541015625
1761915752492383000,4.382383056640625,-0.9817962646484375,-0.18463134765625,0.0323944091796875
1761915752502436900,4.392436767578125,-0.9871978759765625,-0.1814422607421875,0.0343170166015625
1761915752512491000,4.402490966796875,-0.9820404052734375,-0.17974853515625,0.03216552734375
1761915752522545000,4.412544921875,-0.9778289794921875,-0.1805267333984375,0.0289764404296875
1761915752532599800,4.422599853515625,-0.9781036376953125,-0.181182861328125,0.028076171875
1761915752542654000,4.432654052734375,-0.977386474609375,-0.1793212890625,0.028839111328125
1761915752552707800,4.442707763671875,-0.97418212890625,-0.183746337890625,0.0273284912109375
1761915752562762000,4.452761962890625,-0.9700469970703125,-0.1859130859375,0.027801513671875
1761915752572816000,4.46281591796875,-0.9693145751953125,-0.1858367919921875,0.02777099609375
1761915752582870000,4.4728701171875,-0.9720001220703125,-0.1821746826171875,0.0266571044921875
1761915752592924000,4.482923828125,-0.9796295166015625,-0.177093505859375,0.0278167724609375
1761915752602978000,4.49297802734375,-0.9916229248046875,-0.1752166748046875,0.027099609375
1761915752613032000,4.503031982421875,-1.0003509521484375,-0.1744232177734375,0.025665283203125
1761915752623086000,4.513086181640625,-0.9962615966796875,-0.17181396484375,0.025726318359375
1761915752633141000,4.52314111328125,-0.9828033447265625,-0.16973876953125,0.0243072509765625
1761915752643195000,4.53319482421875,-0.971893310546875,-0.1724853515625,0.0232391357421875
1761915752653249000,4.5432490234375,-0.96484375,-0.1760406494140625,0.02154541015625
1761915752663303000,4.553302978515625,-0.9677581787109375,-0.179931640625,0.02178955078125
1761915752673357000,4.563357177734375,-0.9726409912109375,-0.1849822998046875,0.0240631103515625
1761915752683411000,4.573410888671875,-0.9727935791015625,-0.1903533935546875,0.0229339599609375
1761915752693465000,4.583465087890625,-0.96978759765625,-0.1922607421875,0.0211639404296875
1761915752703519000,4.59351904296875,-0.964447021484375,-0.1920623779296875,0.0224609375
1761915752713572900,4.60357275390625,-0.9648590087890625,-0.18731689453125,0.02484130859375
1761915752723626800,4.613626708984375,-0.9673309326171875,-0.1850433349609375,0.024017333984375
1761915752733681000,4.623680908203125,-0.971771240234375,-0.1847381591796875,0.02392578125
1761915752743736000,4.633736083984375,-0.9806365966796875,-0.1832733154296875,0.0248565673828125
1761915752753790000,4.6437900390625,-0.9866943359375,-0.18060302734375,0.024139404296875
1761915752763844000,4.653843994140625,-0.9836273193359375,-0.1780853271484375,0.0225982666015625
1761915752773898000,4.66389794921875,-0.975921630859375,-0.178497314453125,0.02020263671875
1761915752783952000,4.673951904296875,-0.9739532470703125,-0.1786041259765625,0.0187530517578125
1761915752794005800,4.684005859375,-0.9752655029296875,-0.180145263671875,0.0194244384765625
1761915752804060000,4.694059814453125,-0.9793548583984375,-0.1797027587890625,0.0199432373046875
1761915752814113800,4.70411376953125,-0.983917236328125,-0.179962158203125,0.0230865478515625
1761915752824168000,4.71416796875,-0.9877166748046875,-0.1778411865234375,0.024078369140625
1761915752834221800,4.724221923828125,-0.9885406494140625,-0.1729888916015625,0.0227508544921875
1761915752844277000,4.734277099609375,-0.9863128662109375,-0.1702728271484375,0.019073486328125
1761915752854331100,4.7443310546875,-0.981842041015625,-0.1700439453125,0.0175018310546875
1761915752864384800,4.754384765625,-0.976165771484375,-0.170684814453125,0.01654052734375
1761915752874439000,4.76443896484375,-0.9733734130859375,-0.1761932373046875,0.0181121826171875
1761915752884492800,4.774492919921875,-0.9756317138671875,-0.1851806640625,0.02105712890625
1761915752894547000,4.784546875,-0.9768829345703125,-0.19183349609375,0.025177001953125
1761915752904600800,4.794600830078125,-0.97540283203125,-0.1961669921875,0.0262908935546875
1761915752914655000,4.804655029296875,-0.9704437255859375,-0.19580078125,0.0257568359375
1761915752924708900,4.814708984375,-0.9611358642578125,-0.1919097900390625,0.0246734619140625
1761915752934763000,4.824762939453125,-0.9597625732421875,-0.1875762939453125,0.023468017578125
1761915752944818000,4.83481787109375,-0.9642333984375,-0.1861572265625,0.02276611328125
1761915752954871800,4.844871826171875,-0.973114013671875,-0.1869049072265625,0.0252685546875
1761915752964926000,4.854926025390625,-0.98046875,-0.1875,0.027099609375
1761915752974979800,4.864979736328125,-0.977386474609375,-0.190673828125,0.02691650390625
1761915752985034000,4.875033935546875,-0.96990966796875,-0.19244384765625,0.0240325927734375
1761915752995088000,4.885087890625,-0.962799072265625,-0.191741943359375,0.020751953125
1761915753005142000,4.89514208984375,-0.961761474609375,-0.1898193359375,0.0197296142578125
1761915753015196000,4.90519580078125,-0.9665985107421875,-0.1840057373046875,0.01971435546875
1761915753025250000,4.91525,-0.976226806640625,-0.179107666015625,0.020111083984375
1761915753035304000,4.925303955078125,-0.9850616455078125,-0.17559814453125,0.0179595947265625
1761915753045357800,4.93535791015625,-0.99041748046875,-0.173126220703125,0.016082763671875
1761915753055413000,4.9454130859375,-0.9886474609375,-0.170562744140625,0.0155792236328125
1761915753065467000,4.955466796875,-0.9823150634765625,-0.1723175048828125,0.0135955810546875
1761915753075521000,4.96552099609375,-0.9733734130859375,-0.17724609375,0.0099639892578125
1761915753085575000,4.975574951171875,-0.9686737060546875,-0.1824188232421875,0.008697509765625
1761915753095629000,4.985629150390625,-0.972320556640625,-0.1874237060546875,0.0102691650390625
1761915753105683000,4.995682861328125,-0.9736175537109375,-0.1831817626953125,0.0149383544921875
1761915753115737000,5.005737060546875,-0.9771881103515625,-0.1728515625,0.0171051025390625
1761915753125790700,5.015790771484375,-0.98760986328125,-0.1657257080078125,0.017364501953125
1761915753135844900,5.025844970703125,-0.9931793212890625,-0.1653594970703125,0.0186004638671875
1761915753145898800,5.035898681640625,-0.98992919921875,-0.1686553955078125,0.0209503173828125
1761915753155954000,5.045953857421875,-0.9828338623046875,-0.1796112060546875,0.022613525390625
1761915753166008000,5.056008056640625,-0.979888916015625,-0.1907958984375,0.0258941650390625
1761915753176055600,5.0660556640625,-0.9751434326171875,-0.196197509765625,0.029754638671875
1761915753186109700,5.076109619140625,-0.9696807861328125,-0.199554443359375,0.029541015625
1761915753196163600,5.08616357421875,-0.967254638671875,-0.200927734375,0.027008056640625
1761915753206217700,5.0962177734375,-0.9640045166015625,-0.19708251953125,0.0261077880859375
1761915753216271600,5.106271728515625,-0.9598236083984375,-0.19244384765625,0.0278472900390625
1761915753226325800,5.11632568359375,-0.96685791015625,-0.1912689208984375,0.03045654296875
1761915753236379600,5.126379638671875,-0.982177734375,-0.195526123046875,0.0352630615234375
1761915753246433800,5.136433837890625,-0.99102783203125,-0.1939544677734375,0.0414276123046875
1761915753256488700,5.14648876953125,-0.9913787841796875,-0.1916961669921875,0.04180908203125
1761915753266542600,5.15654248046875,-0.987701416015625,-0.1902923583984375,0.03973388671875
1761915753276596700,5.1665966796875,-0.9823455810546875,-0.18829345703125,0.0342254638671875
1761915753286650600,5.176650634765625,-0.975067138671875,-0.1833343505859375,0.0287628173828125
1761915753296704800,5.186704833984375,-0.9687042236328125,-0.180145263671875,0.0258331298828125
1761915753306758700,5.196758544921875,-0.971527099609375,-0.17938232421875,0.0246734619140625
1761915753316812800,5.206812744140625,-0.975677490234375,-0.181427001953125,0.0232696533203125
1761915753326866700,5.21686669921875,-0.9776611328125,-0.17938232421875,0.022308349609375
1761915753336920800,5.2269208984375,-0.9734649658203125,-0.17822265625,0.018707275390625
1761915753346974700,5.236974609375,-0.965789794921875,-0.178192138671875,0.0159454345703125
1761915753357029600,5.247029541015625,-0.95965576171875,-0.180145263671875,0.0144805908203125
1761915753367080700,5.257080810546875,-0.958038330078125,-0.18145751953125,0.01751708984375
1761915753377134800,5.267134765625,-0.963592529296875,-0.18218994140625,0.0195465087890625
1761915753387188700,5.277188720703125,-0.96966552734375,-0.184539794921875,0.0207672119140625
1761915753397243600,5.28724365234375,-0.9717559814453125,-0.187103271484375,0.021759033203125
1761915753407297500,5.297297607421875,-0.9675140380859375,-0.18780517578125,0.0241241455078125
1761915753417351700,5.3073515625,-0.9600372314453125,-0.18792724609375,0.0229339599609375
1761915753427405600,5.317405517578125,-0.95562744140625,-0.1859588623046875,0.022552490234375
1761915753437459700,5.327459716796875,-0.9552001953125,-0.18438720703125,0.02337646484375
1761915753447513600,5.337513671875,-0.96099853515625,-0.184295654296875,0.0240936279296875
1761915753457567700,5.347567626953125,-0.96661376953125,-0.1839599609375,0.02490234375
1761915753467622000,5.357621826171875,-0.9705352783203125,-0.1817169189453125,0.0257568359375
1761915753477675800,5.36767578125,-0.972198486328125,-0.181640625,0.0254669189453125
1761915753487730700,5.377730712890625,-0.9733123779296875,-0.179718017578125,0.0276336669921875
1761915753497784600,5.38778466796875,-0.9799652099609375,-0.1844024658203125,0.0305938720703125
1761915753507838700,5.397838623046875,-0.984527587890625,-0.1877899169921875,0.0286407470703125
1761915753517892600,5.407892578125,-0.981536865234375,-0.18389892578125,0.0303192138671875
1761915753527946800,5.41794677734375,-0.97808837890625,-0.1789703369140625,0.031890869140625
1761915753538000600,5.428000732421875,-0.974884033203125,-0.1806182861328125,0.0306243896484375
1761915753548054800,5.4380546875,-0.9746856689453125,-0.18463134765625,0.0296173095703125
1761915753558109000,5.44810888671875,-0.98077392578125,-0.1912384033203125,0.0304107666015625
1761915753568162600,5.45816259765625,-0.9881439208984375,-0.1980438232421875,0.0325927734375
1761915753578216700,5.468216796875,-0.9908905029296875,-0.200408935546875,0.0342559814453125
1761915753588270600,5.4782705078125,-0.9901580810546875,-0.19598388671875,0.0354156494140625
1761915753598325800,5.48832568359375,-0.98919677734375,-0.1905975341796875,0.0362396240234375
1761915753608379600,5.498379638671875,-0.990447998046875,-0.1884765625,0.035736083984375
1761915753618433800,5.508433837890625,-0.9884033203125,-0.1885223388671875,0.0336761474609375
1761915753628487700,5.51848779296875,-0.981048583984375,-0.1915435791015625,0.0311737060546875
1761915753638541800,5.528541748046875,-0.978546142578125,-0.1952667236328125,0.0311431884765625
1761915753648595500,5.538595458984375,-0.979736328125,-0.19683837890625,0.0334625244140625
1761915753658649600,5.548649658203125,-0.9807281494140625,-0.1975250244140625,0.035186767578125
1761915753668703700,5.558703857421875,-0.981231689453125,-0.1977691650390625,0.035247802734375
1761915753678757600,5.568757568359375,-0.979095458984375,-0.19384765625,0.0349273681640625
1761915753688811800,5.578811767578125,-0.9752197265625,-0.1869964599609375,0.0316314697265625
1761915753698866700,5.58886669921875,-0.9745941162109375,-0.17926025390625,0.0290069580078125
1761915753708920800,5.5989208984375,-0.9800262451171875,-0.1748809814453125,0.0292205810546875
1761915753718974500,5.608974365234375,-0.9849395751953125,-0.1715545654296875,0.0293121337890625
1761915753729028600,5.619028564453125,-0.98529052734375,-0.172149658203125,0.0279541015625
1761915753739082500,5.62908251953125,-0.9791717529296875,-0.1756439208984375,0.0246734619140625
1761915753749136600,5.63913671875,-0.9683685302734375,-0.179718017578125,0.022674560546875
1761915753759190800,5.649190673828125,-0.9585723876953125,-0.1841278076171875,0.02264404296875
1761915753769244700,5.65924462890625,-0.9515838623046875,-0.188751220703125,0.02203369140625
1761915753779298800,5.669298828125,-0.9496002197265625,-0.1886444091796875,0.0214691162109375
1761915753789352700,5.679352783203125,-0.9571533203125,-0.1877288818359375,0.023223876953125
1761915753799407600,5.68940771484375,-0.96453857421875,-0.1848907470703125,0.0256195068359375
1761915753809461500,5.69946142578125,-0.969573974609375,-0.1822662353515625,0.0272674560546875
1761915753819515600,5.709515625,-0.970550537109375,-0.1810302734375,0.0271759033203125
1761915753829569500,5.719569580078125,-0.9731292724609375,-0.1797332763671875,0.0280609130859375
1761915753839623700,5.729623779296875,-0.9784088134765625,-0.179718017578125,0.0285186767578125
1761915753849677800,5.739677734375,-0.9798431396484375,-0.1807403564453125,0.02691650390625
1761915753859731700,5.749731689453125,-0.9744415283203125,-0.1829681396484375,0.0254058837890625
1761915753869785900,5.759785888671875,-0.96551513671875,-0.1853790283203125,0.0239105224609375
1761915753879839700,5.76983984375,-0.9601593017578125,-0.1884002685546875,0.02587890625
1761915753889894000,5.779893798828125,-0.9615936279296875,-0.1930694580078125,0.028289794921875
1761915753899948500,5.789948486328125,-0.967193603515625,-0.1943359375,0.0297393798828125
1761915753910002700,5.800002685546875,-0.9698638916015625,-0.19488525390625,0.030364990234375
1761915753920056600,5.810056640625,-0.9732208251953125,-0.1927032470703125,0.030517578125
1761915753930110700,5.82011083984375,-0.9749755859375,-0.1895751953125,0.0318756103515625
1761915753940164900,5.830164794921875,-0.9737396240234375,-0.188690185546875,0.0327911376953125
1761915753950220500,5.840220458984375,-0.9719696044921875,-0.1872711181640625,0.031341552734375
1761915753960275700,5.850275634765625,-0.9684295654296875,-0.1871490478515625,0.0308074951171875
1761915753970329900,5.860329833984375,-0.966796875,-0.190216064453125,0.0307464599609375
1761915753980383700,5.8703837890625,-0.9700927734375,-0.19256591796875,0.0301971435546875
1761915753990437600,5.880437744140625,-0.975555419921875,-0.190582275390625,0.0310821533203125
1761915754000491500,5.890491455078125,-0.9817047119140625,-0.1851043701171875,0.0315093994140625
1761915754010545700,5.900545654296875,-0.991851806640625,-0.1791229248046875,0.0316009521484375
1761915754020599600,5.910599609375,-0.9953765869140625,-0.1724700927734375,0.0318756103515625
1761915754030653700,5.92065380859375,-0.9959716796875,-0.1718902587890625,0.03082275390625
1761915754040707600,5.93070751953125,-0.9896087646484375,-0.1758270263671875,0.026123046875
1761915754050761700,5.94076171875,-0.974945068359375,-0.1764984130859375,0.0262451171875
1761915754060816600,5.950816650390625,-0.9641265869140625,-0.17816162109375,0.022125244140625
1761915754070870500,5.96087060546875,-0.9616241455078125,-0.182098388671875,0.0204620361328125
1761915754080924700,5.970924560546875,-0.9671173095703125,-0.18695068359375,0.021209716796875
1761915754090978600,5.980978515625,-0.9689483642578125,-0.1899566650390625,0.024261474609375
1761915754101032700,5.99103271484375,-0.974945068359375,-0.192047119140625,0.02496337890625
1761915754111086600,6.001086669921875,-0.9744720458984375,-0.190185546875,0.023529052734375
1761915754121140700,6.011140625,-0.9680328369140625,-0.1842803955078125,0.0204620361328125
1761915754131194600,6.021194580078125,-0.9668731689453125,-0.1818389892578125,0.01806640625
1761915754141248800,6.031248779296875,-0.9698486328125,-0.1833038330078125,0.0190582275390625
1761915754151302700,6.041302734375,-0.97369384765625,-0.1841583251953125,0.0193328857421875
1761915754161357600,6.051357666015625,-0.9746551513671875,-0.184173583984375,0.019256591796875
1761915754171411700,6.06141162109375,-0.974029541015625,-0.183197021484375,0.0199737548828125
1761915754181472300,6.07147216796875,-0.9766693115234375,-0.1819305419921875,0.019989013671875
1761915754191526100,6.081526123046875,-0.978546142578125,-0.182098388671875,0.024383544921875
1761915754201580300,6.091580322265625,-0.9813385009765625,-0.17938232421875,0.026702880859375
1761915754211634200,6.10163427734375,-0.98565673828125,-0.1749420166015625,0.0265960693359375
1761915754221688300,6.111688232421875,-0.9906463623046875,-0.1716766357421875,0.0258941650390625
1761915754231742500,6.121742431640625,-0.9940185546875,-0.17010498046875,0.0257110595703125
1761915754241796400,6.13179638671875,-0.992950439453125,-0.1689453125,0.02471923828125
1761915754251850200,6.141850341796875,-0.9872589111328125,-0.172149658203125,0.0223388671875
1761915754261905200,6.1519052734375,-0.9790802001953125,-0.1785736083984375,0.0189666748046875
1761915754271959300,6.161959228515625,-0.970062255859375,-0.183929443359375,0.01995849609375
1761915754282013200,6.17201318359375,-0.966278076171875,-0.1885223388671875,0.0229339599609375
1761915754292067300,6.1820673828125,-0.960113525390625,-0.191070556640625,0.024810791015625
1761915754302121200,6.192121337890625,-0.959136962890625,-0.19110107421875,0.0244598388671875
1761915754312175400,6.20217529296875,-0.9614410400390625,-0.187652587890625,0.0234222412109375
1761915754322229500,6.2122294921875,-0.9694671630859375,-0.1822357177734375,0.023529052734375
1761915754332283100,6.222283203125,-0.9788360595703125,-0.1788787841796875,0.0240020751953125
1761915754342337300,6.232337158203125,-0.9857177734375,-0.1765899658203125,0.02545166015625
1761915754352391200,6.24239111328125,-0.9915618896484375,-0.1771240234375,0.028106689453125
1761915754362446300,6.2524462890625,-0.99188232421875,-0.1788177490234375,0.029449462890625
1761915754372500200,6.262500244140625,-0.9883880615234375,-0.18157958984375,0.0285491943359375
1761915754382554400,6.272554443359375,-0.982025146484375,-0.18408203125,0.0270538330078125
1761915754392608300,6.282608154296875,-0.9768829345703125,-0.1849517822265625,0.0257415771484375
1761915754402662400,6.292662353515625,-0.9718780517578125,-0.182952880859375,0.0240631103515625
1761915754412716300,6.30271630859375,-0.971466064453125,-0.1816253662109375,0.0217132568359375
1761915754422770200,6.312770263671875,-0.97039794921875,-0.1806640625,0.020416259765625
1761915754432824300,6.32282421875,-0.9741973876953125,-0.181488037109375,0.0207366943359375
1761915754442878200,6.332878173828125,-0.980194091796875,-0.18572998046875,0.022003173828125
1761915754452932400,6.342932373046875,-0.9872894287109375,-0.185333251953125,0.0229034423828125
1761915754462987300,6.3529873046875,-0.9880523681640625,-0.1837158203125,0.02410888671875
1761915754473041400,6.36304150390625,-0.9859771728515625,-0.18023681640625,0.023162841796875
1761915754483095300,6.37309521484375,-0.9821014404296875,-0.1783905029296875,0.02252197265625
1761915754493149200,6.383149169921875,-0.977813720703125,-0.1819915771484375,0.0200042724609375
1761915754503203000,6.393203125,-0.9803466796875,-0.1875457763671875,0.0164337158203125
1761915754513257200,6.40325732421875,-0.9802093505859375,-0.1878662109375,0.015380859375
1761915754523311400,6.413311279296875,-0.9734954833984375,-0.1863861083984375,0.0165252685546875
1761915754533365200,6.423365234375,-0.9686737060546875,-0.18243408203125,0.0166778564453125
1761915754543419400,6.43341943359375,-0.9680938720703125,-0.180389404296875,0.014801025390625
1761915754553473300,6.443473388671875,-0.962738037109375,-0.1779937744140625,0.0145721435546875
1761915754563528200,6.453528076171875,-0.9618682861328125,-0.1820831298828125,0.0136566162109375
1761915754573582000,6.46358203125,-0.9624176025390625,-0.1874237060546875,0.01318359375
1761915754583636200,6.47363623046875,-0.9597930908203125,-0.1904144287109375,0.0140228271484375
1761915754593690000,6.483690185546875,-0.958404541015625,-0.1917877197265625,0.0137786865234375
1761915754603744300,6.493744140625,-0.9613800048828125,-0.1936798095703125,0.0146484375
1761915754613798400,6.50379833984375,-0.9639739990234375,-0.191802978515625,0.0166473388671875
1761915754623852300,6.513852294921875,-0.970611572265625,-0.188140869140625,0.0171966552734375
1761915754633906400,6.523906494140625,-0.9791717529296875,-0.183746337890625,0.016510009765625
1761915754643960300,6.533960205078125,-0.98699951171875,-0.17840576171875,0.0163726806640625
1761915754654014500,6.544014404296875,-0.9843597412109375,-0.174530029296875,0.0162811279296875
1761915754664069000,6.554069091796875,-0.9815216064453125,-0.1735992431640625,0.0156707763671875
1761915754674123300,6.564123291015625,-0.978485107421875,-0.1768798828125,0.0150146484375
1761915754684177200,6.57417724609375,-0.975799560546875,-0.1799468994140625,0.014739990234375
1761915754694231300,6.584231201171875,-0.9759979248046875,-0.1842803955078125,0.01348876953125
1761915754704285400,6.594285400390625,-0.9799041748046875,-0.1865997314453125,0.016448974609375
1761915754714339300,6.60433935546875,-0.9825439453125,-0.187347412109375,0.02001953125
1761915754724393500,6.6143935546875,-0.9782562255859375,-0.1851959228515625,0.0199127197265625
1761915754734447400,6.624447265625,-0.97760009765625,-0.1800384521484375,0.017242431640625
1761915754744501200,6.634501220703125,-0.9764862060546875,-0.1800689697265625,0.0137786865234375
1761915754754555100,6.64455517578125,-0.9749298095703125,-0.183868408203125,0.009857177734375
1761915754764610300,6.6546103515625,-0.971527099609375,-0.187896728515625,0.012603759765625
1761915754774664200,6.664664306640625,-0.971221923828125,-0.1927032470703125,0.0146331787109375
1761915754784718300,6.67471826171875,-0.96875,-0.1948699951171875,0.015869140625
1761915754794772500,6.6847724609375,-0.9700164794921875,-0.1958160400390625,0.014862060546875
1761915754804826400,6.694826416015625,-0.968658447265625,-0.1931915283203125,0.014373779296875
1761915754814880300,6.70488037109375,-0.9678955078125,-0.1911468505859375,0.014617919921875
1761915754824934100,6.71493408203125,-0.9703369140625,-0.1924896240234375,0.01348876953125
1761915754834988300,6.72498828125,-0.9756011962890625,-0.1922607421875,0.0152130126953125
1761915754845042200,6.735042236328125,-0.9781494140625,-0.19091796875,0.01568603515625
1761915754855096300,6.745096435546875,-0.97747802734375,-0.1919708251953125,0.013916015625
1761915754865151200,6.755151123046875,-0.975555419921875,-0.19122314453125,0.0144805908203125
1761915754875205400,6.765205322265625,-0.97381591796875,-0.18896484375,0.0135345458984375
1761915754885259300,6.77525927734375,-0.976593017578125,-0.1844940185546875,0.01220703125
1761915754895313200,6.785313232421875,-0.98114013671875,-0.1817626953125,0.0120849609375
1761915754905367300,6.7953671875,-0.9845123291015625,-0.1791534423828125,0.0116424560546875
1761915754915421200,6.805421142578125,-0.986480712890625,-0.17877197265625,0.0118255615234375
1761915754925475300,6.815475341796875,-0.9831390380859375,-0.1818695068359375,0.0105133056640625
1761915754935529200,6.825529296875,-0.977874755859375,-0.18292236328125,0.01080322265625
1761915754945583400,6.835583251953125,-0.9720001220703125,-0.1843414306640625,0.0088348388671875
1761915754955637200,6.84563720703125,-0.9674224853515625,-0.1823272705078125,0.0088348388671875
1761915754965692200,6.855692138671875,-0.96783447265625,-0.1849212646484375,0.008575439453125
1761915754975746000,6.86574609375,-0.97845458984375,-0.186553955078125,0.0105133056640625
1761915754985800200,6.87580029296875,-0.98529052734375,-0.18719482421875,0.0135955810546875
1761915754995854300,6.885854248046875,-0.979583740234375,-0.1854400634765625,0.014007568359375
1761915755005908200,6.895908203125,-0.969207763671875,-0.1838836669921875,0.0125885009765625
1761915755015962400,6.90596240234375,-0.9618988037109375,-0.1842498779296875,0.0108184814453125
1761915755026016300,6.916016357421875,-0.9608306884765625,-0.186737060546875,0.010955810546875
1761915755036070400,6.9260703125,-0.9688568115234375,-0.1898345947265625,0.01251220703125
1761915755046124300,6.936124267578125,-0.9792938232421875,-0.1911163330078125,0.015533447265625
1761915755056178400,6.946178466796875,-0.9817962646484375,-0.189453125,0.0146026611328125
1761915755066233000,6.956233154296875,-0.98028564453125,-0.19012451171875,0.01263427734375
1761915755076287200,6.966287353515625,-0.974395751953125,-0.190032958984375,0.012969970703125
1761915755086341400,6.97634130859375,-0.969635009765625,-0.1899871826171875,0.01226806640625
1761915755096395300,6.986395263671875,-0.9646759033203125,-0.18865966796875,0.011383056640625
1761915755106449400,6.996449462890625,-0.96441650390625,-0.1889495849609375,0.009552001953125
1761915755116503300,7.00650341796875,-0.9725189208984375,-0.1905670166015625,0.011749267578125
1761915755126557400,7.016557373046875,-0.98248291015625,-0.189666748046875,0.0141143798828125
1761915755136611300,7.026611328125,-0.9870147705078125,-0.187225341796875,0.0178375244140625
1761915755146665200,7.036665283203125,-0.9889068603515625,-0.185211181640625,0.01922607421875
1761915755156719000,7.046718994140625,-0.987030029296875,-0.182373046875,0.0180511474609375
1761915755166774300,7.056774169921875,-0.9818115234375,-0.1795501708984375,0.018524169921875
1761915755176828400,7.066828369140625,-0.9792633056640625,-0.1808319091796875,0.016082763671875
1761915755186878700,7.076878662109375,-0.977264404296875,-0.184173583984375,0.016143798828125
1761915755196932900,7.086932861328125,-0.9769287109375,-0.1869659423828125,0.019256591796875
1761915755206986800,7.09698681640625,-0.9806976318359375,-0.1881866455078125,0.0186004638671875
1761915755217041000,7.107041015625,-0.9811553955078125,-0.1898345947265625,0.0186767578125
1761915755227094500,7.117094482421875,-0.9777679443359375,-0.1919403076171875,0.0179595947265625
1761915755237148700,7.127148681640625,-0.9692535400390625,-0.19451904296875,0.0162811279296875
1761915755247202600,7.13720263671875,-0.9604644775390625,-0.1956329345703125,0.01568603515625
1761915755257256700,7.147256591796875,-0.9575347900390625,-0.1963348388671875,0.0147705078125
1761915755267311600,7.1573115234375,-0.9580535888671875,-0.2009735107421875,0.0152130126953125
1761915755277365800,7.16736572265625,-0.961517333984375,-0.2032012939453125,0.01580810546875
1761915755287420000,7.177419921875,-0.967132568359375,-0.2036895751953125,0.016571044921875
1761915755297473800,7.187473876953125,-0.9697113037109375,-0.2006378173828125,0.017181396484375
1761915755307527700,7.197527587890625,-0.9706573486328125,-0.1974639892578125,0.0149078369140625
1761915755317581600,7.20758154296875,-0.9669952392578125,-0.1946563720703125,0.0128021240234375
1761915755327635700,7.2176357421875,-0.961883544921875,-0.1913909912109375,0.0104522705078125
1761915755337689600,7.227689697265625,-0.958740234375,-0.1891632080078125,0.0096588134765625
1761915755347743700,7.23774365234375,-0.9610137939453125,-0.188629150390625,0.0086822509765625
1761915755357797600,7.247797607421875,-0.9698333740234375,-0.1888885498046875,0.0096435546875
1761915755367852800,7.257852783203125,-0.97784423828125,-0.1859130859375,0.01251220703125
1761915755377906700,7.26790673828125,-0.983428955078125,-0.1819305419921875,0.0128936767578125
1761915755387960600,7.277960693359375,-0.986785888671875,-0.1790924072265625,0.0147552490234375
1761915755398014700,7.2880146484375,-0.9854583740234375,-0.17938232421875,0.0150299072265625
1761915755408068600,7.298068603515625,-0.9778900146484375,-0.1782989501953125,0.0162353515625
1761915755418122800,7.308122802734375,-0.979766845703125,-0.1793365478515625,0.0162506103515625
1761915755428176600,7.3181767578125,-0.98223876953125,-0.17486572265625,0.018157958984375
1761915755438230800,7.328230712890625,-0.9869537353515625,-0.1766815185546875,0.0167388916015625
1761915755448284700,7.33828466796875,-0.994354248046875,-0.183074951171875,0.01776123046875
1761915755458338800,7.3483388671875,-0.9931793212890625,-0.1832275390625,0.0211181640625
1761915755468393700,7.358393798828125,-0.98480224609375,-0.18609619140625,0.0201873779296875
1761915755478447600,7.368447509765625,-0.9688873291015625,-0.188812255859375,0.019561767578125
1761915755488501800,7.378501708984375,-0.9574737548828125,-0.1927032470703125,0.0198974609375
1761915755498555600,7.3885556640625,-0.961639404296875,-0.19708251953125,0.024200439453125
1761915755508609800,7.39860986328125,-0.9750823974609375,-0.202178955078125,0.0313720703125
1761915755518663700,7.40866357421875,-0.981964111328125,-0.2062225341796875,0.0327301025390625
1761915755528717800,7.4187177734375,-0.979736328125,-0.205474853515625,0.03167724609375
1761915755538771700,7.428771728515625,-0.9780120849609375,-0.2036895751953125,0.0313720703125
1761915755548825900,7.438825927734375,-0.971282958984375,-0.20489501953125,0.030487060546875
1761915755558880800,7.448880859375,-0.96624755859375,-0.2047576904296875,0.028289794921875
1761915755568934700,7.4589345703125,-0.965728759765625,-0.205291748046875,0.0272216796875
1761915755578988800,7.46898876953125,-0.9684600830078125,-0.2057952880859375,0.0269622802734375
1761915755589042700,7.479042724609375,-0.9751434326171875,-0.203887939453125,0.027435302734375
1761915755599096800,7.489096923828125,-0.981689453125,-0.197052001953125,0.0279083251953125
1761915755609150700,7.499150634765625,-0.9846954345703125,-0.1940460205078125,0.029266357421875
1761915755619204900,7.509204833984375,-0.98480224609375,-0.1915435791015625,0.029571533203125
1761915755629258800,7.5192587890625,-0.981781005859375,-0.19171142578125,0.0281982421875
1761915755639312600,7.529312744140625,-0.9768829345703125,-0.1923065185546875,0.0272216796875
1761915755649366500,7.539366455078125,-0.97076416015625,-0.19329833984375,0.025115966796875
1761915755659421700,7.549421630859375,-0.9651947021484375,-0.1953887939453125,0.0245208740234375
1761915755669475800,7.559475830078125,-0.9646453857421875,-0.1971588134765625,0.0253448486328125
1761915755679529700,7.56952978515625,-0.96881103515625,-0.1967926025390625,0.0251922607421875
1761915755689583900,7.579583984375,-0.97216796875,-0.191925048828125,0.022705078125
1761915755699637800,7.5896376953125,-0.9787139892578125,-0.18365478515625,0.01898193359375
1761915755709691600,7.599691650390625,-0.9783172607421875,-0.177398681640625,0.015289306640625
1761915755719745500,7.60974560546875,-0.971435546875,-0.175872802734375,0.012786865234375
1761915755729799700,7.619799560546875,-0.9645538330078125,-0.176849365234375,0.0128326416015625
1761915755739853600,7.629853515625,-0.9602813720703125,-0.18438720703125,0.013916015625
1761915755749907700,7.63990771484375,-0.96087646484375,-0.1921844482421875,0.015594482421875
1761915755759963000,7.649962890625,-0.964263916015625,-0.1981201171875,0.016204833984375
1761915755770016800,7.660016845703125,-0.9670562744140625,-0.2020111083984375,0.017120361328125
1761915755780070700,7.670070556640625,-0.9687042236328125,-0.2025299072265625,0.01776123046875
1761915755790124500,7.68012451171875,-0.9690093994140625,-0.2015380859375,0.0168609619140625
1761915755800178700,7.6901787109375,-0.97149658203125,-0.2000579833984375,0.017547607421875
1761915755810232600,7.700232666015625,-0.977447509765625,-0.1956329345703125,0.019317626953125
1761915755820286700,7.71028662109375,-0.981719970703125,-0.19219970703125,0.021514892578125
1761915755830340600,7.720340576171875,-0.9867706298828125,-0.1909332275390625,0.0219879150390625
1761915755840394800,7.730394775390625,-0.98968505859375,-0.1886138916015625,0.0223846435546875
1761915755850448600,7.74044873046875,-0.9894866943359375,-0.1874847412109375,0.0235595703125
1761915755860503600,7.750503662109375,-0.9901123046875,-0.1876068115234375,0.025146484375
1761915755870557700,7.7605576171875,-0.9938507080078125,-0.1953887939453125,0.0269775390625
1761915755880611600,7.770611572265625,-0.9936370849609375,-0.19854736328125,0.0314178466796875
1761915755890665700,7.780665771484375,-0.9906768798828125,-0.199249267578125,0.03460693359375
1761915755900719600,7.7907197265625,-0.9817657470703125,-0.19659423828125,0.0348663330078125
1761915755910773800,7.800773681640625,-0.9721832275390625,-0.19586181640625,0.0322723388671875
1761915755920827600,7.81082763671875,-0.9680328369140625,-0.19757080078125,0.0266571044921875
1761915755930881800,7.8208818359375,-0.967926025390625,-0.1975250244140625,0.023345947265625
1761915755940935700,7.830935791015625,-0.968597412109375,-0.1962432861328125,0.021148681640625
1761915755950989800,7.84098974609375,-0.9671783447265625,-0.1916961669921875,0.02069091796875
1761915755961044700,7.851044677734375,-0.9680328369140625,-0.1893463134765625,0.0188446044921875
1761915755971098600,7.8610986328125,-0.9662017822265625,-0.1900787353515625,0.0197906494140625
1761915755981152800,7.87115283203125,-0.9623870849609375,-0.195526123046875,0.0165863037109375
1761915755991206700,7.88120654296875,-0.952728271484375,-0.1993408203125,0.01043701171875
1761915756001260800,7.8912607421875,-0.945587158203125,-0.2006683349609375,0.0052642822265625
1761915756011314700,7.901314697265625,-0.95086669921875,-0.1983184814453125,0.0047149658203125
1761915756021368800,7.911368896484375,-0.9635009765625,-0.1956939697265625,0.0067291259765625
1761915756031422700,7.921422607421875,-0.9735107421875,-0.193359375,0.008636474609375
1761915756041476600,7.9314765625,-0.9777374267578125,-0.1915130615234375,0.0101165771484375
1761915756051530500,7.941530517578125,-0.9755859375,-0.19110107421875,0.0096893310546875
1761915756061585700,7.951585693359375,-0.96697998046875,-0.1908111572265625,0.0119781494140625
1761915756071639800,7.961639892578125,-0.9601898193359375,-0.1914520263671875,0.013641357421875
1761915756081693700,7.971693603515625,-0.9600677490234375,-0.193634033203125,0.01654052734375
1761915756091747800,7.981747802734375,-0.9639434814453125,-0.1979827880859375,0.0203399658203125
1761915756101801700,7.9918017578125,-0.9646453857421875,-0.2026214599609375,0.022491455078125
1761915756111855900,8.00185595703125,-0.9654693603515625,-0.2047576904296875,0.02532958984375
1761915756121909500,8.011909423828126,-0.963043212890625,-0.2047882080078125,0.0307464599609375
1761915756131963600,8.021963623046876,-0.962554931640625,-0.2024383544921875,0.034820556640625
1761915756142017500,8.032017578125,-0.9719696044921875,-0.198211669921875,0.037384033203125
1761915756152071700,8.04207177734375,-0.9831695556640625,-0.1937408447265625,0.0398101806640625
1761915756162126800,8.052126953125,-0.984619140625,-0.189483642578125,0.038970947265625
1761915756172180700,8.0621806640625,-0.9745941162109375,-0.191925048828125,0.032684326171875
1761915756182235000,8.07223486328125,-0.96075439453125,-0.20050048828125,0.02679443359375
1761915756192288800,8.082288818359375,-0.9552154541015625,-0.2059478759765625,0.0240631103515625
1761915756202342700,8.0923427734375,-0.963043212890625,-0.2100830078125,0.0238189697265625
1761915756212396800,8.102396728515625,-0.96820068359375,-0.207366943359375,0.021820068359375
1761915756222450700,8.11245068359375,-0.967803955078125,-0.202789306640625,0.0183868408203125
1761915756232504800,8.1225048828125,-0.964752197265625,-0.197021484375,0.0143280029296875
1761915756242558700,8.132558837890626,-0.9633941650390625,-0.1914520263671875,0.0109710693359375
1761915756252612900,8.14261279296875,-0.9668121337890625,-0.189666748046875,0.009307861328125
1761915756262667800,8.152667724609374,-0.9770660400390625,-0.1913909912109375,0.01275634765625
1761915756272721700,8.1627216796875,-0.9869232177734375,-0.191802978515625,0.0193023681640625
1761915756282775800,8.17277587890625,-0.9926605224609375,-0.191619873046875,0.022918701171875
1761915756292829700,8.18282958984375,-0.9903411865234375,-0.191497802734375,0.023651123046875
1761915756302883800,8.1928837890625,-0.9843597412109375,-0.189117431640625,0.0212249755859375
1761915756312937700,8.202937744140625,-0.9740142822265625,-0.186981201171875,0.017913818359375
1761915756322991900,8.212991943359375,-0.966278076171875,-0.1871795654296875,0.0148773193359375
1761915756333045800,8.223045654296875,-0.9612579345703125,-0.18939208984375,0.0158233642578125
1761915756343100000,8.233099853515625,-0.9607391357421875,-0.197113037109375,0.0185699462890625
1761915756353153800,8.24315380859375,-0.9627227783203125,-0.20281982421875,0.0214080810546875
1761915756363208700,8.253208740234374,-0.9631805419921875,-0.2041778564453125,0.0271453857421875
1761915756373262800,8.263262939453124,-0.9676513671875,-0.2012939453125,0.0276641845703125
1761915756383316700,8.273316650390624,-0.970916748046875,-0.19854736328125,0.025909423828125
1761915756393371000,8.283370849609375,-0.9771575927734375,-0.196624755859375,0.0234222412109375
1761915756403424800,8.2934248046875,-0.9844512939453125,-0.192840576171875,0.0240020751953125
1761915756413479000,8.30347900390625,-0.9902801513671875,-0.18829345703125,0.026397705078125
1761915756423532800,8.31353271484375,-0.988861083984375,-0.1845855712890625,0.028411865234375
1761915756433587000,8.3235869140625,-0.9853973388671875,-0.1817474365234375,0.027069091796875
1761915756443640800,8.333640869140625,-0.9780731201171875,-0.1851654052734375,0.0234832763671875
1761915756453694700,8.34369482421875,-0.970428466796875,-0.1894378662109375,0.020355224609375
1761915756463750000,8.35375,-0.96435546875,-0.19281005859375,0.018035888671875
1761915756473803800,8.3638037109375,-0.9602813720703125,-0.1953582763671875,0.016326904296875
1761915756483858000,8.37385791015625,-0.9618377685546875,-0.1964874267578125,0.015411376953125
1761915756493911800,8.383911865234374,-0.9680633544921875,-0.19622802734375,0.018157958984375
1761915756503966000,8.393966064453124,-0.97711181640625,-0.19622802734375,0.023529052734375
1761915756514019800,8.404019775390625,-0.985931396484375,-0.1959228515625,0.0266876220703125
1761915756524073700,8.41407373046875,-0.9898681640625,-0.1921234130859375,0.0283355712890625
1761915756534127600,8.424127685546875,-0.9893646240234375,-0.1865234375,0.0279388427734375
1761915756544181800,8.434181640625,-0.9886322021484375,-0.1819610595703125,0.0279083251953125
1761915756554235600,8.444235595703125,-0.9884033203125,-0.1797637939453125,0.026123046875
1761915756564290800,8.454290771484375,-0.98846435546875,-0.1818695068359375,0.025909423828125
1761915756574345000,8.464344970703126,-0.9840850830078125,-0.1854400634765625,0.027313232421875
1761915756584398800,8.47439892578125,-0.9753570556640625,-0.19097900390625,0.0229644775390625
1761915756594452700,8.48445263671875,-0.966552734375,-0.19512939453125,0.0195465087890625
1761915756604506600,8.494506591796876,-0.9576568603515625,-0.1977691650390625,0.01971435546875
1761915756614560800,8.504560791015624,-0.9517059326171875,-0.1995086669921875,0.0210723876953125
1761915756624614700,8.51461474609375,-0.9515838623046875,-0.19683837890625,0.0230865478515625
1761915756634668800,8.524668701171874,-0.9609222412109375,-0.192718505859375,0.0244598388671875
1761915756644722700,8.53472265625,-0.972412109375,-0.1886749267578125,0.024383544921875
1761915756654776800,8.54477685546875,-0.9820404052734375,-0.18194580078125,0.0261077880859375
1761915756664832000,8.55483203125,-0.9895172119140625,-0.1800384521484375,0.0254364013671875
1761915756674885600,8.5648857421875,-0.9896697998046875,-0.1808929443359375,0.0233154296875
1761915756684939800,8.574939697265625,-0.9830169677734375,-0.1810760498046875,0.022674560546875
1761915756694993700,8.58499365234375,-0.9735870361328125,-0.18353271484375,0.019500732421875
1761915756705047800,8.5950478515625,-0.970001220703125,-0.18743896484375,0.0185089111328125
1761915756715101700,8.605101806640626,-0.9740447998046875,-0.1898193359375,0.0201416015625
1761915756725155800,8.61515576171875,-0.9828033447265625,-0.188262939453125,0.0235748291015625
1761915756735209700,8.625209716796874,-0.989959716796875,-0.1854705810546875,0.0256195068359375
1761915756745263900,8.635263916015624,-0.98687744140625,-0.18536376953125,0.02484130859375
1761915756755317800,8.64531787109375,-0.9784698486328125,-0.18701171875,0.026458740234375
1761915756765372700,8.65537255859375,-0.9696807861328125,-0.189483642578125,0.027374267578125
1761915756775426800,8.6654267578125,-0.9680938720703125,-0.1906585693359375,0.0282135009765625
1761915756785480700,8.675480712890625,-0.9786376953125,-0.187408447265625,0.029296875
1761915756795534800,8.685534912109375,-0.9861602783203125,-0.1828155517578125,0.0295257568359375
1761915756805588700,8.695588623046875,-0.9862518310546875,-0.1827392578125,0.0300750732421875
1761915756815643000,8.705642822265625,-0.9811859130859375,-0.1858367919921875,0.028167724609375
1761915756825696800,8.71569677734375,-0.9764404296875,-0.188934326171875,0.02581787109375
1761915756835751000,8.7257509765625,-0.9690399169921875,-0.1889495849609375,0.024871826171875
1761915756845804800,8.7358046875,-0.9658050537109375,-0.1878509521484375,0.0252532958984375
1761915756855859700,8.745859619140624,-0.972198486328125,-0.1871185302734375,0.0252838134765625
1761915756865913900,8.755913818359375,-0.9802398681640625,-0.18487548828125,0.02691650390625
1761915756875967700,8.7659677734375,-0.9876251220703125,-0.183990478515625,0.0291595458984375
1761915756886022000,8.77602197265625,-0.9918365478515625,-0.18585205078125,0.0296478271484375
1761915756896075800,8.78607568359375,-0.984405517578125,-0.1847686767578125,0.0281219482421875
1761915756906130000,8.7961298828125,-0.9735870361328125,-0.18231201171875,0.0259552001953125
1761915756916183800,8.806183837890625,-0.9641571044921875,-0.182464599609375,0.024505615234375
1761915756926237700,8.81623779296875,-0.9586639404296875,-0.1845245361328125,0.0224609375
1761915756936291600,8.82629150390625,-0.9566192626953125,-0.186920166015625,0.0204925537109375
1761915756946345700,8.836345703125,-0.9571380615234375,-0.188385009765625,0.0166015625
1761915756956399600,8.846399658203126,-0.9571075439453125,-0.189788818359375,0.0171661376953125
1761915756966454800,8.856454833984374,-0.9604949951171875,-0.1905059814453125,0.0203399658203125
1761915756976509000,8.866509033203124,-0.96575927734375,-0.1948699951171875,0.0235748291015625
1761915756986562800,8.876562744140625,-0.968780517578125,-0.198516845703125,0.02618408203125
1761915756996617000,8.886616943359375,-0.9708709716796875,-0.196502685546875,0.02923583984375
1761915757006670600,8.896670654296875,-0.980010986328125,-0.191162109375,0.029876708984375
1761915757016724700,8.906724853515625,-0.98907470703125,-0.1833038330078125,0.029022216796875
1761915757026778600,8.916778564453125,-0.989013671875,-0.1771087646484375,0.025787353515625
1761915757036832800,8.926832763671875,-0.983673095703125,-0.1714019775390625,0.0226593017578125
1761915757046886700,8.93688671875,-0.9787750244140625,-0.1717376708984375,0.0218505859375
1761915757056941800,8.94694189453125,-0.9750518798828125,-0.1757354736328125,0.0211639404296875
1761915757066996000,8.956995849609376,-0.9772796630859375,-0.18060302734375,0.021636962890625
1761915757077049900,8.9670498046875,-0.9803619384765625,-0.1834716796875,0.02392578125
1761915757087103700,8.977103759765624,-0.9842376708984375,-0.1836090087890625,0.0243988037109375
1761915757097157600,8.98715771484375,-0.98272705078125,-0.181243896484375,0.0240325927734375
1761915757107211800,8.997211669921874,-0.983184814453125,-0.1769256591796875,0.022491455078125
1761915757117265700,9.007265625,-0.980438232421875,-0.178131103515625,0.0204010009765625
1761915757127319800,9.01731982421875,-0.9795989990234375,-0.1811676025390625,0.0216217041015625
1761915757137373700,9.027373779296875,-0.97357177734375,-0.1858978271484375,0.024932861328125
1761915757147427800,9.037427734375,-0.9686126708984375,-0.1964874267578125,0.0255584716796875
1761915757157482800,9.047482666015625,-0.9641876220703125,-0.201568603515625,0.0246429443359375
1761915757167536600,9.05753662109375,-0.9591827392578125,-0.2001800537109375,0.02423095703125
1761915757177590800,9.0675908203125,-0.957733154296875,-0.195556640625,0.0241241455078125
1761915757187650000,9.077650146484375,-0.9632568359375,-0.195556640625,0.024932861328125
1761915757197704200,9.0877041015625,-0.9718780517578125,-0.194305419921875,0.0260467529296875
1761915757207757800,9.0977578125,-0.9791412353515625,-0.1950836181640625,0.0302581787109375
1761915757217812000,9.10781201171875,-0.9836883544921875,-0.1968231201171875,0.0315704345703125
1761915757227865900,9.117865966796876,-0.97943115234375,-0.1957550048828125,0.0305633544921875
1761915757237920000,9.127919921875,-0.9700164794921875,-0.1899871826171875,0.025970458984375
1761915757247974000,9.137973876953126,-0.958648681640625,-0.184906005859375,0.0204925537109375
1761915757258029000,9.148029052734374,-0.957183837890625,-0.1844024658203125,0.01806640625
1761915757268083200,9.158083251953125,-0.96246337890625,-0.1844329833984375,0.0182342529296875
1761915757278137000,9.16813720703125,-0.9671630859375,-0.182708740234375,0.0198516845703125
1761915757288191000,9.17819091796875,-0.968505859375,-0.1809539794921875,0.022857666015625
1761915757298244900,9.188244873046875,-0.9599456787109375,-0.17413330078125,0.0222015380859375
1761915757308299000,9.198299072265625,-0.98046875,-0.186798095703125,0.02044677734375
1761915757318353000,9.208352783203125,-0.999359130859375,-0.1797332763671875,0.03466796875
1761915757328407000,9.218406982421875,-0.9833831787109375,-0.1670684814453125,0.036895751953125
1761915757338461000,9.2284609375,-0.987274169921875,-0.1793670654296875,0.027374267578125
1761915757348515000,9.23851513671875,-0.990875244140625,-0.1811065673828125,0.03125
1761915757358570000,9.248570068359374,-0.99603271484375,-0.1801605224609375,0.03314208984375
1761915757368621000,9.25862109375,-0.986480712890625,-0.1738739013671875,0.03460693359375
1761915757378675000,9.268675048828126,-0.9822540283203125,-0.1842193603515625,0.024505615234375
1761915757388730000,9.278730224609374,-0.966400146484375,-0.1797637939453125,0.0301666259765625
1761915757398784000,9.288783935546874,-0.9696502685546875,-0.18243408203125,0.0279693603515625
1761915757408838100,9.298838134765624,-0.9695892333984375,-0.1890869140625,0.0295257568359375
1761915757418892000,9.30889208984375,-0.9711151123046875,-0.1965484619140625,0.029571533203125
1761915757428946000,9.31894580078125,-0.9725341796875,-0.196624755859375,0.0314178466796875
1761915757439000000,9.329,-0.9659576416015625,-0.194915771484375,0.0319976806640625
1761915757449054000,9.339053955078125,-0.9666900634765625,-0.1930084228515625,0.0294647216796875
1761915757459108000,9.349108154296875,-0.96795654296875,-0.1891632080078125,0.026031494140625
1761915757469162000,9.359161865234375,-0.97027587890625,-0.1854400634765625,0.02606201171875
1761915757479216000,9.369216064453125,-0.9774627685546875,-0.1840667724609375,0.027496337890625
1761915757489271000,9.37927099609375,-0.987152099609375,-0.1815338134765625,0.0277099609375
1761915757499325000,9.389324951171876,-0.99298095703125,-0.1768341064453125,0.027374267578125
1761915757509378800,9.39937890625,-0.989166259765625,-0.173187255859375,0.0253143310546875
1761915757519433000,9.409432861328124,-0.9784698486328125,-0.17120361328125,0.023040771484375
1761915757529487000,9.419487060546874,-0.9664306640625,-0.173065185546875,0.0208740234375
1761915757539541000,9.429541015625,-0.96490478515625,-0.176788330078125,0.0196685791015625
1761915757549595100,9.43959521484375,-0.9723358154296875,-0.181304931640625,0.02166748046875
1761915757559649000,9.44964892578125,-0.9871063232421875,-0.180816650390625,0.02813720703125
1761915757569703200,9.459703125,-0.999481201171875,-0.1787109375,0.031402587890625
1761915757579757000,9.469757080078125,-1.002349853515625,-0.1733856201171875,0.030731201171875
1761915757589812000,9.47981201171875,-0.992919921875,-0.1667022705078125,0.026092529296875
1761915757599865900,9.489865966796875,-0.9797210693359375,-0.1652374267578125,0.0206756591796875
1761915757609920000,9.499919921875,-0.97174072265625,-0.1656494140625,0.0183258056640625
1761915757619974100,9.50997412109375,-0.9704742431640625,-0.171112060546875,0.01788330078125
1761915757630028000,9.520028076171876,-0.968017578125,-0.1795501708984375,0.0196685791015625
1761915757640082200,9.530082275390624,-0.9657135009765625,-0.187530517578125,0.0241546630859375
1761915757650136000,9.540135986328124,-0.968536376953125,-0.1959075927734375,0.027191162109375
1761915757660190200,9.550190185546874,-0.969940185546875,-0.1981048583984375,0.027740478515625
1761915757670244000,9.560244140625,-0.9723358154296875,-0.1971435546875,0.02911376953125
1761915757680298000,9.570298095703125,-0.9725799560546875,-0.1902313232421875,0.0313262939453125
1761915757690353000,9.580352783203125,-0.97003173828125,-0.186492919921875,0.030242919921875
1761915757700407000,9.590406982421875,-0.9708404541015625,-0.1857757568359375,0.0294189453125
1761915757710461200,9.600461181640625,-0.9727020263671875,-0.1840667724609375,0.0276641845703125
1761915757720515000,9.61051513671875,-0.970703125,-0.1846771240234375,0.02777099609375
1761915757730569200,9.6205693359375,-0.968780517578125,-0.1859130859375,0.0259857177734375
1761915757740623000,9.630623046875,-0.9731903076171875,-0.1855010986328125,0.0273895263671875
1761915757750677000,9.640677001953126,-0.975982666015625,-0.1835479736328125,0.028411865234375
1761915757760731000,9.65073095703125,-0.977996826171875,-0.1761474609375,0.02838134765625
1761915757770785000,9.660784912109374,-0.9839324951171875,-0.171234130859375,0.0281829833984375
1761915757780839000,9.6708388671875,-0.990203857421875,-0.174163818359375,0.027374267578125
1761915757790894000,9.68089404296875,-0.9882354736328125,-0.175933837890625,0.027069091796875
1761915757800948000,9.690947998046875,-0.9824981689453125,-0.173797607421875,0.0263671875
1761915757811002000,9.701002197265625,-0.9775390625,-0.1733245849609375,0.024932861328125
1761915757821056000,9.711055908203125,-0.9748382568359375,-0.17364501953125,0.0234832763671875
1761915757831110000,9.72110986328125,-0.974212646484375,-0.17486572265625,0.021484375
1761915757841164000,9.7311640625,-0.9737548828125,-0.177703857421875,0.018218994140625
1761915757851218000,9.741218017578126,-0.968017578125,-0.1787567138671875,0.014739990234375
1761915757861272000,9.75127197265625,-0.9578094482421875,-0.1790924072265625,0.0145263671875
1761915757871326000,9.761325927734376,-0.957916259765625,-0.17919921875,0.0169219970703125
1761915757881380000,9.771380126953124,-0.96124267578125,-0.1799468994140625,0.0196685791015625
1761915757891435000,9.78143505859375,-0.969207763671875,-0.1809844970703125,0.024658203125
1761915757901489000,9.791489013671875,-0.98382568359375,-0.1837615966796875,0.03106689453125
1761915757911543000,9.80154296875,-0.991363525390625,-0.1822967529296875,0.03289794921875
1761915757921597000,9.811596923828125,-0.985382080078125,-0.1838226318359375,0.0303802490234375
1761915757931651000,9.821651123046875,-0.9758758544921875,-0.1872406005859375,0.028900146484375
1761915757941705000,9.831705078125,-0.971160888671875,-0.1913299560546875,0.0272216796875
1761915757951759000,9.841759033203125,-0.9716339111328125,-0.19268798828125,0.027069091796875
1761915757961814000,9.85181396484375,-0.978729248046875,-0.19061279296875,0.0277557373046875
1761915757971868200,9.8618681640625,-0.9825592041015625,-0.185211181640625,0.028778076171875
1761915757981921800,9.871921875,-0.979156494140625,-0.180023193359375,0.0272216796875
1761915757991976000,9.881975830078124,-0.9774932861328125,-0.17724609375,0.025634765625
1761915758002030000,9.892030029296874,-0.976806640625,-0.1795654296875,0.0262908935546875
1761915758012085000,9.9020849609375,-0.984649658203125,-0.181396484375,0.030517578125
1761915758022139100,9.91213916015625,-0.9905853271484375,-0.184234619140625,0.0328369140625
1761915758032193000,9.922193115234375,-0.9821319580078125,-0.1834716796875,0.0296630859375
1761915758042247200,9.9322470703125,-0.9577178955078125,-0.177825927734375,0.0204925537109375
1761915758052301000,9.942301025390625,-0.9466552734375,-0.1762847900390625,0.0151519775390625
1761915758062355000,9.95235498046875,-0.947662353515625,-0.1767425537109375,0.012115478515625
1761915758072408800,9.962408935546875,-0.960205078125,-0.178741455078125,0.015838623046875
1761915758082463000,9.972462890625,-0.975677490234375,-0.1754302978515625,0.021636962890625
1761915758092517000,9.98251708984375,-0.98272705078125,-0.17315673828125,0.025482177734375
1761915758102571000,9.992571044921876,-0.9833221435546875,-0.1762237548828125,0.0276947021484375
1761915758112626200,10.002626220703124,-0.983642578125,-0.182586669921875,0.033050537109375
1761915758122680000,10.01268017578125,-0.98675537109375,-0.19415283203125,0.0354156494140625
1761915758132734000,10.02273388671875,-0.98382568359375,-0.2031707763671875,0.0385284423828125
1761915758142787800,10.032787841796875,-0.9766082763671875,-0.207977294921875,0.0374603271484375
1761915758152842000,10.042842041015625,-0.970550537109375,-0.2003326416015625,0.035430908203125
1761915758162896000,10.052895751953125,-0.9681854248046875,-0.1973114013671875,0.0272979736328125
1761915758172950000,10.062949951171875,-0.9586639404296875,-0.1741790771484375,0.03302001953125
