time,seconds_elapsed,z,y,x
1761915748229441500,0.119441650390625,0.05376023176014423,0.0007049333989620208,0.051551250473782416
1761915748239495700,0.12949560546875,0.05955518177449703,-0.04051218926087022,0.027800847454182803
1761915748249550600,0.139550537109375,0.02065583453774452,0.00887728006914258,0.007640486549492925
1761915748259604700,0.149604736328125,-0.0059866731941699974,0.07482990779578685,-0.01580815704455599
1761915748269658600,0.15965869140625,0.025455343773961067,0.09248889860510826,-0.05724509646752849
1761915748279712800,0.169712646484375,0.03563771509230137,0.0937954511590302,-0.05001474335519596
1761915748289766700,0.1797666015625,-0.02435936523079872,0.07930442286133765,0.0003571794072166085
1761915748299820500,0.189820556640625,-0.07442191151678562,0.047307840750366446,0.08171606884663925
1761915748309874400,0.19987451171875,-0.09953414094150066,-0.0753391724921763,0.07788882044237107
1761915748319928600,0.209928466796875,-0.11385025106370449,-0.07976970228552818,0.09131399134052917
1761915748329982700,0.219982666015625,-0.17265432220995425,-0.026092472633719443,0.1318754631032236
1761915748340036600,0.23003662109375,-0.21873101373016832,0.07356354112178087,0.14113726724423467
1761915748350090800,0.2400908203125,-0.17414426850676534,0.12294950332045554,0.13466545914793387
1761915748360144600,0.25014453125,-0.0790711986273527,0.09280629399120807,0.07955832455717027
1761915748370198800,0.26019873046875,0.06307400355041026,0.05579772893711924,0.02759283072669059
1761915748380252700,0.270252685546875,0.09992109443247317,0.07083747715875506,-0.01833581235865131
1761915748390306800,0.280306884765625,0.12775894942879676,0.09268383665531874,0.03640071708774194
1761915748400360700,0.290360595703125,0.16417407863438127,0.026265637243539093,0.0008024937556125224
1761915748410414600,0.30041455078125,0.2451099020898342,-0.09469926813095808,0.021374056676542384
1761915748420468500,0.310468505859375,0.31186522450149057,-0.14671747852936387,0.01036207526680082
1761915748430522600,0.320522705078125,0.3284861044347286,-0.15400295936241745,-0.012721908866474405
1761915748440577800,0.330577880859375,0.3279927679598331,-0.10860241353809832,-0.06323751441589556
1761915748450631700,0.340631591796875,0.3231330529689789,-0.01742795853242278,-0.11583894066289066
1761915748460685800,0.350685791015625,0.26822657378315923,0.03434913658648729,-0.11057875511236488
1761915748470739700,0.36073974609375,0.20026187558174133,0.06390972372218966,-0.05704286102685146
1761915748480793600,0.370793701171875,0.1485965702742338,0.038093145420402284,-0.04123285908508114
1761915748490847500,0.380847412109375,0.1526923151552677,-0.01682955424785614,-0.03716680608941242
1761915748500901600,0.390901611328125,0.14169278223514556,-0.06188289406970143,-0.04430375443040393
1761915748510955500,0.40095556640625,0.09598375498354435,-0.05030483060926199,-0.02949875567955896
1761915748521009700,0.411009765625,0.04801087445318698,-0.0027073592625558376,-0.013592289359681308
1761915748531063600,0.4210634765625,0.07055529921650885,0.032670243588834996,-0.011954933948814868
1761915748541117700,0.43111767578125,0.08482581663131714,0.050726270891726016,-0.009337956383451819
1761915748551171600,0.441171630859375,0.09507599248886107,0.025443653336167334,0.001730002130381763
1761915748561225700,0.451225830078125,0.06986673243045806,-0.011801643083244561,0.040827849347610023
1761915748571280000,0.46127978515625,0.042591187492012975,-0.04446341110467911,0.06958897493500261
1761915748581333800,0.471333740234375,0.0009510171145200729,-0.05714505189284682,0.10092723926771431
1761915748591387600,0.4813876953125,0.0004091653227806091,-0.025994857478141783,0.1114217270088382
1761915748601441500,0.491441650390625,-0.0008902268379926681,0.00609963204935193,0.11004565288266166
1761915748611495700,0.50149560546875,0.011871055057644844,0.02716097864806652,0.09933291928097605
1761915748621549600,0.511549560546875,0.03770107736289501,0.05050035318136215,0.05536145641170442
1761915748631604700,0.521604736328125,0.04893091190755367,0.02843319054096937,0.047565194778610015
1761915748641658600,0.53165869140625,-0.011675824746489524,0.00726604548022151,0.05783007501494139
1761915748651712800,0.541712646484375,-0.05090250424146652,0.014857523522526025,0.06886888049952686
1761915748661766700,0.5517666015625,-0.05135024800896644,0.017633564107120036,0.06787778710294515
1761915748671820500,0.561820556640625,0.061194765675067896,0.014658932210505007,0.03966523530902341
1761915748681874700,0.571874755859375,0.15488602580726146,-0.03006941344067454,-0.009628646425716578
1761915748691928600,0.581928466796875,0.11218027202486991,-0.03753273505866527,-0.05232336735744029
1761915748701982700,0.591982666015625,-0.04555062181949615,0.022450462869554755,0.0025246048404835163
1761915748712036600,0.60203662109375,-0.25150690965056416,0.0375632763274014,0.0770795864187181
1761915748722090800,0.6120908203125,-0.37879064278304575,0.04430529793351888,0.15348936555078252
1761915748732144600,0.62214453125,-0.3727273972213268,0.061547232374548906,0.15141542708724737
1761915748742198800,0.63219873046875,-0.2739905441373586,0.11552154527679086,0.10324601933779194
1761915748752252700,0.642252685546875,-0.18417875578701495,0.1531587636232376,0.037612138704117386
1761915748762306800,0.652306884765625,-0.09387421548366547,0.15851093830615282,0.003559884438663721
1761915748772360400,0.6623603515625,-0.0021118775874376296,0.14047609992176294,-0.0014437873338349163
1761915748782414600,0.67241455078125,0.31921091108918187,0.036058278591930865,0.03032857583351433
1761915748792469800,0.6824697265625,1.4655436769604682,-0.549206100025028,0.41213323267549273
1761915748802523600,0.692523681640625,0.948269861638546,-1.123125201024115,0.3389992420773953
1761915748812577800,0.702577880859375,0.6944201882541179,-0.7245927698083221,0.15117343502491712
1761915748822631700,0.712631591796875,0.22561960420012472,-0.14420871057882903,0.018855890709999948
1761915748832685800,0.722685791015625,-0.13019114501178264,0.3422892965987325,0.11566773054813966
1761915748842739500,0.732739501953125,-0.29769232224225994,0.4527705096207559,0.11514465652210637
1761915748852793600,0.742793701171875,-0.21064766051769254,0.3226601747602224,-0.027341194053180515
1761915748862847500,0.752847412109375,-0.10436989053487777,0.2765339450098574,-0.05401996040856465
1761915748872901600,0.762901611328125,-0.24468378563225268,0.297040434204787,-0.06761844204701482
1761915748882955500,0.77295556640625,-0.23702888696491717,0.2861749029278755,-0.009835000919084996
1761915748893009700,0.783009765625,-0.14605857622921467,0.17785978189855814,-0.023004224294796583
1761915748903063600,0.7930634765625,0.05046937352120876,0.04594415118172764,-0.034025530655309555
1761915748913117700,0.80311767578125,0.20053543182611464,-0.08905483250319957,-0.040059349193144585
1761915748923171800,0.813171875,0.30382746399641036,-0.1232908641040325,-0.04736828396702185
1761915748933225700,0.823225830078125,0.3133025638282299,-0.1441698398731649,-0.07688338799318298
1761915748943279600,0.833279541015625,0.24187866508364675,-0.12788827489688992,-0.10692585862800479
1761915748953334500,0.84333447265625,0.12066694534122943,-0.07797171295285224,-0.09663940588068216
1761915748963388700,0.853388671875,0.01643967814743519,-0.0025008769050240513,-0.04989325413368642
1761915748973442600,0.863442626953125,-0.009143675920367241,0.011020867969095707,-0.008587813869584352
1761915748983496700,0.87349658203125,-0.02586567814052105,-0.013545564141124487,0.03631398865235969
1761915748993550600,0.883550537109375,-0.03474456564486027,-0.0262751357242465,0.09113319141352548
1761915749003604700,0.893604736328125,-0.015014613780379294,-0.02423252398073673,0.13638678478151559
1761915749013659000,0.903658935546875,-0.010532499930262566,-0.04311228875666857,0.1416012314941734
1761915749023712500,0.91371240234375,0.058391983214020726,-0.04913344874233007,0.15248449935717506
1761915749033766700,0.9237666015625,0.12374036143720149,-0.06278495747596025,0.124500568687357
1761915749043820500,0.933820556640625,0.19922259566187858,-0.07250614102333784,0.07572028076425194
1761915749053874700,0.943874755859375,0.23944296236932278,-0.06654182579144835,0.03761246749768033
1761915749063928600,0.953928466796875,0.21740181095302102,-0.060832215972989795,0.040755551296379415
1761915749073982700,0.963982666015625,0.13680325662791729,-0.0803282129511237,0.05175585140148178
1761915749084037600,0.97403759765625,0.11087152751386165,-0.06814093155115843,0.0672793462857604
1761915749094091800,0.984091796875,0.08558452604413032,-0.06683072573542595,0.09524203323815017
1761915749104145700,0.994145751953125,0.06295300751924514,-0.056246934009343386,0.12746252376548944
1761915749114199600,1.004199462890625,0.023850246664881704,-0.04951923318952322,0.11949669598545878
1761915749124253700,1.014253662109375,-0.022741993162035942,-0.02676876446008682,0.09692693585148081
1761915749134307600,1.0243076171875,-0.019289222359657285,-0.0008282675176858902,0.04652642631540075
1761915749144361700,1.03436181640625,0.07646540004312992,0.013503332434594631,-0.00504743784898892
1761915749154415600,1.04441552734375,0.17708441361188887,0.008847761713713407,-0.043705815936718136
1761915749164469800,1.0544697265625,0.1709182921975851,0.023424130207300185,-0.05649663445409387
1761915749174527500,1.064527587890625,0.11053192029595374,0.030965193236619233,-0.023111283132154492
1761915749184581600,1.07458154296875,0.02994330284297466,0.015008622431010006,0.016334756468236445
1761915749194635500,1.084635498046875,-0.010782675299048423,0.006819324626028537,0.030923345122579483
1761915749204689400,1.094689453125,-0.00803133076429367,0.013263093937933445,0.008991133973468094
1761915749214744600,1.10474462890625,0.04280453798174858,0.023661738355457783,-0.006487096996977925
1761915749224798500,1.114798583984375,0.09110825790166854,0.029101737452298403,-0.01374008206622675
1761915749234852600,1.1248525390625,0.08071136704981327,0.030504297726601362,-0.011064962839148937
1761915749244906500,1.134906494140625,0.07279577161967754,0.04359568835943937,0.0039175022372975946
1761915749254960600,1.144960693359375,0.0692249273955822,0.029013182386010885,-0.005619282920192927
1761915749265014500,1.1550146484375,0.08455985917150974,0.022663228837400674,-0.023797731026355174
1761915749275068400,1.165068359375,0.1706137562930584,0.10591288219317793,0.032189090742077674
1761915749285122600,1.17512255859375,1.0388158094823359,-0.012515052049607038,0.2779452183135785
1761915749295176400,1.185176513671875,0.8210796520084143,-0.6319374285951256,0.2622259085962549
1761915749305230600,1.195230712890625,0.6362865637153386,-0.49509296317398543,0.058370319371484215
1761915749315284500,1.205284423828125,0.22973463830351828,-0.06685454500243067,-0.08373535451348871
1761915749325339600,1.215339599609375,-0.08380173428058624,0.28826719903200865,-0.07140477391900495
1761915749335393500,1.2253935546875,-0.18735797034502027,0.3709085112310946,-0.03552877482511103
1761915749345447400,1.235447509765625,-0.15703881992697716,0.29410628044903275,0.049977534883655604
1761915749355501300,1.245501220703125,-0.06410276207625866,0.2348762389756739,0.011663056596461684
1761915749365555500,1.255555419921875,-0.023674305576086043,0.21275588484331964,-0.0024361959046684204
1761915749375609600,1.265609619140625,0.004666238245368003,0.16965075647979974,-0.03269833717215806
1761915749385663500,1.27566357421875,0.0460930581331253,0.1224848084181547,-0.064574215512909
1761915749395717600,1.285717529296875,0.10523790554106235,0.08322510343641042,-0.058782188108004625
1761915749405771500,1.295771484375,0.1473813492655754,0.021361352458596227,-0.03336675621932372
1761915749415825700,1.30582568359375,0.1492985810637474,-0.05295812159702182,0.0017858422371558845
1761915749425879600,1.315879638671875,0.089468089479208,-0.13480287659093737,0.02434215836767107
1761915749435934500,1.3259345703125,0.013741525104641914,-0.15901406552270053,0.02786401235088706
1761915749445988400,1.33598828125,-0.011302315258979796,-0.1513940920382738,0.024158874222636222
1761915749456042500,1.34604248046875,-0.008677227452397346,-0.10432517461031675,0.01991382053140551
1761915749466096600,1.3560966796875,0.026648352950811385,-0.04218772125765681,0.019567217317130417
1761915749476150500,1.366150634765625,0.07731178773939609,0.0038904315672814846,0.030650154204387214
1761915749486204700,1.37620458984375,0.06183540166616439,0.013510054436326026,0.04574676544610411
1761915749496258600,1.386258544921875,0.028599487018585203,-0.013611468984186649,0.06535296306675299
1761915749506312700,1.396312744140625,0.04641045351922512,-0.017201017908751965,0.10065591151304543
1761915749516366600,1.40636669921875,0.04863455930948257,-0.03192176330909133,0.12221008313000202
1761915749526420500,1.41642041015625,-0.010006430229544639,-0.046080783173441886,0.10361203963859006
1761915749536474400,1.426474365234375,-0.022580665120482443,-0.021220628813654184,0.09767777248509228
1761915749546529500,1.436529541015625,0.0035281741261482236,0.00236760591417551,0.06701015568925067
1761915749556583400,1.44658349609375,0.061599254822731014,0.011942951250076293,0.054942390749417244
1761915749566637600,1.456637451171875,0.10715221472978591,0.013483458690345286,0.039674934719130396
1761915749576691700,1.466691650390625,0.1732844368070364,0.006458820750564336,0.05096292919181287
1761915749586745600,1.47674560546875,0.16126374414563177,-0.015314911901205777,0.0801570028363727
1761915749596799500,1.486799560546875,0.1369195764839649,-0.032037937034666536,0.08778210915364325
1761915749606853400,1.496853271484375,0.13226327511072158,-0.05388502718359232,0.09709922367846592
1761915749616907500,1.506907470703125,0.1561649597018957,-0.06983297629132866,0.0895325878164731
1761915749626961400,1.51696142578125,0.18338380601704118,-0.04943769238591194,0.07712930731195956
1761915749637015600,1.527015625,0.2009118639230728,-0.020228695166856048,0.0540219514362514
1761915749647070500,1.537070556640625,0.1598643987417221,-0.023740210419148207,0.06479960350031033
1761915749657124600,1.54712451171875,0.09500643438398837,-0.012335165438055991,0.07606980658797546
1761915749667178800,1.5571787109375,0.0747843150883913,0.013530366571992634,0.07104894621865823
1761915749677232400,1.567232421875,0.11196867510080337,0.04187923983037471,0.04682922692056745
1761915749687286500,1.57728662109375,0.16566636301875112,0.045645314365625377,0.016140183744207025
1761915749697340400,1.58734033203125,0.21082944682538507,0.05062836347520351,-0.012039817486982792
1761915749707394600,1.59739453125,0.2308323704123497,0.03891849032863974,-0.022878753017913547
1761915749717448400,1.607448486328125,0.19101941546201706,-0.021284049438685178,-0.030180143806152044
1761915749727502600,1.617502685546875,0.15535188975334166,-0.04944397599622607,-0.03451954298363998
1761915749737556500,1.627556396484375,0.12176876910328864,-0.012780278857052326,-0.02415805223872885
1761915749747611600,1.637611572265625,0.13559154275059698,0.05300356817394495,-0.011089220497570931
1761915749757665500,1.64766552734375,0.14403613049089908,0.08726224999800324,-0.006818082517012954
1761915749767719400,1.657719482421875,0.1228033728480339,0.07752528435960411,-0.0024081388539634644
1761915749777773600,1.667773681640625,0.02984919481873512,0.05708455387726426,0.010030633089039474
1761915749787827500,1.677827392578125,-0.06774784058034419,0.03969488152861595,0.006144055712968111
1761915749797881600,1.687881591796875,-0.06053542498350143,0.07160583118274808,0.03539239856172353
1761915749807935500,1.697935546875,-0.036139819395542144,0.0932851635493338,0.044029056541714816
1761915749817989600,1.70798974609375,0.006160276195406913,0.08064969999045134,0.04357011552676558
1761915749828043500,1.71804345703125,0.032122984969615936,0.02805120548605919,0.03887488864893093
1761915749838098400,1.728098388671875,0.05181786552071571,-0.03026362083852291,0.03195866125337779
1761915749848152600,1.738152587890625,0.12115268303155899,-0.07412336696162819,0.04468306347103789
1761915749858206500,1.74820654296875,0.18176000420749186,-0.11856602753922342,0.03277894639400765
1761915749868260600,1.758260498046875,0.20442717856764792,-0.12713657974675296,0.023635307006258516
1761915749878314500,1.768314453125,0.1773234830647707,-0.1068840653128922,0.026785277203470466
1761915749888368600,1.77836865234375,0.12887830884754656,-0.09047492843419314,0.04641860029306263
1761915749898422500,1.788422607421875,0.10117606292963027,-0.04611337026879191,0.06368544997964054
1761915749908476700,1.7984765625,0.04326221862137317,-0.024198913972079752,0.04403733117971569
1761915749918530600,1.808530517578125,0.01006429789662361,-0.0023224515981972215,0.0258727654684335
1761915749928584400,1.81858447265625,-0.02514963882565498,0.02678454655110836,0.0125694856505841
1761915749938639400,1.828639404296875,-0.019616554617881775,0.07929886990338564,0.008776596173644065
1761915749948693500,1.838693603515625,0.041136897030472755,0.13033099187389016,-0.007692856057547033
1761915749958747600,1.84874755859375,0.049509004056453705,0.12358151761367916,-0.029902696837950497
1761915749968801500,1.858801513671875,0.02513327221274376,0.13685761716365813,-0.03310940219108015
1761915749978855700,1.868855712890625,-0.0025537761360406876,0.1444143161535263,-0.018551902794744817
1761915749988909600,1.87890966796875,-0.039437107375264166,0.12931406991630792,-0.014466186117380857
1761915749998963700,1.888963623046875,-0.0220423204600811,0.12168167534172535,-0.02743776802914217
1761915750009017300,1.899017333984375,-0.014600772282481193,0.1425491068035364,-0.05168214684445411
1761915750019071500,1.909071533203125,-0.08620996446609497,0.13629749906286595,-0.04772939063068479
1761915750029125400,1.91912548828125,-0.15921616396605967,0.11974413140788674,-0.04971095636934042
1761915750039180500,1.9291806640625,-0.15017302581071854,0.169169110442698,-0.04828662265464663
1761915750049234700,1.939234619140625,-0.204449390399456,0.21958514634147286,-0.04201232815813273
1761915750059288600,1.94928857421875,-0.23571546627879142,0.23748890569210052,-0.010211268619261681
1761915750069342700,1.9593427734375,-0.22364508925676344,0.18690964205563068,0.00850855635460466
1761915750079396600,1.969396728515625,-0.21265490868687628,0.10218772419020533,0.03968633289597928
1761915750089450500,1.979450439453125,-0.1502706409662962,0.048128071092069145,0.06105860860738903
1761915750099504400,1.98950439453125,-0.09230302064418792,0.02933876107856631,0.08764973321193828
1761915750109558500,1.99955859375,-0.07456161224842071,0.01065188852623105,0.1032427131358534
1761915750119612400,2.0096123046875,-0.06118249071538448,-0.009681728319823741,0.08151910323612392
1761915750129667600,2.01966748046875,0.014350012391805647,0.007766980739682913,0.07169263268336654
1761915750139721700,2.0297216796875,0.10327332746982573,0.021508359713852405,0.1023110583089292
1761915750149775600,2.039775634765625,0.14198679674565792,0.022930355340987443,0.16268204997833818
1761915750159829500,2.04982958984375,0.09750468094050883,-0.0015649112291634083,0.19961168631101026
1761915750169883400,2.05988330078125,0.06029460196495056,-0.01784779137969017,0.2452062203374691
1761915750179937800,2.069937744140625,0.05599719703197479,-0.008410539340227842,0.26677131520723923
1761915750189991700,2.07999169921875,0.08575696000158786,-0.054938774020224804,0.25499853289229796
1761915750200045800,2.0900458984375,0.1545265448451042,-0.09176540663614868,0.2361286136569455
1761915750210099700,2.100099609375,0.2357861934274435,-0.08641060160472988,0.2109538769226521
1761915750220153900,2.11015380859375,0.2835334485083818,-0.08605155903398991,0.20378584845680742
1761915750230208800,2.120208740234375,0.3652630526900291,-0.0877899271339178,0.20238752596620468
1761915750240262700,2.1302626953125,0.39871407139301296,-0.1469775907702744,0.18054215285032987
1761915750250316800,2.14031689453125,0.3712199152678251,-0.2042312176041305,0.1443097963331267
1761915750260370700,2.15037060546875,0.38506139361560343,-0.21960721204280853,0.11218039988903328
1761915750270424800,2.1604248046875,0.44443654264807697,-0.1726844250872731,0.08077769201798364
1761915750280478700,2.170478759765625,0.477529249432683,-0.11138532225489615,0.06137962072268128
1761915750290532900,2.180532958984375,0.4436035989552736,-0.08525514795929193,0.0017902809502556918
1761915750300586800,2.190586669921875,0.4176864828884601,-0.04188669248446822,-0.024518318652175367
1761915750310641000,2.200640869140625,0.3853098154187202,-0.009320493791997432,-0.06513148406948893
1761915750320694800,2.21069482421875,0.37376784618496894,0.00717559071779251,-0.11570183374714106
1761915750330749700,2.220749755859375,0.3162216661453247,0.003338935164362192,-0.14886546860979868
1761915750340803800,2.230803955078125,0.20758944199085233,0.013644640601426361,-0.1584055417029187
1761915750350857700,2.240857666015625,0.0808487296938896,0.06387874406203627,-0.14928316429890692
1761915750360912000,2.250911865234375,-0.035757542079687114,0.1318637543991208,-0.1492566781507805
1761915750370965800,2.2609658203125,-0.13113923951685427,0.15188450590372085,-0.1411860748220235
1761915750381020000,2.27102001953125,-0.20439912151694298,0.15378025652244687,-0.14748241675356402
1761915750391073800,2.28107373046875,-0.24176234522759912,0.15500366083756087,-0.16347657962320372
1761915750401128000,2.2911279296875,-0.1909516109228134,0.17910890517681835,-0.16973151183212176
1761915750411181600,2.301181640625,-0.15321429320275784,0.20992168433070182,-0.15637630089763552
1761915750421235700,2.311235595703125,-0.17105565484166144,0.23108254578113555,-0.11353044452480972
1761915750431291000,2.321290771484375,-0.16995616916716097,0.2523160340763628,-0.07881400899589061
1761915750441344800,2.3313447265625,-0.16136428191065788,0.2561415837138891,-0.07016699401866644
1761915750451399000,2.34139892578125,-0.10672843635976315,0.2453920800320804,-0.047461551741044966
1761915750461452800,2.351452880859375,-0.12445114005506037,0.2392981470711529,-0.03193581010075286
1761915750471507000,2.3615068359375,-0.1816232260853052,0.205791306527704,-0.02638369239894673
1761915750481560800,2.371560791015625,-0.19707915389239786,0.148254917229712,0.02995970598850399
1761915750491614700,2.38161474609375,-0.12080839963853358,0.06350070452988148,0.079144081200473
1761915750501668600,2.391668701171875,0.04079612076878547,-0.035967531568557025,0.09227516452288255
1761915750511722800,2.40172265625,0.15578443595170974,-0.118590139067173,0.1241667884220369
1761915750521776600,2.411776611328125,0.24749475139975546,-0.17582272311300037,0.14124189666248857
1761915750531831800,2.421831787109375,0.2967109099894762,-0.23683614087179303,0.15096059599183498
1761915750541886000,2.431885986328125,0.2888765631020069,-0.23254969572424888,0.166665128265135
1761915750551939800,2.44193994140625,0.24557810412347314,-0.20749358040094373,0.18217218347126618
1761915750561993700,2.45199365234375,0.2013952635258436,-0.17798077792972325,0.1694365292072296
1761915750572047600,2.462047607421875,0.19522388141453265,-0.13265344347208738,0.1623150798294693
1761915750582101800,2.472101806640625,0.15790332780182362,-0.1282648531243205,0.16790791313415393
1761915750592155600,2.48215576171875,0.1220277123004198,-0.13592194374874234,0.17247392414174972
1761915750602209800,2.492209716796875,0.08029343389868736,-0.12448898784741759,0.1750566341113299
1761915750612263700,2.502263671875,0.04066460334360599,-0.09785217920392751,0.1559866439929232
1761915750622317800,2.51231787109375,0.035626024654507635,-0.04504544877633452,0.13836506258454173
1761915750632372700,2.522372802734375,0.055662850511074065,0.0003853460557758808,0.109351240877714
1761915750642426600,2.532426513671875,0.07022036817371845,0.03637275136858225,0.07493842793786898
1761915750652480800,2.542480712890625,0.13434300399422644,0.042398587529361244,0.05431287894053384
1761915750662534700,2.55253466796875,0.13666881659328936,0.010972352652251719,0.03871756092905998
1761915750672588800,2.5625888671875,0.09246259512007236,0.01938464555814862,0.03602726239915937
1761915750682642700,2.572642578125,0.08080021437704563,0.03334171310961246,0.02482827965049073
1761915750692696800,2.58269677734375,0.09506079491972923,0.048915422077476976,-0.013983206639718264
1761915750702750700,2.592750732421875,0.14990356121957302,0.08321472817286849,-0.05547145612481981
1761915750712804900,2.602804931640625,0.15314707318544388,0.09042655924782156,-0.09792774692447856
1761915750722858800,2.612858642578125,0.10624795936644077,0.09304302535653114,-0.09750804194137454
1761915750732913700,2.62291357421875,0.052474868124723434,0.09764248197600245,-0.06800535900536925
1761915750742967800,2.6329677734375,0.018705869513750074,0.08874445137977599,-0.03436367656849325
1761915750753021700,2.643021728515625,0.007637947532534599,0.09716785020157694,0.0023287352085113525
1761915750763075800,2.653075927734375,-0.006232172387838363,0.08361264144927263,0.0008200111459940671
1761915750773129700,2.663129638671875,0.022898645028471946,0.09751374102979898,-0.013527991951815784
1761915750783184000,2.673183837890625,0.07574526907503605,0.08695099209174513,-0.035213680993951856
1761915750793237800,2.68323779296875,0.10240238985419273,0.056849429947137826,-0.04011073232050985
1761915750803292000,2.6932919921875,0.07551613649427891,0.005570055217295884,-0.05118269115602597
1761915750813345800,2.703345703125,0.05465630381703376,-0.0428971847012639,-0.031324619399849325
1761915750823399700,2.713399658203125,0.09126900142133236,-0.09193769446313381,-0.01793751548975706
1761915750833454800,2.723454833984375,0.11857552601993084,-0.12163900524377823,-0.001366392982378602
1761915750843508700,2.7335087890625,0.10323007284998893,-0.11467822632044553,0.020364432109426706
1761915750853563000,2.74356298828125,0.05995557926893234,-0.06525894637405871,0.03592493453584611
1761915750863616800,2.75361669921875,-0.026807927426695823,-0.0005726853214204311,0.033941341236885636
1761915750873671000,2.7636708984375,-0.12617372606396673,0.0787228235810995,0.04008378951465711
1761915750883724800,2.773724853515625,-0.1467068110048771,0.11703048853501677,0.058629828824196005
1761915750893778700,2.78377880859375,-0.12228256384432315,0.11301043923869729,0.04743645383240655
1761915750903832600,2.79383251953125,-0.013697101441025733,0.057652563023567194,0.04726341708675027
1761915750913886700,2.80388671875,0.08479775958061218,-0.000039893618971109386,0.04618415221637115
1761915750923940600,2.813940673828125,0.13071487662494183,-0.0469720329247415,0.05924503811309114
1761915750933994800,2.823994873046875,0.10211831221580504,-0.07149681785032153,0.06906195538621396
1761915750944050000,2.8340498046875,0.05110533333718777,-0.05974427460581064,0.07271335403323173
1761915750954103800,2.844103759765625,0.0505634815454483,-0.018447218577563762,0.06161879977341741
1761915750964157700,2.85415771484375,0.0691027623206377,0.04623758117035031,0.04665679296310991
1761915750974211600,2.864211669921875,0.07017185285687447,0.0734185796931386,0.013101053510326892
1761915750984265700,2.874265625,0.06666238343119621,0.06743760558739303,0.005894830192252993
1761915750994319600,2.884319580078125,0.047338089758157724,0.0024055998370051384,0.03371887585893273
1761915751004373800,2.894373779296875,0.08887655332684516,-0.05907470478117466,0.05783774686474353
1761915751014427600,2.904427734375,0.16857962011694907,-0.12108765497133135,0.06535338319186121
1761915751024481800,2.914481689453125,0.18133856392502784,-0.15517492575123906,0.033777145384810865
1761915751034536000,2.924535888671875,0.17387948009073734,-0.12940467080920934,0.035648053823225195
1761915751044590600,2.934590576171875,0.11031681624054908,-0.06684519265219568,0.05414221681505441
1761915751054644700,2.944644775390625,0.017352701339125632,-0.00002221183180809021,0.04300280050020665
1761915751064698600,2.95469873046875,-0.011610358294844627,0.10559212580621243,0.07235562663674354
1761915751074752800,2.964752685546875,-0.016595745491981506,0.08897095361202954,-0.0013841843673959373
1761915751084806700,2.974806640625,0.11850947504639625,0.0696969288215041,0.015703728555701672
1761915751094860800,2.98486083984375,0.15103870272934436,0.05139876332581043,0.050821474894508716
1761915751104914700,2.994914794921875,0.039052491971850394,-0.011763064638525247,0.07161116494499147
1761915751114968800,3.00496875,-0.03151157507300377,-0.006897796689718961,0.09376699224952607
1761915751125023000,3.01502294921875,-0.02236731463074684,-0.0063236500635743135,0.09370035675410181
1761915751135076900,3.025076904296875,0.03983341321647167,-0.03040390609204769,0.06686513946168124
1761915751145130800,3.035130859375,0.07867197017669678,-0.04182254120707512,0.032585780175775285
1761915751155185700,3.045185546875,0.10878536888957023,-0.025940350811928508,0.03206624981369823
1761915751165239800,3.05523974609375,0.13123977728188038,0.008638649007678032,0.027639117553830146
1761915751175291000,3.065290771484375,0.1348293262064457,-0.0009425415471196174,0.035175212147086854
1761915751185344800,3.0753447265625,0.11756371862888336,-0.020703765332698822,0.0647147199621424
1761915751195399000,3.08539892578125,0.05837970825433731,-0.0560370906509459,0.07639182335026562
1761915751205452800,3.095452880859375,0.029853286471962927,-0.07388868142291903,0.07415434662178158
1761915751215506700,3.105506591796875,0.09497370115816593,-0.02130290026962757,0.0646066930104047
1761915751225560600,3.115560546875,0.15524258415997028,0.009966682741045951,0.02592624922133982
1761915751235614700,3.12561474609375,0.17831950836479663,0.00600727759078145,-0.003976538948155939
1761915751245668900,3.1356689453125,0.18897534241378305,0.00693052991554141,-0.006433613244071603
1761915751255723800,3.145723876953125,0.1854576896816492,-0.0323806129924953,0.0007620704136788844
1761915751265778000,3.15577783203125,0.15443302134275436,-0.08038768805339933,0.009042663231305778
1761915751275831800,3.165831787109375,0.09818214181065558,-0.1128694233328104,0.017735088252834975
1761915751285885700,3.1758857421875,0.025251345634460447,-0.08936170649528503,0.051528234924376005
1761915751295939600,3.185939697265625,-0.043776597884297365,-0.056152972115576266,0.06798628897871822
1761915751305993700,3.19599365234375,-0.05267594365477562,-0.01946545570939779,0.05532598323952406
1761915751316047600,3.206047607421875,0.007258008304238319,0.03328749870434403,0.015448621283471584
1761915751326101800,3.216101806640625,0.04408639448583126,0.06648103551492095,-0.009916340793296695
1761915751336155600,3.22615576171875,0.06343582260012626,0.0757267105050385,-0.01175795007199049
1761915751346209800,3.236209716796875,0.05761573814451694,0.050871962972730396,-0.0017917787875980137
1761915751356264000,3.246263916015625,0.04074585188627243,0.025895634887367486,0.03626636838465929
1761915751366318600,3.256318603515625,0.02818623004257679,-0.007394494165480136,0.06765325763206928
1761915751376372700,3.266372802734375,0.04849135144650936,-0.02742299058511853,0.09897387671023607
1761915751386426600,3.276426513671875,0.07684650831520556,-0.01132131222039461,0.10269037648271769
1761915751396480800,3.286480712890625,0.10340250680744648,0.02619081844165921,0.0752346161391586
1761915751406534700,3.29653466796875,0.08415770811140537,0.04744476500302553,0.0528317552709952
1761915751416588800,3.3065888671875,0.061385319811105725,0.06946706558838486,0.05393040069527924
1761915751426642700,3.316642578125,0.06984685868620873,0.039346360351890326,0.0525347450857982
1761915751436696800,3.32669677734375,0.12186813782453536,-0.006449468400329351,0.03866634219847619
1761915751446751000,3.3367509765625,0.18990473221838472,-0.05617986012250185,0.03194832252245396
1761915751456804900,3.346804931640625,0.2174380513101816,-0.07578735465109347,0.031899113085865974
1761915751466859800,3.35685986328125,0.19645605355799198,-0.06784998578056693,0.025876930186897514
1761915751476913700,3.36691357421875,0.19017770394086836,-0.029332185207307338,0.014071706907078622
1761915751486967800,3.3769677734375,0.20165362220108507,0.005759001918137073,0.00021908611077815294
1761915751497021700,3.387021728515625,0.19289397716224194,0.03799231539443135,-0.026915698650106786
1761915751507075800,3.397075927734375,0.18106033150553702,0.044520255858451124,-0.0134376467872411
1761915751517129700,3.407129638671875,0.1369248371809721,0.04446005010381341,0.003516556753590703
1761915751527184000,3.417183837890625,0.12429974888563156,0.01566416373029351,0.015523695813678203
1761915751537237800,3.42723779296875,0.0809931066006422,-0.016799159109592437,0.03979980320781469
1761915751547291600,3.437291748046875,0.06939210065603256,-0.026851912698894736,0.05739694429468363
1761915751557345800,3.447345703125,0.06603986761868,-0.004944762925803661,0.05014039729516953
1761915751567399700,3.457399658203125,0.029964930152893064,0.014084347192943096,0.05437514878809452
1761915751577454800,3.467454833984375,-0.025409166544675826,0.056193742517381906,0.03925966844912618
1761915751587508700,3.4775087890625,-0.011622633254528045,0.11118819224759936,0.010141673981770873
1761915751597563000,3.48756298828125,-0.0004717091649770736,0.11550357122868299,0.0005959200665354729
1761915751607616800,3.49761669921875,0.011444938600063324,0.09567205868586898,-0.010065722668729722
1761915751617670700,3.507670654296875,0.061739540076255796,0.051326428741961715,-0.007730046262778342
1761915751627724800,3.517724853515625,0.09980009840130806,0.024303104998916386,0.017195026559382678
1761915751637778700,3.52777880859375,0.1610579924404621,0.010779460428655147,0.03615819530244917
1761915751647832800,3.537832763671875,0.24518530541360375,-0.014047230052947998,0.030581673811748623
1761915751657886700,3.54788671875,0.24844167686104773,-0.055964756067097186,0.01806625643596053
1761915751667940900,3.55794091796875,0.17934651332497595,-0.10640095797106623,0.02228825804516673
1761915751677995800,3.567995849609375,0.16028057832717896,-0.11007935422286391,0.05049129309207201
1761915751688050000,3.5780498046875,0.18205168063044547,-0.06481850913017988,0.08511153823751956
1761915751698103600,3.588103515625,0.15659341424703596,-0.019785189183056353,0.09371602924726903
1761915751708157700,3.59815771484375,0.08277239123284816,0.01003843280300498,0.07001218704944476
1761915751718211800,3.6082119140625,0.08081658098995685,0.0018519114769995212,0.051117772693652655
1761915751728265700,3.618265625,0.1054576857715845,-0.004678951596468687,0.042244383348338306
1761915751738320000,3.62831982421875,0.08714344592392444,-0.02936068064942956,0.032670828110724685
1761915751748373800,3.638373779296875,0.06322597924172878,-0.03968231430798769,0.04198640826558694
1761915751758428000,3.648427978515625,0.05092588511705398,-0.04811813421994447,0.04371679398845881
1761915751768481800,3.658481689453125,0.03672024963200092,-0.05634250333830714,0.04383227359429002
1761915751778536000,3.668535888671875,0.016076105532050133,-0.035600013430416584,0.05576925176130607
1761915751788590600,3.678590576171875,0.006336801806092262,-0.012897037104517221,0.06939071241654456
1761915751798644700,3.688644775390625,0.0004138414978981018,0.03015986820310354,0.07467975873537361
1761915751808698600,3.69869873046875,0.03984861078560352,0.06416033748239279,0.053703606202080846
1761915751818752800,3.708752685546875,0.03617372166514397,0.08274009639844297,0.04400045150173828
1761915751828807000,3.718806884765625,0.002900397616624832,0.0831533533744514,0.06333572322651744
1761915751838860800,3.72886083984375,-0.009185176974534987,0.04632818206325173,0.07585420934222638
1761915751848915000,3.7389150390625,0.06091361064612865,-0.007737023992836475,0.043000498945266
1761915751858968800,3.74896875,0.1202192015737295,-0.07364362062066793,0.027497115267254412
1761915751869022700,3.759022705078125,0.15679507429897785,-0.1361829327724874,0.05611791906850412
1761915751879076600,3.76907666015625,0.17658698548376559,-0.15193185217678545,0.07936008030502126
1761915751889130800,3.779130859375,0.12529285157620906,-0.13397300163805484,0.07834823638135567
1761915751899185700,3.789185546875,0.04638648812174797,-0.0648207010872662,0.05950105870077386
1761915751909239800,3.79923974609375,-0.010402151548862457,0.01776712735891342,0.05056486978493631
1761915751919294000,3.8092939453125,-0.00847264479100704,0.06315495983213186,0.02574559542480856
1761915751929347800,3.819347900390625,0.026792729857563972,0.07219020694196224,0.0020901772122830153
1761915751939402000,3.829402099609375,0.07092413252890109,0.0477780886106193,0.007812116789352148
1761915751949455600,3.83945556640625,0.0747445675998926,-0.019860007984936236,-0.0023060484526678917
1761915751959509800,3.849509765625,0.0811591108173132,-0.06493745933473109,-0.01567210957473144
1761915751969563600,3.859563720703125,0.06521218462288379,-0.0956499929845333,-0.01165324758850038
1761915751979617800,3.86961767578125,0.03861994577348232,-0.07801160657182335,-0.035807957092672586
1761915751989671700,3.879671630859375,0.049696635583043096,-0.015566256313771008,-0.03854021333446726
1761915751999726800,3.889726806640625,0.03974222780168056,0.040348961523175235,-0.05971899403408169
1761915752009781000,3.899781005859375,-0.0023375030368566513,0.07524316477179527,-0.06103931938502937
1761915752019835000,3.9098349609375,-0.015685644909739494,0.11502397101819514,-0.05419215690400451
1761915752029888800,3.919888671875,0.011240940460562706,0.12296323958486317,-0.03584907455435023
1761915752039942700,3.929942626953125,0.014796587115526198,0.11149039006456732,-0.03228802107190713
1761915752049996800,3.939996826171875,-0.004000467813014984,0.12400325015708803,-0.03298553834939375
1761915752060050700,3.95005078125,0.030991935113072393,0.1329445353731513,-0.02525426824390888
1761915752070104800,3.960104736328125,0.05975859539210796,0.13897431705668567,-0.04506970643475652
1761915752080158700,3.97015869140625,0.05629121154248714,0.09613689971864223,-0.06555606615711003
1761915752090212900,3.980212890625,0.07848726125955581,0.08349895194172859,-0.06889611556632444
1761915752100266800,3.990266845703125,0.10871931791603565,0.078751757414639,-0.056857503655739126
1761915752110321700,4.00032177734375,0.12470949873030185,0.0883320711866021,-0.02152845265381038
1761915752120375800,4.010375732421875,0.11626198838055134,0.06597922347262501,-0.01636767235714942
1761915752130429700,4.0204296875,0.07713175499737263,0.027893822967261075,0.006655402768589556
1761915752140483800,4.03048388671875,-0.0014168810606002807,-0.02924377627149224,0.047629437387548386
1761915752150537700,4.040537841796875,-0.041913142099976534,-0.0485679238140583,0.09891834713071584
1761915752160592000,4.050591796875,0.024454057776927947,-0.01903115594536066,0.1282707166095264
1761915752170645800,4.060645751953125,0.12190846983492373,0.0346691623210907,0.10755085865855217
1761915752180706000,4.0707060546875,0.16162264058589934,0.061134267659485333,0.08305245028324425
1761915752190760000,4.080760009765625,0.13130524373352526,0.062181000233441586,0.0660844008801505
1761915752200814000,4.09081396484375,0.0753372727960348,0.019905308431386947,0.062201093173399565
1761915752210868000,4.100867919921875,0.06723229227364062,-0.021121698483824728,0.05065245673684403
1761915752220923000,4.1109228515625,0.06911269919276238,-0.05849792780652642,0.06321151232495903
1761915752230976800,4.120976806640625,0.10615443586409092,-0.07655936193689704,0.06737747289799154
1761915752241031000,4.131031005859375,0.12218845582008361,-0.09094429951161145,0.056495775937568396
1761915752251085000,4.1410849609375,0.11145254227221012,-0.07125497191846371,0.04280130484504625
1761915752261139000,4.151138916015625,0.0746837773233652,0.0020316519580781457,0.034044856410287316
1761915752271193000,4.161193115234375,0.053504211172461506,0.06528875699043274,0.02548643303196877
1761915752281247000,4.1712470703125,0.028680151039361952,0.11897285477444529,0.028492081121355293
1761915752291301000,4.181301025390625,0.026982114949822424,0.13337605865821242,0.02444212987711653
1761915752301355000,4.19135498046875,0.057092591053247446,0.10711860472112894,0.03695966614475474
1761915752311409000,4.201408935546875,0.1159843404829502,0.05072407893463969,0.05467455185977742
1761915752321463800,4.2114638671875,0.13748013297617434,-0.01418678465411067,0.06565019244765863
1761915752331518000,4.22151806640625,0.09853986920714378,-0.024611878687143325,0.08111918066572398
1761915752341572000,4.231572021484375,0.06459609855115413,0.03940159767046571,0.08363600405855104
1761915752351626000,4.2416259765625,0.06236556302011013,0.08743395330309868,0.0751532031997107
1761915752361680100,4.25168017578125,0.016900865918397904,0.10107450225129723,0.048416331715229896
1761915752371734000,4.261734130859375,-0.007058686339855193,0.09682970428839326,0.030903215650003403
1761915752381788000,4.271787841796875,0.01135842936038971,0.08379822714924812,0.021956541872769592
1761915752391841800,4.281841796875,0.06175123051404953,0.05935410624444484,0.002922993040923029
1761915752401896000,4.29189599609375,0.08024842571318148,0.02974091213867068,0.010963146432489156
1761915752411949800,4.30194970703125,0.057583004918694496,0.0018646248281002043,0.04309446083903312
1761915752422004000,4.31200390625,0.05179565368890762,-0.013807283817231654,0.05956371214082464
1761915752432059100,4.32205908203125,0.09989245285987854,-0.028285452633351086,0.06153998064985498
1761915752442113000,4.332113037109375,0.17739421021342278,-0.02770516852736473,0.04040007065590471
1761915752452167000,4.3421669921875,0.19715864886939524,-0.03390899160355329,0.026233835599478332
1761915752462220800,4.352220703125,0.19538345589041708,-0.024035686234384773,0.032128446596022694
1761915752472275000,4.36227490234375,0.14817980616688728,-0.008483458445966242,0.04908546314844861
1761915752482328800,4.372328857421875,0.07509937238693237,-0.01962605309858918,0.07672781383898108
1761915752492383000,4.382383056640625,-0.024627076256275176,0.015567717618495226,0.10178570099426433
1761915752502436900,4.392436767578125,-0.032846038547158236,0.03313157749027013,0.10757699774680658
1761915752512491000,4.402490966796875,0.026520927178859708,0.047493134189397095,0.07844742243951186
1761915752522545000,4.412544921875,0.05079553673565387,0.029574469530582428,0.052785103117674585
1761915752532599800,4.422599853515625,0.04330371967554092,0.0414781116835773,0.055714653763547534
1761915752542654000,4.432654052734375,0.062436290168762204,0.038928427200764414,0.054032180569320916
1761915752552707800,4.442707763671875,0.09537234508693218,-0.009647533789277076,0.042278724009357393
1761915752562762000,4.452761962890625,0.1359492701470852,-0.01758840979114175,0.05073739507393911
1761915752572816000,4.46281591796875,0.11883446921706199,-0.00881707431450486,0.037680326835811136
1761915752582870000,4.4728701171875,0.08674363295137882,0.041944998542964455,0.03802736844150349
1761915752592924000,4.482923828125,-0.014841010779142379,0.07788447306081653,0.035311515345238145
1761915752602978000,4.49297802734375,-0.12874386881291866,0.08944353955984115,0.0232571578762494
1761915752613032000,4.503031982421875,-0.17642682648599148,0.10098828527256846,0.016745620557758956
1761915752623086000,4.513086181640625,-0.08693710969686508,0.13098565639033913,0.013507095294259489
1761915752633141000,4.52314111328125,0.043943186622858045,0.13513269306719303,0.008518255764711647
1761915752643195000,4.53319482421875,0.13799334319531917,0.09747413967177271,-0.0041356019673869015
1761915752653249000,4.5432490234375,0.17753917164206504,0.06276961377635598,-0.01469040506100282
1761915752663303000,4.553302978515625,0.12351941216289997,0.023537381323426962,-0.005170260511059314
1761915752673357000,4.563357177734375,0.09461422019600868,-0.031041619473695752,0.012959380017314106
1761915752683411000,4.573410888671875,0.10322948832809925,-0.07066314350515604,-0.009241400673799216
1761915752693465000,4.583465087890625,0.1496253288000822,-0.08689312442466617,-0.013525178940221667
1761915752703519000,4.59351904296875,0.18452888439893722,-0.0672422291457653,0.007590473395306617
1761915752713572900,4.60357275390625,0.1660211678057909,-0.024567455023527144,0.020381931233499198
1761915752723626800,4.613626708984375,0.1419347742974758,-0.013594956240803003,0.009129921389650552
1761915752733681000,4.623680908203125,0.07565817531347274,-0.008903583554178475,0.011487225105520337
1761915752743736000,4.633736083984375,-0.00770107589662075,0.01221694588586688,0.01903648970760405
1761915752753790000,4.6437900390625,-0.03908873232901096,0.043012189383059736,0.0036561844199895855
1761915752763844000,4.653843994140625,0.019452303966879844,0.056737494005262845,-0.009305588483810424
1761915752773898000,4.66389794921875,0.07836860331594944,0.05430383711755275,-0.0360811297445558
1761915752783952000,4.673951904296875,0.0860211638957262,0.04312763245627284,-0.03321991336084902
1761915752794005800,4.684005859375,0.05862754553556442,0.03522898816093802,-0.03184670704519376
1761915752804060000,4.694059814453125,0.01952478468120098,0.034501550669223065,-0.01685622305907309
1761915752814113800,4.70411376953125,-0.027925533279776572,0.036247663684189316,0.010047109299805014
1761915752824168000,4.71416796875,-0.051906128326058384,0.06909750162363051,0.009614252574183047
1761915752834221800,4.724221923828125,-0.052426352807879446,0.1135081596277654,-0.009234222014341502
1761915752844277000,4.734277099609375,-0.017511106771230696,0.12812018395662306,-0.0408334205718711
1761915752854331100,4.7443310546875,0.02611877611875534,0.1337709031946957,-0.047639629987999796
1761915752864384800,4.754384765625,0.08480652740895747,0.11581292943879962,-0.04969035197272897
1761915752874439000,4.76443896484375,0.08180617654919624,0.042891339482367036,-0.026311266483552753
1761915752884492800,4.774492919921875,0.0633908144146204,-0.03507774312198162,0.010027546082809567
1761915752894547000,4.784546875,0.05778349592685699,-0.0911478592596948,0.04198392404755577
1761915752904600800,4.794600830078125,0.08092939371466636,-0.1176052196830511,0.04728935524560511
1761915752914655000,4.804655029296875,0.15797580851614473,-0.096352734426409,0.03998122418932616
1761915752924708900,4.814708984375,0.22232816143929957,-0.054598582280427216,0.036745128344930704
1761915752934763000,4.824762939453125,0.213770760974288,-0.020216127946227787,0.018303097399137915
1761915752944818000,4.83481787109375,0.15167641611099242,-0.023821312831342218,0.02876026707086712
1761915752954871800,4.844871826171875,0.059116790357232094,-0.022542525067180394,0.05388714607544243
1761915752964926000,4.854926025390625,0.02089373494684696,-0.046473143491894006,0.06384816626068204
1761915752974979800,4.864979736328125,0.07691255928874015,-0.06936141325682402,0.056343069593887775
1761915752985034000,4.875033935546875,0.15535364331901072,-0.07719254527390003,0.019994612416345627
1761915752995088000,4.885087890625,0.2061573633611202,-0.0679153061017394,-0.001590118735656142
1761915753005142000,4.89514208984375,0.19131109188497064,-0.029729075570404526,-0.011986004940513521
1761915753015196000,4.90519580078125,0.12423545147776603,0.027832009777426718,-0.00793506731558591
1761915753025250000,4.91525,0.02853518961071968,0.06972089421898126,-0.01505090893646702
1761915753035304000,4.925303955078125,-0.05018938753604889,0.09848331671431661,-0.03874039381537586
1761915753045357800,4.93535791015625,-0.07809621611535549,0.11911971589922904,-0.04784030365925282
1761915753055413000,4.9454130859375,-0.037142858958244325,0.1313363695241511,-0.05657717061070725
1761915753065467000,4.955466796875,0.03752922792732715,0.09325783715099095,-0.08186437300983816
1761915753075521000,4.96552099609375,0.11940320901572704,0.04575125895813107,-0.10778894173074513
1761915753085575000,4.975574951171875,0.12886077319085598,-0.009968436306715012,-0.11704652635436505
1761915753095629000,4.985629150390625,0.09246201059818267,-0.029639935982227323,-0.08845211736969649
1761915753105683000,4.995682861328125,0.08352993160188198,0.04862696052491665,-0.04895548009322956
1761915753115737000,5.005737060546875,0.016057985353469847,0.1475495454393327,-0.04329973762016743
1761915753125790700,5.015790771484375,-0.07968786922097205,0.1917125122927129,-0.04324431763850152
1761915753135844900,5.025844970703125,-0.10349427674412727,0.1791476297520101,-0.023421079733688382
1761915753145898800,5.035898681640625,-0.0401806192189455,0.11781827791184186,-0.0006846760622225701
1761915753155954000,5.045953857421875,0.008403671208024025,-0.004923720137774944,0.020767167691420764
1761915753166008000,5.056008056640625,0.046479427102208135,-0.09805369312539697,0.06406432976201176
1761915753176055600,5.0660556640625,0.0925567031443119,-0.14033712984248994,0.09149287330508231
1761915753186109700,5.076109619140625,0.14024842864573,-0.17425035922974347,0.07815636707106605
1761915753196163600,5.08616357421875,0.16137831043601036,-0.16205080287009477,0.05609968929206952
1761915753206217700,5.0962177734375,0.2007552120566368,-0.11999036125391721,0.05811687433337792
1761915753216271600,5.106271728515625,0.2213075862199068,-0.06914660146236419,0.07569578564381227
1761915753226325800,5.11632568359375,0.09615618894100189,-0.09003755993023514,0.09581384177673608
1761915753236379600,5.126379638671875,-0.0376402870863676,-0.10530278747081756,0.15205865689422934
1761915753246433800,5.136433837890625,-0.093889997574687,-0.0691162063241005,0.19219914503218605
1761915753256488700,5.14648876953125,-0.078453358989954,-0.05009104172810912,0.1836525034232065
1761915753266542600,5.15654248046875,-0.03882803556621074,-0.028124709113687276,0.15421388043304904
1761915753276596700,5.1665966796875,0.022997429227828978,-0.00581730797663331,0.09649102865224704
1761915753286650600,5.176650634765625,0.10535656348466872,0.04343567549213767,0.059429710497613995
1761915753296704800,5.186704833984375,0.12835983793139458,0.061857467367500064,0.0397840393831022
1761915753306758700,5.196758544921875,0.09222469471096992,0.048336745406687254,0.0331556524856016
1761915753316812800,5.206812744140625,0.05150806891918182,0.04344298201575875,0.02224796256739646
1761915753326866700,5.21686669921875,0.055953357890248294,0.062087915122508996,0.008278948849812149
1761915753336920800,5.2269208984375,0.11581775174438953,0.07484948927909135,-0.027192743759509173
1761915753346974700,5.236974609375,0.18412147264182566,0.07028612688630818,-0.05412877281159162
1761915753357029600,5.247029541015625,0.23889117370545862,0.057635611888766286,-0.049640868541505186
1761915753367080700,5.257080810546875,0.23810090011060236,0.06141176942661404,-0.05307056899555027
1761915753377134800,5.267134765625,0.21889701794683933,0.052852469265460965,-0.02766991455089301
1761915753387188700,5.277188720703125,0.15692951433360575,0.04447919319570064,-0.014665215820819139
1761915753397243600,5.28724365234375,0.10868483112454413,0.01893953213915229,-0.004535506271477788
1761915753407297500,5.297297607421875,0.10739128418266773,0.0008199380807578563,0.009243154239468277
1761915753417351700,5.3073515625,0.1708651007056236,-0.008379851941019296,0.019814707538485524
1761915753427405600,5.317405517578125,0.23670038566291332,-0.004532236602157354,0.009599402064923197
1761915753437459700,5.327459716796875,0.2669786195486784,0.01146422782242298,0.007263597794808447
1761915753447513600,5.337513671875,0.25183541095256806,0.017709551952779293,0.017275380052905527
1761915753457567700,5.347567626953125,0.1896276688426733,0.013487111952155828,0.017359934797510503
1761915753467622000,5.357621826171875,0.14019874428510665,0.018922581004351378,0.025096995322965086
1761915753477675800,5.36767578125,0.10606500401496886,0.035352760671079154,0.022864815824106335
1761915753487730700,5.377730712890625,0.09898410584330558,0.04542071182951331,0.01893832656275481
1761915753497784600,5.38778466796875,0.07146890693008899,0.046999651584029196,0.0475383981032297
1761915753507838700,5.397838623046875,-0.005898410388827323,-0.0012134674429893494,0.0517030069693923
1761915753517892600,5.407892578125,-0.016512158861756325,-0.010849310794472693,0.0370643868945539
1761915753527946800,5.41794677734375,0.021122283005714414,0.048383361027389764,0.05948034470630809
1761915753538000600,5.428000732421875,0.05127484468519687,0.06419833140522241,0.06168837614459917
1761915753548054800,5.4380546875,0.08079203107059002,0.034481092403084036,0.040446375749353315
1761915753558109000,5.44810888671875,0.0622884061306715,-0.020023235722631216,0.03945425943946466
1761915753568162600,5.45816259765625,-0.017461422410607337,-0.09423471935912967,0.04498551701633259
1761915753578216700,5.468216796875,-0.06874328135848044,-0.15158435391336678,0.0691941851974465
1761915753588270600,5.4782705078125,-0.0805704972743988,-0.1462931156374514,0.07864475337620824
1761915753598325800,5.48832568359375,-0.07096095740795134,-0.09491568736061454,0.08761977646509185
1761915753608379600,5.498379638671875,-0.0671247402459383,-0.0459742540590465,0.09037081047259271
1761915753618433800,5.508433837890625,-0.08121405587494372,-0.035828415358811615,0.08145849562268703
1761915753628487700,5.51848779296875,-0.02760579980611801,-0.04281140611395239,0.05561210670452565
1761915753638541800,5.528541748046875,0.025319734695553778,-0.0798231860384345,0.039586306587606666
1761915753648595500,5.538595458984375,0.032681787896156306,-0.1079825280740857,0.04928663001004606
1761915753658649600,5.548649658203125,0.02460778703391552,-0.11506225720196962,0.07220898470766841
1761915753668703700,5.558703857421875,0.007518120545148849,-0.11853899340182542,0.07871951737916097
1761915753678757600,5.568757568359375,0.015747604230046272,-0.10787278408929706,0.0797614641801454
1761915753688811800,5.578811767578125,0.040816579034924506,-0.04844882747903466,0.06659298972310498
1761915753698866700,5.58886669921875,0.07798281886875628,0.02948445315957069,0.030511969576403498
1761915753708920800,5.5989208984375,0.055312137377262115,0.10005933385938405,0.014131218541972338
1761915753718974500,5.608974365234375,-0.004988309806585311,0.1415080733180046,0.016468009192775933
1761915753729028600,5.619028564453125,-0.034925767430663106,0.16694588143527506,0.01668576186299324
1761915753739082500,5.62908251953125,-0.022385434809327125,0.147733669834584,-0.0011888261920772493
1761915753749136600,5.63913671875,0.06274491772651672,0.1171414015635848,-0.03220991433439776
1761915753759190800,5.649190673828125,0.16812310852110385,0.08115560368597508,-0.04056620273673907
1761915753769244700,5.65924462890625,0.2535352006077766,0.03551277353838086,-0.04216529023014009
1761915753779298800,5.669298828125,0.3074590984970331,0.010398936678469181,-0.05496953448466956
1761915753789352700,5.679352783203125,0.29165947181880475,0.014793810636550187,-0.05341238643685355
1761915753799407600,5.68940771484375,0.20883155100643633,0.034086393997073174,-0.03430626555914059
1761915753809461500,5.69946142578125,0.14575404032468794,0.059345192285627124,-0.010581709366850555
1761915753819515600,5.709515625,0.10912439158558845,0.08124722749218344,-0.007630403546895832
1761915753829569500,5.719569580078125,0.10256722502708435,0.0860582810357213,0.00006279957052320242
1761915753839623700,5.729623779296875,0.061602177432179446,0.0944287806265056,0.007119293953292072
1761915753849677800,5.739677734375,0.020617256093025206,0.08972381780594586,0.009745678667817264
1761915753859731700,5.749731689453125,0.02971124765276909,0.07160539279133081,-0.00527642429927364
1761915753869785900,5.759785888671875,0.1034451769053936,0.04978665195405483,-0.01754670780757442
1761915753879839700,5.76983984375,0.18284020065963266,0.03218669785559177,-0.024915190748963503
1761915753889894000,5.779893798828125,0.21405483861267566,-0.009266717778146267,0.0025692842324264347
1761915753899948500,5.789948486328125,0.17086334713995455,-0.041717765658348796,0.0147699365706183
1761915753910002700,5.800002685546875,0.12644845135211943,-0.05121434666961431,0.031244229373708365
1761915753920056600,5.810056640625,0.10388707545399666,-0.046128713968396184,0.03379318320415914
1761915753930110700,5.82011083984375,0.07017769807577133,-0.018235329392552374,0.037910317933093754
1761915753940164900,5.830164794921875,0.06696691933572292,-0.0007074176169931889,0.0592704648152925
1761915753950220500,5.840220458984375,0.10434884774684905,0.02095671718046069,0.04848831923920661
1761915753960275700,5.850275634765625,0.14331599952280522,0.003199234432727098,0.042621692228130996
1761915753970329900,5.860329833984375,0.14080021730959413,-0.03558101646900177,0.04866018694108352
1761915753980383700,5.8703837890625,0.09615677346289157,-0.048807870049774646,0.04358542269375175
1761915753990437600,5.880437744140625,0.045859249377250666,-0.020535569158941506,0.05689732420947402
1761915754000491500,5.890491455078125,-0.03148877871930599,0.03208002261072397,0.06311523060994223
1761915754010545700,5.900545654296875,-0.11632745483219623,0.087927582038939,0.06508011920843274
1761915754020599600,5.910599609375,-0.1271340955287218,0.13498787776902318,0.07622625752501189
1761915754030653700,5.92065380859375,-0.12369359968602657,0.10582081999555229,0.05177846509208903
1761915754040707600,5.93070751953125,-0.01836801586151123,0.07995791833400726,0.02901219600532204
1761915754050761700,5.94076171875,0.12379296840727329,0.0689211221434176,0.026118757852446287
1761915754060816600,5.950816650390625,0.20265257011055945,0.03907514219507575,-0.009546959491632877
1761915754070870500,5.96087060546875,0.18938626130223274,-0.0019569792866706848,-0.016087120116408914
1761915754080924700,5.970924560546875,0.14626841958761214,-0.04092486171498894,0.0018936499931849538
1761915754090978600,5.980978515625,0.1130301668524742,-0.06274725581407546,0.03014468890028074
1761915754101032700,5.99103271484375,0.06324936011731624,-0.06805719879046082,0.025308482649177313
1761915754111086600,6.001086669921875,0.10247370152473449,-0.031161738722026346,0.002157159767579287
1761915754121140700,6.011140625,0.151722008818388,0.024008213705569503,-0.02332229553433135
1761915754131194600,6.021194580078125,0.14442249945998192,0.026496669520437714,-0.032820100388303394
1761915754141248800,6.031248779296875,0.11249182219207286,0.004747779048979282,-0.02033845741795376
1761915754151302700,6.041302734375,0.07845978873074054,-0.005939326921105385,-0.02002265120074153
1761915754161357600,6.051357666015625,0.08743862947821616,-0.014332184474170208,-0.013621168394293635
1761915754171411700,6.06141162109375,0.07832768678367137,0.0017874679386615752,-0.009353756740782409
1761915754181472300,6.07147216796875,0.05535889912843704,0.002552753222733736,0.006168258572462946
1761915754191526100,6.081526123046875,0.03514437861740589,0.012021423313766717,0.049251850957609714
1761915754201580300,6.091580322265625,-0.00008592471778392792,0.051438949205726385,0.0560837062716484
1761915754211634200,6.10163427734375,-0.045533086162805554,0.09475669740661978,0.05304833889743313
1761915754221688300,6.111688232421875,-0.09001520196795464,0.12492927896082401,0.04349361622445285
1761915754231742500,6.121742431640625,-0.11479600748121738,0.13901786393746732,0.043559685464296484
1761915754241796400,6.13179638671875,-0.07829086190462112,0.1396326348349452,0.03449387881942093
1761915754251850200,6.141850341796875,-0.022549100938439367,0.0916574162170291,0.007914499451592564
1761915754261905200,6.1519052734375,0.07741817072331905,0.02466404726579785,-0.010719839195907115
1761915754271959300,6.161959228515625,0.14074234964251517,-0.024860885012149808,0.021009561612550166
1761915754282013200,6.17201318359375,0.1856055737197399,-0.06889657222405075,0.050701099917851385
1761915754292067300,6.1820673828125,0.23599311417639254,-0.08213204750269651,0.06468032450219616
1761915754302121200,6.192121337890625,0.22759528818726538,-0.07050210772454739,0.05482860991032794
1761915754312175400,6.20217529296875,0.19183833062946795,-0.022333266230672597,0.04592197588253766
1761915754322229500,6.2122294921875,0.09204933814406395,0.02568301504999399,0.04477609378304332
1761915754332283100,6.222283203125,0.014179916521906852,0.061529258326441044,0.04632293963255361
1761915754342337300,6.232337158203125,-0.054473348465561865,0.07339242233857513,0.06491968621602281
1761915754352391200,6.24239111328125,-0.09488485383093356,0.06530892299562692,0.08732230962216854
1761915754362446300,6.2524462890625,-0.0820171889513731,0.04733136775642633,0.09535716578410938
1761915754372500200,6.262500244140625,-0.03231295458376408,0.0179978673748672,0.08184846305465325
1761915754382554400,6.272554443359375,0.024754502028226853,-0.002915741316229105,0.07436985253598541
1761915754392608300,6.282608154296875,0.07859072163403034,0.0043736850395798684,0.06497369969189166
1761915754402662400,6.292662353515625,0.11128653805553912,0.01768281007632613,0.05134279535487294
1761915754412716300,6.30271630859375,0.11484452279806136,0.03128434218838811,0.02903617966910824
1761915754422770200,6.312770263671875,0.11383914514780044,0.036193887670338154,0.025037739416398107
1761915754432824300,6.32282421875,0.06408639546334743,0.013709522531181573,0.032783768699597565
1761915754442878200,6.332878173828125,-0.004880173256993294,-0.014222878880798815,0.040224586224835365
1761915754452932400,6.342932373046875,-0.057681789118051524,0.006318243236094713,0.05463014646247029
1761915754462987300,6.3529873046875,-0.04921498954594135,0.026764526676386593,0.06180834926245734
1761915754473041400,6.36304150390625,-0.01993044287264347,0.06897022198215126,0.053125623651035125
1761915754483095300,6.37309521484375,0.02118482684791088,0.06728153824284672,0.04557840487556532
1761915754493149200,6.383149169921875,0.04517185163497925,0.015487199728190898,0.018815503900684417
1761915754503203000,6.393203125,0.009319032487273216,-0.020419833824783563,-0.005387867050804198
1761915754513257200,6.40325732421875,0.04536474385857582,-0.022703122456371783,0.0028060521303676068
1761915754523311400,6.413311279296875,0.11169687242209911,0.009161065446585416,0.014361218772409482
1761915754533365200,6.423365234375,0.13849135584533215,0.04099997277781367,0.012368757180403917
1761915754543419400,6.43341943359375,0.1516471900165081,0.06806552822738886,-0.004264050652645528
1761915754553473300,6.443473388671875,0.2060883897781372,0.07892609106823802,0.0013834445818793027
1761915754563528200,6.453528076171875,0.19115327097475526,0.032916619565337896,-0.014011172358877956
1761915754573582000,6.46358203125,0.20191607252955435,-0.016271628104150296,-0.006634113385388627
1761915754583636200,6.47363623046875,0.22747078502476215,-0.030306875458359715,-0.0030681736652739345
1761915754593690000,6.483690185546875,0.2237076330989599,-0.05096373290941119,0.0031953619752079247
1761915754603744300,6.493744140625,0.197483643040061,-0.060590223910659546,0.015871879063686357
1761915754613798400,6.50379833984375,0.1566840151399374,-0.039648704299330706,0.03178935996792279
1761915754623852300,6.513852294921875,0.08976678016483783,0.0011024082839488983,0.030897553094197065
1761915754633906400,6.523906494140625,-0.005137947410345077,0.04104951100796461,0.024822224369039757
1761915754643960300,6.533960205078125,-0.04727788400352001,0.09012684564888476,0.02710791502026841
1761915754654014500,6.544014404296875,-0.003537526476383209,0.12414470445439219,0.01876904354360886
1761915754664069000,6.554069091796875,0.019683190113306045,0.11515344261676072,0.018127941761631516
1761915754674123300,6.564123291015625,0.04694996722340584,0.08457900226339697,0.00868921015113592
1761915754684177200,6.57417724609375,0.06781506059765816,0.05262830512076616,0.0025163576019462197
1761915754694231300,6.584231201171875,0.04954992058873176,0.015157821643352507,0.00038138226671144366
1761915754704285400,6.594285400390625,0.005130933147668838,0.0052064826019108295,0.04231449857563711
1761915754714339300,6.60433935546875,0.011930676290392874,-0.002827186249941587,0.06617900209473446
1761915754724393500,6.6143935546875,0.04433014011383057,0.03412877183407545,0.05440347070028074
1761915754734447400,6.624447265625,0.04936053549647331,0.07011588488593697,0.03175377719788812
1761915754744501200,6.634501220703125,0.06440788250267505,0.04553440133705735,-0.008887901927856727
1761915754754555100,6.64455517578125,0.08679273279011249,0.00914104557186365,-0.021337222664337605
1761915754764610300,6.6546103515625,0.10678571950495243,-0.03562207913175225,0.01331369161400944
1761915754774664200,6.664664306640625,0.11686229236125946,-0.07061682014539837,0.025709829991683364
1761915754784718300,6.67471826171875,0.13233867843449115,-0.08535539346337317,0.03584755845069885
1761915754794772500,6.6847724609375,0.11831833638846874,-0.07699936078935861,0.01629187630773522
1761915754804826400,6.694826416015625,0.13886661889851093,-0.04667611871808767,0.019959632434509694
1761915754814880300,6.70488037109375,0.13824351856410502,-0.03803659292757511,0.011087192937266082
1761915754824934100,6.71493408203125,0.09605740474164486,-0.04578296927064657,0.008134060486406088
1761915754834988300,6.72498828125,0.048842649102211,-0.03838642927855253,0.02524345458894968
1761915754845042200,6.735042236328125,0.03977496102750301,-0.03300020619556308,0.01681980917197652
1761915754855096300,6.745096435546875,0.05147182856202125,-0.04330196610987186,0.010157867064746097
1761915754865151200,6.755151123046875,0.07577040351629256,-0.03451689436882734,0.01493687236905098
1761915754875205400,6.765205322265625,0.07537000602185726,-0.005998655892908573,0.0027288952409289776
1761915754885259300,6.77525927734375,0.04228606706559658,0.03360737830847502,-0.0062910903676878654
1761915754895313200,6.785313232421875,-0.0048562078595161436,0.05696545754224062,-0.0071847238723188635
1761915754905367300,6.7953671875,-0.032353871116042134,0.08035627000182867,-0.013023120302753523
1761915754915421200,6.805421142578125,-0.03436813354790211,0.0725220692448318,-0.010783625147119164
1761915754925475300,6.815475341796875,0.007616904744505882,0.05049480022341012,-0.021405456461803987
1761915754935529200,6.825529296875,0.06704466074705123,0.04100786382332444,-0.01961485585113987
1761915754945583400,6.835583251953125,0.11546002434790134,0.0399126159325242,-0.04190304996422492
1761915754955637200,6.84563720703125,0.15219897868037222,0.049918753901124,-0.033804800576716657
1761915754965692200,6.855692138671875,0.10779051263332366,0.014553133748471735,-0.03937562297899276
1761915754975746000,6.86574609375,0.00042728550136089324,0.006695405985414981,-0.007186066446034237
1761915754985800200,6.87580029296875,-0.022625088784098624,0.0018596563920378684,0.010196893034037202
1761915754995854300,6.885854248046875,0.06390227106809615,0.030179595816880463,0.011699717078730463
1761915755005908200,6.895908203125,0.15951777726113794,0.03953662222698331,-0.005258313253847882
1761915755015962400,6.90596240234375,0.21161445972323417,0.028613515543937682,-0.016273153340956196
1761915755026016300,6.916016357421875,0.18612521367967128,0.0056552492827177045,-0.012086314376676455
1761915755036070400,6.9260703125,0.08471008129715919,-0.021393647293001413,0.008393834800599142
1761915755046124300,6.936124267578125,0.009597849428653717,-0.01680120493620634,0.02688002454852685
1761915755056178400,6.946178466796875,-0.00008826280534267425,-0.006320435193181037,0.008658869811799377
1761915755066233000,6.956233154296875,0.03722410750091076,-0.01681201859116554,0.0008386062486097217
1761915755076287200,6.966287353515625,0.09462707967758179,-0.0127105746217072,0.003953094140486791
1761915755086341400,6.97634130859375,0.14125146820843218,-0.01598009781166911,-0.0014512308547738938
1761915755096395300,6.986395263671875,0.18197452374100684,-0.0031450200274586674,-0.015149336942797525
1761915755106449400,6.996449462890625,0.15086568424999713,-0.020150076972693203,-0.022115431362064553
1761915755116503300,7.00650341796875,0.0560141481667757,-0.024172756617516278,-0.0028465759370010345
1761915755126557400,7.016557373046875,-0.028490181425213812,-0.006235387258231639,0.025586998196458443
1761915755136611300,7.026611328125,-0.057310617718100546,0.024413287375122307,0.056504580298531795
1761915755146665200,7.036665283203125,-0.06706745710074902,0.04738806637972593,0.05225174515964463
1761915755156719000,7.046718994140625,-0.03201309485435486,0.08117036286368966,0.04653592479610815
1761915755166774300,7.056774169921875,0.011523264533281325,0.10575126189067958,0.04441467659212649
1761915755176824600,7.066824462890625,0.03047229515314102,0.07665054735168814,0.020572257040673867
1761915755186878700,7.076878662109375,0.04881926822662353,0.053517216784507035,0.039395040065515786
1761915755196932900,7.086932861328125,0.03739771050214767,0.031181174074858424,0.057997074745455755
1761915755206986800,7.09698681640625,-0.00490472317636013,0.02111395356878638,0.05080678878203034
1761915755217041000,7.107041015625,0.015029226827621459,0.004441197317838669,0.04971054537738673
1761915755227094500,7.117094482421875,0.05902385137677192,-0.015575754794478416,0.039477521584043274
1761915755237148700,7.127148681640625,0.16014964542388915,-0.03514247892126441,0.03162828765469603
1761915755247202600,7.13720263671875,0.21674013217389582,-0.038328853872418404,0.019767699192138388
1761915755257256700,7.147256591796875,0.23406126933097837,-0.054459466070681806,0.017298806594265623
1761915755267311600,7.1573115234375,0.2182622271746397,-0.09004077480062841,0.017849088287632913
1761915755277365800,7.16736572265625,0.16809271338284015,-0.10659764958694577,0.025527258232701567
1761915755287420000,7.177419921875,0.12286240955889224,-0.09562325110808015,0.02969165703631006
1761915755297473800,7.187473876953125,0.10712883385419845,-0.06300079218372702,0.023258454784192143
1761915755307527700,7.197527587890625,0.10927110657989979,-0.035031273631751535,-0.0005300152234733104
1761915755317581600,7.20758154296875,0.15844576411545275,-0.009519377364963293,-0.020889067904883995
1761915755327635700,7.2176357421875,0.20317104102671146,0.022419921600818633,-0.04532205549431965
1761915755337689600,7.227689697265625,0.2231067445963621,0.0343869843788445,-0.05097978899506852
1761915755347743700,7.23774365234375,0.17064181334376335,0.033986586884409184,-0.06536681806216947
1761915755357797600,7.247797607421875,0.07768938888013363,0.044292438451945776,-0.04837883098274469
1761915755367852800,7.257852783203125,0.009065349987149238,0.0791696905657649,-0.03468474348271265
1761915755377906700,7.26790673828125,-0.03939502179920673,0.11913038342371582,-0.0363795281692408
1761915755387960600,7.277960693359375,-0.058193245771527284,0.12976400564089416,-0.018360782403126358
1761915755398014700,7.2880146484375,-0.013826865300536156,0.1263799161605537,-0.016639475035853682
1761915755408068600,7.298068603515625,0.03953004635572433,0.1261672963231802,-0.004135090510733425
1761915755418122800,7.308122802734375,0.0008282675176858902,0.12225596809834241,-0.0044223099542781705
1761915755428176600,7.3181767578125,-0.011508066964149475,0.16829188921675084,0.01572321870746091
1761915755438230800,7.328230712890625,-0.08974924450814724,0.09811725988090038,-0.013893646926432848
1761915755448284700,7.33828466796875,-0.12560907791852952,0.07399126501455902,0.02383170636119321
1761915755458338800,7.3483388671875,-0.09647475337088107,0.06866890094801784,0.033562863313313575
1761915755468393700,7.358393798828125,0.021591654083132742,0.03685147479623556,0.027488840629253535
1761915755478447600,7.368447509765625,0.17593641262054444,0.015336685341596603,0.02327065667863935
1761915755488501800,7.378501708984375,0.2378027939468622,-0.025286855339258906,0.029272892768122255
1761915755498555600,7.3885556640625,0.14533201552033423,-0.06639613371044396,0.09136493607647717
1761915755508609800,7.39860986328125,0.02009118639230728,-0.11490721277073025,0.1383344117179513
1761915755518663700,7.40866357421875,-0.002599368843436241,-0.14144552947580813,0.13486445231875405
1761915755528717800,7.4187177734375,0.019703063857555388,-0.1226649872906506,0.12764177105622365
1761915755538771700,7.428771728515625,0.05322188709974288,-0.11990750527605414,0.13055068077286705
1761915755548825900,7.438825927734375,0.12176350840628146,-0.1269112465582788,0.11590221515744924
1761915755558880800,7.448880859375,0.15332593688368795,-0.12810907804071903,0.10006260352870448
1761915755568934700,7.4589345703125,0.1504173559606075,-0.13666925498470664,0.09179191105058417
1761915755578988800,7.46898876953125,0.103192663449049,-0.14225012385696173,0.09161549503775313
1761915755589042700,7.479042724609375,0.03322948490679264,-0.09302987361401319,0.09321014381805434
1761915755599096800,7.489096923828125,-0.01950958711206913,-0.038778205075114966,0.0959328650465235
1761915755609150700,7.499150634765625,-0.039463410860300065,-0.006481470973789692,0.10575741763683036
1761915755619204900,7.509204833984375,-0.027719197052717207,0.011233049415051936,0.09849590220125391
1761915755629258800,7.5192587890625,0.007153963407874107,0.013382920925319194,0.08864577677827327
1761915755639312600,7.529312744140625,0.06278875686824321,0.007088789217174053,0.07493166940351947
1761915755649366500,7.539366455078125,0.12325170113742351,-0.00392915614247322,0.06050868310704827
1761915755659421700,7.549421630859375,0.1619821215480566,-0.024869360579550265,0.059299910105485465
1761915755669475800,7.559475830078125,0.14819500373601913,-0.037145050915330644,0.06891538652237504
1761915755679529700,7.56952978515625,0.10729834520220756,-0.018263678704202174,0.05226553622297942
1761915755689583900,7.579583984375,0.060756958779692644,0.044063744262605904,0.023800489239022133
1761915755699637800,7.5896376953125,0.010288169780373573,0.12699059540480376,-0.016723609655350444
1761915755709691600,7.599691650390625,0.04339958126544952,0.17656915756613015,-0.05473932419167831
1761915755719745500,7.60974560546875,0.11806231580078601,0.18557415566816926,-0.06900472703995182
1761915755729799700,7.619799560546875,0.17633622559309003,0.16184928894862533,-0.061774118199292564
1761915755739853600,7.629853515625,0.2045943518280983,0.07760653290227056,-0.053587980465777216
1761915755749907700,7.63990771484375,0.17841536995470522,0.013050766361504793,-0.038991208504978565
1761915755759963000,7.649962890625,0.14746142876446247,-0.045254999873787165,-0.03732541245091706
1761915755770016800,7.660016845703125,0.12371522699594496,-0.07371200968176125,-0.026727592199482023
1761915755780070700,7.670070556640625,0.11840952180325984,-0.07153992633968591,-0.024005236297193915
1761915755790124500,7.68012451171875,0.10819266369342803,-0.07056991226375102,-0.03715151718873531
1761915755800178700,7.6901787109375,0.07247662266790866,-0.0407787312425673,-0.023737397407554088
1761915755810232600,7.700232666015625,0.011790975558757782,-0.002422258710861206,-0.0016263042938895523
1761915755820286700,7.71028662109375,-0.024574469286203382,0.02564940504133701,0.006794117119535804
1761915755830340600,7.720340576171875,-0.07434066297411918,0.03828238438218832,0.009908084421604872
1761915755840394800,7.730394775390625,-0.09242986189424991,0.06090192020833492,0.013140563536807894
1761915755850448600,7.74044873046875,-0.08288695752322674,0.07407426712289453,0.024359511361271142
1761915755860503600,7.750503662109375,-0.10632394721210002,0.043200989953428505,0.04129497366901487
1761915755870557700,7.7605576171875,-0.1341103642821312,-0.025008038397878407,0.0670018445186317
1761915755880611600,7.770611572265625,-0.12043605919480323,-0.039530192486196755,0.11669813304180279
1761915755890665700,7.780665771484375,-0.0742442168623209,-0.03740092537254095,0.13727025308515875
1761915755900719600,7.7907197265625,0.028408932882547377,-0.012302139951288699,0.13407045239685103
1761915755910773800,7.800773681640625,0.10291852268278598,-0.01599953316450119,0.09966162151237949
1761915755920827600,7.81082763671875,0.12998130165338515,-0.024296675258129834,0.05005213448982686
1761915755930881800,7.8208818359375,0.11396423283219337,-0.010177987404167652,0.020085816097445783
1761915755940935700,7.830935791015625,0.1241413434535265,0.017762012792378663,0.012120591105613856
1761915755950989800,7.84098974609375,0.12022621583640575,0.07203647768497466,-0.0038253487081266937
1761915755961044700,7.851044677734375,0.1228951427847147,0.0875327375024557,-0.009516308625042437
1761915755971098600,7.8610986328125,0.14409282911419868,0.06294833134412765,-0.0030049357033334672
1761915755981152800,7.87115283203125,0.20067162542641162,0.0069344754382967945,-0.04692110645510256
1761915755991206700,7.88120654296875,0.3046089697629213,-0.025821692868322133,-0.10321998984739184
1761915756001260800,7.8912607421875,0.3331044118851423,-0.022935908298939465,-0.13506582010975107
1761915756011314700,7.901314697265625,0.2445335635066032,-0.002382218961417675,-0.1291316260214895
1761915756021368800,7.911368896484375,0.11725099941790103,0.02954801991507411,-0.10853674615705385
1761915756031422700,7.921422607421875,0.04368073629438877,0.04839534372612834,-0.09093165922574699
1761915756041476600,7.9314765625,0.020660510712862012,0.07006196274161339,-0.0814568881874904
1761915756051530500,7.941530517578125,0.07303893272578715,0.07338380064070224,-0.0767730777528137
1761915756061585700,7.951585693359375,0.15674246732890604,0.07695756747424602,-0.05017870174525305
1761915756071639800,7.961639892578125,0.20309972935616968,0.06206847976967692,-0.034414493440277874
1761915756081693700,7.971693603515625,0.1810486410677433,0.02925517444834113,0.007975600255373866
1761915756091747800,7.981747802734375,0.15382278048992157,-0.01788607756346464,0.03490505343619734
1761915756101801700,7.9918017578125,0.1475941152334213,-0.05980886427462101,0.05565598237887025
1761915756111855900,8.00185595703125,0.15061726244688034,-0.07100465041920542,0.09183405142556876
1761915756121909500,8.011909423828126,0.17444412823617458,-0.058566024606674906,0.14427366557382046
1761915756131963600,8.021963623046876,0.14578501998484134,-0.025483546955138443,0.17055691153928637
1761915756142017500,8.032017578125,0.03245791601240635,0.021205723505467174,0.19138687880123034
1761915756152071700,8.04207177734375,-0.05305179122984409,0.06696911129280925,0.208479668828845
1761915756162126800,8.052126953125,-0.02281272031068802,0.09591697335764765,0.1791534567045979
1761915756172180700,8.0621806640625,0.1062684176325798,0.03591653203368187,0.11794785910826176
1761915756182235000,8.07223486328125,0.22612872276604173,-0.04404796217158437,0.06677596334088594
1761915756192288800,8.082288818359375,0.22346505651473997,-0.09862696296870709,0.05712484935503453
1761915756202342700,8.0923427734375,0.1381657771527767,-0.12439210334420203,0.04614743693517521
1761915756212396800,8.102396728515625,0.11725742915868759,-0.08651099323928356,0.021037362934928385
1761915756222450700,8.11245068359375,0.13616846585571765,-0.047106034567952156,-0.014379713410325347
1761915756232504800,8.1225048828125,0.15946809290051459,0.012434680289775133,-0.05917383604040369
1761915756242558700,8.132558837890626,0.16635317623913287,0.05364128155559301,-0.0904784172992222
1761915756252612900,8.14261279296875,0.10032324549257755,0.0536405509032309,-0.09648379519386216
1761915756262667800,8.152667724609374,-0.0067272624284029,0.034814708271622655,-0.049040802022814745
1761915756272721700,8.1627216796875,-0.09005202684700489,0.03134995477050543,0.005704367387760431
1761915756282775800,8.17277587890625,-0.11461071404218673,0.027125176682323216,0.029731559788435696
1761915756292829700,8.18282958984375,-0.07664251017570495,0.032297903145104646,0.030037520465068517
1761915756302883800,8.1928837890625,0.00024900632500648496,0.05421995822638273,-0.0019427315656095742
1761915756312937700,8.202937744140625,0.10089315433502197,0.0647923517756164,-0.026172479067370295
1761915756322991900,8.212991943359375,0.16469430311620234,0.05577200997397303,-0.046862124543171374
1761915756333045800,8.223045654296875,0.2018359930306673,0.014118395593017339,-0.023654486630763857
1761915756343100000,8.233099853515625,0.18810791192948817,-0.0652196372769773,-0.006020593730080873
1761915756353153800,8.24315380859375,0.18510639202594756,-0.10644494324326514,0.040166956019774075
1761915756363208700,8.253208740234374,0.15921207231283188,-0.10843772449567914,0.0765081980052404
1761915756373262800,8.263262939453124,0.12015724225342272,-0.08137889104783534,0.06444370273472741
1761915756383316700,8.273316650390624,0.08293897997140884,-0.0610300766326487,0.03931970980698243
1761915756393371000,8.283370849609375,0.013618775507807731,-0.04164703850969672,0.015870445158425717
1761915756403424800,8.2934248046875,-0.06272329041659831,-0.00017681787163019178,0.03286848784098401
1761915756413479000,8.30347900390625,-0.08454933777749538,0.040698797874152655,0.05043601924087852
1761915756423532800,8.31353271484375,-0.06463584603965282,0.07449570740535855,0.06750153766907752
1761915756433587000,8.3235869140625,-0.01825344957113266,0.07846198068782687,0.04041945120980963
1761915756443640800,8.333640869140625,0.06705225953161716,0.028830957686901092,0.012612612406257539
1761915756453694700,8.34369482421875,0.13007248706817626,-0.012434241898357868,-0.013934344263002276
1761915756463750000,8.35375,0.18997019867002962,-0.0465277962885797,-0.0377131696594879
1761915756473803800,8.3638037109375,0.20988778206109998,-0.0707122433438897,-0.04992142078224569
1761915756483858000,8.37385791015625,0.17847966736257076,-0.0713258451975882,-0.05702253975803032
1761915756493911800,8.383911865234374,0.10412205325365066,-0.07318696289435028,-0.017814619762450457
1761915756503966000,8.393966064453124,0.0065413844674825665,-0.07110621109753847,0.023255769636761396
1761915756514019800,8.404019775390625,-0.06514145747423171,-0.0553073150716722,0.04308490755939856
1761915756524073700,8.41407373046875,-0.08210720532238483,-0.0060341655977070325,0.05044465920506045
1761915756534127600,8.424127685546875,-0.07392214530110358,0.04344546623378992,0.04525461628129705
1761915756544181800,8.434181640625,-0.06505144110321998,0.08465016780346632,0.04134633853007108
1761915756554235600,8.444235595703125,-0.06714812112152577,0.07825622898265719,0.022514997739437968
1761915756564290800,8.454290771484375,-0.0543278025150299,0.05400310060530901,0.03892439034646377
1761915756574345000,8.464344970703126,0.007859481328725814,0.007967033356428146,0.03519789890293032
1761915756584398800,8.47439892578125,0.09208440945744514,-0.03872735167071223,-0.015958653164841234
1761915756594452700,8.48445263671875,0.18193594529628754,-0.07160349309518933,-0.02625003781560808
1761915756604506600,8.494506591796876,0.26441432201862336,-0.0938258462972939,-0.021202125042583793
1761915756614560800,8.504560791015624,0.30165713422000406,-0.0978494027249515,-0.005879194231703877
1761915756624614700,8.51461474609375,0.27339900798499583,-0.05778802597150206,0.011149681980535387
1761915756634668800,8.524668701171874,0.15454057337045668,-0.029125556719303128,0.008603650759533047
1761915756644722700,8.53472265625,0.0590291120737791,0.027845599911361932,0.015228968917112796
1761915756654776800,8.54477685546875,-0.0350654681622982,0.07610898782089352,0.02097306552706286
1761915756664832000,8.55483203125,-0.08484978202879428,0.07545125456452369,0.002805723336804658
1761915756674885600,8.5648857421875,-0.059009822851419445,0.06918313408046961,-0.003515314644575119
1761915756684939800,8.574939697265625,0.0270136791318655,0.05566869572997093,-0.02182405633321032
1761915756694993700,8.58499365234375,0.10461948138177395,0.025602058768272398,-0.04631238170592114
1761915756705047800,8.5950478515625,0.11089315482378005,-0.016217852090299127,-0.04913534843847155
1761915756715101700,8.605101806640626,0.04782148936092853,-0.026492285606265067,-0.027543164632376282
1761915756725155800,8.61515576171875,-0.04095744881033897,-0.0033300212055444715,0.007129669216834008
1761915756735209700,8.625209716796874,-0.07834288435280323,0.020957301702350377,0.00824581376519054
1761915756745263900,8.635263916015624,-0.02016132901906967,0.012596592853218316,0.00721500941272825
1761915756755317800,8.64531787109375,0.0715337888598442,-0.005459288319200277,0.029217783313710242
1761915756765372700,8.65537255859375,0.1398702429831028,-0.031239626263827085,0.03548774869497865
1761915756775426800,8.6654267578125,0.10786591595709323,-0.03242226017713547,0.049358343539386985
1761915756785480700,8.675480712890625,-0.003895253872871399,0.011391893238574266,0.05489067882848903
1761915756795534800,8.685534912109375,-0.04635200133025646,0.034141631315648555,0.06194514565095305
1761915756805588700,8.695588623046875,-0.02205927159488201,0.02529576929807663,0.062336939713824535
1761915756815643000,8.705642822265625,0.029886019697785374,-0.008928717995435,0.0409164957454428
1761915756825696800,8.71569677734375,0.0793202049523592,-0.028807138419896364,0.018871928529348225
1761915756835751000,8.7257509765625,0.15141688839197157,-0.009373831414431332,0.018216186300665137
1761915756845804800,8.7358046875,0.14527765498459339,-0.003781418234854936,0.018664496323745696
1761915756855859700,8.745859619140624,0.06574760667383671,0.016354191821068523,0.017906042639259247
1761915756865913900,8.755913818359375,-0.011387070932984352,0.03844751181602478,0.03750080555044114
1761915756875967700,8.7659677734375,-0.07978022367954253,0.03053907677903771,0.051705911312531674
1761915756886022000,8.77602197265625,-0.0829231978803873,0.019951339530199765,0.05334133049463853
1761915756896075800,8.78607568359375,0.013268646895885467,0.03917757965624332,0.042760351780150085
1761915756906130000,8.7961298828125,0.12246610371768474,0.055783992672711606,0.02249044782007113
1761915756916183800,8.806183837890625,0.20044658449888228,0.04114244998842478,0.017630970291234553
1761915756926237700,8.81623779296875,0.23641163184940814,0.021650106272101403,-0.0022528204280883074
1761915756936291600,8.82629150390625,0.24972236432135103,0.001985182467848062,-0.028728721155133096
1761915756946345700,8.836345703125,0.24124621239900587,-0.0057250996485352515,-0.061181595666240894
1761915756956399600,8.846399658203126,0.23172259725034236,-0.012692892834544181,-0.04667211839640513
1761915756966454800,8.856454833984374,0.1896849519878626,-0.024823037219792603,-0.015773615454137323
1761915756976509000,8.866509033203124,0.1390951669573784,-0.06598609160482884,0.005222447356022894
1761915756986562800,8.876562744140625,0.12188158182799816,-0.08467807872369885,0.03301812544474378
1761915756996617000,8.886616943359375,0.08112111689448356,-0.04907543494477868,0.0526768752365373
1761915757006670600,8.896670654296875,-0.02791208927631378,0.010067658897489309,0.05508198188319802
1761915757016724700,8.906724853515625,-0.07904197253286838,0.07740384993702172,0.03759155257381499
1761915757026778600,8.916778564453125,-0.05494388858675956,0.1297169516287744,0.008402520430553704
1761915757036832800,8.926832763671875,0.0035778584867715833,0.16477219065800308,-0.009573957096412778
1761915757046886700,8.93688671875,0.04947159465551376,0.14345672316774724,-0.013809512306936084
1761915757056941800,8.94694189453125,0.06642915919721126,0.09632087798342108,-0.020873769871052352
1761915757066996000,8.956995849609376,0.0363683674544096,0.05526449884325266,-0.005602258720155805
1761915757077049900,8.9670498046875,-0.000990180081129074,0.04265460811704397,0.010276497608888893
1761915757087103700,8.977103759765624,-0.024645780956745147,0.054657180599868294,0.0127493905284442
1761915757097157600,8.98715771484375,-0.007244564300775528,0.08861439525932073,0.00013243074063211678
1761915757107211800,8.997211669921874,-0.002601122409105301,0.1203973346196115,-0.00507916642781347
1761915757117265700,9.007265625,0.015841127732396126,0.08649725697487592,-0.026296160245966163
1761915757127319800,9.01731982421875,0.03750233992040157,0.0566392943277955,0.010473536284640431
1761915757137373700,9.027373779296875,0.10598492451608181,-0.024869652840495107,0.0395817765429616
1761915757147427800,9.037427734375,0.14644552972018718,-0.1183687514014542,0.04153126664292067
1761915757157482800,9.047482666015625,0.19657880315482615,-0.1432863350369036,0.03293663944005966
1761915757167536600,9.05753662109375,0.23570786749422548,-0.10619871339723468,0.03177271022722125
1761915757177590800,9.0675908203125,0.2263654541313648,-0.07113266071304679,0.028426888664346187
1761915757187650000,9.077650146484375,0.14703180517554282,-0.06682488051652907,0.02752762000337243
1761915757197704200,9.0877041015625,0.07073591648042202,-0.04837868485227227,0.04745004396634176
1761915757207757800,9.0977578125,0.0015729484051465988,-0.06371610084623099,0.08013175879726187
1761915757217812000,9.10781201171875,-0.01760638383924961,-0.06766191586256026,0.08071427139295265
1761915757227865900,9.117865966796876,0.052367900618910786,-0.04252747460603714,0.06519850315740332
1761915757237920000,9.127919921875,0.15777590202987193,0.016108984888345,0.013825020403321831
1761915757247974000,9.137973876953126,0.25039397997260093,0.04050064495354891,-0.02645208146004006
1761915757258029000,9.148029052734374,0.2230102984845638,0.02991217705234885,-0.04121361552849412
1761915757268083200,9.158083251953125,0.17397592620253563,0.03145458418875933,-0.03854130931301042
1761915757278137000,9.16813720703125,0.13797346945106984,0.050997342918068164,-0.019888284231349824
1761915757288191000,9.17819091796875,0.15817629952430723,0.09423311192393302,-0.0012765958070755003
1761915757298244900,9.188244873046875,0.18492226763069627,0.09244432881101966,-0.04457417800277471
1761915757308299000,9.198299072265625,-0.09005378041267395,0.008073562470823525,-0.014892649634834379
1761915757318353000,9.208352783203125,-0.12829612504541874,0.1368633162520826,0.11600193093856796
1761915757328407000,9.218406982421875,-0.011890928801894187,0.1611883408218622,0.05600797415431589
1761915757338461000,9.2284609375,-0.05521218413412571,0.04247267567887902,0.00841539817843586
1761915757348515000,9.23851513671875,-0.11461246760785579,0.04189794453084469,0.053863418139982966
1761915757358570000,9.248570068359374,-0.10329963095486164,0.0770640965886414,0.07332869118629023
1761915757368621000,9.25862109375,-0.10278408264815807,0.07478270765319465,0.07653188940808177
1761915757378675000,9.268675048828126,-0.03323708369135856,0.06921922830715775,0.04486800985019654
1761915757388730000,9.278730224609374,0.06547112782001495,0.011527794577926397,-0.007080459780246019
1761915757398784000,9.288783935546874,0.16817630001306533,0.04895590021833777,0.0446628609332256
1761915757408838100,9.298838134765624,0.10747253272533416,0.006146832191944122,0.008766677567828446
1761915757418892000,9.30889208984375,0.13598083432912825,-0.07203413959741592,0.03804039231985807
1761915757428946000,9.31894580078125,0.09185644592046738,-0.11965499181970954,0.033226270036399365
1761915757439000000,9.329,0.11787000809907912,-0.1040460654079914,0.05755949617894366
1761915757449054000,9.339053955078125,0.17175357397794722,-0.09417465973496436,0.052177182086091484
1761915757459108000,9.349108154296875,0.14276187277138233,-0.07144932544678449,0.02356858017928898
1761915757469162000,9.359161865234375,0.14369593875110148,-0.03633256548866629,-0.004593063411302865
1761915757479216000,9.369216064453125,0.09575637596845626,-0.011112491775304078,0.008647983091603964
1761915757489271000,9.37927099609375,0.0190881468296051,-0.005165127678215503,0.019697291703894733
1761915757499325000,9.389324951171876,-0.07447101135551928,0.03233925806879997,0.02004385838555172
1761915757509378800,9.39937890625,-0.09501286412477493,0.07834653761461377,0.015421733276546001
1761915757519433000,9.409432861328124,-0.03469721937179565,0.11745090590417384,-0.011197137851454316
1761915757529487000,9.419487060546874,0.09274784180223941,0.12250044437870383,-0.026272414044197646
1761915757539541000,9.429541015625,0.17014847686886786,0.10463774769082665,-0.05568162827678024
1761915757549595100,9.43959521484375,0.15621756667196748,0.06113485218137502,-0.05968521962864324
1761915757559649000,9.44964892578125,0.04678396300673485,0.030260259837657212,-0.02363707883823663
1761915757569703200,9.459703125,-0.09757657713294028,0.04236263943314552,0.03844860779456794
1761915757579757000,9.469757080078125,-0.1913087537974119,0.06100348088666796,0.06121779949078336
1761915757589812000,9.47981201171875,-0.1658165851444006,0.12255655848011374,0.04696845272816717
1761915757599865900,9.489865966796875,-0.0506809704452753,0.16335516346693038,0.0009514372396282851
1761915757609920000,9.499919921875,0.07301438280642032,0.16465397110581398,-0.043910380331799385
1761915757619974100,9.50997412109375,0.12013093876838683,0.15461042373627423,-0.04944845124194398
1761915757630028000,9.520028076171876,0.1238315468519926,0.07736351792663336,-0.05169480539662763
1761915757640082200,9.530082275390624,0.16279051532149313,0.011261252596229314,-0.01976734299911186
1761915757650136000,9.540135986328124,0.15692191554903984,-0.07546879022121429,0.0235464414127171
1761915757660190200,9.550190185546874,0.13060732459723948,-0.13072656706273555,0.041720231610070914
1761915757670244000,9.560244140625,0.11950783843398094,-0.14805881013572214,0.04506378815062344
1761915757680298000,9.570298095703125,0.09541150805354118,-0.11435483958497643,0.0710635592659004
1761915757690353000,9.580352783203125,0.11339490851163864,-0.05366597760543227,0.07946671901727095
1761915757700407000,9.590406982421875,0.1259276423484087,-0.04183101677447557,0.07348519692225382
1761915757710461200,9.600461181640625,0.11339373946785926,-0.03799786835238337,0.06105597825888544
1761915757720515000,9.61051513671875,0.10384265179038048,-0.021673487147688863,0.05165836411006748
1761915757730569200,9.6205693359375,0.1350210493862629,-0.041124768201261756,0.044356461865175514
1761915757740623000,9.630623046875,0.12908756768405436,-0.04130523933470249,0.0326348252155818
1761915757750677000,9.640677001953126,0.07648644283115863,-0.027152941472083327,0.04460526726078242
1761915757760731000,9.65073095703125,0.06441080511212348,0.013511369610577821,0.04835276495972648
1761915757770785000,9.660784912109374,0.03039338469803333,0.10394508925154805,0.04456796745769679
1761915757780839000,9.6708388671875,-0.04152618860900402,0.11347601092383265,0.0419014151295647
1761915757790894000,9.68089404296875,-0.07432604992687701,0.08338394725993276,0.035914303543977434
1761915757800948000,9.690947998046875,-0.03430208257436752,0.07654445662871003,0.04013793085468933
1761915757811002000,9.701002197265625,0.022225860333442687,0.09317790378257632,0.03268520369594916
1761915757821056000,9.711055908203125,0.07026362279355526,0.08113397637605667,0.022840028442721812
1761915757831110000,9.72110986328125,0.08530804719030857,0.07503302915245294,0.011027425574045627
1761915757841164000,9.7311640625,0.08658873465061187,0.05639847130924463,-0.009842471839487553
1761915757851218000,9.741218017578126,0.10202771132290363,0.037539164799451824,-0.042962103163637216
1761915757861272000,9.75127197265625,0.18634499391019343,0.035451983261853455,-0.07088235748009755
1761915757871326000,9.761325927734376,0.2592360425978899,0.042192543563246726,-0.06518507742024958
1761915757881380000,9.771380126953124,0.2310626720368862,0.04255918491855264,-0.04519983562044799
1761915757891435000,9.78143505859375,0.19149287819266317,0.04115954725369811,-0.015299275940656661
1761915757901489000,9.791489013671875,0.08233107720613479,0.014956746113300322,0.03904271949650719
1761915757911543000,9.80154296875,-0.054909986317157745,-0.00042509354427456853,0.0945671296512708
1761915757921597000,9.811596923828125,-0.07277005265653133,0.009064034812897442,0.09449830219876021
1761915757931651000,9.821651123046875,0.01293780750632286,-0.023193390191346405,0.07718112883074209
1761915757941705000,9.831705078125,0.09470540561079978,-0.06133899645134806,0.06676516795223579
1761915757951759000,9.841759033203125,0.12098667881488799,-0.09943345704600215,0.05198091059532016
1761915757961814000,9.85181396484375,0.08913140487074851,-0.1002716614358127,0.05655137858232483
1761915757971868200,9.8618681640625,0.017964695757627488,-0.06348755278736352,0.06592310937121511
1761915757981921800,9.871921875,0.012468436428904533,-0.010892711544781922,0.07218209670074284
1761915757991976000,9.881975830078124,0.04647241283953189,0.03937383288070559,0.05117995120966807
1761915758002030000,9.892030029296874,0.06230827987492084,0.04325871149003505,0.03841448632925749
1761915758012085000,9.9020849609375,0.039376901620626445,0.02160831295698881,0.06137315444927662
1761915758022139100,9.91213916015625,-0.049615971562266346,0.006746113259345292,0.10526473874906077
1761915758032193000,9.922193115234375,-0.06979249815046787,-0.013781564854085444,0.11744741703914478
1761915758042247200,9.9322470703125,0.1029571011275053,0.02641878197863698,0.048253140510153024
1761915758052301000,9.942301025390625,0.29984511636197564,0.07378156778663396,-0.03058625865532085
1761915758062355000,9.95235498046875,0.36133565011322494,0.08812281235009431,-0.08533341909358277
1761915758072408800,9.962408935546875,0.3068137863308191,0.07986322578787804,-0.1036723915237002
1761915758082463000,9.972462890625,0.15337971289753913,0.08301599073037505,-0.05950920547461137
1761915758092517000,9.98251708984375,0.026267244678735733,0.12607581864744424,-0.009592296470701695
1761915758102571000,9.992571044921876,-0.012683540484309195,0.1278787764161825,0.00852934341430664
1761915758112626200,10.002626220703124,-0.008406593817472458,0.08474339904487133,0.04500959201166406
1761915758122680000,10.01268017578125,-0.028691841477155682,-0.004075432745367288,0.09090113622331991
1761915758132734000,10.02273388671875,-0.03882803556621074,-0.12362462610304355,0.12224667054703459
1761915758142787800,10.032787841796875,0.011284195080399512,-0.20072832404971122,0.14435045713707803
1761915758152842000,10.042842041015625,0.0857113672941923,-0.21107348471432924,0.13720949934124946
1761915758162896000,10.052895751953125,0.1214350071042776,-0.1511725582420826,0.09459021826591342
1761915758172950000,10.062949951171875,0.18497195199131963,-0.043115942018479105,0.0621537286340259
