time,seconds_elapsed,z,y,x
1761915213911959600,0.12495947265625,0.5756161141753197,2.1151421421915293,-2.0579057587534186
1761915213922013700,0.135013671875,-0.10533785878419875,1.726853603222966,-2.0887176611244676
1761915213932067600,0.145067626953125,-1.4100877471983433,1.2323597749859094,-2.028852682748437
1761915213942121700,0.155121826171875,-3.0462212150543926,0.4312935679584741,-1.4864672225236892
1761915213952175600,0.165175537109375,-4.557586731991171,-0.7511486221700906,-0.5170507471557706
1761915213962229800,0.175229736328125,-5.404843612307309,-1.8225141176015138,-0.12497615030985325
1761915213972284700,0.18528466796875,-6.217748725688457,-2.3513725722551344,-0.5062107156462967
1761915213982338600,0.195338623046875,-6.908891499707102,-2.872050058540702,-1.0276710228726267
1761915213992392400,0.205392333984375,-7.109886365738511,-3.8233652792245145,-1.2592433979973197
1761915214002446600,0.215446533203125,-7.963028796961903,-4.7935038583219045,-1.1508784464769064
1761915214012500500,0.22550048828125,-9.38094095417559,-5.1060149795114995,-0.7308362673077732
1761915214022554600,0.2355546875,-9.51494142834246,-4.4204105503976345,-0.889352758571878
1761915214032608800,0.24560888671875,-8.624810451939702,-3.548403259706497,-1.3987382317967711
1761915214042663700,0.25566357421875,-6.81635408578515,-3.1473218746602534,-1.5723586225599049
1761915214052717600,0.265717529296875,-7.259326985621452,-3.875997383737564,-1.155979495942965
1761915214062771500,0.275771484375,-7.102691485798358,-4.999719089350104,-0.28607458435855804
1761915214072825600,0.28582568359375,-6.8332163732588285,-4.989548408469558,0.27192458805087955
1761915214082879500,0.29587939453125,-6.034253860512376,-4.602856198781729,0.6250304256856442
1761915214092933600,0.30593359375,-5.090633285984397,-4.083137328395247,0.9413445924200117
1761915214102987500,0.315987548828125,-3.969856986173987,-3.4487054526358842,1.3005679265543817
1761915214113041700,0.326041748046875,-2.643900059080124,-2.8687656300425526,1.562998089018464
1761915214123096800,0.336096923828125,-1.399664552861452,-2.094602627509832,1.7494797149203716
1761915214133150500,0.346150390625,-0.1125508589029312,-1.1913222466766833,1.9285250533416867
1761915214143204600,0.35620458984375,1.1617600521057843,-0.23394085782170293,1.9938523887768387
1761915214153258500,0.366258544921875,2.400615034329891,0.9840811797320842,1.9427454480044544
1761915214163312600,0.376312744140625,3.308448256161809,2.3563538677990437,1.6958906019434332
1761915214173366500,0.386366455078125,3.9163194572538136,3.5653678385108707,1.4387185061380265
1761915214183420700,0.396420654296875,4.418100519889593,4.461385534864664,1.3370163735076783
1761915214193475800,0.406475830078125,4.792337152630091,5.113093539595604,1.2861759747169912
1761915214203529500,0.416529541015625,5.0787435262262814,5.682495601561665,1.2608654462412
1761915214213583600,0.42658349609375,5.380410012796521,6.189289523923397,1.3353316352911293
1761915214223637500,0.436637451171875,5.713499227112531,6.427253645911812,1.4930582913517951
1761915214233691600,0.446691650390625,5.939795707660913,6.420384344664216,1.6439847658783195
1761915214243745500,0.45674560546875,6.068433778011799,6.428869848936796,1.6604694522112606
1761915214253799700,0.466799560546875,6.101877197930216,6.494740789729357,1.5186923526935279
1761915214263854800,0.476854736328125,6.142693192443251,6.4988008787751195,1.3511568348020315
1761915214273908700,0.48690869140625,6.194647836086154,6.469414625293016,1.1029939748823643
1761915214283962600,0.496962646484375,6.2331111299932,6.304102482539415,0.8416406478695571
1761915214294016500,0.5070166015625,6.255569630038738,6.058768124043941,0.6440137969665229
1761915214304070700,0.517070556640625,6.26873130942881,5.836105031561851,0.460594042853266
1761915214314124500,0.52712451171875,6.080617552280426,5.679849470967054,0.33354411847665905
1761915214324178700,0.5371787109375,6.0208320688813926,5.385436901047825,0.36815402489118276
1761915214334232600,0.547232666015625,6.088828331264853,5.109122882398963,0.4033926576633006
1761915214344287700,0.557287841796875,5.68116230713129,5.14267911504209,0.2558366094179451
1761915214354341600,0.567341552734375,4.83002887764275,5.2451902259677645,-0.008245046580210328
1761915214364395500,0.5773955078125,4.4072102925628425,5.2402632909595965,-0.27316578375101086
1761915214374449700,0.58744970703125,4.260073273447156,5.086267491990328,-0.5704892726808786
1761915214384503600,0.597503662109375,3.9990310582101345,4.570929613167047,-0.6485512212004512
1761915214394557700,0.6075576171875,3.30574133529067,3.355491162365675,-0.30175628374554214
1761915214404611600,0.617611572265625,1.1862795763343572,1.4806833784252404,0.21432883324846624
1761915214414666800,0.627666748046875,-0.8287374732851982,-0.6362701971024275,0.5212814435280859
1761915214424720600,0.637720703125,-1.3048457500040531,-2.254589191326499,0.0828233177024871
1761915214434774500,0.6477744140625,-1.7041536956369876,-3.582402559942007,-0.976427450108528
1761915214444828700,0.65782861328125,-3.2860335952579973,-5.457257690155505,-1.9642422634109853
1761915214454882600,0.667882568359375,-5.979608662611246,-6.604730273711681,-2.1870820276342333
1761915214464936700,0.677936767578125,-9.328118295526505,-6.725140029421448,-1.5157646286785602
1761915214474990600,0.687990478515625,-12.607148149502276,-6.87103610856533,-0.11826777524501085
1761915214485045800,0.698045654296875,-14.392952538865805,-7.013381217229366,1.31129507227391
1761915214495099600,0.708099609375,-15.259039791858195,-8.02769328457415,2.3799093693010507
1761915214505153500,0.718153564453125,-15.901026028519867,-8.71409266345799,3.2520512461572886
1761915214515207400,0.72820751953125,-15.227956086808442,-8.641500889977813,3.959510364204645
1761915214525261600,0.738261474609375,-14.013699539268016,-8.876107518231867,4.786948153068125
1761915214535315700,0.748315673828125,-12.81975045121908,-9.475024428495765,5.666787160298228
1761915214545369600,0.75836962890625,-10.833026014626025,-9.444113741925358,5.740447439792752
1761915214555423700,0.768423828125,-7.917339643454551,-8.90529211166203,4.905691729131341
1761915214565478700,0.778478759765625,-5.196041287395357,-8.418176703238487,3.9890363184183832
1761915214575532800,0.78853271484375,-2.688691386964917,-7.339960026738047,3.1486572149172423
1761915214585586400,0.79858642578125,0.06286240662634372,-5.650227070641518,2.1575030280590055
1761915214595640600,0.808640625,2.3144190983891484,-3.583138473001122,1.0126537787437437
1761915214605694500,0.818694580078125,3.757343531784415,-1.1017039350718258,-0.2675872529663145
1761915214615748600,0.82874853515625,4.8897798742502925,1.1390905396580695,-1.183118774215877
1761915214625802800,0.838802734375,5.30931636891961,2.8123592676877975,-1.7311437016323208
1761915214635857700,0.848857666015625,5.315482490333914,4.328275287535786,-2.2625036177128552
1761915214645911800,0.858911865234375,5.043014041197299,5.571669082233309,-2.722431451742351
1761915214655965400,0.86896533203125,4.656142383289337,6.254537948903441,-2.8702687280818817
1761915214666019600,0.87901953125,4.662750403252244,6.4063184099107975,-2.752927712292969
1761915214676073500,0.889073486328125,4.961956052666903,6.083084819176793,-2.4015967388436197
1761915214686127600,0.899127685546875,5.448875646257401,5.558593912082911,-1.975713651626557
1761915214696181500,0.909181396484375,5.845947795662283,5.2620618657916784,-1.6690005491912363
1761915214706235600,0.919235595703125,6.027887832611799,5.263099392145872,-1.568789970292896
1761915214716290800,0.929290771484375,6.185153447031975,5.335309472832083,-1.5595518940873443
1761915214726344700,0.9393447265625,6.276850318476558,5.236213723307848,-1.4193215856201946
1761915214736398600,0.949398681640625,6.085926180082559,5.318372366556525,-1.230184915164858
1761915214746452500,0.959452392578125,6.1726575380742545,5.442599634727835,-1.0245163582339882
1761915214756506600,0.969506591796875,6.428473543095588,5.745120107778907,-0.8827711151592433
1761915214766560500,0.979560546875,6.550007334399223,5.995313012221455,-0.8162658219859004
1761915214776614700,0.98961474609375,6.5273103494226925,6.018287060573697,-0.6324088454991579
1761915214786669800,0.999669921875,6.545930878740549,6.136294431316852,-0.499561486890167
1761915214796723700,1.0097236328125,6.371243004876375,6.249132290467619,-0.5625872673846781
1761915214806777600,1.019777587890625,6.097679746240377,6.392862716010213,-0.7830592795632779
1761915214816831500,1.02983154296875,6.055874740689992,6.508737750899791,-1.128801346964389
1761915214826885600,1.0398857421875,5.78567715909481,6.473590449672937,-1.550457756397128
1761915214836939500,1.049939453125,5.254123474007844,5.953108193698525,-1.5248855082452297
1761915214846993700,1.05999365234375,4.158071865609288,5.278974422147869,-1.0224918666690588
1761915214857048800,1.070048828125,2.667801159149408,4.4052492216229435,-0.4698936399877071
1761915214867102700,1.080102783203125,1.3407523451656103,3.0368425613343715,-0.005820961238443851
1761915214877156600,1.090156494140625,0.8672434372901916,1.4205857603371141,0.03394318613409996
1761915214887210500,1.10021044921875,0.31967852860093116,-0.3218412595927715,-0.2191299499198794
1761915214897264600,1.1102646484375,-1.497724529597163,-1.992021958479285,-0.3116765700615942
1761915214907318500,1.120318603515625,-4.567340648764372,-3.375073230192065,0.05478022245764732
1761915214917372700,1.13037255859375,-7.150158170372247,-4.62299531596899,0.6882849003694951
1761915214927426600,1.140426513671875,-8.791165966266393,-6.10724252435565,1.4356870294876396
1761915214937481700,1.150481689453125,-9.725415485858917,-7.658757096329331,2.5774942807584997
1761915214947536000,1.160535888671875,-10.087897383397816,-8.67956787804365,3.6901743678748606
1761915214957589500,1.170589599609375,-10.119963085222244,-9.520281035804748,4.407101863752305
1761915214967643600,1.1806435546875,-10.273844317901133,-10.474297916662692,4.8367976411253215
1761915214977697500,1.190697509765625,-10.332474201524256,-11.539106245535612,5.309663574922085
1761915214987751700,1.200751708984375,-10.674721120285987,-11.811646590864658,5.736188028782606
1761915214997805600,1.2108056640625,-10.61415763825178,-11.559078189462422,5.993686287802458
1761915215007860700,1.22086083984375,-9.928875865221023,-10.944294432502984,5.794357893678546
1761915215017914600,1.23091455078125,-8.913951218935846,-10.073161586558818,5.279399954083561
1761915215027968800,1.24096875,-7.452767490750551,-8.944204902902245,4.539944692316651
1761915215038022700,1.251022705078125,-5.867418453714251,-7.589547366502881,3.5873347556471824
1761915215048076500,1.26107666015625,-4.221489568030834,-5.712482743546366,2.6722487862080335
1761915215058130700,1.271130615234375,-2.595170807224512,-3.584633095473051,1.912149672602117
1761915215068184600,1.2811845703125,-1.2167547940969465,-1.48581255800724,1.2822525176629422
1761915215078239700,1.29123974609375,-0.2618704827547073,0.4026759607613086,0.7944937698345631
1761915215088293600,1.301293701171875,0.523878328153491,1.9578040470570324,0.5732823374655097
1761915215098347800,1.31134765625,1.4176958841145038,3.08587576457262,0.6403591469164938
1761915215108401700,1.321401611328125,2.304509698793292,4.174645399269461,0.6184802003245801
1761915215118455600,1.33145556640625,3.166597653016448,5.269993243312835,0.4731097524899989
1761915215128509700,1.341509765625,4.123440112689138,6.19624124275744,0.33964638087451454
1761915215138563600,1.3515634765625,5.002125565969943,6.846168793812394,0.29819449961073696
1761915215148618800,1.36161865234375,5.781969536748528,7.270525255984068,0.3118424281477928
1761915215158672600,1.371672607421875,6.376452263957262,7.5679329160660505,0.22739508944004772
1761915215168726800,1.381726806640625,6.771711810982227,7.755058246698975,0.07491086407750845
1761915215178780700,1.39178076171875,7.107690901520848,7.768342091163992,-0.009169541013985871
1761915215188834600,1.40183447265625,7.189078560397029,7.746890722334385,-0.05989814999327063
1761915215198888400,1.411888427734375,7.162519639295339,7.669004349577427,-0.16402648685723542
1761915215208942600,1.421942626953125,7.215345805075764,7.386213243868947,-0.12201587573215365
1761915215218996500,1.43199658203125,7.292075993534922,7.206894203072786,-0.09284750278443098
1761915215229051600,1.4420517578125,7.323593998348713,7.240507134339213,-0.2617930336043238
1761915215239105800,1.452105712890625,7.423742471796274,7.210962475425005,-0.5213526090681553
1761915215249159700,1.46215966796875,7.345575528532266,7.075677806666493,-0.8334642095461487
1761915215259213600,1.472213623046875,7.182747019287944,6.883057970270514,-1.0965868843190372
1761915215269267500,1.482267333984375,7.028553067398071,6.548064968159794,-1.2560399257808923
1761915215279321600,1.492321533203125,6.498345536223053,6.138491649100184,-1.448403595458716
1761915215289375500,1.50237548828125,5.6809179769814016,5.8278013135969635,-1.6560170028470456
1761915215299430700,1.5124306640625,4.489501622280478,5.478710812550783,-1.9379535375528036
1761915215309484800,1.52248486328125,2.9798961007535456,4.742385665503144,-2.0295174302674828
1761915215319538700,1.53253857421875,1.9568483537673949,3.269763428458571,-1.8391086940497159
1761915215329592800,1.5425927734375,1.4038023833185433,1.0580798974007368,-1.6862237789317964
1761915215339646500,1.552646484375,0.3849322142779827,-1.237756081071496,-1.5540079962246118
1761915215349700600,1.56270068359375,-1.281617434629798,-3.509337323731184,-1.2267938114218413
1761915215359754500,1.57275439453125,-3.8456805714070796,-5.4366445257157086,-0.7293453711628913
1761915215369809700,1.5828095703125,-6.894020093789696,-6.181042504581809,-0.7208141280524433
1761915215379863800,1.59286376953125,-9.269954860371351,-6.455335246536135,-0.8022476718969642
1761915215389917700,1.602917724609375,-10.346881497061252,-7.26072925363481,-0.008148089011758565
1761915215399971800,1.612971923828125,-9.946381126773357,-9.006322044119239,1.8078487556502223
1761915215410025500,1.623025390625,-9.283547332394123,-11.206306369554996,3.554264260694384
1761915215420079600,1.63307958984375,-9.57311012419462,-11.57625962588787,3.7765690412580963
1761915215430133500,1.643133544921875,-9.31859643394351,-11.49041206499338,3.4091567015796898
1761915215440187600,1.653187744140625,-8.871286381685733,-11.446745941746235,3.237695388546586
1761915215450242800,1.663242919921875,-8.011409673771261,-10.601145011943578,2.5543042515680194
1761915215460296700,1.673296630859375,-6.59208706523776,-9.50768809621334,1.6388512023821473
1761915215470350800,1.683350830078125,-5.198253702747821,-8.407990824788808,0.9285653364762664
1761915215480404700,1.69340478515625,-3.6024423084080217,-6.899602862358093,0.27211305982768536
1761915215490458600,1.703458740234375,-1.8367448875278234,-5.224163804551959,-0.17693828313946722
1761915215500512500,1.713512451171875,-0.2404617840230465,-3.717520055440068,-0.35026275969594717
1761915215510566700,1.723566650390625,1.0211480508446693,-2.1548609891176222,-0.5869532084867358
1761915215520621600,1.73362158203125,1.7935867138028143,-0.7551040817975998,-1.1746882150009275
1761915215530675700,1.74367578125,1.989806620517373,0.3072416563540697,-1.8923036931425332
1761915215540729900,1.753729736328125,1.890709701949358,1.2615543052881955,-2.1040790425159037
1761915215550783700,1.76378369140625,2.143332463887334,1.998480925360322,-1.9765116701364516
1761915215560837600,1.773837646484375,2.928689060607552,2.5015689789414406,-1.8411140425227581
1761915215570891500,1.7838916015625,3.8761329928159713,2.9637977833896874,-1.6579565926074982
1761915215580945700,1.793945556640625,4.855022449123859,3.472828671023249,-1.4210028167054056
1761915215591000600,1.80400048828125,5.613273596775532,4.025304732629657,-1.1821943528473378
1761915215601054700,1.8140546875,6.198354873910546,4.651700601449608,-0.9583004033960402
1761915215611108600,1.824108642578125,6.585436959698796,5.472715956050157,-0.8688153627820312
1761915215621162800,1.834162841796875,6.848426801872253,6.090470837774872,-0.758191088027507
1761915215631216600,1.844216552734375,7.018440254184603,6.359108914968371,-0.5696098594978452
1761915215641270800,1.854270751953125,7.052756949806213,6.403643637743592,-0.2309147879987955
1761915215651325000,1.864324951171875,7.045537519946694,6.315764278760552,0.16625731464922427
1761915215661380000,1.874380126953125,6.867084740591049,6.307175314113497,0.425335974728316
1761915215671434000,1.88443408203125,6.7417971497118465,6.2960881029099225,0.6161208507820963
1761915215681488100,1.894488037109375,6.608658260810375,6.180434601816534,0.7211424832239747
1761915215691542000,1.9045419921875,6.478247920089959,5.873312187927961,0.7184196341313421
1761915215701596000,1.914595947265625,6.320697643509507,5.492211514636874,0.6212639127589762
1761915215711649800,1.92464990234375,6.013799686026573,4.948310973674059,0.4540498819068074
1761915215721704000,1.934703857421875,5.36758151088357,4.211765461874008,0.5086754983246327
1761915215731757800,1.9447578125,4.579719653344154,3.381269162222743,0.7374117732405662
1761915215741813000,1.95481298828125,3.7609324961870905,2.4091443777441977,0.9436046463064849
1761915215751867000,1.964866943359375,2.8785142861187456,1.1777636769235134,1.1444371613830326
1761915215761921000,1.974921142578125,2.0265128416240215,-0.7560147669017314,1.559302303240448
1761915215771975200,1.98497509765625,1.0502280148565768,-3.5219004527062174,2.2635510809391737
1761915215782028800,1.99502880859375,-1.6410165637224912,-5.1365772910356515,2.365246783828735
1761915215792083000,2.0050830078125,-5.038792624109983,-5.033680395662785,1.507793795929849
1761915215802136800,2.01513671875,-7.016052482265233,-5.872230237910151,1.1068760770127177
1761915215812192000,2.02519189453125,-9.1453160887897,-6.822834679976105,1.7834300614476204
1761915215822246000,2.035245849609375,-10.360035577666759,-7.0046028674900525,3.260796862670779
1761915215832300000,2.045300048828125,-10.598207204926013,-7.757520252898335,5.070991596925258
1761915215842354000,2.05535400390625,-10.78702647999525,-9.282262553280592,6.457239034330844
1761915215852407800,2.06540771484375,-11.24440316823721,-9.772224583306908,6.882481047165394
1761915215862462000,2.0754619140625,-11.102461379677056,-9.394468544268607,6.620103783932328
1761915215872515800,2.085515869140625,-10.637530330532789,-8.426481590247153,5.575478995910286
1761915215882571000,2.095571044921875,-9.904470907282828,-7.13280956068635,4.408969995711743
1761915215892625000,2.105625,-8.556005211260914,-6.0405754647493355,3.7461058061942456
1761915215902679000,2.115678955078125,-6.98709526785016,-4.793272972175479,3.1675027851626276
1761915215912733000,2.12573291015625,-4.9374365284383295,-3.7173008597314356,2.705858794865012
1761915215922787000,2.135787109375,-2.772631652933359,-2.733696065339446,2.2785513739332557
1761915215932840700,2.1458408203125,-0.49751580640673637,-1.5885025326311588,1.8542727993033825
1761915215942894800,2.155894775390625,1.6660498826920984,-0.3977817589789629,1.4275795647472143
1761915215952949000,2.165948974609375,3.4190807142227886,0.755799078324437,0.9524860180288552
1761915215963004000,2.17600390625,4.590757764708996,2.006002553036809,0.393490199264884
1761915215973058000,2.18605810546875,4.885930797606706,3.0863024655520914,-0.13818024406954646
1761915215983112000,2.19611181640625,4.926161101186275,3.8102339949727058,-0.5303280888147652
1761915215993166000,2.206166015625,4.869897362172603,4.533388694801927,-0.8275925410337746
1761915216003220000,2.216219970703125,4.60102547622323,5.246514752569794,-1.065171170835942
1761915216013273900,2.22627392578125,4.432666805380583,5.957976676517725,-1.3112326745621858
1761915216023327700,2.23632763671875,4.329577602306008,6.6542082981079815,-1.6081941983118653
1761915216033383000,2.2463828125,4.283011665964127,7.262900752454995,-1.8824116830728947
1761915216043437000,2.25643701171875,4.670350356861949,7.7953768130838865,-2.0782715243034064
1761915216053491000,2.266490966796875,5.177363474932313,8.249978191393613,-2.1830948576942086
1761915216063545000,2.276545166015625,5.666126650562882,8.523071494430303,-2.1729102944187817
1761915216073599000,2.286598876953125,6.04948240930438,8.605389127632975,-2.0835651006668803
1761915216083652900,2.29665283203125,6.364646675351262,8.423936581939458,-1.8771971632950006
1761915216093706800,2.306706787109375,6.632336073517799,8.281669799208641,-1.6738114566043019
1761915216103762000,2.316761962890625,6.945791197559237,8.105809958955644,-1.4072060542821883
1761915216113816000,2.326816162109375,6.963509809601306,7.772647679403423,-1.1392093437321484
1761915216123870000,2.336869873046875,6.428890307202935,7.126384496074914,-0.9135372786924243
1761915216133924000,2.346924072265625,5.964699847292899,6.4495677690505975,-0.7820433805190027
1761915216143978000,2.35697802734375,5.464998513540626,5.976212590432167,-1.0651723398797213
1761915216154031900,2.367031982421875,4.697251223269105,5.3905923841148615,-1.562406552866101
1761915216164085800,2.377085693359375,3.7398160584002733,4.4776434267044065,-1.9471702787093816
1761915216174141000,2.387140869140625,2.3027450272083283,3.325013021993637,-2.109584508064389
1761915216184195000,2.397195068359375,1.0799065292835235,1.862723378393054,-2.11841882577464
1761915216194249000,2.4072490234375,-0.09166472274065017,0.39571664314270016,-2.217582087577134
1761915216204303000,2.41730322265625,-0.5449252078354359,-1.3124334286540746,-2.445454731401056
1761915216214357000,2.42735693359375,-1.6462825214266776,-3.601600596886873,-2.391273497749865
1761915216224411100,2.4374111328125,-4.25351844497621,-5.308167783406376,-2.3944863223165274
1761915216234464800,2.44746484375,-7.299722708895802,-5.893916000017524,-2.461991001790762
1761915216244519000,2.457518798828125,-9.31475378704071,-6.596556904128193,-2.3970905134655536
1761915216254573800,2.46757373046875,-11.271258441936968,-5.872799562230706,-2.5337144680038093
1761915216264628000,2.4776279296875,-11.72959959129691,-5.223146151942014,-1.9414957402043043
1761915216274682000,2.48768212890625,-11.802463751977681,-6.32052404050827,-0.5407531828477978
1761915216284736000,2.497736083984375,-12.432199578875302,-7.577279421082139,0.43473260249644513
1761915216294790100,2.5077900390625,-12.403034274667501,-8.208243328469992,0.8991299831554294
1761915216304843800,2.51784375,-11.73255025779605,-8.788740200424193,1.3027370872870088
1761915216314898000,2.52789794921875,-10.94437743461132,-9.625772039324044,1.626842492419481
1761915216324952800,2.537952880859375,-10.09003790255785,-10.182655395978689,1.6405650205627083
1761915216335007000,2.548007080078125,-9.261744081386924,-9.725535312846302,1.1941396421849726
1761915216345060900,2.558060791015625,-8.460446988213063,-8.84286985001862,0.5648525819681585
1761915216355115000,2.568114990234375,-7.322499773371219,-7.982083626043796,0.08758432155922055
1761915216365169200,2.578169189453125,-5.856577326226234,-6.612646453663706,-0.3815386263169348
1761915216375223000,2.58822314453125,-4.169010608252883,-4.663846381795406,-0.9555857376098632
1761915216385277000,2.59827685546875,-2.4873627589344975,-2.824702616432309,-1.386917299491167
1761915216395330800,2.608330810546875,-1.320636608853936,-1.351771167308092,-1.50982500949651
1761915216405386000,2.618385986328125,-0.3566092061132192,-0.0856464853644371,-1.561912631869316
1761915216415440000,2.62843994140625,0.6994470765054226,1.1432067428052424,-1.739731789496541
1761915216425494000,2.638493896484375,1.6390554927825927,2.2100252424567937,-1.8564070348531008
1761915216435548000,2.6485478515625,2.3252619794428346,2.982005055731535,-1.9428823722571134
1761915216445602000,2.65860205078125,2.761913859564066,3.7081513385921716,-2.0315368072658777
1761915216455656000,2.668656005859375,3.2172558271080254,4.426810480567813,-2.003258515025675
1761915216465709800,2.678709716796875,4.072977753430605,5.075182618874311,-1.81190913695693
1761915216475765000,2.688764892578125,5.010568984666467,5.706307269781828,-1.6919914025478064
1761915216485819000,2.69881884765625,5.824354972535372,6.253070214438438,-1.5739245567023754
1761915216495873000,2.708873046875,6.2792088643014425,6.793607416447997,-1.4042020501606165
1761915216505927000,2.718927001953125,6.735380852928757,7.183660627001523,-1.272579557171464
1761915216515981000,2.72898095703125,7.095216619873047,7.3068667354315515,-1.0994850899785757
1761915216526035000,2.739034912109375,7.160608252716064,7.300904027634859,-0.8162662603773176
1761915216536088800,2.7490888671875,7.033429733523726,7.323323949235677,-0.4964331257365644
1761915216546144000,2.75914404296875,6.949491805642843,7.34965315323472,-0.19413257904648779
1761915216556198000,2.769197998046875,6.957427274817228,7.381387431147695,-0.06782002903372049
1761915216566252000,2.779251953125,6.932523135185241,7.3478124938040965,-0.07413344996422529
1761915216576306000,2.789305908203125,6.737194624352455,7.07372491903305,-0.0017794307626783847
1761915216586360000,2.799360107421875,6.308408070778847,6.794165050330758,0.1063210246026516
1761915216596414000,2.8094140625,5.7479269818931815,6.588896160241961,0.10753566108942031
1761915216606467800,2.8194677734375,5.391542232185602,6.1840890326708555,0.04179156154692173
1761915216616523000,2.82952294921875,4.969526780182123,5.567116825756431,0.1512717808328569
1761915216626577000,2.839576904296875,4.146232959255576,4.652061251455545,0.5867223223403096
1761915216636631000,2.849631103515625,3.3880583839714524,3.442453991025686,1.0766674012318254
1761915216646684700,2.8596845703125,2.8726550386965273,2.037583686214685,1.4318516891084612
1761915216656738800,2.86973876953125,2.747615869620442,0.055662850511074065,1.7034601604148745
1761915216666792700,2.879792724609375,1.606872302058339,-2.1910651059210298,1.6424086026027798
1761915216676846800,2.889846923828125,-1.2193769592940806,-3.9266047044247387,1.533588746921718
1761915216686900700,2.899900634765625,-4.351770144891739,-4.562156524124742,1.6933550921164453
1761915216696955600,2.90995556640625,-6.400380252033472,-5.63869620732367,2.4683006233289837
1761915216707009500,2.920009521484375,-7.867184158188104,-7.330476159077882,3.171675979194045
1761915216717063700,2.930063720703125,-8.61548674327731,-8.119785292816161,3.5583842632338403
1761915216727117600,2.94011767578125,-8.316729422152042,-9.609151159390807,4.613571361802518
1761915216737171700,2.950171630859375,-8.456715984991192,-12.153975342690943,5.974561900615692
1761915216747225900,2.960225830078125,-9.245062411177157,-12.614608986902237,6.213034556648135
1761915216757279700,2.97027978515625,-9.666893154263496,-11.297650774300097,5.296876574063301
1761915216767334700,2.980334716796875,-9.679290863543748,-9.865990662240982,3.84793682590127
1761915216777388500,2.990388427734375,-9.035938599225878,-8.581278184205294,2.717795024113357
1761915216787442700,3.000442626953125,-7.775547492498159,-7.513919586327671,2.2979674375429746
1761915216797496600,3.01049658203125,-6.388874523156881,-6.266076411005854,2.117023279763013
1761915216807550700,3.02055078125,-4.909589905613661,-4.9702819824635975,1.9877553870759903
1761915216817604600,3.0306044921875,-3.2578309986025094,-3.8137551548361777,2.036984697408229
1761915216827658800,3.04065869140625,-1.4524626615911722,-2.627787713190913,2.107208718843758
1761915216837712600,3.050712646484375,0.419863242405653,-1.426388309136033,2.0746759840294717
1761915216847767600,3.060767578125,1.94122875983119,-0.19502689753770827,1.7023504456073044
1761915216857821700,3.07082177734375,2.8810996264368294,1.1062298880636692,1.0245223495833575
1761915216867875600,3.08087548828125,3.5801463054478164,2.0082167219549416,0.4393430189013481
1761915216877929700,3.0909296875,4.103873242431879,2.5122891103982923,-0.002989975596219301
1761915216887983600,3.100983642578125,4.50967814886868,3.4628210717499255,-0.5028586287394166
1761915216898037800,3.111037841796875,4.751268644660711,4.606486664238572,-1.0467612155288457
1761915216908091600,3.121091552734375,4.869119363537431,5.67931580248177,-1.4983093437477946
1761915216918146600,3.131146484375,4.981926827549934,6.605296675422787,-1.8371692504197359
1761915216928200700,3.14120068359375,5.133225642520189,7.214714521434903,-1.9543116748966276
1761915216938254600,3.151254638671875,5.275415268361568,7.659090858328342,-1.9155815467469393
1761915216948308700,3.161308837890625,5.381404284530878,7.97538091353476,-1.791029868926853
1761915216958362600,3.171362548828125,5.618639507722854,8.204416463658212,-1.6531231811016798
1761915216968416800,3.181416748046875,5.986795359244942,8.313591124126315,-1.5325491747409103
1761915216978470700,3.191470703125,6.306428879660368,8.225327149739861,-1.416633661710471
1761915216988525600,3.201525634765625,6.472910066193342,8.04090055667162,-1.275541767977923
1761915216998579700,3.211579833984375,6.345230611741543,7.757026916423439,-1.0236066960431636
1761915217008633600,3.221633544921875,6.217227332162857,7.290503045129776,-0.8632154969483613
1761915217018687700,3.231687744140625,6.136272219485044,6.6818672894060605,-0.827672766663134
1761915217028741600,3.24174169921875,5.437638797450066,6.110237614518404,-1.0577183706119655
1761915217038795800,3.251795654296875,4.3226153620779515,5.538261902672052,-1.6517815572343766
1761915217048849700,3.261849609375,3.4081226823568342,5.123425548517703,-2.483704820948839
1761915217058904600,3.271904541015625,2.2719302022278307,4.553485726413131,-3.0660525814667343
1761915217068958700,3.281958740234375,1.1090548823565245,3.3628473703473802,-3.2874951922431586
1761915217079012600,3.2920126953125,0.31317630710005756,1.6375380739569663,-3.1741987756699324
1761915217089066800,3.302066650390625,0.0751069711714983,-0.2933066545039415,-2.940430059544742
1761915217099120600,3.31212060546875,-1.0827595806270838,-2.506594113627076,-2.479877371615171
1761915217109174800,3.3221748046875,-2.710568287730217,-4.774707972437143,-2.0046753960862755
1761915217119228700,3.332228759765625,-5.361559766376018,-5.533164287272095,-2.0179016651451587
1761915217129282800,3.34228271484375,-7.738252657848596,-5.646988819372654,-1.904165688110888
1761915217139337500,3.35233740234375,-9.549710543906688,-6.752454737326502,-1.051316979137063
1761915217149391600,3.3623916015625,-11.427442690861225,-6.376876626849175,-0.0941863501727581
1761915217159445500,3.372445556640625,-11.056674611014127,-7.031648110803961,1.2645204616174102
1761915217169499600,3.382499755859375,-9.686649994134902,-9.058752488580346,2.4457138207286593
1761915217179553800,3.3925537109375,-8.989429361507296,-9.845941561424732,2.811690282385051
1761915217189607700,3.402607666015625,-7.644942505988478,-10.708702884864806,3.1285707047000524
1761915217199661800,3.412661865234375,-7.33693454143703,-11.587120042598247,3.670363459728658
1761915217209715700,3.4227158203125,-8.011987765920162,-12.573727525937556,4.321414169594645
1761915217219770600,3.4327705078125,-8.292778053200244,-12.828148861730098,4.303253366743028
1761915217229824500,3.442824462890625,-8.047078953045606,-11.721120516765117,3.735962013320625
1761915217239878700,3.452878662109375,-7.060649748882651,-10.250768562740086,3.3494889993414283
1761915217249932500,3.4629326171875,-5.40862839154303,-8.354031271064281,2.659934663558006
1761915217259986700,3.472986572265625,-3.124552993491292,-5.660819776326417,1.5382266358554362
1761915217270040800,3.483040771484375,-0.6227163035243749,-2.555226334849,0.24375498034954068
1761915217280094700,3.4930947265625,1.3596049296736716,0.0923649799644947,-1.0496027225650846
1761915217290149600,3.503149658203125,2.5763871962994336,1.9722914220929144,-2.005139360336214
1761915217300203500,3.51320361328125,3.2677170173227785,3.318468714916706,-2.3577456144183873
1761915217310257700,3.523257568359375,3.9791391937822103,4.23307946805954,-2.2989058874368666
1761915217320311600,3.5333115234375,4.440841928529739,5.052119138672947,-2.1198244547888634
1761915217330365700,3.54336572265625,4.836977673867344,5.9824155367255205,-1.9562953960597513
1761915217340419600,3.553419677734375,5.194704485833644,6.799267926427722,-1.769034456348419
1761915217350473700,3.5634736328125,5.669483559775352,7.223902621018886,-1.5143477476179599
1761915217360528600,3.573528564453125,6.257540637850761,7.218727264207601,-1.1612833745047448
1761915217370582500,3.58358251953125,6.699307084506749,6.99856592541337,-0.8077323869183659
1761915217380636700,3.59363671875,7.119578323191404,6.603387042409182,-0.4737970771670341
1761915217390690600,3.603690673828125,7.418021171540022,6.244443840390444,-0.33221243148148055
1761915217400744700,3.61374462890625,7.58425218270421,6.04159370188117,-0.36719460527449843
1761915217410798600,3.623798583984375,7.688899136614799,5.726605376923084,-0.4308627753257751
1761915217420852700,3.633852783203125,7.56737352861762,5.482490915611386,-0.49320320390462874
1761915217430906600,3.64390673828125,7.380096222293377,5.196369788697361,-0.5362523642972111
1761915217440961500,3.65396142578125,7.353293555563688,4.958662271818518,-0.6586902648337185
1761915217451015700,3.664015625,7.25974199616313,4.902414899417757,-0.8143274012692272
1761915217461069600,3.674069580078125,7.313256144207716,4.890498836174607,-0.9978934319853782
1761915217471123700,3.684123779296875,7.39321815419495,4.847667410185933,-1.1627867648050187
1761915217481177600,3.694177490234375,7.25315677255392,4.8300090038985015,-1.2545615237914025
1761915217491231700,3.704231689453125,6.888115838181972,4.676116080781817,-1.1248986404374242
1761915217501285600,3.71428564453125,6.424383058911562,4.378603206759691,-1.0237804451748729
1761915217511340500,3.724340576171875,5.583756994912028,4.010099564713239,-1.0342743666604162
1761915217521394700,3.734394775390625,4.849526774317026,3.3324721058279274,-0.7308548989430069
1761915217531448600,3.744448486328125,4.4245781914711,1.9452058467686175,-0.2963132889740169
1761915217541502700,3.754502685546875,3.101596480795741,0.10885317342877388,0.1057972929894924
1761915217551556600,3.764556640625,0.5614379512190818,-1.3108990586936473,0.38873482143133875
1761915217561610800,3.77461083984375,-2.7981191454112526,-2.486905078294873,0.40103550007790323
1761915217571664600,3.78466455078125,-6.078562373316288,-3.8679637148857116,0.3063992141805589
1761915217581719600,3.794719482421875,-7.78263306684494,-4.8203030179202555,0.35072650475017725
1761915217591773700,3.804773681640625,-7.912606185191869,-5.930023670709133,0.4816178339205682
1761915217601827600,3.81482763671875,-9.026881432545185,-5.841574402883649,0.32556232594251633
1761915217611881700,3.8248818359375,-8.474574297764898,-5.978261924177408,0.44014542132541534
1761915217621935600,3.834935546875,-8.624037129479646,-8.60241449573636,1.793803571423888
1761915217631989800,3.84498974609375,-10.538001450288295,-10.478328779613971,3.506533079965412
1761915217642043600,3.855043701171875,-12.350813089042902,-10.213229397940635,4.25561775534302
1761915217652101600,3.8651015625,-12.893712344008684,-9.823357973694801,3.8454064306408164
1761915217662156800,3.87515673828125,-12.2252250539124,-9.77832056209445,3.140627053196728
1761915217672210700,3.885210693359375,-10.972491768461465,-9.04761033231914,2.379429330699146
1761915217682264800,3.895264892578125,-9.384452177166938,-7.714090861016511,1.8721959940068422
1761915217692319000,3.905319091796875,-7.527068406236172,-6.417156614789366,1.8357178825676441
1761915217702372900,3.915372802734375,-5.633251970443129,-5.432686728000641,2.0671460269160566
1761915217712427000,3.925427001953125,-3.778710729461908,-4.494590469852089,2.354473314749449
1761915217722481000,3.93548095703125,-2.161114788815379,-3.5722628587216136,2.566244572469592
1761915217732535800,3.945535888671875,-0.8015133662730455,-2.381153962534666,2.273841296546161
1761915217742589700,3.955589599609375,0.4421738584131002,-0.9166028037428855,1.4187835332207381
1761915217752643800,3.965643798828125,1.4938520720779895,0.5995628069519996,0.39337271036505694
1761915217762697700,3.97569775390625,2.44459329226613,1.9825363372534512,-0.709776455079019
1761915217772752000,3.985751953125,2.9289912584245203,3.4022494064092634,-1.798545651384443
1761915217782806000,3.995805908203125,3.701580143508315,4.743111641690135,-2.5747446897894144
1761915217792860000,4.00585986328125,4.244589873111248,5.852320253303647,-3.0219758315920826
1761915217802914800,4.015914794921875,4.361777159643173,6.496741608157754,-2.8929350256592032
1761915217812968700,4.02596875,4.600807449558377,6.906554581192135,-2.433699703938514
1761915217823022800,4.03602294921875,4.9314106922775505,7.290669049346446,-2.0395324821949004
1761915217833076700,4.04607666015625,5.320677136367559,7.614249261561036,-1.786019493418932
1761915217843131000,4.056130859375,5.588327956089377,7.759952448481321,-1.4985475364178418
1761915217853184800,4.066184814453125,5.544221687859296,7.816814153388142,-1.1903612926900387
1761915217863239000,4.076239013671875,5.610532773634791,7.76222916124165,-0.9193219995737075
1761915217873292800,4.086292724609375,5.971837444087862,7.6088862732231615,-0.7652040355294942
1761915217883347700,4.09634765625,6.514726177659631,7.404114811262488,-0.7714445373542607
1761915217893401900,4.10640185546875,6.963433821755647,7.475693023785948,-0.9489281794168054
1761915217903455700,4.116455810546875,7.146603692761063,7.466642871367931,-1.0098990732081234
1761915217913510000,4.126510009765625,7.342160751652717,7.378812027701735,-1.1228928535729645
1761915217923563800,4.136563720703125,7.539836702394485,7.2466580581843845,-1.3435579041056334
1761915217933618000,4.146617919921875,7.733528551936149,7.088880987110733,-1.740543836531788
1761915217943671800,4.156671875,7.406954418602585,7.021770275390148,-2.3135187885485586
1761915217953726700,4.166726806640625,6.532673922282457,6.593825433337688,-2.5569606112957
1761915217963780900,4.17678076171875,5.67683509158194,5.9146846472799774,-2.408059066725522
1761915217973834800,4.186834716796875,4.9942210764557124,5.127446474596858,-2.0903107755348085
1761915217983889000,4.196888916015625,3.9702749193251132,3.7935686913758513,-1.6798146425418554
1761915217993942800,4.20694287109375,2.564840550890565,1.9859417617827653,-0.9870600494123994
1761915218003997000,4.216996826171875,0.678437021702528,0.31195991704761983,-0.8294643262550234
1761915218014050800,4.22705078125,-1.5887942090541123,-1.3716788138270377,-1.1955555733975023
1761915218024105700,4.237105712890625,-3.750866444724798,-3.456495375859737,-1.8935706443384288
1761915218034159900,4.247159912109375,-6.066037822785973,-5.029843593978882,-2.827423273567855
1761915218044213800,4.2572138671875,-8.359146422120928,-6.429122362393141,-3.4465883143514393
1761915218054268000,4.267267822265625,-10.584780737119912,-8.320904077488184,-2.9149060344487427
1761915218064321800,4.27732177734375,-12.494610150080918,-9.979539884531498,-1.525152488618344
1761915218074376000,4.2873759765625,-13.924010500514507,-9.955617741674184,-0.3507767005674541
1761915218084429800,4.297429931640625,-13.535400474506616,-8.907303451484442,0.3723481155801564
1761915218094484000,4.30748388671875,-13.13719259907007,-9.517446689161657,1.3256183427892625
1761915218104539000,4.317538818359375,-12.915647112441063,-9.733497670027614,2.1957512179106473
1761915218114592800,4.3275927734375,-11.843990525108575,-9.513935466170311,2.8948931739896535
1761915218124647000,4.33764697265625,-10.765936930215359,-9.712864047321677,3.426847841092944
1761915218134700800,4.34770068359375,-10.177564210319519,-9.235876065158843,3.5166488157883284
1761915218144755000,4.3577548828125,-9.500959080219268,-8.002187087395786,3.223142839320004
1761915218154808800,4.367808837890625,-8.519975866502524,-6.667665161052346,2.5901082631379366
1761915218164863000,4.377863037109375,-6.726306735113263,-5.071516497582197,1.6971518540509045
1761915218174917600,4.387917724609375,-3.9136932004034515,-3.4043957707881924,0.803840055654943
1761915218184971800,4.3979716796875,-1.0447031139552592,-1.2764894240915774,0.09475861536907032
1761915218195026000,4.40802587890625,1.7183189991116523,1.2090034493178128,-0.5767207144163549
1761915218205079800,4.418079833984375,3.719631348505616,2.9245255111873147,-1.0743071018412709
1761915218215134000,4.428134033203125,4.57633293351531,3.855511645069718,-1.4528858554393052
1761915218225187800,4.438187744140625,4.314342039251327,4.309539022883772,-1.6278253659769892
1761915218235242000,4.448241943359375,4.181310117855668,4.456992852863669,-1.29568483068794
1761915218245296600,4.458296630859375,4.576282080110907,4.568373498943448,-0.7516028687436134
1761915218255350800,4.468350830078125,5.381140665158629,4.852665072342753,-0.24746223736964165
1761915218265404700,4.47840478515625,6.298016440623998,5.108604996004701,0.10362586723454296
1761915218275458800,4.488458740234375,6.790306036815047,5.194685196611285,0.355000674938038
1761915218285513000,4.498512939453125,6.82883070552051,5.248547719702124,0.5839193206835538
1761915218295566800,4.50856689453125,6.817168324777484,5.199214656734466,0.7533836877457797
1761915218305621000,4.51862109375,6.824142839965224,5.036576117104292,0.8476052553623914
1761915218315675600,4.528675537109375,6.861544057598709,4.850946577987075,0.9055874156665057
1761915218325729800,4.538729736328125,6.8371309163540595,4.660868242767453,0.9481548569567501
1761915218335783700,4.54878369140625,6.824844266232848,4.4148967554122205,1.0523634194500744
1761915218345837800,4.558837890625,6.805245831793546,4.193313274860381,1.134316018732637
1761915218355891700,4.5688916015625,6.73871438126564,4.091323557460308,1.1819967844486237
1761915218365949000,4.578948974609375,6.27195903930366,4.074722551271319,1.027217141625285
1761915218376002800,4.5890029296875,6.113534317976236,3.973018080553412,0.8472090956516564
1761915218386057000,4.599056884765625,5.839634959253669,3.9929812566518783,0.6682233784630894
1761915218396110800,4.60911083984375,5.334705077198147,3.9909044503778217,0.4625376877343282
1761915218406165000,4.6191650390625,5.032053086721897,3.8570740720808505,0.2528128959489055
1761915218416219000,4.629218994140625,4.810246318808198,3.524455982407927,0.06377352098873816
1761915218426272800,4.639272705078125,4.639540792578458,2.664942262586951,-0.1487818089143373
1761915218436327700,4.64932763671875,4.115401767662167,1.7665046456098557,-0.18143979580979794
1761915218446381800,4.6593818359375,2.7322400213122364,1.090856962364912,-0.1123869279123377
1761915218456436000,4.66943603515625,-0.5977694937944412,0.15945815602838992,-0.29391386314947154
1761915218466489900,4.67948974609375,-4.603558794093132,-0.7872773356497287,-0.7868734310239553
1761915218476544000,4.6895439453125,-6.839263252207637,-1.2337924381375311,-1.5001238458238542
1761915218486598000,4.699597900390625,-7.1554819957435125,-2.6993764471083876,-1.9843410485878585
1761915218496651800,4.70965185546875,-7.03418785841465,-4.025268492272496,-2.3005028012394906
1761915218506705700,4.71970556640625,-7.047735906773805,-3.7296383632570502,-2.471274962964654
1761915218516760800,4.7297607421875,-8.921167726185917,-3.0660730397328733,-2.1735548759326337
1761915218526814700,4.739814697265625,-11.507127052950858,-2.89670928350091,-1.1598065799504518
1761915218536868900,4.749868896484375,-13.630907844150066,-3.7394738208338616,0.43780558020099997
1761915218546923000,4.759923095703125,-14.82032805659771,-4.322364017665386,1.8631193919733167
1761915218556977000,4.769976806640625,-14.65857448310852,-4.939898534637689,2.6976766574531794
1761915218567030800,4.78003076171875,-14.039638282644749,-5.72467411659956,3.1086265255630012
1761915218577084700,4.790084716796875,-13.249397421014308,-6.285969444477558,3.2164483101174235
1761915218587139800,4.800139892578125,-12.171106510233878,-6.061500179356337,2.939536910097301
1761915218597193700,4.81019384765625,-10.87182891575098,-5.5744929074823855,2.5290380006253717
1761915218607248000,4.820247802734375,-9.383299500000476,-5.194654216951132,2.1217489931106566
1761915218617301800,4.8303017578125,-7.70307203887403,-4.612828726741672,1.8886434170693158
1761915218627356000,4.84035595703125,-5.599556621590256,-3.7705332682251926,1.6685139347180724
1761915218637410000,4.85041015625,-3.1179099022150036,-2.9669822586446997,1.4068161781817674
1761915218647463400,4.86046337890625,-0.7128110004693269,-2.099896642264724,1.0933677761420606
1761915218657518300,4.870518310546875,1.0446212808907032,-0.916098361352086,0.5374418663427233
1761915218667572500,4.880572509765625,2.3273884700775147,0.29173545966446396,-0.1185668860557489
1761915218677626400,4.89062646484375,3.2550317232728,1.156503446751833,-0.7196612316902726
1761915218687680500,4.900680419921875,3.8921582449436185,1.717787668713927,-1.056879143308848
1761915218697734400,4.910734375,4.438409148424864,2.255025244656205,-1.0114799126587808
1761915218707788500,4.92078857421875,4.922785487273335,2.9057009837299583,-0.7824393940992653
1761915218717842400,4.930842529296875,5.512790776807069,3.461795820355415,-0.5333229232491925
1761915218727897300,4.9408974609375,6.261505449828505,3.8055630805522203,-0.27172448063520716
1761915218737951500,4.950951416015625,6.835976485621929,3.9692964296817776,-0.01162880726698786
1761915218748005400,4.96100537109375,7.461693140006065,3.9267110874086617,0.26369159723464397
1761915218758059500,4.9710595703125,7.9381965535223475,3.9272248821496962,0.48840727486498653
1761915218768113400,4.981113525390625,8.169122447437047,4.105180233377218,0.5930026447188109
1761915218778167600,4.99116748046875,8.390057693213224,4.314090110316872,0.6528551289394497
1761915218788221400,5.001221435546875,8.52533359414339,4.4540316649705165,0.661877151241526
1761915218798276400,5.0112763671875,8.603395907989144,4.388232035848498,0.6660829323682934
1761915218808330500,5.02133056640625,8.650746857228874,4.179865179744363,0.6388415088951588
1761915218818384400,5.03138427734375,8.43754892770648,4.223938130226731,0.4260154083598405
1761915218828438500,5.0414384765625,8.319794070419668,4.474866363206505,0.11672215323820709
1761915218838492400,5.051492431640625,8.242195282432437,4.776978255456686,-0.2561697138298303
1761915218848546600,5.061546630859375,7.889294867709278,4.916866034096479,-0.6824879045285284
1761915218858600400,5.071600341796875,7.268891517302394,4.9064808336824175,-1.1327870555996895
1761915218868655400,5.0816552734375,6.578592208370566,4.883086514091492,-1.4396386897228657
1761915218878709200,5.091709228515625,5.506506581971049,4.796640402781963,-1.47444141529575
1761915218888763400,5.101763427734375,4.699691602158546,4.223592093268037,-1.108083991497755
1761915218898817500,5.111817626953125,4.2886353510648005,3.466965331947803,-0.8146705886837095
1761915218908871400,5.121871337890625,3.967954951944947,2.762764923435449,-0.9341243588428944
1761915218918925600,5.131925537109375,2.7970360263496636,1.647038892751932,-0.9567862725060433
1761915218928979500,5.1419794921875,1.3950719643741845,-0.1985942346304655,-0.6742173581808805
1761915218939034400,5.152034423828125,-0.3874994344174862,-2.0831676257818934,-0.4747865996610373
1761915218949088300,5.162088134765625,-1.9204034139454365,-3.458106902709603,-0.6432156323261559
1761915218959142400,5.172142333984375,-3.6212791108250615,-4.690166817966103,-1.0872076460771263
1761915218969196300,5.1821962890625,-5.821733976382017,-5.587880212321878,-1.6489999636918304
1761915218979250400,5.19225048828125,-6.6396887743681665,-5.733303413257002,-1.567199924622476
1761915218989304600,5.2023046875,-6.411542282038926,-6.466131365838646,-0.7364775611303747
1761915218999358500,5.2123583984375,-7.4060665298521515,-7.100884144115447,0.2257835625901818
1761915219009413400,5.222413330078125,-9.173019503751396,-8.148226374402642,1.4895518906660377
1761915219019467300,5.23246728515625,-11.246188298088311,-9.325724678388237,2.6704198172152043
1761915219029521400,5.242521484375,-12.773545164883137,-9.914678997564316,3.314576675914228
1761915219039575300,5.2525751953125,-13.151875788938998,-9.957115286755561,3.557905247545242
1761915219049629400,5.26262939453125,-13.202004386198519,-9.358484207695723,3.218881382483244
1761915219059683300,5.272683349609375,-13.150850537544487,-8.634992238736151,2.420073621907085
1761915219069737500,5.282737548828125,-13.06294896672964,-7.838033467027545,1.5124911599658428
1761915219079792400,5.29279248046875,-12.615302229863405,-6.883026406088471,0.3689193832404911
1761915219089846300,5.30284619140625,-10.995117441767453,-5.220513465350866,-1.0581583694644272
1761915219099900400,5.312900390625,-8.251672135829924,-3.0953678155392406,-2.2554797104254365
1761915219109954300,5.322954345703125,-5.260780009287595,-1.2652356241494416,-3.0557290481120347
1761915219120008400,5.333008544921875,-2.994974427419901,0.10806465339958667,-3.505752158720791
1761915219130062300,5.343062255859375,-1.4445529113799334,1.1219237162798643,-3.5760619587436318
1761915219140116500,5.353116455078125,0.3567933305084705,1.8146780171483754,-3.4163255702957507
1761915219150171400,5.36317138671875,2.0426684421330688,2.6235347319215534,-3.273020384427905
1761915219160225300,5.373225341796875,3.382479122534394,3.5896956395596264,-3.171522834458947
1761915219170279400,5.383279541015625,4.303479284453392,4.616586617970467,-3.073143708771467
1761915219180333300,5.393333251953125,5.159285381928086,5.371564443039894,-2.928680292779207
1761915219190387500,5.403387451171875,5.852897176408767,5.737785527107119,-2.7753514332860707
1761915219200441300,5.41344140625,6.330087403145432,5.914116492003202,-2.5643670881599188
1761915219210495500,5.42349560546875,6.773683987838029,5.9531508637964725,-2.340586682085693
1761915219220550700,5.433550537109375,7.172821837601065,5.74395749374032,-2.0769091499090195
1761915219230604300,5.443604248046875,7.4973507288426156,5.453521426236629,-1.8359692269802093
1761915219240658400,5.453658447265625,7.788604542469978,5.368060234311223,-1.7754758875727652
1761915219250712300,5.46371240234375,8.00357883401513,5.224661232680082,-1.7292565727114677
1761915219260766500,5.473766357421875,8.030109113544226,4.924689275068045,-1.6792025019928811
1761915219270820400,5.4838203125,7.905048901680112,4.675509931582212,-1.579581559550762
1761915219280874500,5.49387451171875,7.833911418661475,4.680556693577766,-1.5254603855237363
1761915219290929400,5.503929443359375,7.789030658927559,4.955229374760389,-1.6038810112878679
1761915219300983600,5.513983642578125,7.800622897043824,5.207818818950653,-1.6844105920299888
1761915219311037400,5.524037353515625,7.622507971340418,5.365770662069321,-1.837642420889437
1761915219321091300,5.53409130859375,7.374630942624807,5.398640666013955,-1.9109043487161397
1761915219331145500,5.5441455078125,7.0317013022959225,5.477267043483257,-1.8385200805068016
1761915219341199400,5.554199462890625,6.491082851743697,5.400643238008022,-1.7462148679055272
1761915219351253500,5.56425341796875,5.828242043101787,4.695000813993811,-1.3918823745526372
1761915219361308400,5.574308349609375,5.0781870613873,3.452579079198837,-0.8983231968171894
1761915219371362600,5.584362548828125,4.151636279603839,2.3255530713438985,-0.6276442614458501
1761915219381416400,5.59441650390625,3.173938078907132,1.236347967839241,-0.5740922656089067
1761915219391470300,5.60447021484375,1.9037673364430665,-0.1605827761441469,-1.0745027705438435
1761915219401524500,5.6145244140625,0.28889702136814593,-1.105178333184123,-1.908136053046584
1761915219411578400,5.624578369140625,-1.8361562739849089,-1.6076906327039002,-2.7167472686260936
1761915219421632500,5.634632568359375,-4.213712504288554,-2.3653899916917083,-2.7617151221215726
1761915219431687400,5.6446875,-6.772207485544681,-3.600974573943019,-1.9995956086039541
1761915219441741600,5.654741455078125,-8.740622358465194,-4.164896743193268,-1.189052402048558
1761915219451795500,5.66479541015625,-9.728200148141383,-4.520632089081406,-0.06304901523962617
1761915219461849300,5.674849365234375,-11.185008729982375,-5.72648145828247,1.4315024372793734
1761915219471903200,5.6849033203125,-12.824474557131529,-7.354025376969576,2.990231616806984
1761915219481957400,5.694957275390625,-13.55287066474557,-9.047284753626585,4.311155518169701
1761915219492011500,5.705011474609375,-13.312565532588957,-9.993339277303217,4.830721243821084
1761915219502066400,5.71506640625,-12.42160921127796,-9.586144377812742,4.288315325330197
1761915219512120600,5.72512060546875,-11.583900496029853,-8.491171796822547,3.176791130250692
1761915219522174500,5.735174560546875,-10.609082819205522,-7.799431056910753,2.3880346619591117
1761915219532228400,5.745228271484375,-9.051883771854639,-7.264070380756259,2.006648157463968
1761915219542282200,5.7552822265625,-6.634216480436921,-6.239271406188607,1.4728279887497424
1761915219552336400,5.76533642578125,-4.1514135767638685,-4.528407399258017,0.48513387921750545
1761915219562390300,5.775390380859375,-1.8185235866606235,-2.6394021631389855,-0.7007904539383948
1761915219572445400,5.785445556640625,-0.34730303310751914,-1.1733376771748065,-1.6425323751129208
1761915219582499600,5.79549951171875,0.021656536012887955,0.09271978475153446,-2.4677894589364526
1761915219592553500,5.805553466796875,0.17302198647856712,0.7843921356022358,-2.8634768759846687
1761915219602607600,5.815607666015625,0.6205775379300117,1.2995254317641258,-2.992217237666249
1761915219612661200,5.8256611328125,1.450521464395523,2.2629092759042977,-3.025014760896563
1761915219622715400,5.83571533203125,2.3824007477253675,3.3635178169548507,-2.9196783634170886
1761915219632769300,5.845769287109375,3.273721226173639,4.2762639452695845,-2.5854332570642233
1761915219642824000,5.855823974609375,4.3660430003941055,4.920004332122207,-2.1220327784880992
1761915219652877800,5.8658779296875,5.362099864602088,5.332174681937694,-1.6059380899481475
1761915219662932000,5.875931884765625,6.074309976568817,5.505491267448663,-1.1005592950813472
1761915219672985900,5.88598583984375,6.516250610747933,5.599024122148752,-0.695949297517538
1761915219683040000,5.8960400390625,6.837891963854432,5.868609709325432,-0.449362016351521
1761915219693094000,5.906093994140625,7.3000067865341896,5.939945345264673,-0.3419334688983857
1761915219703147800,5.916147705078125,7.628692212933301,5.745568436068296,-0.26201252157390115
1761915219713203000,5.926202880859375,7.852716072374582,5.4869730294615024,-0.07237199324965476
1761915219723256800,5.9362568359375,7.662440753278136,5.376205546844005,0.1455944658488035
1761915219733311000,5.94631103515625,7.496247736036777,5.487703681823611,0.16437354672923682
1761915219743364900,5.95636474609375,7.180320084401965,5.733391091540455,0.009736088855564594
1761915219753419000,5.9664189453125,6.956108593434095,6.001168167990445,-0.12369842199161649
1761915219763473000,5.976472900390625,6.758811997398734,6.0683361628562205,-0.1926508160561323
1761915219773526800,5.98652685546875,6.533093024477362,5.997156594261527,-0.19239581838175654
1761915219783582000,5.99658203125,5.854789858287573,5.776998762598633,-0.09928915320448577
1761915219793635800,6.0066357421875,5.2684302317798135,5.183772172930836,0.2620694393929094
1761915219803690000,6.01668994140625,4.945949505239724,4.549918973842263,0.703593967051804
1761915219813743900,6.026743896484375,4.711035418471694,3.7219431325793266,1.0967137986343354
1761915219823798000,6.036798095703125,3.966080390244722,2.5684008737206456,1.3281116209097206
1761915219833852000,6.046851806640625,2.1347288861930367,1.2982576037853955,1.0914643536735325
1761915219843906000,6.056906005859375,-0.3395370752811432,0.24280279419124126,0.6268929316218942
1761915219853961000,6.0669609375,-2.6416005499660966,-0.2800356695204973,-0.4196527414601296
1761915219864014800,6.077014892578125,-3.9815854178905483,-0.3922989436537027,-1.5774616447873413
1761915219874069000,6.087069091796875,-4.427995890960097,-1.196958791258931,-1.6351152307242154
1761915219884123000,6.097122802734375,-4.867222005483508,-3.0686008046448228,0.05972447392679751
1761915219894177000,6.107177001953125,-5.792510219985246,-5.908050908353925,2.972520311288535
1761915219904231000,6.11723095703125,-7.29750737093389,-8.701575711712241,5.556529380768537
1761915219914285800,6.127285888671875,-8.330856731703877,-10.024636917364596,6.682140261128544
1761915219924340000,6.137340087890625,-8.74838948533535,-10.248854838073253,6.323357218107581
1761915219934393900,6.147393798828125,-9.441503267166018,-10.282429775416851,5.357147795152664
1761915219944448000,6.157447998046875,-10.149348169660568,-10.51531615574956,4.4493747790753835
1761915219954502000,6.167501953125,-10.673610528695583,-10.719633444201946,3.8562621711760756
1761915219964556000,6.17755615234375,-10.81951654471159,-10.488927330517768,3.2824171583265063
1761915219974610000,6.18760986328125,-10.741852290272712,-9.65953753080368,2.324770981055498
1761915219984664000,6.1976640625,-9.704531103262305,-8.19455791746676,1.308545773565769
1761915219994718700,6.20771875,-7.43298084026277,-6.245795839521288,0.35912469606548547
1761915220004772900,6.21777294921875,-4.559779273599386,-4.134524985805154,-0.3200661762116477
1761915220014826800,6.22782666015625,-2.056612796333432,-2.092900499767065,-0.6178266317866742
1761915220024881000,6.237880859375,-0.6594523352473974,-0.3509346676081419,-0.8880025860719383
1761915220034935000,6.24793505859375,-0.09953823259472847,0.9542711478799581,-1.3411762696661054
1761915220044989000,6.257989013671875,0.6233505097746849,1.5587871933251618,-1.3677302223317325
1761915220055043800,6.2680439453125,2.097875950092077,1.9107891979038714,-1.1016253899428994
1761915220065097700,6.27809765625,3.5100820046186447,2.7359236782610417,-1.027435752812028
1761915220075152000,6.28815185546875,4.30514341827333,3.3662305830448864,-0.9562823415718972
1761915220085205800,6.298205810546875,4.494750044327974,3.6543519438654184,-0.7677961709145457
1761915220095260000,6.308260009765625,4.354993198591471,3.9799364816397427,-0.6373848803460598
1761915220105313800,6.318313720703125,4.322913468241691,4.111038311755657,-0.4006867962380871
1761915220115368000,6.328367919921875,4.702416058686375,4.170242780396342,-0.19520159651748836
1761915220125422800,6.3384228515625,5.085484232658147,4.308400374242663,-0.19905235366150736
1761915220135476700,6.348476806640625,5.507844552576541,4.51937536701858,-0.2581602300599217
1761915220145531000,6.35853076171875,5.962220305436849,4.754264903867244,-0.2887590742021799
1761915220155584800,6.368584716796875,6.48869215721488,4.838313306385278,-0.29399368692003186
1761915220165639000,6.378638916015625,6.929434521520137,4.751706451556086,-0.2727905206978321
1761915220175692800,6.38869287109375,7.2055492182046175,4.711798804059624,-0.1681963198877871
1761915220185747000,6.398746826171875,7.165975332707166,4.79556429798305,-0.08502353116050362
1761915220195801900,6.4088017578125,6.836902952817082,4.824056232973933,0.012644158321991563
1761915220205855700,6.418855712890625,6.6089750716745845,4.811247604805231,0.11708156113512813
1761915220215910000,6.428909912109375,6.678171942019462,5.009763513502478,0.06848265766091645
1761915220225963800,6.4389638671875,6.726260557883977,5.314505169734359,0.029512437145039438
1761915220236018000,6.449017822265625,6.5282298023551695,5.270424035945535,0.011811579955369234
1761915220246071800,6.45907177734375,6.155683022397756,4.681739181360602,0.043636166500300166
1761915220256126000,6.4691259765625,5.103257205235958,3.7368349967628713,0.23928232844751327
1761915220266181000,6.47918115234375,3.20691563487947,2.6267238833516835,0.5525679046083242
1761915220276234800,6.48923486328125,1.4582652103900908,1.1773597722977398,0.7519646147280931
1761915220286289000,6.499288818359375,-0.17448036859333513,-0.3243775000721216,0.4826256957888603
1761915220296342800,6.5093427734375,-2.107693579751253,-1.3962228879749774,-0.140564317061333
1761915220306397000,6.51939697265625,-5.072067701724172,-1.9647604420661926,-0.8472424133993685
1761915220316450800,6.529450927734375,-7.758297082489729,-2.706668357682228,-1.1543896694682538
1761915220326505000,6.5395048828125,-9.641994275328516,-3.8442151750296354,-1.1053671337544917
1761915220336560000,6.54956005859375,-10.455549961572885,-4.610485378485918,-0.8370731207583099
1761915220346613800,6.55961376953125,-10.60753851237297,-6.068804949411749,-0.1530048882357776
1761915220356668000,6.56966796875,-11.321150892353057,-6.945171019834279,0.33565584993362424
1761915220366721800,6.5797216796875,-10.621188267540932,-7.7559069724828,0.6807278360534459
1761915220376776000,6.58977587890625,-9.783216517442463,-8.667929462698101,0.8342574057504534
1761915220386829800,6.599829833984375,-8.761116864961386,-8.345535829919577,0.5795941509608179
1761915220396885000,6.609885009765625,-7.142199320322275,-7.900977706718445,0.23458076316043733
1761915220406939000,6.61993896484375,-5.262003998124599,-7.610874816691875,-0.1275047554720193
1761915220416993000,6.629992919921875,-3.4543986958414314,-7.17329763841927,-0.47300958005115384
1761915220427046700,6.640046630859375,-1.8028408643603324,-6.291446414583921,-0.544029720300436
1761915220437100800,6.650100830078125,-0.29489596952199937,-5.339779311722516,-0.2018022368915379
1761915220447155000,6.660155029296875,0.8931330808281898,-4.347027918800712,0.4372435624040663
1761915220457208800,6.670208740234375,1.6348387518703937,-3.1316531808853147,1.0205046383745968
1761915220467264000,6.680263916015625,1.919772130304575,-1.4415782794833183,1.327266109996289
1761915220477318000,6.69031787109375,1.7387626522034405,0.13381693429350852,1.5849822495505212
1761915220487372000,6.7003720703125,1.2407447414934634,1.3978934515357018,1.8734910022534428
1761915220497426000,6.710426025390625,0.9324795873105526,2.4409353542804717,2.100730170479417
1761915220507479800,6.720479736328125,0.9565911152601242,3.3037282419025895,2.2604452238783237
1761915220517533700,6.73053369140625,1.3124760987520216,4.018921753594279,2.3878541908256707
1761915220527587800,6.740587890625,1.8807050252854822,4.391792358678579,2.412676643523574
1761915220537643000,6.75064306640625,2.7407261101067064,4.417867880177497,2.4686799780353903
1761915220547697000,6.76069677734375,3.7596553158581254,4.3831642310649155,2.522426765792072
1761915220557751000,6.7707509765625,4.499488178765773,4.667071189060807,2.43149211089164
1761915220567805000,6.780804931640625,4.991245275515317,5.401140666136145,2.152368003258109
1761915220577858800,6.79085888671875,5.5470963665127755,6.206977156305313,1.7895538050249218
1761915220587912700,6.80091259765625,6.088071375417709,6.559642008706927,1.615290147922188
1761915220597968000,6.8109677734375,6.483934733554721,6.374510482239723,1.677111228802055
1761915220608022000,6.82102197265625,6.800573748329281,6.14998744110465,1.8820843508146703
1761915220618076000,6.831075927734375,6.860669612851739,5.953869825720787,2.106621566605568
1761915220628130000,6.841130126953125,6.688231563740969,5.712581527745724,2.2558222402527925
1761915220638184000,6.851183837890625,6.1195876266658304,5.645670722511411,2.151204804697633
1761915220648238000,6.861238037109375,5.41989446644485,5.474174922686815,1.916256523399055
1761915220658292000,6.8712919921875,4.885220018988847,5.176265742823481,1.4676897490784524
1761915220668347100,6.88134716796875,4.518056685635448,4.602380982485413,0.8405803251616656
1761915220678401300,6.8914013671875,4.394311648023129,3.4307483556628227,0.44688609122466294
1761915220688455200,6.901455078125,4.287800653806329,1.5563392156511544,0.4040656250214204
1761915220698509300,6.91150927734375,3.1142846974551674,-0.21069559131264684,0.4277145404279232
1761915220708563200,6.921563232421875,0.9444178623855114,-1.5678887836694717,0.061232723065279424
1761915220718617000,6.9316171875,-0.6285609378993511,-2.822016738349199,-0.6679851127278059
1761915220728671000,6.9416708984375,-1.6781389644145965,-3.0018378834486006,-1.7725656992144883
1761915220738726100,6.95172607421875,-3.4660645837157964,-2.5938380973160267,-2.747639835017919
1761915220748780300,6.9617802734375,-5.213989032018184,-3.18043211710155,-2.89308086387068
1761915220758834200,6.971834228515625,-7.3246870542824265,-4.236352206119895,-2.492127489118278
1761915220768888300,6.981888427734375,-8.643943606954812,-4.861199676454067,-1.7640103445760904
1761915220778942200,6.991942138671875,-8.104379049369692,-6.050334057697653,-0.5308213887570425
1761915220788996000,7.00199609375,-7.750825723695755,-7.741579756444692,0.8516153677865862
1761915220799050000,7.012050048828125,-8.214197852960229,-8.391598492914438,1.4482083651475608
1761915220809105200,7.022105224609375,-8.144615782690048,-8.033466022756695,1.2856908215485512
1761915220819159000,7.032158935546875,-7.616486226832866,-7.856666271305084,0.5359015415655449
1761915220829213200,7.042213134765625,-7.249786419337988,-7.614459104919433,-0.3912838848596438
1761915220839267300,7.052267333984375,-7.017448320537805,-7.2442410601705305,-1.074328290759772
1761915220849321200,7.0623212890625,-6.432678593569993,-6.778818428117036,-1.5919813146576285
1761915220859375400,7.072375244140625,-5.222245988231897,-6.093949912062287,-2.0337327098749576
1761915220869429000,7.082428955078125,-3.7829356536805627,-5.31644285979867,-2.2091947829820215
1761915220879484200,7.092484130859375,-2.051255068692565,-4.053579225477576,-1.9188022623591123
1761915220889538000,7.1025380859375,-0.7048954050391912,-2.225496367833018,-1.3554348043821751
1761915220899592200,7.11259228515625,0.18689912066161632,-0.37826515760421753,-0.8600240804959088
1761915220909646000,7.12264599609375,0.8622031050354242,0.8703297128677367,-0.5171925667792558
1761915220919700200,7.1327001953125,1.7299217586219309,1.511167948538065,-0.2115404446389526
1761915220929754400,7.14275439453125,2.6714912458389994,2.2454794176757336,0.035995661684498186
1761915220939809000,7.15280908203125,3.552564471039176,2.832052979195118,0.30451683450005945
1761915220949863200,7.16286328125,4.283364132663607,3.0851182242035864,0.5494770259208976
1761915220959917000,7.1729169921875,4.740428101694584,3.179215727049112,0.7389134099751711
1761915220969971200,7.18297119140625,5.037783154806495,3.344344329929352,0.8410334757566451
1761915220980025000,7.193025146484375,5.311688943269848,3.7531443265289064,0.8954963758934289
1761915220990079200,7.203079345703125,5.619502846553921,3.9217788917034864,0.9889177330430596
1761915221000133000,7.213133056640625,5.904539100840688,3.9043426037341353,1.033999495241791
1761915221010188000,7.22318798828125,6.224545546221733,4.020585302892327,0.937994405209273
1761915221020242200,7.2332421875,6.487344249737262,4.161585426688194,0.8272505226630718
1761915221030296000,7.243296142578125,6.695973556169867,4.180324029427767,0.7728007742688059
1761915221040350200,7.25335009765625,6.729673581197858,4.185889846861362,0.7712413429323584
1761915221050404000,7.263404052734375,6.673014705386757,4.182703618040681,0.8115374782897532
1761915221060458200,7.273458251953125,6.544108339488506,4.129817246505618,0.867480972373113
1761915221070512000,7.28351220703125,6.148505093592405,4.125256806722283,0.8717908714614808
1761915221080567000,7.293567138671875,5.566791831585765,3.892843889120221,0.8764226229153573
1761915221090621200,7.30362109375,5.010732650795578,3.45352425109446,0.9479488129906356
1761915221100675000,7.313675048828125,4.455855373266339,3.025045740556717,0.8612171627379953
1761915221110729200,7.323729248046875,4.35575775322318,2.3241379438489673,0.4994853529140353
1761915221120783000,7.333783203125,3.979384108453989,0.8529495389997959,0.5371651317605749
1761915221130837200,7.343837158203125,2.823326067382097,-1.0929144794166088,0.9035952920012176
1761915221140892000,7.353891845703125,-0.06802841108739376,-1.916998573938012,0.5986946092827246
1761915221150946000,7.363946044921875,-3.1425247035115955,-1.510815481838584,-0.4299079953515902
1761915221161000200,7.374000244140625,-5.633049141347408,-1.3611848923414944,-1.6505248351715505
1761915221171054000,7.38405419921875,-7.387135034888982,-2.8377339474409817,-1.5190028799474238
1761915221181108200,7.394108154296875,-8.960937426516413,-4.588203988572955,-0.5682755421541631
1761915221191162000,7.404162109375,-9.632461307829617,-5.623801420530676,0.6374268197916447
1761915221201216300,7.41421630859375,-9.165296216022968,-6.435784742891788,1.778667377090454
1761915221211271200,7.424271240234375,-9.212350228142737,-6.395056426662206,2.2204422993138433
1761915221221325000,7.434324951171875,-9.311949251013994,-6.055523443034291,2.232584280267358
1761915221231379000,7.44437890625,-9.17588541457653,-5.814437974154949,1.8781791600696742
1761915221241433000,7.45443310546875,-8.887447242891788,-5.492720048680901,1.4791376102879643
1761915221251487200,7.4644873046875,-8.033139859542251,-5.424944151049852,1.2591115883111954
1761915221261541000,7.474541015625,-6.673955201107264,-5.79123596226573,1.057640848396346
1761915221271595300,7.48459521484375,-5.432881373789906,-5.746366308447718,0.44187699435837563
1761915221281650200,7.494650146484375,-4.359700353369116,-4.894520346775651,-0.28804166491413485
1761915221291704000,7.5047041015625,-3.197448133832216,-3.702467447736859,-0.8989997809045016
1761915221301758000,7.514758056640625,-1.8159867616593837,-2.150765828758478,-1.333067343620956
1761915221311812000,7.52481201171875,-0.47065468748807904,-0.6730313632667064,-1.3497143809087573
1761915221321866000,7.534865966796875,0.7722153755962848,0.34242519793808457,-0.89936656839028
1761915221331920100,7.544920166015625,1.9256956751346588,1.2081126379579306,-0.22164463615454733
1761915221341975300,7.554975341796875,3.0722078892260787,2.167073404958844,0.45932720125522464
1761915221352029200,7.565029296875,4.191828589260578,3.1968425691545006,1.020213254212588
1761915221362083000,7.5750830078125,4.837015667790174,4.145287202838063,1.3014045235089957
1761915221372137000,7.585136962890625,5.0436032392621035,5.021985281693935,1.3378914027765392
1761915221382191000,7.595191162109375,5.03764228503108,5.950739711001515,1.1806124174181372
1761915221392245000,7.605244873046875,5.147226695343852,6.831229583355784,0.8426357963867485
1761915221402299100,7.615299072265625,5.129985053163766,7.4078189264774315,0.39693434836938973
1761915221412354300,7.625354248046875,4.983037419140339,7.696070635679364,0.020920095514098645
1761915221422408200,7.635408203125,4.948935243052244,7.889660778412223,-0.28668942832127214
1761915221432462300,7.64546240234375,5.05828759817481,8.146201590576768,-0.5789158863730728
1761915221442516000,7.655515869140625,5.3472331348598,8.309608191969991,-0.8536522804416715
1761915221452570000,7.665570068359375,5.558869806414842,8.274983453312515,-1.0940496939916162
1761915221462624000,7.6756240234375,5.57170473806858,8.174479006034135,-1.239738487060368
1761915221472678100,7.68567822265625,5.45467527244687,7.779449760633707,-1.2897192002817988
1761915221482733300,7.6957333984375,5.399866992938518,7.160070492577552,-1.3602061104372143
1761915221492787200,7.705787109375,5.2243315623342985,6.511645747300982,-1.4616253344729542
1761915221502841300,7.71584130859375,5.044928350386023,5.781982980751991,-1.6035494412459432
1761915221512895200,7.725895263671875,4.300313513898849,5.065762464100122,-1.8516689004153013
1761915221522949000,7.73594921875,3.4188322924196717,3.6372137620598077,-2.1073285458311437
1761915221533003000,7.7460029296875,3.114948129799962,1.7040286079525946,-2.3014237154766914
1761915221543057200,7.75605712890625,2.4865011736690996,-0.016653028637170792,-2.6809543629720807
1761915221553112000,7.766112060546875,1.2166992645174264,-2.461783496519923,-2.467861355128884
1761915221563166200,7.776166259765625,-2.234789681357145,-4.141770134627818,-2.81001387360543
1761915221573220400,7.786220458984375,-6.209753050759434,-3.9213790787309404,-3.65489876409322
1761915221583274200,7.796274169921875,-6.837412071382999,-4.879576460143923,-3.603911504177749
1761915221593328000,7.806328125,-7.441965526229143,-5.641778391247987,-3.451853979794681
1761915221603382000,7.816382080078125,-8.639614053317905,-4.888487496352195,-3.255503432437777
1761915221613437200,7.826437255859375,-8.98423705356121,-4.212615941223502,-2.607968037216365
1761915221623491000,7.836490966796875,-8.934349279320239,-4.952813545790314,-1.358313428558409
1761915221633545200,7.846545166015625,-9.283097835060953,-5.161018489331006,-0.4946522336691618
1761915221643596300,7.85659619140625,-9.23979586895108,-5.36935261220932,-0.07310432611219585
1761915221653650200,7.866650146484375,-9.508893964871763,-5.489041652429104,-0.1835214609220624
1761915221663704000,7.8767041015625,-8.68829712794423,-5.547997699266672,-0.4355059249565005
1761915221673758200,7.88675830078125,-7.630575542461871,-6.168982648953795,-0.5305602901354431
1761915221683813000,7.896813232421875,-6.871468070241808,-7.039079137587547,-0.4302977618541568
1761915221693867300,7.9068671875,-6.487754584103822,-7.419868845233321,-0.576915871662274
1761915221703921200,7.916921142578125,-6.059061554032564,-6.8529837345242495,-1.039718603540957
1761915221713975300,7.926975341796875,-5.3863417409330605,-5.379558948925137,-1.4787936191558837
1761915221724029200,7.937029296875,-4.195101911842823,-3.9231267991811034,-1.4559521111421285
1761915221734083000,7.9470830078125,-2.870547837284207,-3.0405817478626966,-0.8878139316320419
1761915221744137200,7.95713720703125,-1.5073364075511693,-1.8046382691711187,-0.2623565127059817
1761915221754192100,7.967192138671875,-0.13911737878918648,-1.0317582921862603,0.42208764045685526
1761915221764246300,7.977246337890625,0.8221212700158357,-0.1842600043296814,0.8345084579020738
1761915221774300200,7.987300048828125,1.7728554759413002,0.7085831536412238,0.8156989818833768
1761915221784354300,7.997354248046875,2.785494641637802,1.6602116780579088,0.5453472326397896
1761915221794406100,8.00740625,2.7509774550080297,1.7112766793847083,0.600440466569364
1761915221804460300,8.017460205078125,3.8359991353482004,2.5409388662993906,0.16434709711372852
1761915221814514200,8.02751416015625,4.847275780519843,3.209490453803539,-0.35876981821320947
1761915221824568300,8.037568359375,5.751357540863752,3.6959132037878035,-0.7974970433037728
1761915221834622200,8.047622314453125,6.4594660627305505,4.021457409551739,-1.0554556863769888
1761915221844677000,8.057677001953126,6.785069305205345,4.387206784453988,-1.1647403100255875
1761915221854731000,8.06773095703125,6.807031546166539,4.723114563322067,-1.1723055576480925
1761915221864785200,8.07778515625,6.643031655055284,5.156769015192985,-1.1479572983331978
1761915221874839000,8.087839111328124,6.2952960757493965,5.629255594283342,-1.030857470889017
1761915221884893200,8.09789306640625,6.104672381606698,6.018052667295932,-0.7800841362100094
1761915221894947300,8.107947265625,6.000163959383964,6.0994075929462905,-0.4352106683369726
1761915221905002200,8.118002197265625,5.900489533188939,5.90158784981966,-0.011911898524686694
1761915221915056000,8.12805615234375,5.883417402356863,5.613788560560345,0.3314780527923256
1761915221925110000,8.138110107421875,5.981608896517753,5.433924745362996,0.4801237959705293
1761915221935164200,8.1481640625,5.949563068437576,5.287040239703655,0.5156878613047301
1761915221945218000,8.158218017578125,5.838538980710506,4.932377491483092,0.5565602621801197
1761915221955272200,8.168272216796876,5.658983208549023,4.390744310930371,0.4976427937872708
1761915221965326000,8.178326171875,4.86930582602024,3.8846512303143736,0.42903797105140984
1761915221975381200,8.18838134765625,3.4328888748228548,3.1264409991949793,0.45088411135226486
1761915221985435100,8.19843505859375,2.276809206441045,2.070923061236739,0.42879122974872586
1761915221995489000,8.208489013671874,1.2862754895687103,0.959002852576971,0.3549304592460394
1761915222005543200,8.218543212890625,-0.33288872330784797,-0.315566417106986,0.12448464046586304
1761915222015597000,8.22859716796875,-3.308393895626068,-1.279479838079214,-0.6081817648785188
1761915222025651200,8.238651123046875,-6.0835752330422395,-2.330192421582341,-1.1884427457176148
1761915222035705000,8.248705078125,-7.933688720709085,-3.4092858809173103,-1.6947396783426403
1761915222045760300,8.25876025390625,-9.827578221738339,-4.869755323353409,-1.6644151210971176
1761915222055814100,8.268814208984375,-11.430479866600036,-5.430947775378823,-1.3451708922602235
1761915222065868000,8.278867919921876,-11.470248397886753,-5.028427297440171,-1.1100946737330406
1761915222075922200,8.288922119140626,-11.576897923791408,-2.857577296552062,-1.2484291585162282
1761915222085976000,8.29897607421875,-9.515284542691708,-2.155975087839365,-0.5746969535037875
1761915222096030200,8.3090302734375,-9.135020320224761,-4.614781614375114,1.0244950231850147
1761915222106085400,8.31908544921875,-10.308372025924921,-6.113310446092486,2.210293245743215
1761915222116139300,8.32913916015625,-9.45308030771315,-6.43732904972434,2.469441025535762
1761915222126193400,8.339193359375,-7.130118421906232,-6.659108929631113,2.4568086307168007
1761915222136247000,8.3492470703125,-4.662247129905223,-7.037694989752769,2.579448629696667
1761915222146301200,8.35930126953125,-3.114138566982746,-7.02348175548315,2.698326061272621
1761915222156355000,8.36935498046875,-2.2608839075565337,-6.214357914206385,2.3518515879437327
1761915222166409200,8.3794091796875,-1.0819722296416758,-4.67861140472889,1.5569297288902102
1761915222176464100,8.389464111328126,0.2732797655194998,-3.0984505839854477,0.8178077176656574
1761915222186518300,8.399518310546876,1.4180173711538313,-1.4385755905359983,0.18582674218975007
1761915222196572400,8.409572509765624,2.559338446342945,0.49417760189473625,-0.35915074382219464
1761915222206626300,8.419626220703124,3.2606670988112687,2.4875235024541613,-0.9413716996226459
1761915222216680200,8.42968017578125,3.1940795341819523,4.011016095036268,-1.226123803205788
1761915222226734000,8.439734130859375,3.106824444577098,4.76598515227735,-1.0253622344736009
1761915222236788200,8.449788330078125,3.370806804919243,5.08372715985775,-0.6360598422873764
1761915222246843100,8.459843017578125,4.008160705605149,5.434136342287063,-0.359455170128867
1761915222256897300,8.469897216796875,4.538703752344847,5.74891891553998,-0.29585129748545586
1761915222266951200,8.479951171875,4.704450779384374,6.058560618773102,-0.3508241929709911
1761915222277005300,8.49000537109375,4.936497201761603,6.361826357233524,-0.3780510399295017
1761915222287059000,8.500058837890625,5.1277638699829575,6.532616054615378,-0.43586540591865774
1761915222297113000,8.510113037109376,5.470001436394453,6.341877794182301,-0.3116197618404403
1761915222307168300,8.520168212890624,5.958416236978769,6.075381405192613,0.0114353305215016
1761915222317222100,8.53022216796875,6.580156973469257,5.761683120045065,0.29589016819112
1761915222327276300,8.5402763671875,7.102877948281169,5.4322933447688815,0.45783813174124804
1761915222337330200,8.550330078125,7.377673963582516,5.320651417404413,0.6176949682310223
1761915222347384300,8.56038427734375,7.599580684739351,5.1086102567017075,0.8845419242240488
1761915222357438200,8.570438232421875,7.498335648226737,4.804909633955359,1.1473482995893804
1761915222367492000,8.5804921875,6.866432998684048,4.546311304739118,1.2367924967363475
1761915222377549000,8.590549072265626,5.141279769638181,3.6316263173162935,1.0041424824427814
1761915222387603200,8.600603271484376,4.276566143086552,3.1636417258203027,0.5450737494606525
1761915222397657000,8.610656982421874,3.3924276850968598,2.0971815380871295,0.4553516852203756
1761915222407711200,8.620711181640624,2.291499410572648,0.615274755346775,0.5276433067101985
1761915222417765000,8.63076513671875,0.4258195204615593,-1.075582236343622,0.606123188380897
1761915222427820300,8.6408203125,-1.2668044809013603,-2.587009712600708,0.11472900665961205
1761915222437874200,8.650874267578125,-2.178137235286832,-3.8519863935530183,-0.9174158006262033
1761915222447928000,8.660927978515625,-3.3738042331695555,-4.992506089231371,-1.8578510961815713
1761915222457982200,8.670982177734375,-5.614772895422577,-5.189238621643185,-2.488544662195444
1761915222468036000,8.6810361328125,-7.587512645804882,-5.344148612847924,-2.3697252444170416
1761915222478090200,8.69109033203125,-9.448284305608272,-6.3724260771811005,-1.4965487638160586
1761915222488145200,8.701145263671876,-10.72949082134962,-7.971393889725208,0.25492000602968035
1761915222498199300,8.71119921875,-10.691216328012942,-9.688188455748557,2.4080980835616588
1761915222508253200,8.721253173828124,-9.744036015176773,-10.724821660494804,3.8889188246309754
1761915222518307300,8.731307373046874,-8.799716352468728,-10.737098958265781,4.303189361596107
1761915222528361000,8.74136083984375,-8.411912382146715,-10.483718071436881,4.267788377869129
1761915222538415000,8.7514150390625,-9.066264179384708,-9.778535081627965,3.563416704443097
1761915222548469000,8.761468994140625,-8.792001248046756,-8.23258574256599,2.4817531023591757
1761915222558524200,8.771524169921875,-7.3785694511175155,-6.325437531512975,1.5664648883461951
1761915222568578300,8.781578369140625,-5.896697739690542,-5.083575184166431,1.0064223370082677
1761915222578632200,8.791632080078125,-4.38819053479433,-4.122212032198906,0.7698007156699895
1761915222588686300,8.801686279296876,-2.884565841242671,-2.7737609492242337,0.564111115951091
1761915222598740200,8.811740234375,-1.0360381614625453,-0.9710445880264044,0.30178097979538143
1761915222608794000,8.821794189453126,1.0134195024192332,0.9173930773377418,-0.11114449923634528
1761915222618848000,8.831847900390626,2.8948943430334326,2.2104063507288694,-0.492868857383728
1761915222628903200,8.841903076171874,4.0303298673152925,2.978627103731036,-0.9405443819530308
1761915222638957300,8.851957275390625,4.064861666992306,3.728831138527393,-1.685489911699295
1761915222649014800,8.862014892578125,3.3807109438180922,4.461225375866889,-2.2696759935602544
1761915222659069000,8.87206884765625,2.6726994525849816,4.681168103474378,-2.3007877556607124
1761915222669122800,8.882122802734376,3.156705789077282,4.196648556762933,-1.578765713123232
1761915222679176700,8.8921767578125,4.458569308400154,3.8737212554991243,-0.9458536673422903
1761915222689230800,8.90223095703125,7.563576474422216,4.024373589259386,-0.8064329947575927
1761915222699285800,8.91228564453125,8.903266743314266,5.6082578144401305,-0.6957806629523634
1761915222709340000,8.92233984375,5.710017814737558,6.858678146773577,0.08850311690457165
1761915222719393800,8.932393798828125,5.628938783419132,6.04826952638328,0.5640479510543868
1761915222729448000,8.942447998046875,6.481407845425605,4.475017169854045,0.7734004937276243
1761915222739501800,8.952501708984375,6.254770004093647,3.371300725916028,0.7609552920438348
1761915222749555700,8.9625556640625,5.306677837109565,2.665906723704934,0.5582763819156215
1761915222759611000,8.97261083984375,4.4061838721245525,2.356834344792366,0.4281173856077716
1761915222769664800,8.982664794921876,4.120252130302786,2.612096223062277,0.4537898792637512
1761915222779719000,8.992718994140626,4.655178506693244,3.207165225726366,0.665950757355988
1761915222789772800,9.002772705078126,5.6425943838059895,3.6999978427529334,0.7279415687795728
1761915222799827000,9.012826904296874,6.09349690759778,3.8671220033645626,0.30963746544942256
1761915222809880800,9.022880859375,6.034680561491847,3.6999487429141995,-0.3119370110960677
1761915222819934700,9.032934814453125,5.573538383236527,3.3272400503933426,-0.6518378416556865
1761915222829990000,9.042989990234375,4.662881920677423,2.715498729869723,-0.7184101356506347
1761915222840043800,9.053043701171875,3.7028526476621626,1.6712568036854265,-0.5337129089474678
1761915222850098000,9.063097900390625,3.057964844340086,0.3094371205717325,-0.29022637027576564
1761915222860151800,9.07315185546875,2.307195576876402,-0.6152846922188997,-0.2545700235482305
1761915222870206000,9.0832060546875,0.5269049824982881,-1.0632447328180075,-0.4339072575882077
1761915222880259800,9.093259765625,-2.119735899722576,-1.9525135394334792,-0.48153161694183944
1761915222890314000,9.10331396484375,-4.4083436805069445,-3.354723685124516,-0.47875652620531617
1761915222900369000,9.113368896484374,-5.550321173778176,-3.8645354940026997,-0.5046516496360302
1761915222910422800,9.1234228515625,-6.304085531404614,-3.0373031645834443,-0.600677490195632
1761915222920477000,9.133476806640624,-6.269454363006353,-2.1487936519026754,-0.4956780695855617
1761915222930530800,9.14353076171875,-5.9210185264766215,-2.479745854189992,0.3073202014829963
1761915222940585000,9.1535849609375,-7.161612461322545,-3.7687469693303104,1.6192925154313444
1761915222950638800,9.163638916015625,-8.054377293360233,-4.994067931720614,2.6365277767464517
1761915222960693800,9.17369384765625,-7.644154570481181,-5.561125476387143,3.2247771625235675
1761915222970747600,9.18374755859375,-6.868507466870546,-5.772254198420048,3.491411790940165
1761915222980801800,9.1938017578125,-6.152164785143733,-6.405223015889525,3.656394263347983
1761915222990855700,9.203855712890626,-5.693470000040531,-7.522846404626965,3.642866088733077
1761915223000909800,9.213909912109376,-4.880741412270069,-7.94378808991909,3.3572374215111136
1761915223010964000,9.2239638671875,-3.3063153357863424,-7.118954638335109,2.703695479351282
1761915223021017900,9.234017822265624,-1.7507547032922506,-6.087403266897797,1.7356573796644805
1761915223031072800,9.24407275390625,-0.669712447977066,-4.966620537346601,0.8404359482549131
1761915223041126700,9.254126708984375,0.352249257338047,-3.495490584686398,0.3546452490964904
1761915223051180800,9.264180908203125,1.4292577270925044,-1.7814432715445756,-0.26057207697462287
1761915223061234700,9.274234619140625,2.216617480328679,-0.01969897220432758,-0.9365300317451357
1761915223071288800,9.284288818359375,1.9519377853721378,1.5067694213181733,-1.2018247898600996
1761915223081342700,9.2943427734375,0.5691536401629448,2.5346967570394274,-1.08608397580944
1761915223091396900,9.30439697265625,-0.7807347821384668,2.879416787916422,-0.838417155778408
1761915223101451800,9.31445166015625,-1.1943769580721855,2.711940745127201,-0.50484775673002
1761915223111505700,9.324505615234376,-0.306858794516325,2.9210733249068257,-0.38649887907281516
1761915223121559800,9.334559814453126,1.4153303240269421,3.7428631710112095,-0.578626548037678
1761915223131613700,9.34461376953125,2.4921266123354435,4.425889274069666,-1.0405607534535228
1761915223141667800,9.354667724609374,3.263989521232247,4.626939669680596,-1.4622417128056286
1761915223151721700,9.3647216796875,4.228324967008829,4.599079602852464,-1.439944102410227
1761915223161777000,9.37477685546875,4.4334097327023745,4.831668461543321,-1.1486987643502653
1761915223171830800,9.384830810546875,4.179993774560094,5.2289235662996765,-0.8475481183476745
1761915223181884700,9.394884765625,4.217583792763948,5.358555323863029,-0.4653076273716986
1761915223191938800,9.404938720703125,4.501106135356426,5.1226726843237875,-0.03726635062388377
1761915223201992700,9.41499267578125,4.7228275630742305,4.7342730861961835,0.35761367044802755
1761915223212046800,9.425046875,4.966470899742841,4.3998295346617695,0.6156267836548388
1761915223222100700,9.435100830078126,5.37241083073616,4.151277967685461,0.5951508357286452
1761915223232156000,9.445156005859374,5.594561297520995,4.083982547047734,0.3669718659019097
1761915223242209800,9.455209716796874,5.2156315385282035,3.9587142453908917,-0.00475424532238394
1761915223252263700,9.465263671875,4.107826363971829,3.5896155600607393,-0.3235769608115777
1761915223262317800,9.47531787109375,2.588573893177509,3.004479922389984,-0.36727698632832617
1761915223272371700,9.485371826171875,2.13671859870553,2.3503496589481827,-0.3198560771249234
1761915223282425900,9.49542578125,2.7128298029214144,1.7082687297403811,-0.28325046684853733
1761915223292479700,9.505479736328125,3.0779864726275203,0.6274222892582416,-0.29829313767962157
1761915223302535000,9.515534912109375,2.630342658370733,-0.6988578784406184,-0.24631197135597466
1761915223312588800,9.5255888671875,1.2475970916062593,-1.8270938466072082,-0.3040566696424037
1761915223322642700,9.535642578125,-0.340979090783,-2.7527608312934637,-0.29379641078226265
1761915223332696800,9.54569677734375,-1.4314350711315869,-3.5269214957386255,-0.10098412055410444
1761915223342750700,9.555750732421876,-2.3358628684341904,-3.9282331824094054,-0.1784901156913489
1761915223352804900,9.565804931640624,-3.5619442938029766,-3.6904824109107253,-0.6543989973805845
1761915223362858800,9.575858642578124,-4.338010499608516,-3.0598306382119653,-1.1912469894833861
1761915223372914000,9.585913818359375,-3.7592321220099922,-2.9133944608420133,-1.028142439776659
1761915223382967800,9.5959677734375,-2.366237548431754,-3.8871734422683715,-0.07153565202336758
1761915223393021700,9.606021728515625,-2.825817299675941,-5.145292512410879,0.9652673197992145
1761915223403075600,9.61607568359375,-4.101251077234744,-5.891177514964342,1.4719740022689103
1761915223413129700,9.626129638671875,-4.040656031018496,-6.322335473844409,1.6650376369096338
1761915223423184000,9.636183837890625,-3.251423469647765,-6.795946673050523,1.8598432929120956
1761915223433238800,9.64623876953125,-3.3219553879886865,-7.771373421683907,2.12796216853708
1761915223443293000,9.65629296875,-2.8070775278925892,-8.852728980731964,2.096746069279313
1761915223453346800,9.666346923828126,-1.5447604215383528,-8.595610660940409,1.5601213645383716
1761915223463401000,9.67640087890625,-0.4919359604477882,-7.166554009377956,0.754545132740587
1761915223473454600,9.68645458984375,-0.21408581827282905,-5.862903022116423,0.08387268062494695
1761915223483508700,9.6965087890625,-0.09123685271739959,-4.368592100355029,-0.42580790308900174
1761915223493562600,9.706562744140625,0.11443535747528076,-2.4078297880142925,-0.7251668433692305
1761915223503616800,9.71661669921875,0.023860183537006377,-0.6255664322584867,-0.9441958171326666
1761915223513672000,9.726671875,-0.38761107809841633,0.8559265089839696,-1.1521431326504796
1761915223523725800,9.736725830078125,-1.030579896056652,2.1325912896424533,-1.2785394884891808
1761915223533780000,9.746780029296875,-1.3524994815826414,3.1706179945737123,-1.289746672810614
1761915223543833900,9.756833740234375,-1.1673229469299315,3.953415554460883,-1.0991900525547564
1761915223553887700,9.7668876953125,-0.6896522431999444,4.516424700519442,-0.910847455086559
1761915223563941600,9.776941650390626,0.01367196699976921,5.008160169959068,-0.9508750026356428
1761915223573996800,9.786996826171874,0.7988339179307222,5.442952685949206,-1.0939605544034392
1761915223584051000,9.797051025390624,1.8637725951850412,5.974562485137581,-1.156234566682577
1761915223594104800,9.807104736328125,2.7337334747403856,6.538585776674747,-1.0747239390138537
1761915223604159000,9.817158935546875,3.2245605971634386,6.85988343091011,-0.8822216645829379
1761915223614212900,9.827212890625,3.1836972563773394,6.826011556446552,-0.591568885588646
1761915223624266800,9.837266845703125,2.5039696103423834,6.4813716050684445,-0.2039753431469202
1761915223634320600,9.847320556640625,2.0533616855829955,6.084334526976942,0.05903218081369996
1761915223644375800,9.857375732421875,2.4634184042453766,5.855435170453786,0.5322267620429396
1761915223654426400,9.86742626953125,3.18196122636497,5.386602437695861,0.855757874418795
1761915223664480500,9.87748046875,3.366934931921959,4.687010984283686,0.837096720829606
1761915223674534400,9.887534423828125,2.9076363357067105,4.036791172283888,0.6834256237700581
1761915223684588500,9.897588623046875,2.3576205267339945,3.3124843798100945,0.5438001493282616
1761915223694642400,9.907642333984375,2.0142612628161904,2.5915567083805797,0.4279851740628481
1761915223704696300,9.9176962890625,1.7565543294817207,2.175829542866349,0.39193727073445916
1761915223714751500,9.92775146484375,2.020738934397697,1.8301964887976645,0.3796836461000144
1761915223724805400,9.937805419921874,2.0988672992169857,1.4255156179547308,0.596869037823379
1761915223734859500,9.947859619140624,1.9393062673360109,0.7308066758871078,0.7337113112874328
1761915223744913400,9.957913330078124,0.8814443966001272,0.008164601755142211,0.6679569826118648
1761915223754967600,9.967967529296875,0.32442426182329653,-0.7075748533815145,0.059550505599379536
1761915223765021400,9.978021484375,0.7083133967891335,-1.3562877679497003,-0.4930253631196916
1761915223775075300,9.988075439453125,0.4022922221407294,-1.7636463335692882,-0.5746056219585239
1761915223785130500,9.998130615234375,-0.7368450792685151,-1.9329805714458226,-0.5247543803356588
1761915223795184400,10.008184326171875,-3.8227600068077443,-1.4173106841892003,0.20488310564160345
1761915223805238500,10.018238525390625,-2.934373828245699,-2.0571528945595023,-0.4842040510214865
1761915223815292400,10.02829248046875,-0.10346738873720168,-2.82984874714911,0.11882058682218194
1761915223825346600,10.0383466796875,-0.6220119546473026,-2.816874699285626,1.0411287625998258
1761915223835400400,10.048400390625,-0.7964876470655202,-2.146722690847516,1.2477170647241174
1761915223845454300,10.058454345703124,-0.5158095879882574,-1.958944449263811,1.0985545311301945
1761915223855509500,10.068509521484375,-0.5964911444216966,-2.2558260396450756,1.2033581369072197
