time,seconds_elapsed,z,y,x
1761915213911959600,0.12495947265625,-0.4389531910419464,-0.7543590068817139,0.02895735390484333
1761915213922013700,0.135013671875,-0.4294137954711914,-0.821261465549469,0.0944800153374672
1761915213932067600,0.145067626953125,-0.5158107280731201,-1.110896110534668,0.10003004223108292
1761915213942121700,0.155121826171875,-0.65742027759552,-1.4860498905181885,0.09290428459644318
1761915213952175600,0.165175537109375,-0.7489925026893616,-1.7685303688049316,0.1166924461722374
1761915213962229800,0.175229736328125,-0.7507984638214111,-1.952210545539856,0.13201859593391418
1761915213972284700,0.18528466796875,-0.672431468963623,-1.9579006433486938,0.15962013602256775
1761915213982338600,0.195338623046875,-0.577921450138092,-1.7368587255477905,0.21991318464279175
1761915213992392400,0.205392333984375,-0.5360608100891113,-1.5736777782440186,0.2841952443122864
1761915214002446600,0.215446533203125,-0.6089661717414856,-1.6266365051269531,0.36573871970176697
1761915214012500500,0.22550048828125,-0.7954375147819519,-1.643392562866211,0.5061246156692505
1761915214022554600,0.2355546875,-1.0141937732696533,-1.4593064785003662,0.7022902369499207
1761915214032608800,0.24560888671875,-1.1897016763687134,-1.0534417629241943,0.9044803977012634
1761915214042663700,0.25566357421875,-1.2092443704605103,-1.1263443231582642,0.980313777923584
1761915214052717600,0.265717529296875,-1.1075170040130615,-1.4499180316925049,0.9610708355903625
1761915214062771500,0.275771484375,-0.9794324040412903,-1.9962573051452637,0.8662676811218262
1761915214072825600,0.28582568359375,-0.8583433032035828,-2.54520583152771,0.7654761075973511
1761915214082879500,0.29587939453125,-0.7514366507530212,-3.0234181880950928,0.6966298222541809
1761915214092933600,0.30593359375,-0.6538158059120178,-3.3671820163726807,0.6695758700370789
1761915214102987500,0.315987548828125,-0.5633963346481323,-3.5506606101989746,0.6885938048362732
1761915214113041700,0.326041748046875,-0.4793680012226105,-3.6011416912078857,0.7418967485427856
1761915214123096800,0.336096923828125,-0.4291721284389496,-3.5024473667144775,0.8168666362762451
1761915214133150500,0.346150390625,-0.44874900579452515,-3.2398478984832764,0.862369954586029
1761915214143204600,0.35620458984375,-0.5760259628295898,-2.793308973312378,0.7886871695518494
1761915214153258500,0.366258544921875,-0.777008056640625,-2.2512519359588623,0.5592614412307739
1761915214163312600,0.376312744140625,-1.006119728088379,-1.6831737756729126,0.20977438986301422
1761915214173366500,0.386366455078125,-1.2247765064239502,-1.1241344213485718,-0.1957574039697647
1761915214183420700,0.396420654296875,-1.4073455333709717,-0.6029642820358276,-0.596527636051178
1761915214193475800,0.406475830078125,-1.5613524913787842,-0.13565517961978912,-0.9408541321754456
1761915214203529500,0.416529541015625,-1.6998133659362793,0.2868882715702057,-1.205352783203125
1761915214213583600,0.42658349609375,-1.808239459991455,0.6523301601409912,-1.3735431432724
1761915214223637500,0.436637451171875,-1.8637819290161133,0.9509093165397644,-1.4574536085128784
1761915214233691600,0.446691650390625,-1.8730475902557373,1.1518971920013428,-1.48268461227417
1761915214243745500,0.45674560546875,-1.841719388961792,1.260141134262085,-1.4673073291778564
1761915214253799700,0.466799560546875,-1.7675282955169678,1.28756582736969,-1.4142097234725952
1761915214263854800,0.476854736328125,-1.6484122276306152,1.2484477758407593,-1.3201117515563965
1761915214273908700,0.48690869140625,-1.4899821281433105,1.1685858964920044,-1.1760469675064087
1761915214283962600,0.496962646484375,-1.304339051246643,1.059142827987671,-0.9853215217590332
1761915214294016500,0.5070166015625,-1.1237962245941162,0.9163492321968079,-0.7515697479248047
1761915214304070700,0.517070556640625,-0.9722958207130432,0.7171738743782043,-0.48466756939888
1761915214314124500,0.52712451171875,-0.8542831540107727,0.5266923904418945,-0.19866003096103668
1761915214324178700,0.5371787109375,-0.780094563961029,0.35336974263191223,0.0897621214389801
1761915214334232600,0.547232666015625,-0.7798354625701904,0.07176734507083893,0.3379479646682739
1761915214344287700,0.557287841796875,-0.8583997488021851,-0.3465031683444977,0.5462407469749451
1761915214354341600,0.567341552734375,-0.9889556169509888,-0.7549242377281189,0.7471402883529663
1761915214364395500,0.5773955078125,-1.1435456275939941,-1.09157133102417,0.9191353917121887
1761915214374449700,0.58744970703125,-1.2830950021743774,-1.3432657718658447,0.9950799942016602
1761915214384503600,0.597503662109375,-1.365341305732727,-1.5848125219345093,0.8966189622879028
1761915214394557700,0.6075576171875,-1.3567603826522827,-2.014573574066162,0.6226670145988464
1761915214404611600,0.617611572265625,-1.2565118074417114,-2.225553512573242,0.3334686756134033
1761915214414666800,0.627666748046875,-1.0379568338394165,-1.7852182388305664,0.1499347984790802
1761915214424720600,0.637720703125,-0.7146450877189636,-0.7872775197029114,0.019038226455450058
1761915214434774500,0.6477744140625,-0.380278617143631,0.30513837933540344,-0.21928459405899048
1761915214444828700,0.65782861328125,-0.31464508175849915,1.0868762731552124,-0.5580587387084961
1761915214454882600,0.667882568359375,-0.6396079659461975,1.4110170602798462,-0.8378443121910095
1761915214464936700,0.677936767578125,-1.2533165216445923,1.4154508113861084,-0.8395270705223083
1761915214474990600,0.687990478515625,-1.762634038925171,1.5461260080337524,-0.4311502277851105
1761915214485045800,0.698045654296875,-1.8134018182754517,1.6739110946655273,0.2021668553352356
1761915214495099600,0.708099609375,-1.5001988410949707,1.5816162824630737,0.7806704640388489
1761915214505153500,0.718153564453125,-1.04267418384552,1.3061708211898804,1.1834626197814941
1761915214515207400,0.72820751953125,-0.5609638094902039,0.7756407260894775,1.411733865737915
1761915214525261600,0.738261474609375,-0.1772189885377884,-0.08413153141736984,1.503395676612854
1761915214535315700,0.748315673828125,0.024914663285017014,-1.0036948919296265,1.5355170965194702
1761915214545369600,0.75836962890625,0.021582910791039467,-1.7108924388885498,1.5343376398086548
1761915214555423700,0.768423828125,-0.12074919790029526,-2.246647834777832,1.4251331090927124
1761915214565478700,0.778478759765625,-0.3300414979457855,-2.563912868499756,1.1876888275146484
1761915214575532800,0.78853271484375,-0.5397012829780579,-2.5232810974121094,0.8247284293174744
1761915214585586400,0.79858642578125,-0.7169197201728821,-2.1968157291412354,0.3099827468395233
1761915214595640600,0.808640625,-0.8893905282020569,-1.745147705078125,-0.335925430059433
1761915214605694500,0.818694580078125,-1.0464205741882324,-1.2251014709472656,-1.0419037342071533
1761915214615748600,0.82874853515625,-1.1596105098724365,-0.7903987169265747,-1.7177205085754395
1761915214625802800,0.838802734375,-1.2438430786132812,-0.4321576952934265,-2.2438230514526367
1761915214635857700,0.848857666015625,-1.290353775024414,-0.1869564801454544,-2.537936210632324
1761915214645911800,0.858911865234375,-1.2962605953216553,-0.05104302987456322,-2.541703462600708
1761915214655965400,0.86896533203125,-1.2393624782562256,0.0384833924472332,-2.2753195762634277
1761915214666019600,0.87901953125,-1.1235780715942383,0.11043251305818558,-1.806463599205017
1761915214676073500,0.889073486328125,-0.9722945094108582,0.1568700522184372,-1.2359697818756104
1761915214686127600,0.899127685546875,-0.8400384783744812,0.12496254593133926,-0.666175365447998
1761915214696181500,0.909181396484375,-0.7739798426628113,-0.027529001235961914,-0.1932205855846405
1761915214706235600,0.919235595703125,-0.780017077922821,-0.26251301169395447,0.16522537171840668
1761915214716290800,0.929290771484375,-0.8186203837394714,-0.5483399629592896,0.4361729621887207
1761915214726344700,0.9393447265625,-0.8887628316879272,-0.864940881729126,0.6992242932319641
1761915214736398600,0.949398681640625,-0.979653000831604,-1.0910471677780151,1.012887716293335
1761915214746452500,0.959452392578125,-1.0989477634429932,-1.220366358757019,1.3521825075149536
1761915214756506600,0.969506591796875,-1.1991512775421143,-1.3073047399520874,1.6211798191070557
1761915214766560500,0.979560546875,-1.2715023756027222,-1.3995851278305054,1.7647700309753418
1761915214776614700,0.98961474609375,-1.32970130443573,-1.4882746934890747,1.7570780515670776
1761915214786669800,0.999669921875,-1.3898125886917114,-1.594577670097351,1.6021127700805664
1761915214796723700,1.0097236328125,-1.4785972833633423,-1.655928611755371,1.3567516803741455
1761915214806777600,1.019777587890625,-1.5907514095306396,-1.6160788536071777,1.058290958404541
1761915214816831500,1.02983154296875,-1.6943310499191284,-1.5255508422851562,0.7212615609169006
1761915214826885600,1.0398857421875,-1.7912367582321167,-1.4446991682052612,0.3689590096473694
1761915214836939500,1.049939453125,-1.8404226303100586,-1.4613158702850342,0.07374493777751923
1761915214846993700,1.05999365234375,-1.7994756698608398,-1.565659999847412,-0.0820036306977272
1761915214857048800,1.070048828125,-1.6148900985717773,-1.5309078693389893,-0.009818913415074348
1761915214867102700,1.080102783203125,-1.2774616479873657,-1.1316924095153809,0.2696986198425293
1761915214877156600,1.090156494140625,-0.8500227332115173,-0.5687670707702637,0.5674948692321777
1761915214887210500,1.10021044921875,-0.5065497756004333,-0.32388046383857727,0.6561511754989624
1761915214897264600,1.1102646484375,-0.40880507230758667,-0.6825360655784607,0.537382185459137
1761915214907318500,1.120318603515625,-0.5571416020393372,-1.3152623176574707,0.47392821311950684
1761915214917372700,1.13037255859375,-0.8279211521148682,-1.8349130153656006,0.6151682138442993
1761915214927426600,1.140426513671875,-1.1242860555648804,-2.0270559787750244,0.9580588936805725
1761915214937481700,1.150481689453125,-1.3033628463745117,-1.9036000967025757,1.3619402647018433
1761915214947536000,1.160535888671875,-1.231256365776062,-1.5925219058990479,1.5801457166671753
1761915214957589500,1.170589599609375,-0.8694185614585876,-1.2683539390563965,1.5252739191055298
1761915214967643600,1.1806435546875,-0.34302181005477905,-1.0284777879714966,1.2406657934188843
1761915214977697500,1.190697509765625,0.12100205570459366,-1.0444493293762207,0.8493678569793701
1761915214987751700,1.200751708984375,0.40616536140441895,-1.2131009101867676,0.5349537134170532
1761915214997805600,1.2108056640625,0.5445736050605774,-1.4341816902160645,0.38011273741722107
1761915215007860700,1.22086083984375,0.5415220856666565,-1.591516137123108,0.3238346576690674
1761915215017914600,1.23091455078125,0.47239547967910767,-1.6066290140151978,0.2767763137817383
1761915215027968800,1.24096875,0.40032994747161865,-1.4629926681518555,0.2159854918718338
1761915215038022700,1.251022705078125,0.2817617654800415,-1.1907353401184082,0.16657479107379913
1761915215048076500,1.26107666015625,0.08956924825906754,-0.8585914373397827,0.13749560713768005
1761915215058130700,1.271130615234375,-0.15193577110767365,-0.5741509199142456,0.08674855530261993
1761915215068184600,1.2811845703125,-0.4016907811164856,-0.4004606008529663,-0.013877146877348423
1761915215078239700,1.29123974609375,-0.6088554263114929,-0.32653552293777466,-0.10580441355705261
1761915215088293600,1.301293701171875,-0.7434499859809875,-0.26496565341949463,-0.10960663855075836
1761915215098347800,1.31134765625,-0.7821260094642639,-0.22148077189922333,-0.015778150409460068
1761915215108401700,1.321401611328125,-0.7328002452850342,-0.15416769683361053,0.1389184445142746
1761915215118455600,1.33145556640625,-0.6414461135864258,-0.035737987607717514,0.290738046169281
1761915215128509700,1.341509765625,-0.5233020186424255,0.15062180161476135,0.4253820776939392
1761915215138563600,1.3515634765625,-0.4058030843734741,0.39018216729164124,0.5458595156669617
1761915215148618800,1.36161865234375,-0.27882182598114014,0.6104279160499573,0.654351532459259
1761915215158672600,1.371672607421875,-0.15203857421875,0.7579275965690613,0.7341102957725525
1761915215168726800,1.381726806640625,-0.04213309288024902,0.8250229954719543,0.7920322418212891
1761915215178780700,1.39178076171875,0.038793981075286865,0.7773950099945068,0.8500081896781921
1761915215188834600,1.40183447265625,0.0950673371553421,0.6476850509643555,0.9199796915054321
1761915215198888400,1.411888427734375,0.13037578761577606,0.49390050768852234,1.0058482885360718
1761915215208942600,1.421942626953125,0.11997850239276886,0.3303613066673279,1.0638011693954468
1761915215218996500,1.43199658203125,0.07786513864994049,0.17512589693069458,1.0480245351791382
1761915215229051600,1.4420517578125,0.014639150351285934,0.05826575681567192,0.9419732093811035
1761915215239105800,1.452105712890625,-0.06937319785356522,-0.053095921874046326,0.7556113004684448
1761915215249159700,1.46215966796875,-0.17386962473392487,-0.1128731369972229,0.5267265439033508
1761915215259213600,1.472213623046875,-0.3015056252479553,-0.13189156353473663,0.28375327587127686
1761915215269267500,1.482267333984375,-0.4470905363559723,-0.16362515091896057,0.025500791147351265
1761915215279321600,1.492321533203125,-0.6305932998657227,-0.2400757223367691,-0.25187063217163086
1761915215289375500,1.50237548828125,-0.8256921172142029,-0.37146496772766113,-0.5360527038574219
1761915215299430700,1.5124306640625,-0.9709071516990662,-0.46900245547294617,-0.7732338309288025
1761915215309484800,1.52248486328125,-0.938367486000061,-0.2828637361526489,-0.8370739817619324
1761915215319538700,1.53253857421875,-0.6684055328369141,0.29074788093566895,-0.736975371837616
1761915215329592800,1.5425927734375,-0.2843891680240631,0.9956933259963989,-0.6299062967300415
1761915215339646500,1.552646484375,0.05952425301074982,1.506832480430603,-0.6211689710617065
1761915215349700600,1.56270068359375,0.147222638130188,1.553421974182129,-0.7039806842803955
1761915215359754500,1.57275439453125,-0.10234937071800232,1.1377637386322021,-0.7357450127601624
1761915215369809700,1.5828095703125,-0.5684544444084167,0.6716919541358948,-0.5630988478660583
1761915215379863800,1.59286376953125,-1.0255341529846191,0.5295952558517456,-0.11358043551445007
1761915215389917700,1.602917724609375,-1.201604962348938,0.8159525394439697,0.4881247878074646
1761915215399971800,1.612971923828125,-1.022657871246338,0.9951484203338623,0.8877987265586853
1761915215410025500,1.623025390625,-0.7087767720222473,0.6197434663772583,0.831557035446167
1761915215420079600,1.63307958984375,-0.4333915710449219,-0.05093156918883324,0.4048275351524353
1761915215430133500,1.643133544921875,-0.3312614858150482,-0.7251415252685547,-0.1442919820547104
1761915215440187600,1.653187744140625,-0.37266460061073303,-1.0490187406539917,-0.5771110653877258
1761915215450242800,1.663242919921875,-0.38847288489341736,-0.9699210524559021,-0.7926070094108582
1761915215460296700,1.673296630859375,-0.33228498697280884,-0.7004661560058594,-0.8650828003883362
1761915215470350800,1.683350830078125,-0.23152519762516022,-0.39173221588134766,-0.8894466757774353
1761915215480404700,1.69340478515625,-0.12934556603431702,-0.18378408253192902,-0.9658612608909607
1761915215490458600,1.703458740234375,-0.0435415580868721,-0.16636241972446442,-1.1087086200714111
1761915215500512500,1.713512451171875,0.017107674852013588,-0.3418186604976654,-1.2525081634521484
1761915215510566700,1.723566650390625,0.05035373568534851,-0.6838211417198181,-1.2984225749969482
1761915215520621600,1.73362158203125,0.0028911479748785496,-1.1653574705123901,-1.1610418558120728
1761915215530675700,1.74367578125,-0.2026931196451187,-1.73288094997406,-0.8311337232589722
1761915215540729900,1.753729736328125,-0.4717133939266205,-2.210766553878784,-0.35558658838272095
1761915215550783700,1.76378369140625,-0.7124502062797546,-2.4588379859924316,0.14451199769973755
1761915215560837600,1.773837646484375,-0.9164105653762817,-2.4715828895568848,0.553246796131134
1761915215570891500,1.7838916015625,-1.087125301361084,-2.3203959465026855,0.8066601157188416
1761915215580945700,1.793945556640625,-1.2129117250442505,-2.1101176738739014,0.9048378467559814
1761915215591000600,1.80400048828125,-1.305825114250183,-1.8844990730285645,0.8615542650222778
1761915215601054700,1.8140546875,-1.3556253910064697,-1.6860560178756714,0.6995093822479248
1761915215611108600,1.824108642578125,-1.3358592987060547,-1.5002185106277466,0.4775121808052063
1761915215621162800,1.834162841796875,-1.2484910488128662,-1.3246963024139404,0.26740503311157227
1761915215631216600,1.844216552734375,-1.1250008344650269,-1.1454839706420898,0.15136654675006866
1761915215641270800,1.854270751953125,-0.9798415899276733,-0.9798687696456909,0.1559450626373291
1761915215651325000,1.864324951171875,-0.8499680757522583,-0.8626527190208435,0.2680882513523102
1761915215661380000,1.874380126953125,-0.7573760747909546,-0.7640800476074219,0.4138023257255554
1761915215671434000,1.88443408203125,-0.6707314252853394,-0.6918565034866333,0.5377720594406128
1761915215681488100,1.894488037109375,-0.5792102813720703,-0.6269276142120361,0.6171078681945801
1761915215691542000,1.9045419921875,-0.4794527292251587,-0.5732489228248596,0.6670291423797607
1761915215701596000,1.914595947265625,-0.35851940512657166,-0.5988389849662781,0.6886140704154968
1761915215711649800,1.92464990234375,-0.2536187171936035,-0.7324854731559753,0.6539167165756226
1761915215721704000,1.934703857421875,-0.19244004786014557,-0.9265058040618896,0.5636129379272461
1761915215731757800,1.9447578125,-0.20092248916625977,-1.0539798736572266,0.4408651292324066
1761915215741813000,1.95481298828125,-0.24461351335048676,-1.023130178451538,0.3279423117637634
1761915215751867000,1.964866943359375,-0.2760426104068756,-0.728172779083252,0.19275514781475067
1761915215761921000,1.974921142578125,-0.26567041873931885,-0.25940319895744324,-0.04179797321557999
1761915215771975200,1.98497509765625,-0.42504358291625977,-0.13806623220443726,-0.46661072969436646
1761915215782028800,1.99502880859375,-0.8364625573158264,-0.2745433747768402,-0.9374203085899353
1761915215792083000,2.0050830078125,-1.258292317390442,-0.17279940843582153,-1.1992608308792114
1761915215802136800,2.01513671875,-1.5614700317382812,0.13195836544036865,-1.1148685216903687
1761915215812192000,2.02519189453125,-1.7174348831176758,0.6771615743637085,-0.7101995348930359
1761915215822246000,2.035245849609375,-1.590040683746338,1.3310327529907227,-0.2055499106645584
1761915215832300000,2.045300048828125,-1.130403995513916,1.7383664846420288,0.12810279428958893
1761915215842354000,2.05535400390625,-0.554606020450592,1.673109531402588,0.18630564212799072
1761915215852407800,2.06540771484375,-0.02903657592833042,1.31916344165802,0.12229765951633453
1761915215862462000,2.0754619140625,0.3501504063606262,0.8146188855171204,0.08044449239969254
1761915215872515800,2.085515869140625,0.56334388256073,0.29942893981933594,0.17131105065345764
1761915215882571000,2.095571044921875,0.6598605513572693,-0.16316907107830048,0.410863995552063
1761915215892625000,2.105625,0.724371075630188,-0.5476340651512146,0.7134004831314087
1761915215902679000,2.115678955078125,0.8217167854309082,-0.7646632790565491,1.0018205642700195
1761915215912733000,2.12573291015625,0.966494619846344,-0.8071923851966858,1.2140700817108154
1761915215922787000,2.135787109375,1.1059881448745728,-0.6362650990486145,1.3054735660552979
1761915215932840700,2.1458408203125,1.2091290950775146,-0.28873804211616516,1.2332919836044312
1761915215942894800,2.155894775390625,1.2640269994735718,0.12057064473628998,0.9729443192481995
1761915215952949000,2.165948974609375,1.292188048362732,0.4402194917201996,0.5322127342224121
1761915215963004000,2.17600390625,1.3074077367782593,0.528395414352417,-0.05480864271521568
1761915215973058000,2.18605810546875,1.3234975337982178,0.449847549200058,-0.6500881910324097
1761915215983112000,2.19611181640625,1.2982956171035767,0.2650638520717621,-1.105975866317749
1761915215993166000,2.206166015625,1.2178750038146973,0.030552810057997704,-1.3394250869750977
1761915216003220000,2.216219970703125,1.079073190689087,-0.18249689042568207,-1.3459141254425049
1761915216013273900,2.22627392578125,0.9058368802070618,-0.3800501823425293,-1.1924241781234741
1761915216023327700,2.23632763671875,0.700568675994873,-0.5273336172103882,-0.9326881766319275
1761915216033383000,2.2463828125,0.473369300365448,-0.5348315834999084,-0.6212061643600464
1761915216043437000,2.25643701171875,0.24686747789382935,-0.40280747413635254,-0.3285439610481262
1761915216053491000,2.266490966796875,0.061158813536167145,-0.18135540187358856,-0.10209554433822632
1761915216063545000,2.276545166015625,-0.06830170750617981,0.07271577417850494,0.019910793751478195
1761915216073599000,2.286598876953125,-0.14201685786247253,0.3303273916244507,0.047744568437337875
1761915216083652900,2.29665283203125,-0.17820683121681213,0.5863972306251526,0.018147259950637817
1761915216093706800,2.306706787109375,-0.18493059277534485,0.8379420638084412,-0.03670697286725044
1761915216103762000,2.316761962890625,-0.1244475319981575,0.9818638563156128,-0.12521100044250488
1761915216113816000,2.326816162109375,0.00652521476149559,0.9329413175582886,-0.251955509185791
1761915216123870000,2.336869873046875,0.1755818873643875,0.7854527831077576,-0.38899457454681396
1761915216133924000,2.346924072265625,0.3328399956226349,0.5589812397956848,-0.5223759412765503
1761915216143978000,2.35697802734375,0.44541633129119873,0.27346718311309814,-0.6472068428993225
1761915216154031900,2.367031982421875,0.45801156759262085,-0.054287590086460114,-0.7735028266906738
1761915216164085800,2.377085693359375,0.3715163767337799,-0.35576966404914856,-0.8735556602478027
1761915216174141000,2.387140869140625,0.229355126619339,-0.4296393394470215,-0.8803476691246033
1761915216184195000,2.397195068359375,0.14061780273914337,-0.11607156693935394,-0.7058866620063782
1761915216194249000,2.4072490234375,0.1739206612110138,0.657326877117157,-0.4115349054336548
1761915216204303000,2.41730322265625,0.24297241866588593,1.4906169176101685,-0.2566545009613037
1761915216214357000,2.42735693359375,0.08164850622415543,1.7747759819030762,-0.5049562454223633
1761915216224411100,2.4374111328125,-0.3961886167526245,1.5805026292800903,-1.034438967704773
1761915216234464800,2.44746484375,-0.9422488808631897,1.24329674243927,-1.4353729486465454
1761915216244519000,2.457518798828125,-1.402176022529602,0.9688302278518677,-1.4494496583938599
1761915216254573800,2.46757373046875,-1.5818716287612915,1.0445518493652344,-1.0520086288452148
1761915216264628000,2.4776279296875,-1.380528450012207,1.2137973308563232,-0.47275811433792114
1761915216274682000,2.48768212890625,-0.9228756427764893,1.1372078657150269,0.04750603064894676
1761915216284736000,2.497736083984375,-0.4563843905925751,0.8602535128593445,0.4002470374107361
1761915216294790100,2.5077900390625,-0.10709136724472046,0.49083447456359863,0.6098287105560303
1761915216304843800,2.51784375,0.12703271210193634,0.04499387741088867,0.7213674783706665
1761915216314898000,2.52789794921875,0.23726195096969604,-0.45190325379371643,0.7875003814697266
1761915216324952800,2.537952880859375,0.19728416204452515,-0.9953827857971191,0.8120986819267273
1761915216335007000,2.548007080078125,0.056018006056547165,-1.4995158910751343,0.7546617984771729
1761915216345060900,2.558060791015625,-0.13086773455142975,-1.8092002868652344,0.6120405197143555
1761915216355115000,2.568114990234375,-0.3857276737689972,-1.7944316864013672,0.39589160680770874
1761915216365169200,2.578169189453125,-0.7043493390083313,-1.4203510284423828,0.15861301124095917
1761915216375223000,2.58822314453125,-0.9834175705909729,-0.7927510142326355,-0.03482288867235184
1761915216385277000,2.59827685546875,-1.1572576761245728,-0.1335666924715042,-0.14059992134571075
1761915216395330800,2.608330810546875,-1.2084044218063354,0.43634119629859924,-0.08534163981676102
1761915216405386000,2.618385986328125,-1.1713521480560303,0.8135274052619934,0.15196280181407928
1761915216415440000,2.62843994140625,-1.0539463758468628,0.8804448246955872,0.527824342250824
1761915216425494000,2.638493896484375,-0.8751135468482971,0.5443203449249268,0.9934759140014648
1761915216435548000,2.6485478515625,-0.703590452671051,-0.19910523295402527,1.4444494247436523
1761915216445602000,2.65860205078125,-0.6164568662643433,-1.1499184370040894,1.7895232439041138
1761915216455656000,2.668656005859375,-0.6518232822418213,-2.0525753498077393,1.9768623113632202
1761915216465709800,2.678709716796875,-0.7698982357978821,-2.738093852996826,1.993414044380188
1761915216475765000,2.688764892578125,-0.9182669520378113,-3.1500439643859863,1.8879051208496094
1761915216485819000,2.69881884765625,-1.065332293510437,-3.32148814201355,1.737764835357666
1761915216495873000,2.708873046875,-1.1689420938491821,-3.2374930381774902,1.5863864421844482
1761915216505927000,2.718927001953125,-1.1863714456558228,-2.981537103652954,1.4572478532791138
1761915216515981000,2.72898095703125,-1.125570297241211,-2.668184995651245,1.3652219772338867
1761915216526035000,2.739034912109375,-1.024083137512207,-2.3896422386169434,1.2895925045013428
1761915216536088800,2.7490888671875,-0.9047058820724487,-2.131913661956787,1.2385492324829102
1761915216546144000,2.75914404296875,-0.7954725623130798,-1.8736799955368042,1.205113410949707
1761915216556198000,2.769197998046875,-0.70804762840271,-1.6173324584960938,1.1487114429473877
1761915216566252000,2.779251953125,-0.626900851726532,-1.426111102104187,1.0725916624069214
1761915216576306000,2.789305908203125,-0.5787595510482788,-1.3520430326461792,0.985479474067688
1761915216586360000,2.799360107421875,-0.5831577777862549,-1.395158290863037,0.877057671546936
1761915216596414000,2.8094140625,-0.6342771649360657,-1.4417046308517456,0.7448970675468445
1761915216606467800,2.8194677734375,-0.7252408862113953,-1.5197960138320923,0.5790857672691345
1761915216616523000,2.82952294921875,-0.8276867270469666,-1.6288598775863647,0.3979269564151764
1761915216626577000,2.839576904296875,-0.8727982640266418,-1.6787458658218384,0.2723754048347473
1761915216636631000,2.849631103515625,-0.8578774333000183,-1.486812949180603,0.2076399177312851
1761915216646684700,2.8596845703125,-0.7372874021530151,-0.9853233695030212,0.17908470332622528
1761915216656738800,2.86973876953125,-0.5372740030288696,-0.5214474201202393,0.07207083702087402
1761915216666792700,2.879792724609375,-0.4545535445213318,-0.49784353375434875,-0.12028954923152924
1761915216676846800,2.889846923828125,-0.6130770444869995,-0.8567728996276855,-0.2628066837787628
1761915216686900700,2.899900634765625,-0.9403782486915588,-1.2285523414611816,-0.2910156846046448
1761915216696955600,2.90995556640625,-1.2772216796875,-1.4066588878631592,-0.24734894931316376
1761915216707009500,2.920009521484375,-1.5678069591522217,-1.1786164045333862,-0.1301237940788269
1761915216717063700,2.930063720703125,-1.5978354215621948,-0.48510393500328064,0.019850820302963257
1761915216727117600,2.94011767578125,-1.2795008420944214,0.24916154146194458,0.08345163613557816
1761915216737171700,2.950171630859375,-0.8650161027908325,0.6226142644882202,-0.02981836348772049
1761915216747225900,2.960225830078125,-0.49998733401298523,0.6247056722640991,-0.312994122505188
1761915216757279700,2.97027978515625,-0.23220716416835785,0.4116487503051758,-0.651431679725647
1761915216767334700,2.980334716796875,-0.06639982759952545,0.23304970562458038,-0.8491588830947876
1761915216777388500,2.990388427734375,0.04624256491661072,0.21165919303894043,-0.7812629342079163
1761915216787442700,3.000442626953125,0.1558564156293869,0.28233602643013,-0.5139577388763428
1761915216797496600,3.01049658203125,0.3138631284236908,0.35433709621429443,-0.14360716938972473
1761915216807550700,3.02055078125,0.5100196003913879,0.40002894401550293,0.24328169226646423
1761915216817604600,3.0306044921875,0.7134889960289001,0.41809695959091187,0.5666204690933228
1761915216827658800,3.04065869140625,0.8849707245826721,0.4270707368850708,0.7805625796318054
1761915216837712600,3.050712646484375,0.986187219619751,0.3539688289165497,0.7957064509391785
1761915216847767600,3.060767578125,0.9814254641532898,0.15003539621829987,0.567249059677124
1761915216857821700,3.07082177734375,0.9122236967086792,-0.13316170871257782,0.14497977495193481
1761915216867875600,3.08087548828125,0.7889201045036316,-0.39283430576324463,-0.33719727396965027
1761915216877929700,3.0909296875,0.5915178060531616,-0.5173015594482422,-0.7362383008003235
1761915216887983600,3.100983642578125,0.32334277033805847,-0.4810170531272888,-0.9712657332420349
1761915216898037800,3.111037841796875,0.022121917456388474,-0.3120358884334564,-1.0567350387573242
1761915216908091600,3.121091552734375,-0.25324469804763794,-0.05966753512620926,-1.0164928436279297
1761915216918146600,3.131146484375,-0.46677711606025696,0.2289898842573166,-0.8823996186256409
1761915216928200700,3.14120068359375,-0.6104937791824341,0.479693740606308,-0.7016245126724243
1761915216938254600,3.151254638671875,-0.6918222904205322,0.655560314655304,-0.5116825103759766
1761915216948308700,3.161308837890625,-0.7302330732345581,0.7761338353157043,-0.32519465684890747
1761915216958362600,3.171362548828125,-0.7314548492431641,0.87322998046875,-0.15625159442424774
1761915216968416800,3.181416748046875,-0.6900849938392639,0.9351168274879456,-0.024973738938570023
1761915216978470700,3.191470703125,-0.6117188334465027,0.9422115683555603,0.044720254838466644
1761915216988525600,3.201525634765625,-0.49464550614356995,0.8369003534317017,0.04663613438606262
1761915216998579700,3.211579833984375,-0.33483758568763733,0.6903834342956543,-0.002434489317238331
1761915217008633600,3.221633544921875,-0.15459564328193665,0.5376743078231812,-0.08752062171697617
1761915217018687700,3.231687744140625,0.016543501988053322,0.2732560336589813,-0.15692643821239471
1761915217028741600,3.24174169921875,0.10183149576187134,-0.07999177277088165,-0.14451956748962402
1761915217038795800,3.251795654296875,0.031200364232063293,-0.4272977411746979,-0.0743260532617569
1761915217048849700,3.261849609375,-0.17714938521385193,-0.6879615783691406,-0.020626872777938843
1761915217058904600,3.271904541015625,-0.4397056996822357,-0.7432022094726562,-0.006586948409676552
1761915217068958700,3.281958740234375,-0.6073548793792725,-0.3115679919719696,0.05130085349082947
1761915217079012600,3.2920126953125,-0.5960559844970703,0.5911509990692139,0.17780481278896332
1761915217089066800,3.302066650390625,-0.41372188925743103,1.4903709888458252,0.19458165764808655
1761915217099120600,3.31212060546875,-0.1955583542585373,2.0431089401245117,0.020429739728569984
1761915217109174800,3.3221748046875,-0.2208714336156845,1.8944891691207886,-0.2881331741809845
1761915217119228700,3.332228759765625,-0.496072918176651,1.3126699924468994,-0.4856947064399719
1761915217129282800,3.34228271484375,-0.8224411606788635,0.5276110768318176,-0.34968918561935425
1761915217139337500,3.35233740234375,-1.1812366247177124,-0.2579575479030609,0.06308615207672119
1761915217149391600,3.3623916015625,-1.2573760747909546,-0.44373542070388794,0.6334284543991089
1761915217159445500,3.372445556640625,-0.9423312544822693,-0.09229332208633423,1.142269492149353
1761915217169499600,3.382499755859375,-0.4038669764995575,0.42430081963539124,1.3403000831604004
1761915217179553800,3.3925537109375,0.19711355865001678,1.0538785457611084,1.2181047201156616
1761915217189607700,3.402607666015625,0.6819585561752319,1.261736512184143,0.78943932056427
1761915217199661800,3.412661865234375,0.9779305458068848,0.8895460963249207,0.2713474631309509
1761915217209715700,3.4227158203125,1.0147466659545898,0.07255136966705322,-0.07986248284578323
1761915217219770600,3.4327705078125,0.7945557236671448,-0.9042653441429138,-0.17842356860637665
1761915217229824500,3.442824462890625,0.49936214089393616,-1.7200679779052734,-0.10350218415260315
1761915217239878700,3.452878662109375,0.30357250571250916,-2.1388115882873535,0.02230224758386612
1761915217249932500,3.4629326171875,0.21028490364551544,-2.066006660461426,0.17358709871768951
1761915217259986700,3.472986572265625,0.14216500520706177,-1.6212388277053833,0.31650790572166443
1761915217270040800,3.483040771484375,0.04727151244878769,-1.068305253982544,0.3419826328754425
1761915217280094700,3.4930947265625,-0.1228036880493164,-0.6511099934577942,0.1672091782093048
1761915217290149600,3.503149658203125,-0.35942262411117554,-0.42689049243927,-0.1738181859254837
1761915217300203500,3.51320361328125,-0.5776352882385254,-0.3193172514438629,-0.5420413017272949
1761915217310257700,3.523257568359375,-0.7438461184501648,-0.2933160066604614,-0.8321841955184937
1761915217320311600,3.5333115234375,-0.8771783709526062,-0.2842938303947449,-1.0018293857574463
1761915217330365700,3.54336572265625,-0.9538760781288147,-0.26139384508132935,-1.0406701564788818
1761915217340419600,3.553419677734375,-0.9576649069786072,-0.16066184639930725,-0.9409227967262268
1761915217350473700,3.5634736328125,-0.8675065040588379,-0.007743143476545811,-0.7319056987762451
1761915217360528600,3.573528564453125,-0.6824920773506165,0.10312198102474213,-0.4699244201183319
1761915217370582500,3.58358251953125,-0.4402271807193756,0.154779851436615,-0.21517734229564667
1761915217380636700,3.59363671875,-0.18536144495010376,0.09496129304170609,-0.003787475638091564
1761915217390690600,3.603690673828125,0.05414275452494621,-0.04287513718008995,0.15836600959300995
1761915217400744700,3.61374462890625,0.27032437920570374,-0.24278227984905243,0.2909889817237854
1761915217410798600,3.623798583984375,0.422587126493454,-0.5249095559120178,0.4018832743167877
1761915217420852700,3.633852783203125,0.5218424797058105,-0.8474008440971375,0.5216484665870667
1761915217430906600,3.64390673828125,0.5357268452644348,-1.1359130144119263,0.6375292539596558
1761915217440961500,3.65396142578125,0.44596076011657715,-1.3624663352966309,0.7242982387542725
1761915217451015700,3.664015625,0.24601593613624573,-1.4506914615631104,0.7444308996200562
1761915217461069600,3.674069580078125,-0.003943982999771833,-1.4087865352630615,0.6774805188179016
1761915217471123700,3.684123779296875,-0.2414446920156479,-1.3381141424179077,0.5085775256156921
1761915217481177600,3.694177490234375,-0.4147249460220337,-1.2663521766662598,0.2255713939666748
1761915217491231700,3.704231689453125,-0.5103585124015808,-1.199392318725586,-0.16875700652599335
1761915217501285600,3.71428564453125,-0.5675188899040222,-1.140228509902954,-0.584396481513977
1761915217511340500,3.724340576171875,-0.5605826377868652,-0.9334840774536133,-0.8762629628181458
1761915217521394700,3.734394775390625,-0.4040620028972626,-0.5893120765686035,-1.0146615505218506
1761915217531448600,3.744448486328125,-0.14067672193050385,-0.4327602982521057,-1.0981196165084839
1761915217541502700,3.754502685546875,0.07417833805084229,-0.7351084351539612,-1.1760773658752441
1761915217551556600,3.764556640625,0.187297984957695,-1.4997808933258057,-1.1735109090805054
1761915217561610800,3.77461083984375,0.18324868381023407,-2.403780221939087,-0.8813203573226929
1761915217571664600,3.78466455078125,0.012956839054822922,-2.8343420028686523,-0.24381710588932037
1761915217581719600,3.794719482421875,-0.18474245071411133,-2.578172206878662,0.38107743859291077
1761915217591773700,3.804773681640625,-0.5302897691726685,-2.0199952125549316,0.6342455148696899
1761915217601827600,3.81482763671875,-0.8646155595779419,-0.8465704917907715,0.6245964765548706
1761915217611881700,3.8248818359375,-0.9320681095123291,0.48451098799705505,0.48648205399513245
1761915217621935600,3.834935546875,-0.825681209564209,1.3333442211151123,0.32565808296203613
1761915217631989800,3.84498974609375,-0.6819317936897278,1.5856190919876099,0.2280481904745102
1761915217642043600,3.855043701171875,-0.47816506028175354,1.5167794227600098,0.18513382971286774
1761915217652101600,3.8651015625,-0.32165852189064026,1.4763069152832031,0.17064890265464783
1761915217662156800,3.87515673828125,-0.3252667784690857,1.5220563411712646,0.22436456382274628
1761915217672210700,3.885210693359375,-0.43224382400512695,1.655031442642212,0.39843329787254333
1761915217682264800,3.895264892578125,-0.5245848298072815,1.7520012855529785,0.6480846405029297
1761915217692319000,3.905319091796875,-0.49144524335861206,1.6502832174301147,0.8947836756706238
1761915217702372900,3.915372802734375,-0.30418479442596436,1.2603089809417725,1.0245896577835083
1761915217712427000,3.925427001953125,-0.022352322936058044,0.605564534664154,0.9699367880821228
1761915217722481000,3.93548095703125,0.26751241087913513,-0.1500786542892456,0.7498005628585815
1761915217732535800,3.945535888671875,0.4970744848251343,-0.7995738387107849,0.4316582679748535
1761915217742589700,3.955589599609375,0.6264964938163757,-1.1906013488769531,0.08223570883274078
1761915217752643800,3.965643798828125,0.6703704595565796,-1.2776424884796143,-0.2712227404117584
1761915217762697700,3.97569775390625,0.6292644143104553,-1.1146306991577148,-0.5961740612983704
1761915217772752000,3.985751953125,0.4977891743183136,-0.6641107201576233,-0.8366639018058777
1761915217782806000,3.995805908203125,0.3267022371292114,-0.11910074949264526,-0.9751094579696655
1761915217792860000,4.00585986328125,0.17022819817066193,0.3420785963535309,-0.9944623708724976
1761915217802914800,4.015914794921875,0.053559087216854095,0.6848248243331909,-0.8703341484069824
1761915217812968700,4.02596875,-0.023406803607940674,0.8752470016479492,-0.6354015469551086
1761915217823022800,4.03602294921875,-0.06057414039969444,0.9042580723762512,-0.32666394114494324
1761915217833076700,4.04607666015625,-0.057869698852300644,0.7168930172920227,-0.003549785353243351
1761915217843131000,4.056130859375,-0.023681001737713814,0.27685487270355225,0.28944575786590576
1761915217853184800,4.066184814453125,0.03772749751806259,-0.3056551516056061,0.5237245559692383
1761915217863239000,4.076239013671875,0.11226128041744232,-0.8589316010475159,0.6786175966262817
1761915217873292800,4.086292724609375,0.1692289561033249,-1.2558408975601196,0.7403102517127991
1761915217883347700,4.09634765625,0.16197502613067627,-1.4494433403015137,0.7194339632987976
1761915217893401900,4.10640185546875,0.1345529854297638,-1.477268099784851,0.6184617877006531
1761915217903455700,4.116455810546875,0.11954442411661148,-1.3316174745559692,0.4699125289916992
1761915217913510000,4.126510009765625,0.13174089789390564,-1.0709913969039917,0.27530282735824585
1761915217923563800,4.136563720703125,0.1366884708404541,-0.7372617721557617,0.01151307113468647
1761915217933618000,4.146617919921875,0.08925837278366089,-0.5093255639076233,-0.33187544345855713
1761915217943671800,4.156671875,-0.0038327760994434357,-0.456622451543808,-0.676098644733429
1761915217953726700,4.166726806640625,-0.1077389344573021,-0.48246121406555176,-0.9039368629455566
1761915217963780900,4.17678076171875,-0.18113739788532257,-0.5098530054092407,-1.023383378982544
1761915217973834800,4.186834716796875,-0.16825701296329498,-0.5340294241905212,-1.1226361989974976
1761915217983889000,4.196888916015625,-0.025982052087783813,-0.5031226873397827,-1.1964609622955322
1761915217993942800,4.20694287109375,0.2912909686565399,-0.49829521775245667,-1.2231030464172363
1761915218003997000,4.216996826171875,0.6896781325340271,-0.5316505432128906,-1.2468138933181763
1761915218014050800,4.22705078125,0.9853092432022095,-0.5372586250305176,-1.3220816850662231
1761915218024105700,4.237105712890625,0.9833245277404785,-0.5623430609703064,-1.500839114189148
1761915218034159900,4.247159912109375,0.6810805201530457,-0.5266814827919006,-1.652111530303955
1761915218044213800,4.2572138671875,0.1908300668001175,-0.3913053572177887,-1.5203851461410522
1761915218054268000,4.267267822265625,-0.3221312463283539,-0.15313459932804108,-0.9991959929466248
1761915218064321800,4.27732177734375,-0.8178167343139648,-0.021197767928242683,-0.2836093008518219
1761915218074376000,4.2873759765625,-1.1434605121612549,0.2201426923274994,0.4158582389354706
1761915218084429800,4.297429931640625,-1.09445059299469,0.25167009234428406,0.7476140856742859
1761915218094484000,4.30748388671875,-0.783950686454773,-0.005785662215203047,0.6369336247444153
1761915218104539000,4.317538818359375,-0.3094620406627655,-0.32619595527648926,0.25368213653564453
1761915218114592800,4.3275927734375,0.25574836134910583,-0.6457372307777405,-0.1743733286857605
1761915218124647000,4.33764697265625,0.7797186374664307,-0.9833457469940186,-0.43973833322525024
1761915218134700800,4.34770068359375,1.2053699493408203,-1.2799826860427856,-0.44337594509124756
1761915218144755000,4.3577548828125,1.5770184993743896,-1.5204418897628784,-0.17660313844680786
1761915218154808800,4.367808837890625,1.8432056903839111,-1.5728774070739746,0.30745646357536316
1761915218164863000,4.377863037109375,1.9684938192367554,-1.3326306343078613,0.8728429079055786
1761915218174917600,4.387917724609375,1.8608827590942383,-0.9136309623718262,1.379915475845337
1761915218184971800,4.3979716796875,1.5610525608062744,-0.3634973466396332,1.7310646772384644
1761915218195026000,4.40802587890625,1.2186528444290161,0.14035193622112274,1.8641574382781982
1761915218205079800,4.418079833984375,0.9105545282363892,0.35067710280418396,1.7081634998321533
1761915218215134000,4.428134033203125,0.6480571031570435,0.1441497504711151,1.2191603183746338
1761915218225187800,4.438187744140625,0.42132994532585144,-0.3076413869857788,0.541687548160553
1761915218235242000,4.448241943359375,0.19944734871387482,-0.7662653923034668,-0.12933743000030518
1761915218245296600,4.458296630859375,-0.045205257833004,-1.018748164176941,-0.6688578724861145
1761915218255350800,4.468350830078125,-0.30893194675445557,-0.9971492886543274,-1.0302083492279053
1761915218265404700,4.47840478515625,-0.557297945022583,-0.8169362545013428,-1.21968412399292
1761915218275458800,4.488458740234375,-0.7746118903160095,-0.5938608646392822,-1.281235694885254
1761915218285513000,4.498512939453125,-0.9411045908927917,-0.36430633068084717,-1.2294028997421265
1761915218295566800,4.50856689453125,-1.0277798175811768,-0.14407117664813995,-1.1056287288665771
1761915218305621000,4.51862109375,-1.0561646223068237,0.05754082277417183,-0.9448785781860352
1761915218315675600,4.528675537109375,-1.0343104600906372,0.2148263156414032,-0.7919750213623047
1761915218325729800,4.538729736328125,-0.9730286002159119,0.32084420323371887,-0.6630334854125977
1761915218335783700,4.54878369140625,-0.9026761054992676,0.3690356910228729,-0.567360520362854
1761915218345837800,4.558837890625,-0.8485665321350098,0.3486950993537903,-0.498353511095047
1761915218355891700,4.5688916015625,-0.8243040442466736,0.24834105372428894,-0.450050413608551
1761915218365949000,4.578948974609375,-0.8265547156333923,0.07280787080526352,-0.4253475069999695
1761915218376002800,4.5890029296875,-0.87164705991745,-0.10789532959461212,-0.40463608503341675
1761915218386057000,4.599056884765625,-0.9673790335655212,-0.31960517168045044,-0.3747997283935547
1761915218396110800,4.60911083984375,-1.1023914813995361,-0.5670362710952759,-0.3413104712963104
1761915218406165000,4.6191650390625,-1.2391055822372437,-0.7824875712394714,-0.30875733494758606
1761915218416219000,4.629218994140625,-1.336586594581604,-0.9055019021034241,-0.30821219086647034
1761915218426272800,4.639272705078125,-1.3461822271347046,-0.8847273588180542,-0.36820995807647705
1761915218436327700,4.64932763671875,-1.3072839975357056,-0.7575222849845886,-0.546351432800293
1761915218446381800,4.6593818359375,-1.2351924180984497,-0.6497757434844971,-0.912132978439331
1761915218456436000,4.66943603515625,-1.0983881950378418,-0.9513826966285706,-1.41933012008667
1761915218466489900,4.67948974609375,-0.9695470333099365,-1.523169994354248,-1.8349090814590454
1761915218476544000,4.6895439453125,-0.8957162499427795,-1.763550877571106,-1.9655754566192627
1761915218486598000,4.699597900390625,-0.762395977973938,-1.2379748821258545,-1.805675745010376
1761915218496651800,4.70965185546875,-0.7046096324920654,-0.00505454558879137,-1.5190149545669556
1761915218506705700,4.71970556640625,-0.8725687861442566,1.540164589881897,-1.2063015699386597
1761915218516760800,4.7297607421875,-1.215419888496399,2.6171183586120605,-0.9807428121566772
1761915218526814700,4.739814697265625,-1.4950700998306274,2.9457180500030518,-0.7973756790161133
1761915218536868900,4.749868896484375,-1.5095411539077759,2.5700554847717285,-0.613593578338623
1761915218546923000,4.759923095703125,-1.2458995580673218,1.7146140336990356,-0.40716367959976196
1761915218556977000,4.769976806640625,-0.7407005429267883,0.7425539493560791,-0.17602528631687164
1761915218567030800,4.78003076171875,-0.14690962433815002,-0.19816388189792633,0.006348125636577606
1761915218577084700,4.790084716796875,0.33782804012298584,-0.9759403467178345,0.15074339509010315
1761915218587139800,4.800139892578125,0.5952488780021667,-1.5245513916015625,0.3195916414260864
1761915218597193700,4.81019384765625,0.7047114968299866,-1.8581000566482544,0.532939612865448
1761915218607248000,4.820247802734375,0.7631146311759949,-2.019834518432617,0.775084912776947
1761915218617301800,4.8303017578125,0.7805335521697998,-2.0135390758514404,1.0194098949432373
1761915218627356000,4.84035595703125,0.7541655898094177,-1.7936229705810547,1.2175943851470947
1761915218637410000,4.85041015625,0.7024955153465271,-1.3185718059539795,1.317315697669983
1761915218647463400,4.86046337890625,0.6221444606781006,-0.7038813829421997,1.2582200765609741
1761915218657518300,4.870518310546875,0.5204783082008362,-0.1183127611875534,1.0501285791397095
1761915218667572500,4.880572509765625,0.41971486806869507,0.34549951553344727,0.7292420864105225
1761915218677626400,4.89062646484375,0.3374927043914795,0.6629120707511902,0.3582133650779724
1761915218687680500,4.900680419921875,0.24548043310642242,0.845714271068573,0.029899194836616516
1761915218697734400,4.910734375,0.10694226622581482,0.9375454187393188,-0.18880251049995422
1761915218707788500,4.92078857421875,-0.09562612324953079,0.9800984859466553,-0.2670133709907532
1761915218717842400,4.930842529296875,-0.32779252529144287,1.027086615562439,-0.21804580092430115
1761915218727897300,4.9408974609375,-0.5350627899169922,1.1161894798278809,-0.06028033420443535
1761915218737951500,4.950951416015625,-0.6694187521934509,1.2016478776931763,0.1570674329996109
1761915218748005400,4.96100537109375,-0.6910651922225952,1.2781176567077637,0.4072272479534149
1761915218758059500,4.9710595703125,-0.6253399848937988,1.2911593914031982,0.6198568940162659
1761915218768113400,4.981113525390625,-0.5135248899459839,1.214100956916809,0.756976306438446
1761915218778167600,4.99116748046875,-0.38414907455444336,1.0732992887496948,0.814444363117218
1761915218788221400,5.001221435546875,-0.25569429993629456,0.8858380913734436,0.8143746852874756
1761915218798276400,5.0112763671875,-0.10515405237674713,0.6867141127586365,0.7810606360435486
1761915218808330500,5.02133056640625,0.049985311925411224,0.486942321062088,0.7323566675186157
1761915218818384400,5.03138427734375,0.16112621128559113,0.28056544065475464,0.6956673860549927
1761915218828438500,5.0414384765625,0.1919933259487152,0.138703852891922,0.6865341663360596
1761915218838492400,5.051492431640625,0.1583605259656906,0.0632900595664978,0.7038372159004211
1761915218848546600,5.061546630859375,0.07368458062410355,-0.03304089978337288,0.7143572568893433
1761915218858600400,5.071600341796875,-0.06450391560792923,-0.19240525364875793,0.6996107697486877
1761915218868655400,5.0816552734375,-0.279156357049942,-0.42420467734336853,0.6799954175949097
1761915218878709200,5.091709228515625,-0.5518680214881897,-0.7601733803749084,0.6841275691986084
1761915218888763400,5.101763427734375,-0.7962450981140137,-1.0217349529266357,0.749008059501648
1761915218898817500,5.111817626953125,-0.9378006458282471,-1.0872879028320312,0.8608930706977844
1761915218908871400,5.121871337890625,-0.9548866152763367,-0.9545590877532959,0.9345158934593201
1761915218918925600,5.131925537109375,-0.8541676998138428,-0.8543397784233093,0.9001115560531616
1761915218928979500,5.1419794921875,-0.6506337523460388,-0.8162572979927063,0.8321186304092407
1761915218939034400,5.152034423828125,-0.44822922348976135,-0.8890079259872437,0.7650972604751587
1761915218949088300,5.162088134765625,-0.35587355494499207,-0.9241103529930115,0.6262893080711365
1761915218959142400,5.172142333984375,-0.4110124409198761,-0.8954376578330994,0.31383228302001953
1761915218969196300,5.1821962890625,-0.6612040996551514,-0.7821098566055298,-0.1064048632979393
1761915218979250400,5.19225048828125,-1.0321990251541138,-0.13880808651447296,-0.350614070892334
1761915218989304600,5.2023046875,-1.2507927417755127,0.9936456084251404,-0.3340438902378082
1761915218999358500,5.2123583984375,-1.153030514717102,2.0135974884033203,-0.25470513105392456
1761915219009413400,5.222413330078125,-0.7739969491958618,2.4326610565185547,-0.332579642534256
1761915219019467300,5.23246728515625,-0.31614232063293457,2.0830624103546143,-0.6927926540374756
1761915219029521400,5.242521484375,0.04360353946685791,1.292190670967102,-1.150702953338623
1761915219039575300,5.2525751953125,0.25005897879600525,0.5330234169960022,-1.4123343229293823
1761915219049629400,5.26262939453125,0.33954399824142456,-0.05304161086678505,-1.3992409706115723
1761915219059683300,5.272683349609375,0.41968968510627747,-0.4955527186393738,-1.2225972414016724
1761915219069737500,5.282737548828125,0.5258051156997681,-0.9246498942375183,-0.9820248484611511
1761915219079792400,5.29279248046875,0.5942901372909546,-1.2797502279281616,-0.6938149333000183
1761915219089846300,5.30284619140625,0.5072734355926514,-1.3169338703155518,-0.30127444863319397
1761915219099900400,5.312900390625,0.22930999100208282,-0.9157963395118713,0.19672708213329315
1761915219109954300,5.322954345703125,-0.1517166942358017,-0.24544650316238403,0.6632168292999268
1761915219120008400,5.333008544921875,-0.5621828436851501,0.3650333881378174,0.8662706017494202
1761915219130062300,5.343062255859375,-0.929987907409668,0.7563262581825256,0.7159589529037476
1761915219140116500,5.353116455078125,-1.1814073324203491,1.0124790668487549,0.35415759682655334
1761915219150171400,5.36317138671875,-1.286721110343933,1.2023651599884033,-0.022635813802480698
1761915219160225300,5.373225341796875,-1.2663370370864868,1.366166353225708,-0.27755919098854065
1761915219170279400,5.383279541015625,-1.174475073814392,1.4827293157577515,-0.36258798837661743
1761915219180333300,5.393333251953125,-1.0342602729797363,1.5761442184448242,-0.26560285687446594
1761915219190387500,5.403387451171875,-0.8695389628410339,1.613165259361267,-0.04689096286892891
1761915219200441300,5.41344140625,-0.702014148235321,1.5446219444274902,0.24098102748394012
1761915219210495500,5.42349560546875,-0.5456746220588684,1.3704243898391724,0.5393280386924744
1761915219220550700,5.433550537109375,-0.39156171679496765,1.0937869548797607,0.8283281922340393
1761915219230604300,5.443604248046875,-0.24898870289325714,0.7347121834754944,1.0940908193588257
1761915219240658400,5.453658447265625,-0.14503434300422668,0.32664957642555237,1.3160732984542847
1761915219250712300,5.46371240234375,-0.06884248554706573,-0.09593961387872696,1.484241008758545
1761915219260766500,5.473766357421875,-0.0010738242417573929,-0.5587698221206665,1.6191500425338745
1761915219270820400,5.4838203125,0.04741198569536209,-1.0530824661254883,1.7472198009490967
1761915219280874500,5.49387451171875,0.05047035962343216,-1.5196104049682617,1.8715806007385254
1761915219290929400,5.503929443359375,-0.01410329807549715,-1.9196194410324097,1.960356593132019
1761915219300983600,5.513983642578125,-0.13712775707244873,-2.2326900959014893,1.9735349416732788
1761915219311037400,5.524037353515625,-0.2850058972835541,-2.5120465755462646,1.905855417251587
1761915219321091300,5.53409130859375,-0.4631545841693878,-2.751974105834961,1.7815148830413818
1761915219331145500,5.5441455078125,-0.6662843227386475,-2.9415123462677,1.6402032375335693
1761915219341199400,5.554199462890625,-0.8670387268066406,-3.1399359703063965,1.4852442741394043
1761915219351253500,5.56425341796875,-1.001908779144287,-3.329636573791504,1.3130269050598145
1761915219361308400,5.574308349609375,-1.0180866718292236,-3.472001791000366,1.105575442314148
1761915219371362600,5.584362548828125,-0.9521206021308899,-3.4862451553344727,0.8854478597640991
1761915219381416400,5.59441650390625,-0.8145281076431274,-3.287945032119751,0.6748591661453247
1761915219391470300,5.60447021484375,-0.6440898180007935,-2.844853401184082,0.4432675540447235
1761915219401524500,5.6145244140625,-0.5643438696861267,-2.298128604888916,0.14849555492401123
1761915219411578400,5.624578369140625,-0.7064574956893921,-1.831288456916809,-0.26172301173210144
1761915219421632500,5.634632568359375,-1.0591601133346558,-1.4340900182724,-0.7668519616127014
1761915219431687400,5.6446875,-1.469548225402832,-0.984764039516449,-1.1112806797027588
1761915219441741600,5.654741455078125,-1.780387282371521,-0.26747754216194153,-1.0578914880752563
1761915219451795500,5.66479541015625,-1.8685857057571411,0.6677592396736145,-0.6528975963592529
1761915219461849300,5.674849365234375,-1.697723388671875,1.2507072687149048,-0.24630504846572876
1761915219471903200,5.6849033203125,-1.319500207901001,1.1836804151535034,-0.17537729442119598
1761915219481957400,5.694957275390625,-0.8156429529190063,0.6382014751434326,-0.45445552468299866
1761915219492011500,5.705011474609375,-0.33453065156936646,-0.04877566173672676,-0.8356021046638489
1761915219502066400,5.71506640625,-0.04479047283530235,-0.5943064093589783,-1.0787526369094849
1761915219512120600,5.72512060546875,0.05056243762373924,-1.0134925842285156,-1.1624351739883423
1761915219522174500,5.735174560546875,0.0483701229095459,-1.2703016996383667,-1.1385173797607422
1761915219532228400,5.745228271484375,0.0689140036702156,-1.272239327430725,-1.0612034797668457
1761915219542282200,5.7552822265625,0.12125124037265778,-0.8973482847213745,-0.9690194725990295
1761915219552336400,5.76533642578125,0.18099135160446167,-0.35441336035728455,-0.9083875417709351
1761915219562390300,5.775390380859375,0.17021647095680237,0.20416684448719025,-0.8575957417488098
1761915219572445400,5.785445556640625,0.010909359902143478,0.47408729791641235,-0.8408856987953186
1761915219582499600,5.79549951171875,-0.2678205370903015,0.3218916356563568,-0.8811635971069336
1761915219592553500,5.805553466796875,-0.5903254151344299,-0.14849737286567688,-0.9116827845573425
1761915219602607600,5.815607666015625,-0.9144856333732605,-0.6893113255500793,-0.8458030819892883
1761915219612661200,5.8256611328125,-1.2012995481491089,-1.070598840713501,-0.6514431834220886
1761915219622715400,5.83571533203125,-1.436288833618164,-1.2402403354644775,-0.3421066701412201
1761915219632769300,5.845769287109375,-1.6112816333770752,-1.2049669027328491,0.0762924775481224
1761915219642824000,5.855823974609375,-1.6993005275726318,-0.9953732490539551,0.5488197803497314
1761915219652877800,5.8658779296875,-1.685532808303833,-0.7590427398681641,0.9955586791038513
1761915219662932000,5.875931884765625,-1.5544579029083252,-0.6232476234436035,1.3474833965301514
1761915219672985900,5.88598583984375,-1.3456202745437622,-0.6708433628082275,1.551278829574585
1761915219683040000,5.8960400390625,-1.1340677738189697,-0.8477910161018372,1.6080609560012817
1761915219693094000,5.906093994140625,-0.9505046606063843,-1.0696545839309692,1.5472309589385986
1761915219703147800,5.916147705078125,-0.8106266260147095,-1.2779520750045776,1.4366676807403564
1761915219713203000,5.926202880859375,-0.742931067943573,-1.4506269693374634,1.3006582260131836
1761915219723256800,5.9362568359375,-0.7564606666564941,-1.615417242050171,1.1857526302337646
1761915219733311000,5.94631103515625,-0.8264230489730835,-1.7430061101913452,1.1179397106170654
1761915219743364900,5.95636474609375,-0.9373208284378052,-1.8375163078308105,1.098940372467041
1761915219753419000,5.9664189453125,-1.085111379623413,-1.8821989297866821,1.083076000213623
1761915219763473000,5.976472900390625,-1.2334691286087036,-1.859869122505188,1.0376875400543213
1761915219773526800,5.98652685546875,-1.3341155052185059,-1.8036690950393677,0.9473165273666382
1761915219783582000,5.99658203125,-1.366174340248108,-1.8153809309005737,0.8214132189750671
1761915219793635800,6.0066357421875,-1.3272016048431396,-1.802520751953125,0.7014251351356506
1761915219803690000,6.01668994140625,-1.2296875715255737,-1.688355565071106,0.6193076372146606
1761915219813743900,6.026743896484375,-1.108897089958191,-1.5057872533798218,0.5250343084335327
1761915219823798000,6.036798095703125,-0.9632269144058228,-1.4034390449523926,0.3022499978542328
1761915219833852000,6.046851806640625,-0.8172715902328491,-1.5239403247833252,-0.09639199823141098
1761915219843906000,6.056906005859375,-0.7277393341064453,-1.7616276741027832,-0.49048230051994324
1761915219853961000,6.0669609375,-0.7234253883361816,-1.8256891965866089,-0.6771727204322815
1761915219864014800,6.077014892578125,-0.8429219722747803,-1.4106166362762451,-0.6500963568687439
1761915219874069000,6.087069091796875,-1.034743309020996,-0.4505422115325928,-0.4095223844051361
1761915219884123000,6.097122802734375,-1.2481292486190796,0.7083286046981812,-0.009660732932388783
1761915219894177000,6.107177001953125,-1.3237348794937134,1.5832096338272095,0.3999466598033905
1761915219904231000,6.11723095703125,-1.168942928314209,1.783959984779358,0.6171266436576843
1761915219914285800,6.127285888671875,-0.8216139078140259,1.3168483972549438,0.5094711780548096
1761915219924340000,6.137340087890625,-0.35966676473617554,0.4461236298084259,0.02749735675752163
1761915219934393900,6.147393798828125,0.08566693216562271,-0.6658787131309509,-0.7218422293663025
1761915219944448000,6.157447998046875,0.40624120831489563,-1.6872265338897705,-1.3796387910842896
1761915219954502000,6.167501953125,0.542340874671936,-2.413161039352417,-1.6394671201705933
1761915219964556000,6.17755615234375,0.5643753409385681,-2.806593179702759,-1.5114809274673462
1761915219974610000,6.18760986328125,0.5253650546073914,-2.912292957305908,-1.1394561529159546
1761915219984664000,6.1976640625,0.39852219820022583,-2.6789040565490723,-0.6208900213241577
1761915219994718700,6.20771875,0.20218603312969208,-2.043246030807495,-0.011458523571491241
1761915220004772900,6.21777294921875,-0.0282966997474432,-1.1675629615783691,0.6223455667495728
1761915220014826800,6.22782666015625,-0.22311623394489288,-0.36463630199432373,1.1084399223327637
1761915220024881000,6.237880859375,-0.3384324312210083,-0.02358655259013176,1.2406142950057983
1761915220034935000,6.24793505859375,-0.38920947909355164,-0.16749371588230133,0.9315211772918701
1761915220044989000,6.257989013671875,-0.3948284685611725,-0.4577566981315613,0.29694533348083496
1761915220055043800,6.2680439453125,-0.40029627084732056,-0.5187219381332397,-0.41590121388435364
1761915220065097700,6.27809765625,-0.4335503578186035,-0.2927176356315613,-1.0056939125061035
1761915220075152000,6.28815185546875,-0.45863083004951477,0.0898343026638031,-1.3618769645690918
1761915220085205800,6.298205810546875,-0.4668394923210144,0.45252805948257446,-1.4465113878250122
1761915220095260000,6.308260009765625,-0.47923851013183594,0.6391074657440186,-1.291297435760498
1761915220105313800,6.318313720703125,-0.5071799159049988,0.7077773809432983,-0.9572643041610718
1761915220115368000,6.328367919921875,-0.5337159037590027,0.728408932685852,-0.5305997133255005
1761915220125422800,6.3384228515625,-0.5325417518615723,0.6932560205459595,-0.0807715356349945
1761915220135476700,6.348476806640625,-0.49899569153785706,0.6096839308738708,0.33508241176605225
1761915220145531000,6.35853076171875,-0.45532864332199097,0.5080121755599976,0.6827929615974426
1761915220155584800,6.368584716796875,-0.392681360244751,0.40724435448646545,0.9585021138191223
1761915220165639000,6.378638916015625,-0.3143061101436615,0.29200512170791626,1.155549168586731
1761915220175692800,6.38869287109375,-0.24296805262565613,0.11770527064800262,1.2905817031860352
1761915220185747000,6.398746826171875,-0.1858866661787033,-0.1724783480167389,1.3555625677108765
1761915220195801900,6.4088017578125,-0.13946610689163208,-0.5602073669433594,1.3750231266021729
1761915220205855700,6.418855712890625,-0.10614009946584702,-0.9296168088912964,1.404414176940918
1761915220215910000,6.428909912109375,-0.11069874465465546,-1.1706600189208984,1.457671046257019
1761915220225963800,6.4389638671875,-0.14567217230796814,-1.2834632396697998,1.4753693342208862
1761915220236018000,6.449017822265625,-0.16246899962425232,-1.32892644405365,1.3673536777496338
1761915220246071800,6.45907177734375,-0.14425058662891388,-1.3559772968292236,1.092476487159729
1761915220256126000,6.4691259765625,-0.10301149636507034,-1.5219054222106934,0.6745972633361816
1761915220266181000,6.47918115234375,-0.041107118129730225,-1.865779995918274,0.20336340367794037
1761915220276234800,6.48923486328125,0.050210386514663696,-2.130467653274536,-0.2120877057313919
1761915220286289000,6.499288818359375,0.1575099378824234,-2.152879238128662,-0.5459274649620056
1761915220296342800,6.5093427734375,0.21512718498706818,-2.0475916862487793,-0.8389055132865906
1761915220306397000,6.51939697265625,0.10348612815141678,-2.1465108394622803,-1.1450505256652832
1761915220316450800,6.529450927734375,-0.14994075894355774,-2.3213725090026855,-1.3784514665603638
1761915220326505000,6.5395048828125,-0.44082480669021606,-2.3799407482147217,-1.3859127759933472
1761915220336560000,6.54956005859375,-0.7322553396224976,-2.117652177810669,-1.0821179151535034
1761915220346613800,6.55961376953125,-0.8564052581787109,-1.7162435054779053,-0.6007574200630188
1761915220356668000,6.56966796875,-0.8648406863212585,-1.4943573474884033,-0.0898149311542511
1761915220366721800,6.5797216796875,-0.7728774547576904,-1.3250538110733032,0.38331854343414307
1761915220376776000,6.58977587890625,-0.6310254335403442,-1.3730792999267578,0.6209107637405396
1761915220386829800,6.599829833984375,-0.5084127187728882,-1.610733985900879,0.5840941667556763
1761915220396885000,6.609885009765625,-0.38124197721481323,-1.8339670896530151,0.3557441234588623
1761915220406939000,6.61993896484375,-0.23393109440803528,-1.8970528841018677,0.03618424013257027
1761915220416993000,6.629992919921875,-0.13092732429504395,-1.7266725301742554,-0.2929019629955292
1761915220427046700,6.640046630859375,-0.16130441427230835,-1.3601092100143433,-0.5512288808822632
1761915220437100800,6.650100830078125,-0.3361285626888275,-0.838517963886261,-0.7092036008834839
1761915220447155000,6.660155029296875,-0.592937707901001,-0.29587522149086,-0.8104876279830933
1761915220457208800,6.670208740234375,-0.8538563847541809,0.12693746387958527,-0.9125058054924011
1761915220467264000,6.680263916015625,-1.0759187936782837,0.3585376739501953,-1.037371277809143
1761915220477318000,6.69031787109375,-1.2067848443984985,0.32370418310165405,-1.1724516153335571
1761915220487372000,6.7003720703125,-1.2271862030029297,0.0900152325630188,-1.2412739992141724
1761915220497426000,6.710426025390625,-1.1504697799682617,-0.22512485086917877,-1.1784963607788086
1761915220507479800,6.720479736328125,-1.016345739364624,-0.4763823449611664,-0.9499406218528748
1761915220517533700,6.73053369140625,-0.8643200397491455,-0.5908669233322144,-0.5836220979690552
1761915220527587800,6.740587890625,-0.6878854036331177,-0.5472323298454285,-0.1404968500137329
1761915220537643000,6.75064306640625,-0.4990001320838928,-0.3326151669025421,0.31813812255859375
1761915220547697000,6.76069677734375,-0.3349427580833435,-0.022981928661465645,0.7256702184677124
1761915220557751000,6.7707509765625,-0.2481287717819214,0.2510882318019867,1.014193058013916
1761915220567805000,6.780804931640625,-0.28120124340057373,0.4001125991344452,1.1725232601165771
1761915220577858800,6.79085888671875,-0.400808721780777,0.45675501227378845,1.2059321403503418
1761915220587912700,6.80091259765625,-0.5422286987304688,0.441131055355072,1.1226273775100708
1761915220597968000,6.8109677734375,-0.6441254019737244,0.3684541881084442,0.9382312297821045
1761915220608022000,6.82102197265625,-0.7240349054336548,0.27400386333465576,0.6827566027641296
1761915220618076000,6.831075927734375,-0.7698667645454407,0.15496781468391418,0.39481428265571594
1761915220628130000,6.841130126953125,-0.7638370990753174,0.012430909089744091,0.105808325111866
1761915220638184000,6.851183837890625,-0.723766028881073,-0.1932840496301651,-0.1614828258752823
1761915220648238000,6.861238037109375,-0.6544977426528931,-0.3920895755290985,-0.35736072063446045
1761915220658292000,6.8712919921875,-0.5664084553718567,-0.4800669252872467,-0.4566246569156647
1761915220668347100,6.88134716796875,-0.4566683769226074,-0.3975051939487457,-0.4887807369232178
1761915220678401300,6.8914013671875,-0.31229451298713684,-0.09038981795310974,-0.47678691148757935
1761915220688455200,6.901455078125,-0.1166594848036766,0.3659159243106842,-0.4730619490146637
1761915220698509300,6.91150927734375,0.08927420526742935,0.6792265772819519,-0.5993471145629883
1761915220708563200,6.921563232421875,0.2556954026222229,0.7652333974838257,-0.8589882850646973
1761915220718617000,6.9316171875,0.3247019350528717,0.9693927764892578,-1.0424153804779053
1761915220728671000,6.9416708984375,0.20833593606948853,1.276401400566101,-1.0593658685684204
1761915220738726100,6.95172607421875,-0.03816552460193634,1.4201806783676147,-0.9373512864112854
1761915220748780300,6.9617802734375,-0.27877306938171387,1.347008466720581,-0.7460476756095886
1761915220758834200,6.971834228515625,-0.45664334297180176,0.9276323318481445,-0.5967823266983032
1761915220768888300,6.981888427734375,-0.5770688056945801,0.5325875282287598,-0.3956981897354126
1761915220778942200,6.991942138671875,-0.5393419861793518,0.5449548959732056,-0.020109105855226517
1761915220788996000,7.00199609375,-0.3018069565296173,0.6851122379302979,0.3818868100643158
1761915220799050000,7.012050048828125,0.04084020480513573,0.6239092350006104,0.5865493416786194
1761915220809105200,7.022105224609375,0.4450925886631012,0.4398757219314575,0.4986666738986969
1761915220819159000,7.032158935546875,0.8675478100776672,0.2055656909942627,0.12418083846569061
1761915220829213200,7.042213134765625,1.160370945930481,-0.035248517990112305,-0.3809369206428528
1761915220839267300,7.052267333984375,1.2300695180892944,-0.2593975365161896,-0.8719303607940674
1761915220849321200,7.0623212890625,1.1104713678359985,-0.30832168459892273,-1.1851117610931396
1761915220859375400,7.072375244140625,0.8615999221801758,-0.0926382765173912,-1.2558026313781738
1761915220869429000,7.082428955078125,0.5594142079353333,0.34847334027290344,-1.0445079803466797
1761915220879484200,7.092484130859375,0.21418596804141998,0.9006227850914001,-0.5910028219223022
1761915220889538000,7.1025380859375,-0.15047800540924072,1.2801858186721802,-0.0871005728840828
1761915220899592200,7.11259228515625,-0.44445496797561646,1.3248649835586548,0.24590149521827698
1761915220909646000,7.12264599609375,-0.5597520470619202,1.0393778085708618,0.3171282708644867
1761915220919700200,7.1327001953125,-0.5163750648498535,0.6096142530441284,0.188827782869339
1761915220929754400,7.14275439453125,-0.39627155661582947,0.18445977568626404,-0.03812920302152634
1761915220939809000,7.15280908203125,-0.26516276597976685,-0.11751140654087067,-0.24730433523654938
1761915220949863200,7.16286328125,-0.13237090408802032,-0.27059707045555115,-0.34263697266578674
1761915220959917000,7.1729169921875,-0.024123990908265114,-0.3150635361671448,-0.2767173945903778
1761915220969971200,7.18297119140625,0.03650367259979248,-0.2890697419643402,-0.08827982097864151
1761915220980025000,7.193025146484375,0.02002798207104206,-0.19986623525619507,0.1348247230052948
1761915220990079200,7.203079345703125,-0.028990959748625755,-0.05880419537425041,0.3091072738170624
1761915221000133000,7.213133056640625,-0.060508180409669876,0.1305924952030182,0.42375698685646057
1761915221010188000,7.22318798828125,-0.08712061494588852,0.3503706753253937,0.516790509223938
1761915221020242200,7.2332421875,-0.09040508419275284,0.5616868138313293,0.6218957901000977
1761915221030296000,7.243296142578125,-0.0732298195362091,0.7235355973243713,0.751144289970398
1761915221040350200,7.25335009765625,-0.0325063094496727,0.7687453627586365,0.9117991328239441
1761915221050404000,7.263404052734375,0.035638123750686646,0.667239248752594,1.1118794679641724
1761915221060458200,7.273458251953125,0.12798067927360535,0.4070030748844147,1.3063689470291138
1761915221070512000,7.28351220703125,0.2362014204263687,-0.03922901302576065,1.439289927482605
1761915221080567000,7.293567138671875,0.35008537769317627,-0.5962997078895569,1.5179651975631714
1761915221090621200,7.30362109375,0.4729585647583008,-1.1677894592285156,1.5907007455825806
1761915221100675000,7.313675048828125,0.5951781272888184,-1.594723105430603,1.6693599224090576
1761915221110729200,7.323729248046875,0.6932679414749146,-1.6980116367340088,1.7002722024917603
1761915221120783000,7.333783203125,0.7505971789360046,-1.4968724250793457,1.5662237405776978
1761915221130837200,7.343837158203125,0.7526459693908691,-1.2310572862625122,1.2006595134735107
1761915221140892000,7.353891845703125,0.6056178212165833,-1.249616265296936,0.6066012978553772
1761915221150946000,7.363946044921875,0.2690061926841736,-1.4866477251052856,-0.024030983448028564
1761915221161000200,7.374000244140625,-0.12733194231987,-1.737289547920227,-0.5914835333824158
1761915221171054000,7.38405419921875,-0.42428451776504517,-1.7954809665679932,-1.0542562007904053
1761915221181108200,7.394108154296875,-0.6315653324127197,-1.5782361030578613,-1.3538830280303955
1761915221191162000,7.404162109375,-0.7502132058143616,-0.8473935723304749,-1.3087499141693115
1761915221201216300,7.41421630859375,-0.7090371251106262,0.3267233073711395,-0.8261472582817078
1761915221211271200,7.424271240234375,-0.5071746110916138,1.3604609966278076,-0.07944905757904053
1761915221221325000,7.434324951171875,-0.19160190224647522,1.8997085094451904,0.6302425265312195
1761915221231379000,7.44437890625,0.13392426073551178,1.8761736154556274,1.0267970561981201
1761915221241433000,7.45443310546875,0.37889179587364197,1.363030195236206,1.0751428604125977
1761915221251487200,7.4644873046875,0.5497463345527649,0.6452018618583679,0.9367102384567261
1761915221261541000,7.474541015625,0.7311224937438965,-0.01170677412301302,0.8060041069984436
1761915221271595300,7.48459521484375,0.9079987406730652,-0.49975261092185974,0.7874911427497864
1761915221281650200,7.494650146484375,0.9721392393112183,-0.8119474649429321,0.9044463038444519
1761915221291704000,7.5047041015625,0.8831257224082947,-0.9255829453468323,1.1317048072814941
1761915221301758000,7.514758056640625,0.6365363001823425,-0.8416897058486938,1.384064793586731
1761915221311812000,7.52481201171875,0.29865413904190063,-0.640080988407135,1.597158432006836
1761915221321866000,7.534865966796875,-0.03185659646987915,-0.4266255497932434,1.7120510339736938
1761915221331920100,7.544920166015625,-0.31685131788253784,-0.25729936361312866,1.692614197731018
1761915221341975300,7.554975341796875,-0.5700566172599792,-0.12641040980815887,1.510096549987793
1761915221352029200,7.565029296875,-0.7888752222061157,-0.01767914742231369,1.1511341333389282
1761915221362083000,7.5750830078125,-0.9347449541091919,0.006526893936097622,0.667390763759613
1761915221372137000,7.585136962890625,-0.9947587251663208,-0.06868769228458405,0.13051345944404602
1761915221382191000,7.595191162109375,-0.989833652973175,-0.18235896527767181,-0.3405742943286896
1761915221392245000,7.605244873046875,-0.9575052857398987,-0.2407437115907669,-0.6643861532211304
1761915221402299100,7.615299072265625,-0.8852953910827637,-0.2562521994113922,-0.8382626175880432
1761915221412354300,7.625354248046875,-0.784997284412384,-0.22405007481575012,-0.8844780325889587
1761915221422408200,7.635408203125,-0.6884294748306274,-0.13803674280643463,-0.8308197855949402
1761915221432462300,7.64546240234375,-0.6261506676673889,0.018334491178393364,-0.6843997240066528
1761915221442516000,7.655515869140625,-0.6016134023666382,0.23568104207515717,-0.5058591365814209
1761915221452570000,7.665570068359375,-0.6231652498245239,0.4489094316959381,-0.34147313237190247
1761915221462624000,7.6756240234375,-0.6759000420570374,0.5514460206031799,-0.2476680725812912
1761915221472678100,7.68567822265625,-0.698705792427063,0.5321937799453735,-0.22316299378871918
1761915221482733300,7.6957333984375,-0.6664537191390991,0.42323392629623413,-0.24862660467624664
1761915221492787200,7.705787109375,-0.5795422196388245,0.2709527909755707,-0.3001217544078827
1761915221502841300,7.71584130859375,-0.4415356516838074,0.12707404792308807,-0.3740867078304291
1761915221512895200,7.725895263671875,-0.27334079146385193,-0.07638613879680634,-0.4791249930858612
1761915221522949000,7.73594921875,-0.06316003203392029,-0.17903688549995422,-0.5694491863250732
1761915221533003000,7.7460029296875,0.13880158960819244,-0.036283452063798904,-0.614600419998169
1761915221543057200,7.75605712890625,0.24402642250061035,0.24603334069252014,-0.7236177325248718
1761915221553112000,7.766112060546875,0.22840164601802826,0.4869532883167267,-0.992362380027771
1761915221563166200,7.776166259765625,-0.02460050769150257,0.07472142577171326,-1.4475667476654053
1761915221573220400,7.786220458984375,-0.5872790217399597,-0.6335608959197998,-1.8058139085769653
1761915221583274200,7.796274169921875,-1.1855465173721313,-0.831477165222168,-1.7911337614059448
1761915221593328000,7.806328125,-1.709439754486084,-0.7700867652893066,-1.5546921491622925
1761915221603382000,7.816382080078125,-2.153503179550171,-0.6653910279273987,-1.2362744808197021
1761915221613437200,7.826437255859375,-2.366658926010132,-0.4612565338611603,-0.8538621664047241
1761915221623491000,7.836490966796875,-2.1899588108062744,-0.2746877670288086,-0.450933575630188
1761915221633545200,7.846545166015625,-1.7785154581069946,-0.23168009519577026,-0.09510596096515656
1761915221643596300,7.85659619140625,-1.2454159259796143,-0.37055301666259766,0.10794884711503983
1761915221653650200,7.866650146484375,-0.7451703548431396,-0.70527583360672,0.062408529222011566
1761915221663704000,7.8767041015625,-0.39427652955055237,-0.9438554048538208,-0.1103600338101387
1761915221673758200,7.88675830078125,-0.20569942891597748,-0.997855544090271,-0.3246992230415344
1761915221683813000,7.896813232421875,-0.1312323361635208,-0.924633800983429,-0.5806095004081726
1761915221693867300,7.9068671875,-0.14054779708385468,-0.8173770904541016,-0.8026649355888367
1761915221703921200,7.916921142578125,-0.260759562253952,-0.661770224571228,-0.8923532366752625
1761915221713975300,7.926975341796875,-0.5085318684577942,-0.4628179371356964,-0.8072308897972107
1761915221724029200,7.937029296875,-0.8038366436958313,-0.19105195999145508,-0.589824914932251
1761915221734083000,7.9470830078125,-1.0632985830307007,0.0016408031806349754,-0.32729342579841614
1761915221744137200,7.95713720703125,-1.2553062438964844,0.100387804210186,-0.01359788328409195
1761915221754192100,7.967192138671875,-1.312476634979248,0.0029754929710179567,0.30751967430114746
1761915221764246300,7.977246337890625,-1.2408171892166138,-0.3140016198158264,0.5737240314483643
1761915221774300200,7.987300048828125,-1.050631046295166,-0.7562917470932007,0.7477735877037048
1761915221784354300,7.997354248046875,-0.8152085542678833,-1.1908923387527466,0.8230864405632019
1761915221794406100,8.00740625,-0.5921858549118042,-1.4971628189086914,0.79632169008255
1761915221804460300,8.017460205078125,-0.4361315667629242,-1.6126108169555664,0.6924291253089905
1761915221814514200,8.02751416015625,-0.3671937882900238,-1.5464744567871094,0.5367444753646851
1761915221824568300,8.037568359375,-0.3833690285682678,-1.3361105918884277,0.34224897623062134
1761915221834622200,8.047622314453125,-0.4869635999202728,-1.076170563697815,0.10935474932193756
1761915221844677000,8.057677001953126,-0.6571809649467468,-0.8478633165359497,-0.1152266263961792
1761915221854731000,8.06773095703125,-0.8427271246910095,-0.7060648798942566,-0.2848532199859619
1761915221864785200,8.07778515625,-1.0107462406158447,-0.6878390312194824,-0.3614615201950073
1761915221874839000,8.087839111328124,-1.1260157823562622,-0.7361671924591064,-0.3440822660923004
1761915221884893200,8.09789306640625,-1.159335732460022,-0.8043261766433716,-0.25749656558036804
1761915221894947300,8.107947265625,-1.0911228656768799,-0.8642870187759399,-0.13920561969280243
1761915221905002200,8.118002197265625,-0.9297683238983154,-0.8447887301445007,0.004529393278062344
1761915221915056000,8.12805615234375,-0.6902547478675842,-0.723725438117981,0.1647355854511261
1761915221925110000,8.138110107421875,-0.4030434489250183,-0.5272179245948792,0.3126124441623688
1761915221935164200,8.1481640625,-0.1113857552409172,-0.27137818932533264,0.4423272907733917
1761915221945218000,8.158218017578125,0.15344175696372986,-0.011546039022505283,0.5255213379859924
1761915221955272200,8.168272216796876,0.3426007628440857,0.0734143927693367,0.5253426432609558
1761915221965326000,8.178326171875,0.4513191282749176,-0.08921223878860474,0.4680796265602112
1761915221975381200,8.18838134765625,0.497165709733963,-0.3165106177330017,0.4163093864917755
1761915221985435100,8.19843505859375,0.5373232960700989,-0.4964991807937622,0.36157017946243286
1761915221995489000,8.208489013671874,0.5928915143013,-0.7267233729362488,0.17145989835262299
1761915222005543200,8.218543212890625,0.5837963819503784,-1.1857877969741821,-0.2795394957065582
1761915222015597000,8.22859716796875,0.4004534184932709,-1.5953396558761597,-0.8248046636581421
1761915222025651200,8.238651123046875,0.015696540474891663,-1.61851167678833,-1.2790006399154663
1761915222035705000,8.248705078125,-0.4630862772464752,-1.259931206703186,-1.5052835941314697
1761915222045760300,8.25876025390625,-0.9762914776802063,-0.4880838692188263,-1.4005255699157715
1761915222055814100,8.268814208984375,-1.297450304031372,0.6596083045005798,-0.9872844219207764
1761915222065868000,8.278867919921876,-1.4367899894714355,1.8014321327209473,-0.3476181626319885
1761915222075922200,8.288922119140626,-1.2748469114303589,3.002073049545288,0.4827493131160736
1761915222085976000,8.29897607421875,-0.7988279461860657,3.335291624069214,1.1235405206680298
1761915222096030200,8.3090302734375,-0.35185763239860535,2.475979804992676,1.3422224521636963
1761915222106085400,8.31908544921875,-0.0860457792878151,1.0057027339935303,1.2409846782684326
1761915222116139300,8.32913916015625,0.006871375255286694,-0.5304005742073059,1.0123485326766968
1761915222126193400,8.339193359375,0.0035492402967065573,-1.8122332096099854,0.7221400141716003
1761915222136247000,8.3492470703125,-0.051666609942913055,-2.832341432571411,0.3448377251625061
1761915222146301200,8.35930126953125,-0.12416031956672668,-3.514186382293701,-0.03524485602974892
1761915222156355000,8.36935498046875,-0.24939946830272675,-3.6808204650878906,-0.29603755474090576
1761915222166409200,8.3794091796875,-0.40574052929878235,-3.385248899459839,-0.4458678364753723
1761915222176464100,8.389464111328126,-0.591109573841095,-2.8348050117492676,-0.5214970707893372
1761915222186518300,8.399518310546876,-0.8083716630935669,-2.1146531105041504,-0.5541945099830627
1761915222196572400,8.409572509765624,-0.9592427015304565,-1.41287100315094,-0.5687334537506104
1761915222206626300,8.419626220703124,-0.9860870838165283,-0.8850406408309937,-0.5933692455291748
1761915222216680200,8.42968017578125,-0.8819604516029358,-0.5239666104316711,-0.6124886274337769
1761915222226734000,8.439734130859375,-0.6969334483146667,-0.22585970163345337,-0.5769018530845642
1761915222236788200,8.449788330078125,-0.520801305770874,0.06403178721666336,-0.4610561728477478
1761915222246843100,8.459843017578125,-0.37264472246170044,0.26345640420913696,-0.3166380822658539
1761915222256897300,8.469897216796875,-0.30230000615119934,0.31576913595199585,-0.1755102425813675
1761915222266951200,8.479951171875,-0.33630144596099854,0.24985156953334808,-0.020263919606804848
1761915222277005300,8.49000537109375,-0.4501608908176422,0.08944031596183777,0.16820719838142395
1761915222287059000,8.500058837890625,-0.6107705235481262,-0.09658634662628174,0.3983536660671234
1761915222297113000,8.510113037109376,-0.8087352514266968,-0.23027276992797852,0.6037616729736328
1761915222307168300,8.520168212890624,-0.9758910536766052,-0.2789528965950012,0.7423694133758545
1761915222317222100,8.53022216796875,-1.0920828580856323,-0.30071866512298584,0.7824382781982422
1761915222327276300,8.5402763671875,-1.1818026304244995,-0.30608370900154114,0.7311033606529236
1761915222337330200,8.550330078125,-1.23317289352417,-0.29458925127983093,0.6037872433662415
1761915222347384300,8.56038427734375,-1.2429895401000977,-0.31711456179618835,0.44908806681632996
1761915222357438200,8.570438232421875,-1.2213037014007568,-0.4547725319862366,0.28680089116096497
1761915222367492000,8.5804921875,-1.1738851070404053,-0.632925808429718,0.1732659786939621
1761915222377549000,8.590549072265626,-1.1044176816940308,-0.7310886383056641,0.14537256956100464
1761915222387603200,8.600603271484376,-1.0115584135055542,-0.7195490002632141,0.1751439869403839
1761915222397657000,8.610656982421874,-0.8458831310272217,-0.556145429611206,0.2553218901157379
1761915222407711200,8.620711181640624,-0.5981183648109436,-0.36468979716300964,0.33426642417907715
1761915222417765000,8.63076513671875,-0.3123643696308136,-0.3030890226364136,0.35035642981529236
1761915222427820300,8.6408203125,-0.04981448873877525,-0.2134115993976593,0.33317428827285767
1761915222437874200,8.650874267578125,0.15974833071231842,0.12625490128993988,0.3617454767227173
1761915222447928000,8.660927978515625,0.26714515686035156,0.5799025893211365,0.4207397699356079
1761915222457982200,8.670982177734375,0.1450653225183487,0.8305699825286865,0.451662540435791
1761915222468036000,8.6810361328125,-0.176585853099823,0.8806823492050171,0.4497005045413971
1761915222478090200,8.69109033203125,-0.5106586217880249,0.7330811619758606,0.45924073457717896
1761915222488145200,8.701145263671876,-0.7327229976654053,0.6234264969825745,0.5837525129318237
1761915222498199300,8.71119921875,-0.7950111627578735,0.7768208384513855,0.8373538851737976
1761915222508253200,8.721253173828124,-0.7052325010299683,1.1493624448776245,1.1005339622497559
1761915222518307300,8.731307373046874,-0.5115442872047424,1.3345870971679688,1.1550695896148682
1761915222528361000,8.74136083984375,-0.24869830906391144,0.9819145202636719,0.8517376780509949
1761915222538415000,8.7514150390625,-0.04256352037191391,-0.04069194570183754,0.16976578533649445
1761915222548469000,8.761468994140625,-0.03156411275267601,-1.043124794960022,-0.6099663972854614
1761915222558524200,8.771524169921875,-0.18629057705402374,-1.582903265953064,-1.1786298751831055
1761915222568578300,8.781578369140625,-0.29863056540489197,-1.5825353860855103,-1.4560036659240723
1761915222578632200,8.791632080078125,-0.3042501211166382,-1.1827245950698853,-1.4806475639343262
1761915222588686300,8.801686279296876,-0.27393200993537903,-0.6106383204460144,-1.3271840810775757
1761915222598740200,8.811740234375,-0.27132609486579895,-0.019483419135212898,-1.0702362060546875
1761915222608794000,8.821794189453126,-0.2512136697769165,0.4429527223110199,-0.8145251274108887
1761915222618848000,8.831847900390626,-0.12903636693954468,0.6476362943649292,-0.6558031439781189
1761915222628903200,8.841903076171874,0.09677769243717194,0.4267617464065552,-0.6892819404602051
1761915222638957300,8.851957275390625,0.31354010105133057,-0.24873918294906616,-0.9882015585899353
1761915222649014800,8.862014892578125,0.3886898458003998,-1.2055997848510742,-1.4555119276046753
1761915222659069000,8.87206884765625,0.3146483600139618,-2.119232416152954,-1.8402897119522095
1761915222669122800,8.882122802734376,0.20226030051708221,-2.600266695022583,-1.9432153701782227
1761915222679176700,8.8921767578125,0.11463165283203125,-2.603722095489502,-1.7092934846878052
1761915222689230800,8.90223095703125,0.03090807795524597,-1.6394933462142944,-1.2580087184906006
1761915222699285800,8.91228564453125,-0.20770342648029327,-0.7127252817153931,-0.860691487789154
1761915222709340000,8.92233984375,-0.5324365496635437,-0.4694809317588806,-0.5586238503456116
1761915222719393800,8.932393798828125,-0.7546133995056152,-0.2733497619628906,-0.2057960331439972
1761915222729448000,8.942447998046875,-0.7851479053497314,-0.043337590992450714,0.1817152053117752
1761915222739501800,8.952501708984375,-0.6741875410079956,-0.0002481770352460444,0.5224035382270813
1761915222749555700,8.9625556640625,-0.5069614052772522,-0.2839970290660858,0.7740260362625122
1761915222759611000,8.97261083984375,-0.3806532621383667,-0.7990414500236511,0.9521912336349487
1761915222769664800,8.982664794921876,-0.3678755462169647,-1.3239797353744507,1.118727684020996
1761915222779719000,8.992718994140626,-0.49224838614463806,-1.5614138841629028,1.3236565589904785
1761915222789772800,9.002772705078126,-0.6907258629798889,-1.424978494644165,1.5260684490203857
1761915222799827000,9.012826904296874,-0.8576062321662903,-1.0209351778030396,1.6651760339736938
1761915222809880800,9.022880859375,-0.9524620175361633,-0.4885818362236023,1.6863346099853516
1761915222819934700,9.032934814453125,-0.9837418794631958,0.029319385066628456,1.6094568967819214
1761915222829990000,9.042989990234375,-0.9559024572372437,0.45712050795555115,1.4340100288391113
1761915222840043800,9.053043701171875,-0.8542242646217346,0.8429539799690247,1.2360759973526
1761915222850098000,9.063097900390625,-0.6936944127082825,1.2046741247177124,1.0633172988891602
1761915222860151800,9.07315185546875,-0.5374755263328552,1.4061273336410522,0.8442385792732239
1761915222870206000,9.0832060546875,-0.4130115509033203,1.167056679725647,0.5104954242706299
1761915222880259800,9.093259765625,-0.285647988319397,0.46289828419685364,0.09862774610519409
1761915222890314000,9.10331396484375,-0.11234401166439056,-0.2656113803386688,-0.19448916614055634
1761915222900369000,9.113368896484374,0.031168676912784576,-0.6832400560379028,-0.2539793848991394
1761915222910422800,9.1234228515625,0.0538615807890892,-0.7801107168197632,-0.07880741357803345
1761915222920477000,9.133476806640624,-0.04135175421833992,-0.4943391680717468,0.2814735174179077
1761915222930530800,9.14353076171875,-0.2096274197101593,0.04632973670959473,0.7547330856323242
1761915222940585000,9.1535849609375,-0.37942153215408325,0.3819924294948578,1.179681658744812
1761915222950638800,9.163638916015625,-0.48098239302635193,0.6192632913589478,1.5317761898040771
1761915222960693800,9.17369384765625,-0.5003920793533325,0.743432343006134,1.7644143104553223
1761915222970747600,9.18374755859375,-0.4359685182571411,0.5966155529022217,1.8042598962783813
1761915222980801800,9.1938017578125,-0.3241274952888489,0.09755706042051315,1.559451699256897
1761915222990855700,9.203855712890626,-0.15895216166973114,-0.6731986403465271,1.030611515045166
1761915223000909800,9.213909912109376,0.05437610298395157,-1.3971704244613647,0.34625518321990967
1761915223010964000,9.2239638671875,0.3257884383201599,-1.7253388166427612,-0.27550527453422546
1761915223021017900,9.234017822265624,0.6180133819580078,-1.6775014400482178,-0.7311398983001709
1761915223031072800,9.24407275390625,0.789973258972168,-1.3747658729553223,-1.0481330156326294
1761915223041126700,9.254126708984375,0.7550075650215149,-0.8782884478569031,-1.2863037586212158
1761915223051180800,9.264180908203125,0.5859441161155701,-0.2324875146150589,-1.4564374685287476
1761915223061234700,9.274234619140625,0.40433061122894287,0.35902559757232666,-1.5524247884750366
1761915223071288800,9.284288818359375,0.2640283405780792,0.5646960139274597,-1.5688271522521973
1761915223081342700,9.2943427734375,0.17031675577163696,0.21782997250556946,-1.5435084104537964
1761915223091396900,9.30439697265625,0.17384523153305054,-0.4629939794540405,-1.4440157413482666
1761915223101451800,9.31445166015625,0.28750282526016235,-1.118586778640747,-1.209364891052246
1761915223111505700,9.324505615234376,0.4204603433609009,-1.3654767274856567,-0.8227764368057251
1761915223121559800,9.334559814453126,0.4794911742210388,-1.1242820024490356,-0.3860741853713989
1761915223131613700,9.34461376953125,0.4665467441082001,-0.6858738660812378,0.012289556674659252
1761915223141667800,9.354667724609374,0.3800736367702484,-0.16956180334091187,0.37305840849876404
1761915223151721700,9.3647216796875,0.19881317019462585,0.32303690910339355,0.6727217435836792
1761915223161777000,9.37477685546875,-0.07589215785264969,0.5409295558929443,0.9000486135482788
1761915223171830800,9.384830810546875,-0.38452696800231934,0.45501893758773804,1.0350993871688843
1761915223181884700,9.394884765625,-0.6502673029899597,0.23731856048107147,1.1148570775985718
1761915223191938800,9.404938720703125,-0.8182345032691956,0.043004877865314484,1.1577342748641968
1761915223201992700,9.41499267578125,-0.8944181799888611,-0.061033908277750015,1.1537169218063354
1761915223212046800,9.425046875,-0.887998640537262,0.0050535318441689014,1.1143702268600464
1761915223222100700,9.435100830078126,-0.8006989359855652,0.23572535812854767,1.0764776468276978
1761915223232156000,9.445156005859374,-0.6595798134803772,0.5215002298355103,1.0642420053482056
1761915223242209800,9.455209716796874,-0.5090409517288208,0.6952323913574219,1.0421130657196045
1761915223252263700,9.465263671875,-0.3915047347545624,0.6036877632141113,1.010258674621582
1761915223262317800,9.47531787109375,-0.31392043828964233,0.2750262916088104,1.009425163269043
1761915223272371700,9.485371826171875,-0.2680337131023407,0.06085288152098656,1.061052680015564
1761915223282425900,9.49542578125,-0.2137448936700821,0.20458315312862396,1.152421236038208
1761915223292479700,9.505479736328125,-0.11740384250879288,0.5438732504844666,1.2503774166107178
1761915223302535000,9.515534912109375,0.013488923199474812,0.7496786117553711,1.3248287439346313
1761915223312588800,9.5255888671875,0.15877383947372437,0.585305392742157,1.3621431589126587
1761915223322642700,9.535642578125,0.2551754415035248,0.12104055285453796,1.370593786239624
1761915223332696800,9.54569677734375,0.23863619565963745,-0.40700340270996094,1.310985803604126
1761915223342750700,9.555750732421876,0.13584190607070923,-0.8661603331565857,1.1263129711151123
1761915223352804900,9.565804931640624,0.025401150807738304,-1.247786045074463,0.8232261538505554
1761915223362858800,9.575858642578124,-0.041640736162662506,-1.2982046604156494,0.5289217829704285
1761915223372914000,9.585913818359375,-0.06496220827102661,-0.7089530825614929,0.437910795211792
1761915223382967800,9.5959677734375,-0.07199694961309433,0.4050429165363312,0.6014031171798706
1761915223393021700,9.606021728515625,-0.10536468029022217,1.2355165481567383,0.8334017395973206
1761915223403075600,9.61607568359375,-0.14412778615951538,1.4554500579833984,1.0350878238677979
1761915223413129700,9.626129638671875,-0.1746196448802948,1.3048032522201538,1.2058078050613403
1761915223423184000,9.636183837890625,-0.2401919960975647,0.8383282423019409,1.219591736793518
1761915223433238800,9.64623876953125,-0.3518860638141632,0.03394727036356926,0.9468748569488525
1761915223443293000,9.65629296875,-0.43528881669044495,-0.7494431138038635,0.44123324751853943
1761915223453346800,9.666346923828126,-0.45829272270202637,-1.1917132139205933,-0.17593395709991455
1761915223463401000,9.67640087890625,-0.4059956967830658,-1.2835525274276733,-0.7786360383033752
1761915223473454600,9.68645458984375,-0.23292268812656403,-1.1041120290756226,-1.2873947620391846
1761915223483508700,9.6965087890625,-0.010196132585406303,-0.6642797589302063,-1.65183424949646
1761915223493562600,9.706562744140625,0.13327206671237946,-0.032390642911195755,-1.8615927696228027
1761915223503616800,9.71661669921875,0.17314916849136353,0.5577549338340759,-1.9200831651687622
1761915223513672000,9.726671875,0.12426625937223434,0.9104111790657043,-1.833512544631958
1761915223523725800,9.736725830078125,0.004000029992312193,0.9580575227737427,-1.6154276132583618
1761915223533780000,9.746780029296875,-0.14153330028057098,0.8106260299682617,-1.2520647048950195
1761915223543833900,9.756833740234375,-0.29163146018981934,0.5835124254226685,-0.7916393280029297
1761915223553887700,9.7668876953125,-0.42327290773391724,0.38767069578170776,-0.2941722869873047
1761915223563941600,9.776941650390626,-0.4854457378387451,0.29375776648521423,0.1779097616672516
1761915223573996800,9.786996826171874,-0.4932226836681366,0.34007948637008667,0.6084067821502686
1761915223584051000,9.797051025390624,-0.4833061397075653,0.5521043539047241,0.9927805066108704
1761915223594104800,9.807104736328125,-0.5020651817321777,0.7826269268989563,1.3102750778198242
1761915223604159000,9.817158935546875,-0.5704418420791626,0.9094266891479492,1.5528573989868164
1761915223614212900,9.827212890625,-0.667815089225769,0.8089932203292847,1.6378116607666016
1761915223624266800,9.837266845703125,-0.7572475075721741,0.45888471603393555,1.6005479097366333
1761915223634320600,9.847320556640625,-0.8387889862060547,0.04690752550959587,1.4478868246078491
1761915223644375800,9.857375732421875,-0.896222710609436,-0.15603333711624146,1.2441896200180054
1761915223654426400,9.86742626953125,-0.8870795369148254,-0.09892528504133224,1.0229889154434204
1761915223664480500,9.87748046875,-0.7799150347709656,0.008739924058318138,0.8016006350517273
1761915223674534400,9.887534423828125,-0.5794082283973694,0.039342135190963745,0.5511969327926636
1761915223684588500,9.897588623046875,-0.2991166412830353,0.05127735808491707,0.2852368652820587
1761915223694642400,9.907642333984375,-0.006801510229706764,0.11164824664592743,0.07000148296356201
1761915223704696300,9.9176962890625,0.21093827486038208,0.33354681730270386,-0.016458304598927498
1761915223714751500,9.92775146484375,0.3005853295326233,0.7617331743240356,0.07285730540752411
1761915223724805400,9.937805419921874,0.27475637197494507,1.2396619319915771,0.2967178225517273
1761915223734859500,9.947859619140624,0.2156819999217987,1.5865544080734253,0.5770094394683838
1761915223744913400,9.957913330078124,0.20852422714233398,1.5595909357070923,0.8038868308067322
1761915223754967600,9.967967529296875,0.3564654588699341,1.4141443967819214,0.9680324792861938
1761915223765021400,9.978021484375,0.5547162294387817,1.3093067407608032,1.1038841009140015
1761915223775075300,9.988075439453125,0.6396834850311279,1.0861748456954956,1.1358907222747803
1761915223785130500,9.998130615234375,0.5616467595100403,0.4370684027671814,1.1165884733200073
1761915223795184400,10.008184326171875,0.3400793969631195,-0.9371147155761719,0.830863893032074
1761915223805238500,10.018238525390625,0.4069671034812927,-1.1592607498168945,0.5005730986595154
1761915223815292400,10.02829248046875,0.43815305829048157,-0.4414772689342499,0.43277597427368164
1761915223825346600,10.0383466796875,0.28378504514694214,0.33506160974502563,0.5349808931350708
1761915223835400400,10.048400390625,0.06668610125780106,0.9336755871772766,0.6860865354537964
1761915223845454300,10.058454345703124,0.020335111767053604,1.1690082550048828,0.8567237854003906
1761915223855509500,10.068509521484375,0.08496993780136108,0.7674568295478821,0.9245982766151428
