time,seconds_elapsed,z,y,x
1761915213862947600,0.075947509765625,-0.9377647638320923,-1.5405504703521729,-0.29667186737060547
1761915213873001500,0.08600146484375,-0.8445738554000854,-1.4920703172683716,-0.3171428143978119
1761915213883055600,0.0960556640625,-0.74337238073349,-1.3515275716781616,-0.29010239243507385
1761915213893110800,0.10611083984375,-0.6282088160514832,-1.1326311826705933,-0.20829728245735168
1761915213903164700,0.11616455078125,-0.511210560798645,-0.8811081647872925,-0.07372189313173294
1761915213913218800,0.12621875,-0.43426036834716797,-0.7488633394241333,0.05606486648321152
1761915213923272700,0.136272705078125,-0.43602392077445984,-0.8433663845062256,0.11040187627077103
1761915213933326800,0.146326904296875,-0.5345768332481384,-1.1539770364761353,0.10917975008487701
1761915213943380500,0.15638037109375,-0.6736950874328613,-1.5270403623580933,0.10693390667438507
1761915213953434600,0.1664345703125,-0.7545672655105591,-1.7968991994857788,0.13013003766536713
1761915213963489500,0.176489501953125,-0.7439319491386414,-1.9659502506256104,0.14759264886379242
1761915213973543700,0.186543701171875,-0.6601403951644897,-1.9416193962097168,0.17792285978794098
1761915213983597800,0.196597900390625,-0.5680035352706909,-1.7042495012283325,0.24116361141204834
1761915213993651700,0.206651611328125,-0.5401708483695984,-1.5730257034301758,0.30551543831825256
1761915214003705900,0.216705810546875,-0.631440281867981,-1.6351499557495117,0.3927174508571625
1761915214013759500,0.226759521484375,-0.8251053690910339,-1.6322399377822876,0.5387782454490662
1761915214023813600,0.236813720703125,-1.0427231788635254,-1.4081323146820068,0.7420757412910461
1761915214033868500,0.24686865234375,-1.2026609182357788,-1.0403423309326172,0.9290477633476257
1761915214043922700,0.256922607421875,-1.2025032043457031,-1.1459230184555054,0.9962478280067444
1761915214053976600,0.2669765625,-1.0927295684814453,-1.5113575458526611,0.9634554982185364
1761915214064030700,0.27703076171875,-0.9645569920539856,-2.068697690963745,0.8621070384979248
1761915214074084900,0.2870849609375,-0.8439309597015381,-2.606912136077881,0.7665086388587952
1761915214084138800,0.297138671875,-0.7391089797019958,-3.0741477012634277,0.7031764984130859
1761915214094192600,0.307192626953125,-0.6443502306938171,-3.3996527194976807,0.6821231842041016
1761915214104246500,0.31724658203125,-0.5507523417472839,-3.5637056827545166,0.7047504782676697
1761915214114301700,0.3273017578125,-0.4716886878013611,-3.5959103107452393,0.7606589794158936
1761915214124355600,0.33735546875,-0.4295090138912201,-3.4792940616607666,0.8377066254615784
1761915214134409700,0.34740966796875,-0.46006694436073303,-3.190614938735962,0.8713114857673645
1761915214144463600,0.357463623046875,-0.5968588590621948,-2.7323014736175537,0.7821158170700073
1761915214154517800,0.367517822265625,-0.8081189393997192,-2.180102586746216,0.5327603220939636
1761915214164571600,0.377571533203125,-1.0367845296859741,-1.6123487949371338,0.1725190430879593
1761915214174625500,0.38762548828125,-1.251145362854004,-1.0587260723114014,-0.23469479382038116
1761915214184680700,0.3976806640625,-1.4269778728485107,-0.540877640247345,-0.6304985880851746
1761915214194734600,0.407734619140625,-1.581843614578247,-0.08022213727235794,-0.9672790169715881
1761915214204788700,0.417788818359375,-1.7165883779525757,0.3385508954524994,-1.2197283506393433
1761915214214842600,0.427842529296875,-1.8184375762939453,0.6935452222824097,-1.3757597208023071
1761915214224896800,0.437896728515625,-1.867565631866455,0.9808754920959473,-1.4514946937561035
1761915214234950700,0.44795068359375,-1.871976375579834,1.172829270362854,-1.4716031551361084
1761915214245004500,0.458004638671875,-1.8359187841415405,1.266900897026062,-1.4498955011367798
1761915214255058400,0.468058349609375,-1.755492091178894,1.286321759223938,-1.3916656970977783
1761915214265113600,0.478113525390625,-1.6325558423995972,1.2424190044403076,-1.2946195602416992
1761915214275167700,0.488167724609375,-1.4677900075912476,1.154686450958252,-1.1427123546600342
1761915214285221600,0.4982216796875,-1.2824153900146484,1.0462369918823242,-0.946823000907898
1761915214295275800,0.50827587890625,-1.1019537448883057,0.8934226036071777,-0.7058937549591064
1761915214305329700,0.51832958984375,-0.9551440477371216,0.6927632689476013,-0.436386376619339
1761915214315383600,0.528383544921875,-0.8436611890792847,0.507253110408783,-0.1489436775445938
1761915214325437400,0.5384375,-0.7788528800010681,0.3284527063369751,0.13517726957798004
1761915214335492600,0.54849267578125,-0.7867355942726135,0.024391358718276024,0.37686392664909363
1761915214345546800,0.558546630859375,-0.8721162676811218,-0.40061718225479126,0.5824910998344421
1761915214355600600,0.5686005859375,-1.0077552795410156,-0.8018530011177063,0.7823371291160583
1761915214365654800,0.57865478515625,-1.1626570224761963,-1.1285743713378906,0.9468438029289246
1761915214375708700,0.588708740234375,-1.2964798212051392,-1.3698879480361938,1.0050612688064575
1761915214385762800,0.5987626953125,-1.3705846071243286,-1.6284942626953125,0.8814003467559814
1761915214395816400,0.60881640625,-1.3497800827026367,-2.065795421600342,0.5965177416801453
1761915214405870600,0.61887060546875,-1.2345823049545288,-2.2098488807678223,0.3156583607196808
1761915214415925800,0.62892578125,-1.005315899848938,-1.683010458946228,0.14604082703590393
1761915214425979600,0.638979736328125,-0.6720191240310669,-0.6420862674713135,0.010115751065313816
1761915214436033800,0.64903369140625,-0.35322117805480957,0.4266197681427002,-0.24552586674690247
1761915214446087700,0.659087646484375,-0.3320764899253845,1.1519354581832886,-0.59010910987854
1761915214456141800,0.669141845703125,-0.7055914998054504,1.4183764457702637,-0.8439748883247375
1761915214466195500,0.679195556640625,-1.3327611684799194,1.421205759048462,-0.8027403950691223
1761915214476249600,0.68924951171875,-1.7955633401870728,1.571691632270813,-0.34706369042396545
1761915214486304800,0.6993046875,-1.788593053817749,1.6751182079315186,0.29168590903282166
1761915214496358700,0.709358642578125,-1.4473528861999512,1.555450439453125,0.8543609976768494
1761915214506412800,0.719412841796875,-0.9818931221961975,1.2569116353988647,1.2334933280944824
1761915214516466700,0.729466796875,-0.5061292052268982,0.6824371814727783,1.4405235052108765
1761915214526520800,0.739520751953125,-0.14150066673755646,-0.2038913518190384,1.5202226638793945
1761915214536574700,0.74957470703125,0.03497689217329025,-1.1018927097320557,1.5515211820602417
1761915214546628600,0.759628662109375,0.00957086868584156,-1.7859621047973633,1.5417441129684448
1761915214556683500,0.76968359375,-0.14606718719005585,-2.301866292953491,1.4166831970214844
1761915214566737700,0.779737548828125,-0.36072197556495667,-2.5772461891174316,1.1621267795562744
1761915214576791600,0.78979150390625,-0.5630910396575928,-2.491504430770874,0.781471312046051
1761915214586845700,0.799845703125,-0.7376996278762817,-2.1451303958892822,0.24649660289287567
1761915214596899800,0.80989990234375,-0.9100508689880371,-1.6825859546661377,-0.4097033739089966
1761915214606953700,0.81995361328125,-1.0626063346862793,-1.1645958423614502,-1.1187902688980103
1761915214617007600,0.830007568359375,-1.1717466115951538,-0.7431849241256714,-1.784769892692566
1761915214627061500,0.8400615234375,-1.2515943050384521,-0.39143407344818115,-2.282926559448242
1761915214637116700,0.85011669921875,-1.294630765914917,-0.1677490472793579,-2.544297218322754
1761915214647170600,0.860170654296875,-1.2907449007034302,-0.037693582475185394,-2.5099191665649414
1761915214657224700,0.870224609375,-1.228554606437683,0.04812465235590935,-2.2142879962921143
1761915214667278600,0.880278564453125,-1.1076960563659668,0.11930136382579803,-1.7271928787231445
1761915214677332700,0.890332763671875,-0.952710747718811,0.1573462188243866,-1.1492950916290283
1761915214687386600,0.90038671875,-0.825482964515686,0.11394201219081879,-0.5905730128288269
1761915214697440500,0.9104404296875,-0.7718578577041626,-0.05569974705576897,-0.12839099764823914
1761915214707495700,0.92049560546875,-0.7829973101615906,-0.29291069507598877,0.21690168976783752
1761915214717549600,0.930549560546875,-0.8259139060974121,-0.5873673558235168,0.48050349950790405
1761915214727603700,0.940603759765625,-0.9000000953674316,-0.9016525745391846,0.7449942827224731
1761915214737657600,0.95065771484375,-0.9922048449516296,-1.1126269102096558,1.0658801794052124
1761915214747711700,0.960711669921875,-1.1164705753326416,-1.232765555381775,1.4001054763793945
1761915214757765600,0.970765625,-1.2088698148727417,-1.3171805143356323,1.6593208312988281
1761915214767819500,0.980819580078125,-1.278484582901001,-1.412082552909851,1.7840598821640015
1761915214777874700,0.990874755859375,-1.3394203186035156,-1.4990794658660889,1.7565810680389404
1761915214787928600,1.000928466796875,-1.4012954235076904,-1.607386589050293,1.5879582166671753
1761915214797982700,1.010982666015625,-1.4937795400619507,-1.6547937393188477,1.331979513168335
1761915214808036600,1.02103662109375,-1.6060233116149902,-1.606882929801941,1.0296494960784912
1761915214818090800,1.0310908203125,-1.7088903188705444,-1.5121372938156128,0.6885035634040833
1761915214828144600,1.04114453125,-1.8006761074066162,-1.4432237148284912,0.3389807343482971
1761915214838198800,1.05119873046875,-1.841192603111267,-1.4739043712615967,0.056300289928913116
1761915214848252400,1.06125244140625,-1.7848780155181885,-1.5749716758728027,-0.07487211376428604
1761915214858307600,1.0713076171875,-1.5808095932006836,-1.5057754516601562,0.026369821280241013
1761915214868361700,1.08136181640625,-1.227524995803833,-1.060544490814209,0.3245637118816376
1761915214878415600,1.09141552734375,-0.7990527153015137,-0.5091513991355896,0.6057077646255493
1761915214888469800,1.1014697265625,-0.4815397262573242,-0.3358174264431,0.6612322926521301
1761915214898523600,1.111523681640625,-0.418040931224823,-0.7566975355148315,0.534231960773468
1761915214908577800,1.121577880859375,-0.5888648629188538,-1.3948521614074707,0.4923692047595978
1761915214918631700,1.131631591796875,-0.8651292324066162,-1.8772995471954346,0.660430371761322
1761915214928686600,1.1416865234375,-1.1574419736862183,-2.027419328689575,1.0214775800704956
1761915214938740700,1.15174072265625,-1.3132880926132202,-1.8695241212844849,1.4148043394088745
1761915214948794600,1.161794677734375,-1.202129602432251,-1.5496779680252075,1.6001701354980469
1761915214958848800,1.171848876953125,-0.8106438517570496,-1.2280194759368896,1.5131313800811768
1761915214968902700,1.181902587890625,-0.2773011028766632,-1.0149208307266235,1.2071938514709473
1761915214978956800,1.191956787109375,0.16641481220722198,-1.0592224597930908,0.8136940002441406
1761915214989010700,1.2020107421875,0.42942699790000916,-1.240991234779358,0.5176359415054321
1761915214999065600,1.212065673828125,0.5507992506027222,-1.4593409299850464,0.3815992772579193
1761915215009119700,1.22211962890625,0.5339241027832031,-1.602922797203064,0.33026552200317383
1761915215019173600,1.232173583984375,0.4649735391139984,-1.596489667892456,0.2806287407875061
1761915215029227800,1.242227783203125,0.38871872425079346,-1.4326304197311401,0.21819518506526947
1761915215039281700,1.25228173828125,0.2608334720134735,-1.1483947038650513,0.17267563939094543
1761915215049335800,1.262335693359375,0.05961672589182854,-0.8185701966285706,0.14820490777492523
1761915215059389700,1.2723896484375,-0.18307101726531982,-0.5459312200546265,0.089454784989357
1761915215069443600,1.282443603515625,-0.42806586623191833,-0.38515859842300415,-0.014536865055561066
1761915215079498500,1.29249853515625,-0.6310679912567139,-0.31778648495674133,-0.09950768202543259
1761915215089552600,1.302552734375,-0.753978431224823,-0.2579002380371094,-0.09042630344629288
1761915215099606800,1.312606689453125,-0.7804571986198425,-0.21569740772247314,0.014901185408234596
1761915215109660700,1.32266064453125,-0.7240359783172607,-0.142729714512825,0.17176057398319244
1761915215119714800,1.33271484375,-0.6289225220680237,-0.017978733405470848,0.3216155767440796
1761915215129768700,1.342768798828125,-0.5113914012908936,0.18014712631702423,0.45298638939857483
1761915215139822800,1.35282275390625,-0.3905315399169922,0.4214004874229431,0.572038471698761
1761915215149877500,1.36287744140625,-0.26223161816596985,0.636672854423523,0.6779239177703857
1761915215159931600,1.372931640625,-0.13804762065410614,0.7715556025505066,0.7533499598503113
1761915215169985500,1.382985595703125,-0.032468728721141815,0.823908269405365,0.8114097714424133
1761915215180039700,1.393039794921875,0.0458013117313385,0.7627010941505432,0.8704728484153748
1761915215190093800,1.40309375,0.09996015578508377,0.6292913556098938,0.9431382417678833
1761915215200147700,1.413147705078125,0.13082724809646606,0.47617772221565247,1.0269532203674316
1761915215210201900,1.423201904296875,0.11275450885295868,0.31187906861305237,1.0784486532211304
1761915215220256500,1.433256591796875,0.07013247907161713,0.1599305421113968,1.0516629219055176
1761915215230310700,1.443310546875,0.0059841228649020195,0.04507719725370407,0.9358273148536682
1761915215240364500,1.453364501953125,-0.08066501468420029,-0.06518326699733734,0.7401313185691833
1761915215250418700,1.463418701171875,-0.18933610618114471,-0.11607254296541214,0.5082488656044006
1761915215260472600,1.47347265625,-0.31922805309295654,-0.13628540933132172,0.26455041766166687
1761915215270526700,1.483526611328125,-0.4699331521987915,-0.17037972807884216,0.0018218684708699584
1761915215280580900,1.493580810546875,-0.6554657220840454,-0.2531457245349884,-0.27576765418052673
1761915215290635500,1.503635498046875,-0.8503390550613403,-0.3905600309371948,-0.5608947277069092
1761915215300689700,1.513689697265625,-0.9785316586494446,-0.4684942364692688,-0.780131995677948
1761915215310743600,1.52374365234375,-0.9169673919677734,-0.2271077185869217,-0.8194253444671631
1761915215320797700,1.533797607421875,-0.6254801154136658,0.37987834215164185,-0.7092751860618591
1761915215330851600,1.5438515625,-0.23413020372390747,1.0775730609893799,-0.612831711769104
1761915215340905700,1.55390576171875,0.08798125386238098,1.5442296266555786,-0.616417407989502
1761915215350959600,1.563959716796875,0.1311793178319931,1.5244625806808472,-0.7026750445365906
1761915215361013800,1.574013671875,-0.1555086374282837,1.0738706588745117,-0.7168204188346863
1761915215371068700,1.584068603515625,-0.631810188293457,0.6321289539337158,-0.5103812217712402
1761915215381122600,1.59412255859375,-1.0684304237365723,0.5436851382255554,-0.028317125514149666
1761915215391176700,1.6041767578125,-1.1967772245407104,0.8613557815551758,0.568151593208313
1761915215401230600,1.614230712890625,-0.9882037043571472,0.9767494797706604,0.9180185198783875
1761915215411284700,1.62428466796875,-0.6714798212051392,0.5450827479362488,0.8077042698860168
1761915215421338600,1.634338623046875,-0.4124610722064972,-0.14192011952400208,0.34961286187171936
1761915215431392800,1.644392822265625,-0.3335566520690918,-0.788041889667511,-0.19663237035274506
1761915215441447700,1.65444775390625,-0.3791979253292084,-1.0597196817398071,-0.6048837900161743
1761915215451501600,1.66450146484375,-0.38660603761672974,-0.9449889063835144,-0.7957069873809814
1761915215461555700,1.6745556640625,-0.32230108976364136,-0.6587755084037781,-0.8560312986373901
1761915215471609600,1.684609619140625,-0.21994169056415558,-0.36168789863586426,-0.8859236836433411
1761915215481663700,1.694663818359375,-0.1174193024635315,-0.16880899667739868,-0.9680595993995667
1761915215491717600,1.704717529296875,-0.034811511635780334,-0.17845124006271362,-1.1153064966201782
1761915215501771800,1.714771728515625,0.02292156033217907,-0.3777148127555847,-1.2547978162765503
1761915215511826700,1.72482666015625,0.04946129396557808,-0.73589026927948,-1.2799389362335205
1761915215521880600,1.734880615234375,-0.01751427911221981,-1.2324230670928955,-1.1179635524749756
1761915215531934700,1.744934814453125,-0.23479600250720978,-1.8035398721694946,-0.7635956406593323
1761915215541988600,1.754988525390625,-0.5026457905769348,-2.2555019855499268,-0.28140556812286377
1761915215552042800,1.765042724609375,-0.7412317395210266,-2.4734222888946533,0.21350376307964325
1761915215562096600,1.7750966796875,-0.9398460388183594,-2.4586539268493652,0.6029444336891174
1761915215572150800,1.78515087890625,-1.1035284996032715,-2.295085906982422,0.8389151692390442
1761915215582204700,1.79520458984375,-1.227532148361206,-2.0814712047576904,0.9177410006523132
1761915215592259600,1.805259521484375,-1.316164255142212,-1.856222152709961,0.8605599999427795
1761915215602313700,1.815313720703125,-1.3576792478561401,-1.663516640663147,0.6843650341033936
1761915215612367600,1.82536767578125,-1.3284937143325806,-1.4780287742614746,0.4595942199230194
1761915215622421800,1.835421875,-1.2359507083892822,-1.3024919033050537,0.25831809639930725
1761915215632475600,1.8454755859375,-1.1057745218276978,-1.1225316524505615,0.15541115403175354
1761915215642530000,1.855530029296875,-0.9632347226142883,-0.9611380100250244,0.17718303203582764
1761915215652584000,1.865583984375,-0.8377076983451843,-0.8472029566764832,0.2958652079105377
1761915215662638800,1.875638916015625,-0.7474326491355896,-0.755090057849884,0.44469916820526123
1761915215672693000,1.88569287109375,-0.6634370684623718,-0.6826779246330261,0.5613994002342224
1761915215682747000,1.895746826171875,-0.5681702494621277,-0.6178592443466187,0.6368944644927979
1761915215692801000,1.905801025390625,-0.46646782755851746,-0.5687310695648193,0.6849972605705261
1761915215702855000,1.91585498046875,-0.34464818239212036,-0.6115294098854065,0.7019088864326477
1761915215712909000,1.925908935546875,-0.2423418015241623,-0.7542935013771057,0.6559799909591675
1761915215722963000,1.935962890625,-0.19328290224075317,-0.9490329027175903,0.5604633092880249
1761915215733017900,1.946017822265625,-0.20577660202980042,-1.0603681802749634,0.4368596076965332
1761915215743072000,1.956072021484375,-0.2546703815460205,-1.0050657987594604,0.3234798014163971
1761915215753126000,1.9661259765625,-0.2724160850048065,-0.6707581281661987,0.18418501317501068
1761915215763180000,1.976179931640625,-0.2701832950115204,-0.21643349528312683,-0.07382974773645401
1761915215773234000,1.98623388671875,-0.46819037199020386,-0.15565404295921326,-0.515103280544281
1761915215783288000,1.9962880859375,-0.8940266370773315,-0.2731953263282776,-0.972289502620697
1761915215793342000,2.006342041015625,-1.3031342029571533,-0.1460765153169632,-1.198246717453003
1761915215803396900,2.01639697265625,-1.5904821157455444,0.18817469477653503,-1.0682545900344849
1761915215813451000,2.026450927734375,-1.7226414680480957,0.7567838430404663,-0.635542631149292
1761915215823505000,2.0365048828125,-1.550665259361267,1.4062858819961548,-0.13944044709205627
1761915215833559000,2.04655908203125,-1.060219645500183,1.754976511001587,0.1613960862159729
1761915215843613000,2.056613037109375,-0.48510703444480896,1.6384544372558594,0.1928224414587021
1761915215853667000,2.0666669921875,0.027288345620036125,1.2686313390731812,0.12544606626033783
1761915215863721000,2.076720947265625,0.38510721921920776,0.7470625042915344,0.09344419836997986
1761915215873775000,2.086775146484375,0.5800018310546875,0.23926317691802979,0.2055254578590393
1761915215883829800,2.096829833984375,0.6679426431655884,-0.2178678810596466,0.4576980471611023
1761915215893884000,2.1068837890625,0.7337932586669922,-0.5851523876190186,0.7644031047821045
1761915215903937800,2.116937744140625,0.8383801579475403,-0.7788848876953125,1.0443801879882812
1761915215913992000,2.126991943359375,0.9852031469345093,-0.7965474724769592,1.2433122396469116
1761915215924046000,2.137046142578125,1.120983362197876,-0.5992091298103333,1.3199981451034546
1761915215934100000,2.147099853515625,1.21506667137146,-0.23749804496765137,1.2229198217391968
1761915215944154000,2.157154052734375,1.267590045928955,0.16954456269741058,0.9379115104675293
1761915215954208800,2.167208740234375,1.2908706665039062,0.4649490416049957,0.47622033953666687
1761915215964263000,2.177262939453125,1.3107255697250366,0.5241045355796814,-0.12106410413980484
1761915215974316800,2.18731689453125,1.3219434022903442,0.4317934811115265,-0.7048766613006592
1761915215984371000,2.197370849609375,1.2931023836135864,0.2370343804359436,-1.1365338563919067
1761915215994424800,2.2074248046875,1.203784465789795,0.0011416971683502197,-1.3392366170883179
1761915216004479000,2.21747900390625,1.0591018199920654,-0.2082645148038864,-1.3223146200180054
1761915216014533000,2.227533203125,0.8823803663253784,-0.4041464030742645,-1.1527687311172485
1761915216024587800,2.237587890625,0.6718132495880127,-0.5363984704017639,-0.8829447031021118
1761915216034642000,2.247641845703125,0.44139736890792847,-0.5239503383636475,-0.5728685855865479
1761915216044695800,2.25769580078125,0.2215997725725174,-0.37996917963027954,-0.2823307514190674
1761915216054750000,2.26775,0.03886883705854416,-0.15314294397830963,-0.06939345598220825
1761915216064803800,2.277803955078125,-0.08147994428873062,0.10452241450548172,0.04181722179055214
1761915216074858000,2.28785791015625,-0.15014183521270752,0.3622594177722931,0.06025641784071922
1761915216084911900,2.297911865234375,-0.18265530467033386,0.6188651323318481,0.023017967119812965
1761915216094966000,2.307966064453125,-0.18339060246944427,0.8627898693084717,-0.0312252976000309
1761915216105021000,2.31802099609375,-0.11116247624158859,0.9844553470611572,-0.12760882079601288
1761915216115074800,2.32807470703125,0.0234691072255373,0.9197865724563599,-0.2583119869232178
1761915216125129000,2.33812890625,0.19350874423980713,0.7647520303726196,-0.3940759301185608
1761915216135182800,2.348182861328125,0.3514813482761383,0.5213590264320374,-0.529220700263977
1761915216145237000,2.358237060546875,0.4533408582210541,0.23603516817092896,-0.6505612730979919
1761915216155291000,2.368290771484375,0.4532167613506317,-0.09951859712600708,-0.7765487432479858
1761915216165345000,2.378344970703125,0.3528270423412323,-0.3773896396160126,-0.8682469725608826
1761915216175400000,2.38839990234375,0.21074099838733673,-0.41729602217674255,-0.857982873916626
1761915216185453800,2.398453857421875,0.13669446110725403,-0.03721101954579353,-0.6609992384910583
1761915216195508000,2.408508056640625,0.17990824580192566,0.766372799873352,-0.36380696296691895
1761915216205561900,2.418561767578125,0.24117159843444824,1.5684133768081665,-0.2504716217517853
1761915216215616000,2.428615966796875,0.03514227271080017,1.7668044567108154,-0.552453339099884
1761915216225670000,2.438669921875,-0.46639859676361084,1.5450749397277832,-1.0869606733322144
1761915216235724000,2.44872412109375,-1.009281873703003,1.198692798614502,-1.4514235258102417
1761915216245779000,2.458779052734375,-1.4469242095947266,0.954359769821167,-1.4058289527893066
1761915216255832800,2.468832763671875,-1.5774643421173096,1.0711747407913208,-0.9708276987075806
1761915216265887000,2.478886962890625,-1.331388235092163,1.2228457927703857,-0.3862782120704651
1761915216275940900,2.48894091796875,-0.862091600894928,1.1083061695098877,0.11498810350894928
1761915216285995000,2.4989951171875,-0.40436798334121704,0.8195995092391968,0.4445289969444275
1761915216296049000,2.509048828125,-0.07183610647916794,0.44016700983047485,0.6392664909362793
1761915216306103000,2.51910302734375,0.14764511585235596,-0.016019979491829872,0.7466630339622498
1761915216316157000,2.529156982421875,0.23743386566638947,-0.5168447494506836,0.8059673309326172
1761915216326211800,2.5392119140625,0.18316449224948883,-1.0626713037490845,0.8211529850959778
1761915216336266000,2.549265869140625,0.03763020038604736,-1.5533989667892456,0.7518244981765747
1761915216346320000,2.55931982421875,-0.15753929316997528,-1.8237539529800415,0.600350022315979
1761915216356374000,2.5693740234375,-0.42455047369003296,-1.7650150060653687,0.3763134479522705
1761915216366428000,2.579427978515625,-0.7434096932411194,-1.352452039718628,0.1432407796382904
1761915216376482000,2.58948193359375,-1.0135070085525513,-0.7062695026397705,-0.044375188648700714
1761915216386536000,2.599535888671875,-1.1710162162780762,-0.05487336963415146,-0.12974920868873596
1761915216396590800,2.6095908203125,-1.2093532085418701,0.4956960380077362,-0.05330529808998108
1761915216406644700,2.619644775390625,-1.1614018678665161,0.8401655554771423,0.20339307188987732
1761915216416699000,2.629698974609375,-1.0325994491577148,0.8598760962486267,0.5958239436149597
1761915216426753000,2.6397529296875,-0.8532256484031677,0.4722927212715149,1.063171148300171
1761915216436807000,2.649806884765625,-0.6883019804954529,-0.31202155351638794,1.5048353672027588
1761915216446861000,2.659861083984375,-0.6159992814064026,-1.2689632177352905,1.8340964317321777
1761915216456915000,2.6699150390625,-0.6625734567642212,-2.152700901031494,1.9994877576828003
1761915216466969900,2.679969970703125,-0.7891124486923218,-2.803328275680542,1.9997739791870117
1761915216477023700,2.690023681640625,-0.9390425682067871,-3.1843438148498535,1.8840514421463013
1761915216487078000,2.700077880859375,-1.0838663578033447,-3.3205857276916504,1.7302043437957764
1761915216497131800,2.7101318359375,-1.1776434183120728,-3.210752248764038,1.5815608501434326
1761915216507186000,2.72018603515625,-1.18350350856781,-2.9430160522460938,1.457582950592041
1761915216517240000,2.730239990234375,-1.1153521537780762,-2.6281228065490723,1.3647406101226807
1761915216527294000,2.7402939453125,-1.0091655254364014,-2.358288526535034,1.2918165922164917
1761915216537348900,2.750348876953125,-0.891749382019043,-2.098083257675171,1.2449619770050049
1761915216547402800,2.76040283203125,-0.7868346571922302,-1.8385521173477173,1.2103691101074219
1761915216557457000,2.770456787109375,-0.6963324546813965,-1.587360143661499,1.1494519710540771
1761915216567510800,2.7805107421875,-0.620081901550293,-1.4107062816619873,1.0751292705535889
1761915216577565000,2.79056494140625,-0.5767322778701782,-1.3528767824172974,0.9872511029243469
1761915216587618800,2.800618896484375,-0.5884789824485779,-1.4013530015945435,0.8722802996635437
1761915216597673000,2.8106728515625,-0.6415467262268066,-1.4469468593597412,0.7366162538528442
1761915216607727000,2.82072705078125,-0.7406389713287354,-1.532460331916809,0.5677438378334045
1761915216617781800,2.83078173828125,-0.8373450040817261,-1.6402355432510376,0.3917999863624573
1761915216627836000,2.8408359375,-0.8761181831359863,-1.6724933385849,0.2702410817146301
1761915216637889800,2.850889892578125,-0.8515049815177917,-1.4352803230285645,0.21903008222579956
1761915216647943700,2.860943603515625,-0.7151799201965332,-0.914316713809967,0.18151307106018066
1761915216657997600,2.87099755859375,-0.5170641541481018,-0.4884849786758423,0.06258881092071533
1761915216668051700,2.8810517578125,-0.45976200699806213,-0.529299795627594,-0.13169704377651215
1761915216678105600,2.891105712890625,-0.649375855922699,-0.9141433238983154,-0.2587665915489197
1761915216688160800,2.901160888671875,-0.9847964644432068,-1.2622907161712646,-0.2763034999370575
1761915216698214700,2.911214599609375,-1.32076895236969,-1.4078971147537231,-0.22796845436096191
1761915216708268500,2.9212685546875,-1.5900605916976929,-1.1104236841201782,-0.09798595309257507
1761915216718322700,2.93132275390625,-1.5736805200576782,-0.3818887770175934,0.0480804443359375
1761915216728376600,2.94137646484375,-1.2280187606811523,0.31886985898017883,0.09632493555545807
1761915216738430700,2.9514306640625,-0.8166218400001526,0.6433270573616028,-0.04339807480573654
1761915216748484600,2.961484619140625,-0.46049755811691284,0.6049274206161499,-0.3449280858039856
1761915216758538800,2.971538818359375,-0.20838943123817444,0.38275375962257385,-0.6795992851257324
1761915216768593700,2.98159375,-0.05044107139110565,0.22160430252552032,-0.8428865075111389
1761915216778647600,2.9916474609375,0.05645821616053581,0.2169264554977417,-0.7434291243553162
1761915216788701400,3.001701416015625,0.17039063572883606,0.29318422079086304,-0.45961686968803406
1761915216798755600,3.011755615234375,0.3347657322883606,0.361786425113678,-0.08357931673526764
1761915216808809700,3.021809814453125,0.533934473991394,0.4031567871570587,0.3005529046058655
1761915216818863600,3.031863525390625,0.7358899712562561,0.4170707166194916,0.612980842590332
1761915216828917800,3.041917724609375,0.9021700620651245,0.4253228008747101,0.8075527548789978
1761915216838972700,3.05197265625,0.9906559586524963,0.33539265394210815,0.7919545769691467
1761915216849026600,3.062026611328125,0.973874568939209,0.11628692597150803,0.5343848466873169
1761915216859080400,3.07208056640625,0.897280216217041,-0.1682601124048233,0.09821099042892456
1761915216869134600,3.082134521484375,0.7711132168769836,-0.4164443612098694,-0.3810397684574127
1761915216879188500,3.0921884765625,0.5594630241394043,-0.5206671357154846,-0.7622912526130676
1761915216889242600,3.10224267578125,0.2837289273738861,-0.4643370509147644,-0.9812193512916565
1761915216899296800,3.112296875,-0.014737932942807674,-0.2830418348312378,-1.0456715822219849
1761915216909351700,3.1223515625,-0.28375181555747986,-0.021267205476760864,-0.992779552936554
1761915216919405800,3.13240576171875,-0.48782214522361755,0.2625410854816437,-0.8478143811225891
1761915216929459500,3.14245947265625,-0.6262391209602356,0.5064041018486023,-0.6673391461372375
1761915216939513600,3.152513671875,-0.6981514096260071,0.6699551939964294,-0.4758056700229645
1761915216949567500,3.1625673828125,-0.733957052230835,0.7888144850730896,-0.2891007959842682
1761915216959621600,3.17262158203125,-0.7293332815170288,0.8829383254051208,-0.12575367093086243
1761915216969675500,3.182675537109375,-0.6837892532348633,0.9375168681144714,0.0007499461644329131
1761915216979729700,3.192729736328125,-0.5972506403923035,0.9379549622535706,0.059952814131975174
1761915216989784800,3.202784912109375,-0.47790345549583435,0.818386971950531,0.05487123876810074
1761915216999838500,3.21283837890625,-0.31516194343566895,0.6754082441329956,-0.00038935415796004236
1761915217009892600,3.222892578125,-0.13297216594219208,0.5145874619483948,-0.08699747920036316
1761915217019946500,3.232946533203125,0.03353452309966087,0.2299588918685913,-0.14601925015449524
1761915217030000600,3.243000732421875,0.10249362140893936,-0.12289343029260635,-0.12501171231269836
1761915217040054500,3.253054443359375,0.009608152322471142,-0.46990305185317993,-0.05383659899234772
1761915217050108700,3.263108642578125,-0.21190346777439117,-0.7109183073043823,-0.004009388852864504
1761915217060163800,3.273163818359375,-0.46899303793907166,-0.7231928110122681,0.00714739179238677
1761915217070217700,3.2832177734375,-0.6180802583694458,-0.2145887315273285,0.07649876922369003
1761915217080271600,3.293271728515625,-0.5827457308769226,0.7101244330406189,0.20244765281677246
1761915217090325500,3.303325439453125,-0.3836382031440735,1.5912858247756958,0.19402113556861877
1761915217100379600,3.313379638671875,-0.17962701618671417,2.0628695487976074,-0.0008769789128564298
1761915217110433500,3.32343359375,-0.2471245676279068,1.8351043462753296,-0.3149310350418091
1761915217120487700,3.33348779296875,-0.533110499382019,1.227449655532837,-0.47634178400039673
1761915217130542800,3.34354296875,-0.8713628649711609,0.41637563705444336,-0.30098459124565125
1761915217140596700,3.3535966796875,-1.213783621788025,-0.3217388987541199,0.1394154131412506
1761915217150650600,3.363650634765625,-1.2356444597244263,-0.4169498085975647,0.7185038328170776
1761915217160704500,3.37370458984375,-0.883529007434845,-0.039677638560533524,1.196234107017517
1761915217170758700,3.383758544921875,-0.3289640545845032,0.5040562152862549,1.3546746969223022
1761915217180812500,3.3938125,0.2673336863517761,1.1136090755462646,1.1911672353744507
1761915217190866700,3.40386669921875,0.729698657989502,1.2460014820098877,0.7336838245391846
1761915217200920600,3.413920654296875,0.9975546002388,0.8067548274993896,0.22493058443069458
1761915217210975700,3.423975830078125,1.0001696348190308,-0.048173122107982635,-0.09279225766658783
1761915217221029600,3.434029541015625,0.7553028464317322,-1.0200495719909668,-0.1651892215013504
1761915217231083500,3.44408349609375,0.4679624140262604,-1.7962925434112549,-0.07671262323856354
1761915217241137700,3.4541376953125,0.28577396273612976,-2.1561026573181152,0.05008527263998985
1761915217251191600,3.464191650390625,0.2035030573606491,-2.0269570350646973,0.2032894641160965
1761915217261245700,3.47424560546875,0.13121607899665833,-1.5528626441955566,0.3385178744792938
1761915217271299600,3.484299560546875,0.030967770144343376,-1.0037521123886108,0.3437784016132355
1761915217281354800,3.494354736328125,-0.15190324187278748,-0.6183159351348877,0.14139388501644135
1761915217291408600,3.50440869140625,-0.38817304372787476,-0.4091201424598694,-0.20963364839553833
1761915217301462500,3.514462646484375,-0.6043463349342346,-0.3094412088394165,-0.5709577798843384
1761915217311516700,3.5245166015625,-0.7661672234535217,-0.29227393865585327,-0.8490533232688904
1761915217321570600,3.534570556640625,-0.8897762298583984,-0.28294089436531067,-1.0045278072357178
1761915217331624700,3.544624755859375,-0.9597830176353455,-0.258558064699173,-1.0234549045562744
1761915217341678600,3.5546787109375,-0.9537490606307983,-0.14144395291805267,-0.9087530970573425
1761915217351732700,3.564732666015625,-0.8483536839485168,0.010423346422612667,-0.6865352392196655
1761915217361787600,3.57478759765625,-0.65632164478302,0.1141742393374443,-0.4257901906967163
1761915217371841800,3.584841796875,-0.4077739119529724,0.15489263832569122,-0.17373476922512054
1761915217381895400,3.5948955078125,-0.15634725987911224,0.0839305892586708,0.029764819890260696
1761915217391949600,3.604949462890625,0.08044157922267914,-0.06331691890954971,0.18645350635051727
1761915217402003500,3.61500341796875,0.29206380248069763,-0.2766664922237396,0.31688714027404785
1761915217412057600,3.6250576171875,0.43763992190361023,-0.563958466053009,0.4296965003013611
1761915217422111700,3.63511181640625,0.5306169986724854,-0.8865751028060913,0.5494210720062256
1761915217432166700,3.645166748046875,0.5292484164237976,-1.1703346967697144,0.6625326871871948
1761915217442220800,3.655220703125,0.4240322411060333,-1.3778984546661377,0.7434610724449158
1761915217452274700,3.665274658203125,0.21490591764450073,-1.4534525871276855,0.7525957226753235
1761915217462328600,3.67532861328125,-0.03659982234239578,-1.3989025354385376,0.6738572716712952
1761915217472382500,3.685382568359375,-0.26719388365745544,-1.3326284885406494,0.49207547307014465
1761915217482436600,3.6954365234375,-0.43011489510536194,-1.2584885358810425,0.19422699511051178
1761915217492490500,3.705490478515625,-0.5204658508300781,-1.1954935789108276,-0.21155166625976562
1761915217502545700,3.715545654296875,-0.5719606876373291,-1.123299479484558,-0.6181761622428894
1761915217512599800,3.725599853515625,-0.5523167252540588,-0.891607940196991,-0.8903197646141052
1761915217522653700,3.73565380859375,-0.3752226233482361,-0.554554283618927,-1.016890287399292
1761915217532707600,3.74570751953125,-0.10635360330343246,-0.4415683448314667,-1.09654700756073
1761915217542761500,3.755761474609375,0.09621948003768921,-0.8076286315917969,-1.1734687089920044
1761915217552815600,3.765815673828125,0.1948975771665573,-1.6161179542541504,-1.1432896852493286
1761915217562869500,3.775869384765625,0.1696673333644867,-2.4953067302703857,-0.8066776394844055
1761915217572923600,3.785923583984375,-0.016894293949007988,-2.8394439220428467,-0.1421920210123062
1761915217582978800,3.795978759765625,-0.21693338453769684,-2.536287546157837,0.4481290578842163
1761915217593032700,3.80603271484375,-0.584505021572113,-1.9053758382797241,0.6581616401672363
1761915217603086600,3.816086669921875,-0.8893557190895081,-0.6760650277137756,0.6240071058273315
1761915217613140500,3.826140380859375,-0.9250191450119019,0.6304064393043518,0.47714659571647644
1761915217623194600,3.836194580078125,-0.8132036924362183,1.3917407989501953,0.32102036476135254
1761915217633248500,3.84624853515625,-0.6592090725898743,1.5855244398117065,0.2310132384300232
1761915217643306800,3.856306640625,-0.4540809392929077,1.5063369274139404,0.1971503496170044
1761915217653362000,3.86636181640625,-0.31308653950691223,1.477446436882019,0.18331922590732574
1761915217663415800,3.876415771484375,-0.33470821380615234,1.534458041191101,0.25199151039123535
1761915217673469700,3.8864697265625,-0.4484741985797882,1.6721445322036743,0.4389139711856842
1761915217683523800,3.89652392578125,-0.5282419919967651,1.7547653913497925,0.6923036575317383
1761915217693577700,3.90657763671875,-0.47702035307884216,1.6176676750183105,0.927766740322113
1761915217703632000,3.9166318359375,-0.2723119556903839,1.1919784545898438,1.0390170812606812
1761915217713685800,3.926685791015625,0.012174640782177448,0.5116867423057556,0.9619694352149963
1761915217723740000,3.936739990234375,0.298904687166214,-0.24123871326446533,0.725505530834198
1761915217733794800,3.946794921875,0.5181919932365417,-0.8674485683441162,0.4013146758079529
1761915217743848700,3.9568486328125,0.6384454369544983,-1.2128101587295532,0.04909670725464821
1761915217753902800,3.96690283203125,0.670820951461792,-1.2757889032363892,-0.30226823687553406
1761915217763956700,3.976956787109375,0.6159449219703674,-1.0697036981582642,-0.6197207570075989
1761915217774011000,3.987010986328125,0.47693511843681335,-0.5939853191375732,-0.8468716144561768
1761915217784063000,3.99706298828125,0.30403950810432434,-0.05560387298464775,-0.9736087918281555
1761915217794116600,4.00711669921875,0.15175756812095642,0.39195579290390015,-0.9747632741928101
1761915217804170800,4.017170654296875,0.04012904316186905,0.7176271080970764,-0.8349584937095642
1761915217814224600,4.027224609375,-0.03278404474258423,0.8871122598648071,-0.5881646871566772
1761915217824279800,4.03727978515625,-0.06403703987598419,0.8937869668006897,-0.2751796543598175
1761915217834334000,4.047333984375,-0.05446377396583557,0.6742540597915649,0.04709906876087189
1761915217844387800,4.057387939453125,-0.0164807066321373,0.20788395404815674,0.3344842493534088
1761915217854442000,4.06744189453125,0.04700612276792526,-0.38279691338539124,0.5592217445373535
1761915217864495900,4.077495849609375,0.12130938470363617,-0.9191561937332153,0.7043291330337524
1761915217874549800,4.0875498046875,0.17033950984477997,-1.288564920425415,0.7549731135368347
1761915217884603600,4.097603759765625,0.15758083760738373,-1.4615294933319092,0.7218878865242004
1761915217894658800,4.107658935546875,0.13000114262104034,-1.4660075902938843,0.6138671636581421
1761915217904713000,4.117712890625,0.11932399868965149,-1.3071430921554565,0.45895081758499146
1761915217914766800,4.127766845703125,0.13237296044826508,-1.0294060707092285,0.2586214244365692
1761915217924821000,4.137821044921875,0.13192127645015717,-0.6992930769920349,-0.018014419823884964
1761915217934875000,4.147875,0.0791773796081543,-0.4962078928947449,-0.36703765392303467
1761915217944928800,4.1579287109375,-0.013197294436395168,-0.4612523019313812,-0.6991798877716064
1761915217954982700,4.167982666015625,-0.12033253908157349,-0.48521915078163147,-0.9130458831787109
1761915217965036800,4.178036865234375,-0.18807749450206757,-0.5119032263755798,-1.024278163909912
1761915217975091700,4.188091796875,-0.15995611250400543,-0.5312255024909973,-1.1221833229064941
1761915217985145900,4.198145751953125,0.005271993577480316,-0.4946392774581909,-1.1878910064697266
1761915217995200000,4.208199951171875,0.3396608829498291,-0.5064184665679932,-1.2125170230865479
1761915218005254000,4.21825390625,0.7370575070381165,-0.5343331694602966,-1.238200306892395
1761915218015307800,4.228307861328125,1.0049216747283936,-0.537445604801178,-1.3271822929382324
1761915218025361700,4.238361572265625,0.9583083987236023,-0.5663614273071289,-1.5135301351547241
1761915218035415800,4.248415771484375,0.6296226978302002,-0.5101159811019897,-1.6446497440338135
1761915218045470700,4.258470703125,0.11919856071472168,-0.36853674054145813,-1.4645812511444092
1761915218055524900,4.26852490234375,-0.38429760932922363,-0.14243677258491516,-0.9068740010261536
1761915218065578800,4.278578857421875,-0.8720049262046814,0.007035539019852877,-0.17454570531845093
1761915218075633000,4.2886328125,-1.159470796585083,0.24436047673225403,0.4943407475948334
1761915218085687000,4.29868701171875,-1.0660176277160645,0.23179008066654205,0.7661959528923035
1761915218095740700,4.30874072265625,-0.734091579914093,-0.047314517199993134,0.6095349788665771
1761915218105794800,4.318794921875,-0.2421143651008606,-0.36170440912246704,0.21067655086517334
1761915218115849700,4.328849609375,0.3269461691379547,-0.6899094581604004,-0.20669139921665192
1761915218125904000,4.33890380859375,0.8381439447402954,-1.018929123878479,-0.445983350276947
1761915218135957800,4.348957763671875,1.2525455951690674,-1.3111966848373413,-0.41042375564575195
1761915218146012000,4.359011962890625,1.6178709268569946,-1.5406967401504517,-0.11371111869812012
1761915218156065800,4.369065673828125,1.8660413026809692,-1.557709813117981,0.3904116749763489
1761915218166120000,4.379119873046875,1.969091773033142,-1.2940033674240112,0.951218843460083
1761915218176173800,4.389173828125,1.831305980682373,-0.8494724631309509,1.4471830129623413
1761915218186228700,4.399228759765625,1.5169850587844849,-0.29505985975265503,1.7724971771240234
1761915218196283000,4.409282958984375,1.1762785911560059,0.18910813331604004,1.8747221231460571
1761915218206336800,4.419336669921875,0.8771395087242126,0.34458214044570923,1.675148606300354
1761915218216391000,4.429390869140625,0.615213930606842,0.09678193926811218,1.1536872386932373
1761915218226444800,4.43944482421875,0.393088161945343,-0.369145005941391,0.46487632393836975
1761915218236499000,4.4494990234375,0.1667378544807434,-0.8118465542793274,-0.19252923130989075
1761915218246552800,4.459552734375,-0.0785299614071846,-1.0275894403457642,-0.7104304432868958
1761915218256606700,4.469606689453125,-0.34250888228416443,-0.977228581905365,-1.050063133239746
1761915218266662000,4.479661865234375,-0.5895159840583801,-0.7889444231987,-1.2250056266784668
1761915218276715800,4.4897158203125,-0.8021464943885803,-0.5661568641662598,-1.2669315338134766
1761915218286770000,4.49977001953125,-0.9557866454124451,-0.33511754870414734,-1.2040470838546753
1761915218296823800,4.50982373046875,-1.0352561473846436,-0.11672288924455643,-1.0728634595870972
1761915218306878000,4.5198779296875,-1.0565763711929321,0.08083732426166534,-0.9124160408973694
1761915218316931800,4.529931884765625,-1.0298006534576416,0.23095890879631042,-0.7623572945594788
1761915218326985700,4.53998583984375,-0.9665197134017944,0.3313901722431183,-0.6384116411209106
1761915218337041000,4.550041015625,-0.8948284983634949,0.37087365984916687,-0.5481568574905396
1761915218347094800,4.5600947265625,-0.8457373976707458,0.3411557376384735,-0.4792850911617279
1761915218357149000,4.57014892578125,-0.8243466019630432,0.22784195840358734,-0.4327077567577362
1761915218367204900,4.580204833984375,-0.8299243450164795,0.04831826314330101,-0.4110221564769745
1761915218377258800,4.5902587890625,-0.8797782063484192,-0.1320408582687378,-0.38789498805999756
1761915218387313000,4.60031298828125,-0.9826273322105408,-0.3507108688354492,-0.3590486943721771
1761915218397366800,4.61036669921875,-1.119579553604126,-0.596612811088562,-0.32334744930267334
1761915218407421000,4.6204208984375,-1.2557893991470337,-0.80336993932724,-0.2928782105445862
1761915218417474800,4.630474853515625,-1.3411258459091187,-0.9110162854194641,-0.29902106523513794
1761915218427529000,4.640529052734375,-1.344258189201355,-0.8755232691764832,-0.37087154388427734
1761915218437584000,4.650583984375,-1.301591157913208,-0.7342438697814941,-0.5714589953422546
1761915218447637800,4.6606376953125,-1.22288978099823,-0.6581200957298279,-0.9563587307929993
1761915218457692000,4.67069189453125,-1.0811760425567627,-1.017660140991211,-1.4682481288909912
1761915218467745800,4.680745849609375,-0.9626067876815796,-1.5804475545883179,-1.8555830717086792
1761915218477800000,4.690800048828125,-0.8859775066375732,-1.7411656379699707,-1.9464194774627686
1761915218487853800,4.700853759765625,-0.742843747138977,-1.1213247776031494,-1.764395833015442
1761915218497908000,4.710907958984375,-0.7122249007225037,0.19221551716327667,-1.4649434089660645
1761915218507961900,4.7209619140625,-0.90982985496521,1.7113182544708252,-1.1596792936325073
1761915218518016800,4.731016845703125,-1.2606642246246338,2.701597213745117,-0.9433390498161316
1761915218528071000,4.74107080078125,-1.513624668121338,2.9350295066833496,-0.7636968493461609
1761915218538124800,4.751124755859375,-1.492319107055664,2.4814746379852295,-0.5786979794502258
1761915218548179000,4.761178955078125,-1.1934746503829956,1.5955240726470947,-0.36770930886268616
1761915218558232800,4.77123291015625,-0.6674653887748718,0.6220300197601318,-0.13812537491321564
1761915218568287000,4.781286865234375,-0.07715124636888504,-0.3105536103248596,0.034929487854242325
1761915218578340900,4.7913408203125,0.3814062178134918,-1.0586134195327759,0.18263240158557892
1761915218588395800,4.801395751953125,0.6121976375579834,-1.5756975412368774,0.354390025138855
1761915218598449700,4.81144970703125,0.711229681968689,-1.8873018026351929,0.5736930966377258
1761915218608503800,4.82150390625,0.767728328704834,-2.027437448501587,0.8208720088005066
1761915218618557700,4.8315576171875,0.7774049639701843,-1.99734628200531,1.0597010850906372
1761915218628611800,4.84161181640625,0.748587429523468,-1.7488089799880981,1.2459609508514404
1761915218638666000,4.851666015625,0.6937246918678284,-1.2464922666549683,1.3308346271514893
1761915218648719600,4.8617197265625,0.6082580089569092,-0.6258614659309387,1.250000238418579
1761915218658774300,4.871774169921875,0.5068988800048828,-0.05453674495220184,1.0277966260910034
1761915218668828400,4.881828369140625,0.40808841586112976,0.3927190601825714,0.692929208278656
1761915218678882300,4.89188232421875,0.32527902722358704,0.6929856538772583,0.3228342533111572
1761915218688936400,4.9019365234375,0.23248997330665588,0.8610401749610901,0.00812051072716713
1761915218698990300,4.911990234375,0.08544778823852539,0.943310558795929,-0.19157156348228455
1761915218709044500,4.92204443359375,-0.12462954968214035,0.9818771481513977,-0.25410711765289307
1761915218719098400,4.932098388671875,-0.3582140803337097,1.0365419387817383,-0.19112628698349
1761915218729153300,4.9421533203125,-0.5585876703262329,1.129278540611267,-0.02538951300084591
1761915218739207400,4.95220751953125,-0.6789260506629944,1.2130924463272095,0.2003733068704605
1761915218749261300,4.96226123046875,-0.6877040863037109,1.2874705791473389,0.4467830955982208
1761915218759315500,4.9723154296875,-0.6136500835418701,1.2856271266937256,0.6548968553543091
1761915218769369300,4.982369384765625,-0.498141348361969,1.1986461877822876,0.7809027433395386
1761915218779423500,4.992423583984375,-0.3690328896045685,1.0537132024765015,0.8299201130867004
1761915218789477400,5.002477294921875,-0.2389204353094101,0.8610923886299133,0.8240744471549988
1761915218799532300,5.0125322265625,-0.08564592897891998,0.6612700819969177,0.7882338762283325
1761915218809586400,5.02258642578125,0.06573400646448135,0.4605982303619385,0.7393811345100403
1761915218819640300,5.032640380859375,0.16979089379310608,0.26083266735076904,0.704278826713562
1761915218829694500,5.042694580078125,0.19124266505241394,0.12614621222019196,0.6982592344284058
1761915218839748400,5.052748291015625,0.15041720867156982,0.05541585385799408,0.7166039347648621
1761915218849802500,5.062802490234375,0.05956532433629036,-0.05001656338572502,0.7232778072357178
1761915218859856400,5.0728564453125,-0.0896981954574585,-0.21619275212287903,0.7088261246681213
1761915218869911600,5.08291162109375,-0.3128849267959595,-0.46453890204429626,0.6913155913352966
1761915218879965400,5.09296533203125,-0.5863569378852844,-0.8007180094718933,0.7013232111930847
1761915218890019300,5.103019287109375,-0.8202037811279297,-1.0429726839065552,0.7712993621826172
1761915218900073500,5.113073486328125,-0.946007251739502,-1.0778042078018188,0.8852994441986084
1761915218910127400,5.12312744140625,-0.9482057094573975,-0.9346542358398438,0.9460525512695312
1761915218920181500,5.133181396484375,-0.8325576782226562,-0.8417176008224487,0.9052050113677979
1761915218930235400,5.1432353515625,-0.6251150369644165,-0.824432373046875,0.8356653451919556
1761915218940290600,5.15329052734375,-0.43108507990837097,-0.89630526304245,0.7658407092094421
1761915218950344400,5.163344482421875,-0.35438072681427,-0.922843873500824,0.60932856798172
1761915218960398300,5.1733984375,-0.42861446738243103,-0.8904204368591309,0.2773090898990631
1761915218970452500,5.183452392578125,-0.7083718180656433,-0.7414975166320801,-0.1414194405078888
1761915218980506400,5.19350634765625,-1.073547124862671,-0.009674731642007828,-0.344264954328537
1761915218990560500,5.203560546875,-1.2594860792160034,1.1416633129119873,-0.3126268684864044
1761915219000614400,5.213614501953125,-1.116657018661499,2.1060094833374023,-0.24040141701698303
1761915219010669600,5.223669677734375,-0.7177149653434753,2.432361125946045,-0.34987330436706543
1761915219020723500,5.233723388671875,-0.264912873506546,1.9961111545562744,-0.7390535473823547
1761915219030777300,5.24377734375,0.07647639513015747,1.1907408237457275,-1.184950590133667
1761915219040831200,5.253831298828125,0.26603540778160095,0.45087769627571106,-1.4140583276748657
1761915219050885400,5.263885498046875,0.3507803976535797,-0.11319392919540405,-1.3704736232757568
1761915219060939500,5.273939453125,0.42951062321662903,-0.5468963980674744,-1.183887004852295
1761915219070993400,5.283993408203125,0.5377907752990723,-0.9810819029808044,-0.9390345811843872
1761915219081048600,5.294048583984375,0.5947219729423523,-1.3057470321655273,-0.6399397850036621
1761915219091102500,5.3041025390625,0.4783221185207367,-1.2896740436553955,-0.23172004520893097
1761915219101156400,5.31415625,0.1844119131565094,-0.8409727215766907,0.2730829417705536
1761915219111210200,5.324210205078125,-0.20089422166347504,-0.1570681780576706,0.7203128933906555
1761915219121264400,5.334264404296875,-0.6120002865791321,0.42373475432395935,0.8782985210418701
1761915219131318300,5.344318359375,-0.9692164659500122,0.7952947020530701,0.6887131333351135
1761915219141372400,5.354372314453125,-1.2046393156051636,1.0371627807617188,0.31686583161354065
1761915219151427600,5.364427490234375,-1.292220115661621,1.2239102125167847,-0.052387040108442307
1761915219161481500,5.3744814453125,-1.2603708505630493,1.379887342453003,-0.28617557883262634
1761915219171535600,5.38453564453125,-1.1589562892913818,1.4952605962753296,-0.3481238782405853
1761915219181589200,5.39458935546875,-1.017933964729309,1.5877689123153687,-0.234145388007164
1761915219191643400,5.404643310546875,-0.8498530387878418,1.6126172542572021,-0.0023363912478089333
1761915219201697300,5.414697265625,-0.6832936406135559,1.5284744501113892,0.29046565294265747
1761915219211751400,5.42475146484375,-0.5276214480400085,1.3424720764160156,0.5881154537200928
1761915219221806600,5.434806640625,-0.374630331993103,1.0512982606887817,0.8777076005935669
1761915219231860500,5.444860595703125,-0.2350841462612152,0.6879512071609497,1.1355617046356201
1761915219241914600,5.45491455078125,-0.13665185868740082,0.27683186531066895,1.3509291410446167
1761915219251968300,5.46496826171875,-0.06030195578932762,-0.15185929834842682,1.5124813318252563
1761915219262022400,5.4750224609375,0.007558317389339209,-0.6210624575614929,1.646707534790039
1761915219272076300,5.485076171875,0.05001496523618698,-1.1131983995437622,1.7768101692199707
1761915219282130400,5.49513037109375,0.046064164489507675,-1.5748789310455322,1.8990296125411987
1761915219292185600,5.505185546875,-0.027208983898162842,-1.9622464179992676,1.9797580242156982
1761915219302239500,5.515239501953125,-0.1535237729549408,-2.270813226699829,1.9829223155975342
1761915219312293600,5.525293701171875,-0.30992963910102844,-2.5446889400482178,1.9047796726226807
1761915219322347500,5.535347412109375,-0.48931270837783813,-2.77683162689209,1.7779039144515991
1761915219332401400,5.5454013671875,-0.6930080652236938,-2.9662516117095947,1.6305209398269653
1761915219342455300,5.555455322265625,-0.8894841074943542,-3.162966728210449,1.4770029783248901
1761915219352509400,5.565509521484375,-1.0118787288665771,-3.350493907928467,1.2996084690093994
1761915219362564400,5.575564453125,-1.0143016576766968,-3.48479962348938,1.0897274017333984
1761915219372618500,5.585618408203125,-0.9376502633094788,-3.4709789752960205,0.87135249376297
1761915219382672600,5.595672607421875,-0.7952055335044861,-3.2468771934509277,0.658404529094696
1761915219392726500,5.6057265625,-0.6287763118743896,-2.7790799140930176,0.42089369893074036
1761915219402780400,5.615780517578125,-0.568831205368042,-2.2302868366241455,0.11734180897474289
1761915219412834300,5.625834228515625,-0.7408658266067505,-1.781567931175232,-0.31013229489326477
1761915219422888400,5.635888427734375,-1.1131342649459839,-1.3836716413497925,-0.81322181224823
1761915219432943400,5.645943359375,-1.5177927017211914,-0.9138096570968628,-1.118163824081421
1761915219442997500,5.65599755859375,-1.8058788776397705,-0.15362603962421417,-1.0115548372268677
1761915219453051400,5.666051513671875,-1.8604861497879028,0.7715291976928711,-0.582203209400177
1761915219463105500,5.67610546875,-1.6626287698745728,1.280035376548767,-0.20293687283992767
1761915219473159400,5.686159423828125,-1.2607572078704834,1.1371207237243652,-0.18387795984745026
1761915219483213300,5.69621337890625,-0.7506090402603149,0.5536027550697327,-0.48894599080085754
1761915219493267500,5.706267333984375,-0.28629326820373535,-0.12705755233764648,-0.8639339804649353
1761915219503322400,5.716322265625,-0.021686386317014694,-0.6508392691612244,-1.0867042541503906
1761915219513376500,5.72637646484375,0.05252286419272423,-1.0554077625274658,-1.1518046855926514
1761915219523430400,5.736430419921875,0.05034546181559563,-1.2870993614196777,-1.1190671920776367
1761915219533484500,5.746484619140625,0.07337221503257751,-1.2445098161697388,-1.0349265336990356
1761915219543538400,5.756538330078125,0.1287103146314621,-0.8356403112411499,-0.9488576650619507
1761915219553592300,5.76659228515625,0.18523722887039185,-0.28200480341911316,-0.8899866342544556
1761915219563646200,5.776646240234375,0.1578570008277893,0.26100921630859375,-0.8409208059310913
1761915219573701400,5.786701416015625,-0.019887953996658325,0.47637665271759033,-0.8322775363922119
1761915219583755500,5.796755615234375,-0.30751174688339233,0.27557724714279175,-0.8752729296684265
1761915219593809400,5.806809326171875,-0.6332650780677795,-0.21894459426403046,-0.8983777165412903
1761915219603863600,5.816863525390625,-0.9515871405601501,-0.7511573433876038,-0.8164032101631165
1761915219613917400,5.82691748046875,-1.2329117059707642,-1.1024317741394043,-0.6080742478370667
1761915219623971600,5.8369716796875,-1.4627002477645874,-1.2451705932617188,-0.28251078724861145
1761915219634025200,5.847025146484375,-1.6266905069351196,-1.184948205947876,0.14693884551525116
1761915219644079900,5.857079833984375,-1.7049213647842407,-0.9654379487037659,0.6184635162353516
1761915219654133800,5.8671337890625,-1.6761733293533325,-0.7342162132263184,1.056260585784912
1761915219664188000,5.87718798828125,-1.5298124551773071,-0.6163958311080933,1.3921620845794678
1761915219674241800,5.88724169921875,-1.3190642595291138,-0.6857306957244873,1.5766078233718872
1761915219684296000,5.8972958984375,-1.1130527257919312,-0.8745850324630737,1.6156753301620483
1761915219694350000,5.90735009765625,-0.9327313899993896,-1.1002814769744873,1.5479655265808105
1761915219704404000,5.917404052734375,-0.7996758818626404,-1.2954227924346924,1.4330605268478394
1761915219714459000,5.927458984375,-0.7398226857185364,-1.4721038341522217,1.296121597290039
1761915219724512800,5.9375126953125,-0.761520266532898,-1.6326268911361694,1.1842739582061768
1761915219734567000,5.94756689453125,-0.8376904129981995,-1.7578569650650024,1.124053716659546
1761915219744620800,5.957620849609375,-0.9551485776901245,-1.8448790311813354,1.1107269525527954
1761915219754675000,5.967675048828125,-1.1065175533294678,-1.8808783292770386,1.0899734497070312
1761915219764728800,5.977728759765625,-1.250529408454895,-1.850170373916626,1.0403937101364136
1761915219774783000,5.987782958984375,-1.3423961400985718,-1.8039031028747559,0.9455252289772034
1761915219784838000,5.997837890625,-1.3648698329925537,-1.8161985874176025,0.8189353346824646
1761915219794891800,6.007891845703125,-1.318308711051941,-1.7919625043869019,0.7008683681488037
1761915219804946000,6.01794580078125,-1.2135061025619507,-1.6687804460525513,0.6239674687385559
1761915219814999800,6.027999755859375,-1.0934691429138184,-1.483604907989502,0.5185054540634155
1761915219825054000,6.038053955078125,-0.9428908228874207,-1.407732605934143,0.2725215256214142
1761915219835107800,6.04810791015625,-0.803955078125,-1.5524433851242065,-0.13789048790931702
1761915219845162000,6.058161865234375,-0.7219662070274353,-1.7889180183410645,-0.5159065127372742
1761915219855217000,6.068216796875,-0.7351903915405273,-1.8034566640853882,-0.6731485724449158
1761915219865270800,6.078270751953125,-0.8637483716011047,-1.317643642425537,-0.6205357313156128
1761915219875325000,6.088324951171875,-1.0624638795852661,-0.3063591420650482,-0.35719940066337585
1761915219885378800,6.09837890625,-1.2693544626235962,0.8432888984680176,0.05925746262073517
1761915219895433000,6.108432861328125,-1.3174740076065063,1.645956039428711,0.4560258388519287
1761915219905486800,6.11848681640625,-1.1328197717666626,1.7590293884277344,0.635327160358429
1761915219915541800,6.128541748046875,-0.7668353915214539,1.2236682176589966,0.4813101589679718
1761915219925596000,6.138595947265625,-0.30263710021972656,0.31698355078697205,-0.04878085479140282
1761915219935649800,6.14864990234375,0.13457804918289185,-0.8027449250221252,-0.8063116669654846
1761915219945704000,6.158703857421875,0.4327399730682373,-1.7977544069290161,-1.4260790348052979
1761915219955757800,6.1687578125,0.5459059476852417,-2.4800772666931152,-1.6303051710128784
1761915219965812000,6.17881201171875,0.5622891783714294,-2.8356287479400635,-1.4621995687484741
1761915219975865900,6.188865966796875,0.5162186026573181,-2.903003454208374,-1.066738247871399
1761915219985920000,6.198919921875,0.37858060002326965,-2.622039318084717,-0.5361659526824951
1761915219995974700,6.208974609375,0.17503678798675537,-1.9412044286727905,0.08271511644124985
1761915220006028800,6.21902880859375,-0.05495299771428108,-1.055167555809021,0.7076876759529114
1761915220016083000,6.2290830078125,-0.24123258888721466,-0.2916600704193115,1.159393548965454
1761915220026136800,6.23913671875,-0.34787967801094055,-0.017120663076639175,1.240305781364441
1761915220036191000,6.24919091796875,-0.39345061779022217,-0.20584823191165924,0.8750737309455872
1761915220046244900,6.259244873046875,-0.3961598575115204,-0.47885286808013916,0.22139577567577362
1761915220056300000,6.269300048828125,-0.40311816334724426,-0.506371021270752,-0.48865944147109985
1761915220066354000,6.27935400390625,-0.4390791058540344,-0.24595677852630615,-1.0515384674072266
1761915220076407800,6.28940771484375,-0.46054205298423767,0.14064233005046844,-1.3775339126586914
1761915220086461700,6.299461669921875,-0.46953287720680237,0.487791508436203,-1.4261549711227417
1761915220096515800,6.309515869140625,-0.47946780920028687,0.6500166058540344,-1.2490822076797485
1761915220106570000,6.319570068359375,-0.5114603638648987,0.7152795195579529,-0.8981881141662598
1761915220116624000,6.329623779296875,-0.5363502502441406,0.726922869682312,-0.4612938463687897
1761915220126679000,6.339678955078125,-0.530123233795166,0.6861605048179626,-0.013850567862391472
1761915220136733000,6.34973291015625,-0.4950544834136963,0.5969664454460144,0.39296913146972656
1761915220146786800,6.359786865234375,-0.44881346821784973,0.49733999371528625,0.7329314947128296
1761915220156840700,6.3698408203125,-0.384006530046463,0.3978576362133026,0.9989503622055054
1761915220166894800,6.379894775390625,-0.30368027091026306,0.2744310200214386,1.186511516571045
1761915220176948700,6.38994873046875,-0.23644156754016876,0.08956930041313171,1.3150273561477661
1761915220187003000,6.4000029296875,-0.17908985912799835,-0.2168673276901245,1.3723678588867188
1761915220197058000,6.41005810546875,-0.1339990794658661,-0.6109874844551086,1.3903088569641113
1761915220207112000,6.42011181640625,-0.10604707151651382,-0.9691301584243774,1.4204355478286743
1761915220217165800,6.430165771484375,-0.11456838995218277,-1.1901142597198486,1.4757124185562134
1761915220227219700,6.4402197265625,-0.15065822005271912,-1.2939345836639404,1.4825881719589233
1761915220237273900,6.45027392578125,-0.16266800463199615,-1.3323947191238403,1.353961706161499
1761915220247327700,6.46032763671875,-0.14117443561553955,-1.365824580192566,1.0583900213241577
1761915220257382000,6.4703818359375,-0.09847703576087952,-1.5594781637191772,0.6283280849456787
1761915220267437000,6.48043701171875,-0.033004555851221085,-1.9072999954223633,0.1585712730884552
1761915220277491000,6.490490966796875,0.0647699385881424,-2.147346258163452,-0.24465128779411316
1761915220287545000,6.500545166015625,0.17213422060012817,-2.1395211219787598,-0.5708163380622864
1761915220297598700,6.5105986328125,0.21214555203914642,-2.0472447872161865,-0.8640210628509521
1761915220307652900,6.52065283203125,0.07743433862924576,-2.169405460357666,-1.1705487966537476
1761915220317706800,6.530706787109375,-0.18574190139770508,-2.342500686645508,-1.3822466135025024
1761915220327761000,6.540760986328125,-0.48046329617500305,-2.3633275032043457,-1.352613091468811
1761915220337816000,6.550816162109375,-0.7602618932723999,-2.0611276626586914,-1.0132558345794678
1761915220347870000,6.560869873046875,-0.8625392913818359,-1.6867308616638184,-0.5267934799194336
1761915220357924000,6.570924072265625,-0.8595471978187561,-1.4674502611160278,-0.014737134799361229
1761915220367978000,6.58097802734375,-0.7558311820030212,-1.318536639213562,0.44133877754211426
1761915220378031900,6.591031982421875,-0.615445613861084,-1.3955150842666626,0.6451720595359802
1761915220388085800,6.601085693359375,-0.4952944219112396,-1.643344521522522,0.577942430973053
1761915220398141000,6.611140869140625,-0.3621065616607666,-1.8534549474716187,0.33196303248405457
1761915220408194800,6.62119482421875,-0.21865111589431763,-1.8871252536773682,0.0041060615330934525
1761915220418249000,6.6312490234375,-0.128474622964859,-1.690041422843933,-0.31972500681877136
1761915220428303000,6.64130322265625,-0.17790980637073517,-1.3001741170883179,-0.5646460652351379
1761915220438357000,6.65135693359375,-0.36568957567214966,-0.7690932154655457,-0.7129108905792236
1761915220448411000,6.661410888671875,-0.6269416809082031,-0.2327248603105545,-0.8111370801925659
1761915220458464800,6.67146484375,-0.8858302235603333,0.16596287488937378,-0.913718044757843
1761915220468520000,6.68152001953125,-1.097758173942566,0.36815086007118225,-1.041771411895752
1761915220478573800,6.69157373046875,-1.2167977094650269,0.30491408705711365,-1.1740816831588745
1761915220488628000,6.7016279296875,-1.2229200601577759,0.04908338934183121,-1.2302515506744385
1761915220498681900,6.711681884765625,-1.1357651948928833,-0.2620108425617218,-1.1471792459487915
1761915220508736000,6.721736083984375,-0.9997128248214722,-0.49802497029304504,-0.8950117230415344
1761915220518790000,6.731789794921875,-0.8432217836380005,-0.5943208932876587,-0.5208272337913513
1761915220528843800,6.74184375,-0.6629809141159058,-0.5288159251213074,-0.07172292470932007
1761915220538899000,6.75189892578125,-0.4772307276725769,-0.29654350876808167,0.38576793670654297
1761915220548952800,6.761952880859375,-0.3186216652393341,0.019938554614782333,0.778565526008606
1761915220559007000,6.772007080078125,-0.2464369386434555,0.27922284603118896,1.0525236129760742
1761915220569060900,6.782060791015625,-0.2949240505695343,0.41130366921424866,1.194280743598938
1761915220579115000,6.792114990234375,-0.4214004874229431,0.45999768376350403,1.2120720148086548
1761915220589169000,6.8021689453125,-0.5596135258674622,0.43213382363319397,1.1159521341323853
1761915220599223800,6.812223876953125,-0.6576628088951111,0.35686466097831726,0.9188752770423889
1761915220609278000,6.82227783203125,-0.7352196574211121,0.2611628770828247,0.6599518060684204
1761915220619331800,6.832331787109375,-0.7733204364776611,0.1409083902835846,0.3687514066696167
1761915220629386000,6.842385986328125,-0.7636385560035706,-0.01092455256730318,0.0809803381562233
1761915220639440000,6.85243994140625,-0.7163522243499756,-0.22104902565479279,-0.1785319298505783
1761915220649494300,6.862494384765625,-0.6476932764053345,-0.4144025146961212,-0.3624841868877411
1761915220659548200,6.872548095703125,-0.5551686882972717,-0.4818659722805023,-0.4501410722732544
1761915220669603000,6.88260302734375,-0.4441681206226349,-0.3733251094818115,-0.4795279800891876
1761915220679657200,6.8926572265625,-0.2886459231376648,-0.036437902599573135,-0.46224087476730347
1761915220689711000,6.902711181640625,-0.08928406983613968,0.41642171144485474,-0.4683842658996582
1761915220699765200,6.91276513671875,0.11349007487297058,0.696819543838501,-0.6162365674972534
1761915220709819100,6.922819091796875,0.26814621686935425,0.7762829661369324,-0.8768407106399536
1761915220719873300,6.932873291015625,0.31875401735305786,1.0081124305725098,-1.0423918962478638
1761915220729927200,6.94292724609375,0.18046271800994873,1.3038535118103027,-1.0369049310684204
1761915220739982000,6.952982177734375,-0.07663299143314362,1.4276809692382812,-0.9038129448890686
1761915220750036200,6.9630361328125,-0.3032091557979584,1.312486171722412,-0.7112970352172852
1761915220760090000,6.973090087890625,-0.4755193889141083,0.8655965924263,-0.5674735307693481
1761915220770144300,6.983144287109375,-0.5844117999076843,0.513992190361023,-0.3467121422290802
1761915220780198100,6.9931982421875,-0.5188758969306946,0.5643901228904724,0.045821815729141235
1761915220790252300,7.003252197265625,-0.2623125910758972,0.6944818496704102,0.4361770451068878
1761915220800306200,7.01330615234375,0.08644115179777145,0.6035492420196533,0.603948175907135
1761915220810361000,7.023361083984375,0.499187707901001,0.411321759223938,0.47461578249931335
1761915220820415200,7.033415283203125,0.9146379232406616,0.17634068429470062,0.07522737234830856
1761915220830469000,7.04346923828125,1.1787949800491333,-0.0659923329949379,-0.4364071488380432
1761915220840523300,7.053523193359375,1.2257702350616455,-0.27609923481941223,-0.9107129573822021
1761915220850577200,7.0635771484375,1.0851553678512573,-0.2964465916156769,-1.197263479232788
1761915220860631300,7.07363134765625,0.8241513967514038,-0.04915928840637207,-1.2326537370681763
1761915220870685200,7.083685302734375,0.5209971070289612,0.4144397974014282,-0.987391471862793
1761915220880740000,7.093739990234375,0.16819752752780914,0.9609582424163818,-0.514807939529419
1761915220890794000,7.1037939453125,-0.19429677724838257,1.3068487644195557,-0.020067717880010605
1761915220900848000,7.11384814453125,-0.4684087634086609,1.3008495569229126,0.280343234539032
1761915220910902300,7.12390234375,-0.5610513091087341,0.9905992746353149,0.3223916292190552
1761915220920956200,7.1339560546875,-0.503595769405365,0.5541508197784424,0.17384663224220276
1761915220931010300,7.14401025390625,-0.38018515706062317,0.13937972486019135,-0.05450452119112015
1761915220941065000,7.15406494140625,-0.24896374344825745,-0.14437715709209442,-0.2554927468299866
1761915220951119000,7.164119140625,-0.12039805203676224,-0.2812623083591461,-0.33269140124320984
1761915220961173000,7.174173095703125,-0.013646570034325123,-0.3142942786216736,-0.24369308352470398
1761915220971227100,7.18422705078125,0.03695162758231163,-0.2847558259963989,-0.04637868329882622
1761915220981281000,7.194281005859375,0.013114203698933125,-0.1883949488401413,0.1695682555437088
1761915220991335200,7.204335205078125,-0.034871429204940796,-0.03780223801732063,0.33844542503356934
1761915221001389000,7.21438916015625,-0.06383517384529114,0.15672063827514648,0.44776126742362976
1761915221011444000,7.22444384765625,-0.0887375921010971,0.37614139914512634,0.5387076735496521
1761915221021498000,7.234498046875,-0.08932854980230331,0.5860275030136108,0.648474931716919
1761915221031552000,7.244552001953125,-0.06700672954320908,0.7347445487976074,0.7790989875793457
1761915221041606100,7.254606201171875,-0.027394605800509453,0.7662889361381531,0.9462429881095886
1761915221051660000,7.264659912109375,0.045229263603687286,0.6464168429374695,1.1498326063156128
1761915221061714200,7.274714111328125,0.13855867087841034,0.3623393177986145,1.339093565940857
1761915221071768000,7.28476806640625,0.24917040765285492,-0.10855896770954132,1.4626344442367554
1761915221081823200,7.2948232421875,0.3640762269496918,-0.6674070954322815,1.5387310981750488
1761915221091877000,7.304877197265625,0.4894663691520691,-1.2343645095825195,1.6106406450271606
1761915221101931000,7.314930908203125,0.6073845028877258,-1.6262084245681763,1.6891125440597534
1761915221111985200,7.324985107421875,0.7022364139556885,-1.6882654428482056,1.7047122716903687
1761915221122039000,7.3350390625,0.754801869392395,-1.455202341079712,1.5459966659545898
1761915221132093200,7.34509326171875,0.7434523105621338,-1.215734839439392,1.146082878112793
1761915221142148400,7.3551484375,0.5690690279006958,-1.2695927619934082,0.5392557382583618
1761915221152202200,7.3652021484375,0.21815097332000732,-1.5217022895812988,-0.0870898962020874
1761915221162256100,7.375256103515625,-0.1763068586587906,-1.755778431892395,-0.6445416808128357
1761915221172310000,7.38531005859375,-0.4556386172771454,-1.7874870300292969,-1.0922774076461792
1761915221182364200,7.3953642578125,-0.6488291025161743,-1.5185328722000122,-1.3586419820785522
1761915221192418000,7.40541796875,-0.756070613861084,-0.7141977548599243,-1.2594752311706543
1761915221202472200,7.41547216796875,-0.6924203038215637,0.4756315052509308,-0.728646457195282
1761915221212527000,7.425527099609375,-0.4721449017524719,1.4565613269805908,0.029034581035375595
1761915221222581200,7.435581298828125,-0.14809492230415344,1.9255263805389404,0.7099569439888
1761915221232635100,7.44563525390625,0.17013657093048096,1.8346593379974365,1.0612585544586182
1761915221242689000,7.45568896484375,0.40009281039237976,1.2801916599273682,1.075110673904419
1761915221252743200,7.4657431640625,0.5695356130599976,0.5573676824569702,0.9293995499610901
1761915221262797000,7.475797119140625,0.7578480243682861,-0.0787869542837143,0.8077186346054077
1761915221272851200,7.485851318359375,0.9216004610061646,-0.5454918146133423,0.8040770292282104
1761915221282906000,7.495906005859375,0.9682129621505737,-0.8381673693656921,0.9384849071502686
1761915221292960300,7.505960205078125,0.8602731823921204,-0.9228412508964539,1.1756702661514282
1761915221303014100,7.51601416015625,0.594664454460144,-0.8225852251052856,1.4248641729354858
1761915221313068000,7.526068115234375,0.2543119192123413,-0.6085062026977539,1.6281442642211914
1761915221323122000,7.536121826171875,-0.07046005129814148,-0.4015863239765167,1.7276546955108643
1761915221333176000,7.546176025390625,-0.35192155838012695,-0.24100542068481445,1.690539002418518
1761915221343231200,7.556231201171875,-0.599458634853363,-0.11059734970331192,1.4866923093795776
1761915221353285000,7.56628515625,-0.813292920589447,-0.008478173054754734,1.1078702211380005
1761915221363339300,7.57633935546875,-0.9494648575782776,0.004815527703613043,0.6117693781852722
1761915221373393200,7.58639306640625,-0.9955695271492004,-0.08351992815732956,0.07839254289865494
1761915221383447300,7.596447265625,-0.9899914860725403,-0.19103467464447021,-0.37636831402778625
1761915221393501000,7.6065009765625,-0.9517802000045776,-0.24474290013313293,-0.6819002628326416
1761915221403555000,7.61655517578125,-0.8765837550163269,-0.25505146384239197,-0.8373945355415344
1761915221413610200,7.6266103515625,-0.7749814987182617,-0.21480391919612885,-0.8714970946311951
1761915221423664000,7.6366640625,-0.678290069103241,-0.12517309188842773,-0.8038733005523682
1761915221433718300,7.64671826171875,-0.619926393032074,0.045213017612695694,-0.6522555351257324
1761915221443772200,7.656772216796875,-0.6025388836860657,0.2639448344707489,-0.47059202194213867
1761915221453826300,7.666826416015625,-0.6296365261077881,0.4688279330730438,-0.3121190071105957
1761915221463880000,7.6768798828125,-0.6825783252716064,0.5559819936752319,-0.2299192100763321
1761915221473934000,7.68693408203125,-0.6991562247276306,0.5216554403305054,-0.21049252152442932
1761915221483989200,7.6969892578125,-0.6594162583351135,0.4059096872806549,-0.24127866327762604
1761915221494043100,7.707043212890625,-0.564942479133606,0.25357475876808167,-0.2976495325565338
1761915221504097300,7.71709716796875,-0.42343488335609436,0.10528221726417542,-0.37302711606025696
1761915221514151200,7.727151123046875,-0.2495049089193344,-0.09985975176095963,-0.48074397444725037
1761915221524205300,7.737205322265625,-0.0336381196975708,-0.17601870000362396,-0.5633051991462708
1761915221534259200,7.74725927734375,0.15757018327713013,-0.005449626594781876,-0.6115850806236267
1761915221544313000,7.75731298828125,0.24851207435131073,0.287321001291275,-0.7353405952453613
1761915221554368300,7.7673681640625,0.21174606680870056,0.4818103015422821,-1.0278464555740356
1761915221564422100,7.777422119140625,-0.08133693039417267,-0.022603312507271767,-1.4946719408035278
1761915221574476300,7.787476318359375,-0.6621534824371338,-0.6903209090232849,-1.8101167678833008
1761915221584530200,7.7975302734375,-1.2557249069213867,-0.8272697329521179,-1.7580336332321167
1761915221594584300,7.807584228515625,-1.771047592163086,-0.760692298412323,-1.5059702396392822
1761915221604638200,7.81763818359375,-2.1958529949188232,-0.6469616889953613,-1.180238127708435
1761915221614693000,7.827693115234375,-2.366164207458496,-0.4237605929374695,-0.7910190224647522
1761915221624747000,7.8377470703125,-2.150106906890869,-0.2689800560474396,-0.39355021715164185
1761915221634801200,7.84780126953125,-1.7154879570007324,-0.23229315876960754,-0.04415787383913994
1761915221644852200,7.857852294921875,-1.1794229745864868,-0.4100005626678467,0.12545938789844513
1761915221654906400,7.86790625,-0.6962411403656006,-0.740888774394989,0.054913848638534546
1761915221664960300,7.877960205078125,-0.36304476857185364,-0.9629465937614441,-0.12432008981704712
1761915221675014100,7.88801416015625,-0.19130977988243103,-0.9929358959197998,-0.3460594117641449
1761915221685069000,7.898069091796875,-0.12670014798641205,-0.9124652743339539,-0.6015452146530151
1761915221695123200,7.908123291015625,-0.15055781602859497,-0.801428496837616,-0.8128374814987183
1761915221705177000,7.918177001953125,-0.28521737456321716,-0.6412106156349182,-0.8778700232505798
1761915221715231200,7.928231201171875,-0.5455011129379272,-0.4317737817764282,-0.775192141532898
1761915221725285400,7.938285400390625,-0.8396603465080261,-0.15626123547554016,-0.5471086502075195
1761915221735339300,7.94833935546875,-1.0920803546905518,0.01883574016392231,-0.2805829346179962
1761915221745393200,7.95839306640625,-1.2713297605514526,0.10001954436302185,0.03880998119711876
1761915221755448000,7.968447998046875,-1.3123993873596191,-0.024149278178811073,0.356847882270813
1761915221765502200,7.978502197265625,-1.2199043035507202,-0.36614522337913513,0.6152802109718323
1761915221775556000,7.98855615234375,-1.0227632522583008,-0.8159288763999939,0.7750989198684692
1761915221785610200,7.9986103515625,-0.7865052223205566,-1.2403805255889893,0.8355486989021301
1761915221795663000,8.0086630859375,-0.5686565041542053,-1.5179849863052368,0.7973338961601257
1761915221805717200,8.01871728515625,-0.42328575253486633,-1.617644190788269,0.6883515119552612
1761915221815771100,8.028771240234375,-0.36572179198265076,-1.5260379314422607,0.5262137055397034
1761915221825825300,8.0388251953125,-0.39403730630874634,-1.3033955097198486,0.32615306973457336
1761915221835879200,8.048879150390626,-0.5056610703468323,-1.0452054738998413,0.09477018564939499
1761915221845933300,8.058933349609376,-0.6814669370651245,-0.8243690133094788,-0.12742213904857635
1761915221855988200,8.06898828125,-0.8666954040527344,-0.7002753019332886,-0.28893354535102844
1761915221866042000,8.0790419921875,-1.0290590524673462,-0.6905137300491333,-0.3514997065067291
1761915221876096300,8.08909619140625,-1.1353545188903809,-0.7454137206077576,-0.3248007297515869
1761915221886150100,8.099150146484375,-1.159172534942627,-0.813818633556366,-0.23378746211528778
1761915221896204300,8.109204345703125,-1.0782939195632935,-0.8661220073699951,-0.11150255799293518
1761915221906258200,8.119258056640625,-0.9035176038742065,-0.8370030522346497,0.036492232233285904
1761915221916312300,8.129312255859375,-0.6588985323905945,-0.7039501667022705,0.19486428797245026
1761915221926367200,8.1393671875,-0.36467623710632324,-0.4958933889865875,0.34105053544044495
1761915221936421000,8.149421142578126,-0.07687587291002274,-0.23745089769363403,0.46810463070869446
1761915221946475300,8.159475341796876,0.18066085875034332,0.015074023976922035,0.5418978929519653
1761915221956529200,8.169529052734376,0.35982421040534973,0.06295419484376907,0.5303000807762146
1761915221966583300,8.179583251953124,0.45909515023231506,-0.11770399659872055,0.4725475609302521
1761915221976637200,8.18963720703125,0.49924522638320923,-0.33928191661834717,0.42266789078712463
1761915221986691300,8.19969140625,0.5445589423179626,-0.5137267112731934,0.359916090965271
1761915221996746200,8.209746337890625,0.5968652367591858,-0.7738475203514099,0.13764867186546326
1761915222006800100,8.219800048828125,0.5721844434738159,-1.247846245765686,-0.3343457579612732
1761915222016854300,8.229854248046875,0.36275237798690796,-1.6239678859710693,-0.8793094754219055
1761915222026908200,8.239908203125,-0.03958096355199814,-1.59073805809021,-1.3111519813537598
1761915222036962300,8.24996240234375,-0.5298539996147156,-1.1895208358764648,-1.5021109580993652
1761915222047016200,8.26001611328125,-1.0298409461975098,-0.34292539954185486,-1.3493586778640747
1761915222057071000,8.270071044921876,-1.325189471244812,0.7950129508972168,-0.9091733694076538
1761915222067125000,8.280125,-1.4387027025222778,1.9573402404785156,-0.2371952384710312
1761915222077179100,8.29017919921875,-1.2260905504226685,3.1117987632751465,0.5949168801307678
1761915222087233000,8.30023291015625,-0.7344183325767517,3.284496545791626,1.1866259574890137
1761915222097287200,8.310287109375,-0.3092377483844757,2.3106725215911865,1.3544546365737915
1761915222107341300,8.32034130859375,-0.06740354001522064,0.8086987137794495,1.2291418313980103
1761915222117395200,8.330395263671875,0.008107461035251617,-0.7065747380256653,0.9899054765701294
1761915222127450000,8.3404501953125,-0.004318848252296448,-1.9524565935134888,0.6930583715438843
1761915222137504000,8.35050390625,-0.05879513919353485,-2.938555955886841,0.3059476613998413
1761915222147558100,8.36055810546875,-0.13868358731269836,-3.567660331726074,-0.06626690179109573
1761915222157612000,8.370612060546875,-0.2670913636684418,-3.665400743484497,-0.3068808317184448
1761915222167666200,8.380666259765626,-0.427007794380188,-3.323957681655884,-0.44985103607177734
1761915222177720000,8.390719970703126,-0.6184336543083191,-2.7546989917755127,-0.5160444378852844
1761915222187774200,8.400774169921876,-0.8339552879333496,-2.023123025894165,-0.5441762208938599
1761915222197829000,8.4108291015625,-0.9698854684829712,-1.3332422971725464,-0.5604702234268188
1761915222207883000,8.420883056640625,-0.9805130362510681,-0.833844006061554,-0.5863039493560791
1761915222217937200,8.430937255859375,-0.8604300618171692,-0.4838961064815521,-0.602519154548645
1761915222227991000,8.440990966796875,-0.674246609210968,-0.18833555281162262,-0.5524743795394897
1761915222238045200,8.451045166015625,-0.4971802234649658,0.09759766608476639,-0.4331682026386261
1761915222248099000,8.46109912109375,-0.35999491810798645,0.2772824764251709,-0.2868557274341583
1761915222258154200,8.471154296875,-0.3035327196121216,0.3137454092502594,-0.14592204988002777
1761915222268208400,8.48120849609375,-0.348898321390152,0.23495233058929443,0.012293417938053608
1761915222278262000,8.491261962890626,-0.4680612087249756,0.06612709164619446,0.20789514482021332
1761915222288316200,8.501316162109376,-0.6356480717658997,-0.11578119546175003,0.4371426999568939
1761915222298370000,8.5113701171875,-0.8336341381072998,-0.24308402836322784,0.6379096508026123
1761915222308424200,8.521424072265624,-0.993370532989502,-0.2817637622356415,0.7660260796546936
1761915222318478000,8.53147802734375,-1.104541540145874,-0.30207809805870056,0.7917609810829163
1761915222328533200,8.541533203125,-1.1918731927871704,-0.30422088503837585,0.7302781939506531
1761915222338587400,8.55158740234375,-1.2385632991790771,-0.29383668303489685,0.5977709889411926
1761915222348641300,8.561641357421875,-1.2433222532272339,-0.324867308139801,0.4404660761356354
1761915222358695200,8.571695068359375,-1.2179440259933472,-0.48081377148628235,0.28066787123680115
1761915222368749000,8.5817490234375,-1.164929986000061,-0.6521564722061157,0.1792626976966858
1761915222378805200,8.59180517578125,-1.0971461534500122,-0.7389938831329346,0.15696857869625092
1761915222388859400,8.601859375,-0.9939292669296265,-0.7092629075050354,0.19542835652828217
1761915222398913000,8.6119130859375,-0.820841908454895,-0.5270089507102966,0.2789834439754486
1761915222408967200,8.62196728515625,-0.563822329044342,-0.3494541347026825,0.3519492447376251
1761915222419021000,8.63202099609375,-0.2785046100616455,-0.3000575602054596,0.35886043310165405
1761915222429076200,8.642076171875,-0.020976921543478966,-0.18629823625087738,0.3468908369541168
1761915222439130000,8.652130126953125,0.1821567565202713,0.1828659474849701,0.3794695734977722
1761915222449184300,8.662184326171875,0.2660175561904907,0.6264593601226807,0.43846043944358826
1761915222459238400,8.67223828125,0.11098137497901917,0.847595751285553,0.4639388918876648
1761915222469292300,8.682292236328125,-0.22273613512516022,0.8702720403671265,0.46046799421310425
1761915222479346200,8.69234619140625,-0.5467589497566223,0.7084215879440308,0.47992026805877686
1761915222489401000,8.702401123046876,-0.7527983784675598,0.6245112419128418,0.6187556385993958
1761915222499455200,8.712455322265624,-0.7951224446296692,0.8158660531044006,0.8855162262916565
1761915222509509000,8.722509033203124,-0.6868982315063477,1.1906598806381226,1.1346615552902222
1761915222519563300,8.732563232421874,-0.47851091623306274,1.3288052082061768,1.151173710823059
1761915222529617200,8.7426171875,-0.21773631870746613,0.8821244239807129,0.7975203394889832
1761915222539671300,8.75267138671875,-0.02949477545917034,-0.1822366565465927,0.08134891837835312
1761915222549725200,8.76272509765625,-0.04788683354854584,-1.1389272212982178,-0.6837996244430542
1761915222559780000,8.772780029296875,-0.20602986216545105,-1.6123032569885254,-1.2191405296325684
1761915222569834200,8.782834228515625,-0.3046102225780487,-1.549566626548767,-1.4603060483932495
1761915222579888000,8.79288818359375,-0.3010178804397583,-1.1186038255691528,-1.457449197769165
1761915222589942300,8.8029423828125,-0.27107277512550354,-0.5355790257453918,-1.2876032590866089
1761915222599996200,8.81299609375,-0.2711673080921173,0.04643860459327698,-1.0235209465026855
1761915222610050300,8.82305029296875,-0.24215032160282135,0.4894791543483734,-0.7773181200027466
1761915222620104200,8.833104248046874,-0.10494319349527359,0.6479049921035767,-0.6365277171134949
1761915222630159000,8.8431591796875,0.12631799280643463,0.3635486364364624,-0.6984955072402954
1761915222640213200,8.853213134765625,0.33197394013404846,-0.3570614457130432,-1.030500054359436
1761915222650270700,8.863270751953126,0.3871956467628479,-1.3325320482254028,-1.5017900466918945
1761915222660324900,8.873324951171876,0.29938510060310364,-2.2081711292266846,-1.8591612577438354
1761915222670379000,8.88337890625,0.19002266228199005,-2.6260194778442383,-1.9180786609649658
1761915222680433000,8.893432861328124,0.10478872805833817,-2.5605785846710205,-1.6485635042190552
1761915222690486800,8.90348681640625,0.0070464578457176685,-1.483971118927002,-1.189884066581726
1761915222700541700,8.913541748046875,-0.24770992994308472,-0.6575506925582886,-0.8087759017944336
1761915222710595800,8.923595947265625,-0.5718920230865479,-0.44771891832351685,-0.5091285109519958
1761915222720649700,8.933649658203125,-0.7678255438804626,-0.24224485456943512,-0.14418673515319824
1761915222730704000,8.943703857421875,-0.7805544137954712,-0.024449151009321213,0.23942963778972626
1761915222740757800,8.9537578125,-0.6556172370910645,-0.01787939853966236,0.5717050433158875
1761915222750812000,8.96381201171875,-0.4899257719516754,-0.33861401677131653,0.8096289038658142
1761915222760866800,8.97386669921875,-0.3737221956253052,-0.8690640330314636,0.9827743172645569
1761915222770920700,8.983920654296876,-0.3762069344520569,-1.3748457431793213,1.1536496877670288
1761915222780974800,8.993974853515626,-0.5175363421440125,-1.5617769956588745,1.3607538938522339
1761915222791028700,9.00402880859375,-0.7122474908828735,-1.3848011493682861,1.5628550052642822
1761915222801083000,9.014082763671874,-0.8750447034835815,-0.9615412354469299,1.68643319606781
1761915222811136800,9.02413671875,-0.961096465587616,-0.42338988184928894,1.6933156251907349
1761915222821191000,9.03419091796875,-0.9840180277824402,0.08454843610525131,1.6018240451812744
1761915222831245800,9.044245849609375,-0.9447939395904541,0.5053510665893555,1.4228148460388184
1761915222841299700,9.0542998046875,-0.8356158137321472,0.8880236148834229,1.225225806236267
1761915222851353900,9.064353759765625,-0.6745235919952393,1.2459555864334106,1.0516791343688965
1761915222861407700,9.07440771484375,-0.5205686092376709,1.4054456949234009,0.8216270208358765
1761915222871462000,9.0844619140625,-0.39909598231315613,1.0999400615692139,0.4724154770374298
1761915222881515800,9.094515869140626,-0.26470357179641724,0.36329272389411926,0.062493737787008286
1761915222891570000,9.10456982421875,-0.09510867297649384,-0.33716338872909546,-0.20395153760910034
1761915222901624800,9.114624755859374,0.04073784127831459,-0.7148230671882629,-0.23240448534488678
1761915222911678700,9.1246787109375,0.0484791174530983,-0.7661362886428833,-0.0319688506424427
1761915222921732900,9.13473291015625,-0.06072300300002098,-0.4314368963241577,0.3506450951099396
1761915222931786800,9.144786865234375,-0.23432780802249908,0.10703164339065552,0.8243085145950317
1761915222941841000,9.1548408203125,-0.39666053652763367,0.41297292709350586,1.2414277791976929
1761915222951894800,9.164894775390625,-0.4892338812351227,0.6452719569206238,1.5787540674209595
1761915222961950000,9.174949951171875,-0.4964582324028015,0.7390820384025574,1.7942371368408203
1761915222972003600,9.185003662109375,-0.4229632318019867,0.5551117062568665,1.801512360572815
1761915222982057700,9.1950576171875,-0.30623024702072144,0.010706174187362194,1.5195648670196533
1761915222992111900,9.20511181640625,-0.13623853027820587,-0.7758477926254272,0.9613276720046997
1761915223002165800,9.215165771484376,0.08472473919391632,-1.4643993377685547,0.273053377866745
1761915223012220000,9.225219970703124,0.3615880310535431,-1.7363450527191162,-0.33186423778533936
1761915223022273800,9.235273681640624,0.6523447632789612,-1.6511569023132324,-0.7650710344314575
1761915223032329000,9.245328857421875,0.7973517775535583,-1.3224906921386719,-1.068832516670227
1761915223042382600,9.255382568359375,0.7373342514038086,-0.8015443682670593,-1.3004106283187866
1761915223052436700,9.265436767578125,0.5621243119239807,-0.14804485440254211,-1.4612178802490234
1761915223062490600,9.27549072265625,0.38357481360435486,0.4102810025215149,-1.5464534759521484
1761915223072544800,9.285544677734375,0.2488766610622406,0.5499691367149353,-1.5542982816696167
1761915223082599000,9.295598876953125,0.1641300767660141,0.14210547506809235,-1.5241068601608276
1761915223092652800,9.30565283203125,0.18117192387580872,-0.5540642738342285,-1.4120359420776367
1761915223102708000,9.3157080078125,0.3057900071144104,-1.1770902872085571,-1.1548726558685303
1761915223112761900,9.325761962890626,0.4334752559661865,-1.3567532300949097,-0.757494330406189
1761915223122815700,9.335815673828124,0.4810403883457184,-1.0761157274246216,-0.32356953620910645
1761915223132869600,9.34586962890625,0.4584980607032776,-0.6266649961471558,0.07303266227245331
1761915223142923800,9.355923828125,0.3603922724723816,-0.09823815524578094,0.4262887239456177
1761915223152977700,9.365977783203125,0.1688915491104126,0.3680054545402527,0.7188835740089417
1761915223163032800,9.37603271484375,-0.11414388567209244,0.5433186888694763,0.9317929148674011
1761915223173087000,9.3860869140625,-0.4239978790283203,0.4319567382335663,1.0602315664291382
1761915223183140900,9.396140869140625,-0.679848849773407,0.2090674638748169,1.1339454650878906
1761915223193194800,9.40619482421875,-0.8348623514175415,0.023314910009503365,1.1709522008895874
1761915223203248600,9.41624853515625,-0.8982557058334351,-0.06442373245954514,1.162311315536499
1761915223213302800,9.426302734375,-0.8828200697898865,0.023605726659297943,1.1197508573532104
1761915223223356700,9.436356689453126,-0.7871920466423035,0.27268850803375244,1.0847502946853638
1761915223233411800,9.446411865234374,-0.6423909068107605,0.5545691847801208,1.0739777088165283
1761915223243466000,9.456466064453124,-0.492872029542923,0.7013991475105286,1.053511619567871
1761915223253520000,9.466519775390625,-0.3800669014453888,0.5703631043434143,1.021773099899292
1761915223263573800,9.47657373046875,-0.3067282438278198,0.23457442224025726,1.0240528583526611
1761915223273627600,9.486627685546875,-0.26365694403648376,0.05812855064868927,1.08465576171875
1761915223283681800,9.496681884765625,-0.20380665361881256,0.24297749996185303,1.1784934997558594
1761915223293735700,9.506735595703125,-0.10344836115837097,0.5843840837478638,1.2751649618148804
1761915223303790800,9.516790771484375,0.03187244385480881,0.7518782615661621,1.3451389074325562
1761915223313845000,9.526844970703126,0.17539632320404053,0.5384317636489868,1.3777967691421509
1761915223323899000,9.53689892578125,0.2586027979850769,0.05445684865117073,1.3789507150650024
1761915223333953000,9.546953125,0.22834555804729462,-0.4682769179344177,1.306602954864502
1761915223344006700,9.557006591796876,0.12120818346738815,-0.9212188124656677,1.1048179864883423
1761915223354060800,9.567060791015624,0.01378079317510128,-1.2806041240692139,0.7933239936828613
1761915223364114700,9.57711474609375,-0.04833610728383064,-1.2654350996017456,0.5140817165374756
1761915223374169900,9.587169921875,-0.06486448645591736,-0.5848128795623779,0.45814278721809387
1761915223384223700,9.5972236328125,-0.07560181617736816,0.5376922488212585,0.6420644521713257
1761915223394278000,9.60727783203125,-0.11016884446144104,1.2950443029403687,0.8713200092315674
1761915223404332000,9.61733203125,-0.15131734311580658,1.4505327939987183,1.0699795484542847
1761915223414386000,9.627385986328125,-0.1786203384399414,1.2690998315811157,1.2327051162719727
1761915223424439800,9.637439697265625,-0.25342774391174316,0.7516633868217468,1.2120245695114136
1761915223434494700,9.64749462890625,-0.3666573464870453,-0.07459726929664612,0.9070582985877991
1761915223444548900,9.657548828125,-0.44150203466415405,-0.8273008465766907,0.380016565322876
1761915223454602800,9.667602783203124,-0.4589153826236725,-1.220673680305481,-0.2413465678691864
1761915223464657000,9.677656982421874,-0.3929765820503235,-1.2734450101852417,-0.8373146057128906
1761915223474710800,9.687710693359374,-0.20399627089500427,-1.065395474433899,-1.330810308456421
1761915223484765000,9.697764892578125,0.011871839873492718,-0.5887314081192017,-1.6768587827682495
1761915223494818800,9.70781884765625,0.14409619569778442,0.048178449273109436,-1.865014672279358
1761915223504872700,9.717872802734375,0.16898661851882935,0.6163428425788879,-1.9038277864456177
1761915223514927900,9.727927978515625,0.11160482466220856,0.9312898516654968,-1.8001445531845093
1761915223524981800,9.737981689453125,-0.013728062622249126,0.9494590163230896,-1.565104603767395
1761915223535036000,9.748035888671875,-0.15903864800930023,0.7848149538040161,-1.1897392272949219
1761915223545089800,9.75808984375,-0.31130117177963257,0.5561625957489014,-0.7181911468505859
1761915223555144000,9.76814404296875,-0.4376194179058075,0.3709101676940918,-0.22099390625953674
1761915223565197800,9.77819775390625,-0.48983335494995117,0.28971409797668457,0.24518844485282898
1761915223575252700,9.788252685546874,-0.4892258942127228,0.35792645812034607,0.6687610149383545
1761915223585307000,9.798306884765625,-0.48295122385025024,0.5854091644287109,1.0452244281768799
1761915223595360800,9.80836083984375,-0.5083004832267761,0.8056248426437378,1.3571945428848267
1761915223605415000,9.818414794921875,-0.581453263759613,0.9130312204360962,1.5835422277450562
1761915223615468800,9.82846875,-0.679323673248291,0.7770611047744751,1.6534560918807983
1761915223625523000,9.83852294921875,-0.7685957551002502,0.4049474895000458,1.5982120037078857
1761915223635576800,9.848576904296875,-0.8478437066078186,0.005485845264047384,1.436285138130188
1761915223645631700,9.8586318359375,-0.9020336866378784,-0.15936808288097382,1.2280895709991455
1761915223655682300,9.868682373046875,-0.8790210485458374,-0.08313430100679398,1.0069854259490967
1761915223665736400,9.878736328125,-0.7605924010276794,0.015427691861987114,0.7859965562820435
1761915223675790600,9.88879052734375,-0.5482867956161499,0.04060548171401024,0.5265833735466003
1761915223685844500,9.898844482421875,-0.2635307013988495,0.05614476278424263,0.2660630941390991
1761915223695898600,9.908898681640625,0.024626515805721283,0.12874306738376617,0.06004229933023453
1761915223705952500,9.918952392578126,0.2296672761440277,0.37795236706733704,-0.0035947347059845924
1761915223716007400,9.92900732421875,0.30165332555770874,0.8200181722640991,0.10486117005348206
1761915223726061300,9.939061279296874,0.2633839547634125,1.2971248626708984,0.34373101592063904
1761915223736115500,9.949115478515624,0.20765838027000427,1.6027196645736694,0.6224942207336426
1761915223746169300,9.95916943359375,0.21921171247959137,1.5406240224838257,0.8373441696166992
1761915223756223500,9.969223388671875,0.38186055421829224,1.4030482769012451,0.9972925782203674
1761915223766277600,9.979277587890625,0.5696001052856445,1.291712999343872,1.1290879249572754
1761915223776331500,9.98933154296875,0.6398835778236389,1.0433498620986938,1.1390461921691895
1761915223786386400,9.999386474609375,0.5205425024032593,0.27730217576026917,1.1191375255584717
1761915223796440300,10.0094404296875,0.33572500944137573,-1.0600576400756836,0.7910706996917725
1761915223806494500,10.019494384765625,0.41742652654647827,-1.092148780822754,0.4926983714103699
1761915223816548400,10.02954833984375,0.4270578622817993,-0.3373330235481262,0.45369160175323486
1761915223826602500,10.0396025390625,0.2540573179721832,0.42337682843208313,0.5637355446815491
1761915223836656400,10.049656494140624,0.04453551024198532,0.9832949638366699,0.7171200513839722
1761915223846710500,10.05971044921875,0.02684972435235977,1.1617987155914307,0.8862499594688416
1761915223856765400,10.069765380859375,0.09711509943008423,0.6624192595481873,0.9367895722389221
