time,seconds_elapsed,z,y,x
1761916282596843800,0.07584375,-0.9925689697265625,0.0136871337890625,-0.01129150390625
1761916282606899700,0.085899658203125,-0.9854888916015625,0.01434326171875,-0.0134124755859375
1761916282616955000,0.095954833984375,-0.987945556640625,0.015350341796875,-0.011322021484375
1761916282627009500,0.106009521484375,-0.996185302734375,0.0139312744140625,-0.010009765625
1761916282637065700,0.116065673828125,-0.992095947265625,0.0117645263671875,-0.0110321044921875
1761916282647120600,0.12612060546875,-0.986602783203125,0.01324462890625,-0.0131072998046875
1761916282657175800,0.13617578125,-0.9870758056640625,0.014251708984375,-0.0119476318359375
1761916282667231700,0.146231689453125,-0.9923095703125,0.0136871337890625,-0.01055908203125
1761916282677286700,0.15628662109375,-0.9932861328125,0.0123291015625,-0.0102386474609375
1761916282687341600,0.166341552734375,-0.9893798828125,0.0146331787109375,-0.0116119384765625
1761916282697397800,0.176397705078125,-0.986846923828125,0.013763427734375,-0.01239013671875
1761916282707452700,0.18645263671875,-0.9907684326171875,0.0128936767578125,-0.0122833251953125
1761916282717507800,0.1965078125,-0.99285888671875,0.01287841796875,-0.0118560791015625
1761916282727568000,0.20656787109375,-0.989654541015625,0.01251220703125,-0.0120086669921875
1761916282737622800,0.216622802734375,-0.9880218505859375,0.013427734375,-0.0121002197265625
1761916282747677700,0.226677734375,-0.991363525390625,0.0127105712890625,-0.01251220703125
1761916282757734000,0.23673388671875,-0.99151611328125,0.013092041015625,-0.011871337890625
1761916282767788800,0.246788818359375,-0.989471435546875,0.0123748779296875,-0.011199951171875
1761916282777843700,0.25684375,-0.99066162109375,0.0139007568359375,-0.011474609375
1761916282787899600,0.266899658203125,-0.99053955078125,0.014373779296875,-0.0118408203125
1761916282797954800,0.276954833984375,-0.9892425537109375,0.0135040283203125,-0.0115814208984375
1761916282808010000,0.287010009765625,-0.9901580810546875,0.0146026611328125,-0.0101165771484375
1761916282818066000,0.29706591796875,-0.99249267578125,0.0145263671875,-0.0109405517578125
1761916282828120800,0.307120849609375,-0.9902496337890625,0.0144500732421875,-0.0106658935546875
1761916282838175700,0.31717578125,-0.988311767578125,0.0131072998046875,-0.0121612548828125
1761916282848231700,0.327231689453125,-0.9890899658203125,0.011962890625,-0.0112152099609375
1761916282858286800,0.337286865234375,-0.991241455078125,0.013946533203125,-0.0111541748046875
1761916282868342000,0.347342041015625,-0.9902191162109375,0.0131683349609375,-0.0110015869140625
1761916282878397700,0.357397705078125,-0.9892578125,0.01446533203125,-0.0115203857421875
1761916282888452900,0.367452880859375,-0.9903106689453125,0.0141448974609375,-0.011138916015625
1761916282898507800,0.3775078125,-0.9895782470703125,0.013702392578125,-0.0121612548828125
1761916282908564000,0.38756396484375,-0.98968505859375,0.0142059326171875,-0.0120849609375
1761916282918619000,0.397618896484375,-0.98980712890625,0.014312744140625,-0.01214599609375
1761916282928673800,0.407673828125,-0.987457275390625,0.0148162841796875,-0.011871337890625
1761916282938729700,0.417729736328125,-0.9891815185546875,0.0141754150390625,-0.0115966796875
1761916282948785000,0.427784912109375,-0.99169921875,0.0129547119140625,-0.01104736328125
1761916282958839800,0.43783984375,-0.990478515625,0.0129852294921875,-0.011260986328125
1761916282968896000,0.44789599609375,-0.98822021484375,0.014373779296875,-0.0129241943359375
1761916282978950700,0.45795068359375,-0.9887542724609375,0.0139617919921875,-0.0120086669921875
1761916282989005800,0.468005859375,-0.9920196533203125,0.013671875,-0.0110321044921875
1761916282999061000,0.47806103515625,-0.992767333984375,0.01385498046875,-0.011077880859375
1761916283009117000,0.488116943359375,-0.98919677734375,0.0143280029296875,-0.0116729736328125
1761916283019171800,0.498171875,-0.988861083984375,0.01336669921875,-0.0118865966796875
1761916283029227800,0.508227783203125,-0.9915771484375,0.0123748779296875,-0.01104736328125
1761916283039282700,0.51828271484375,-0.9903106689453125,0.0153961181640625,-0.011016845703125
1761916283049337900,0.528337890625,-0.9883270263671875,0.0137176513671875,-0.01202392578125
1761916283059393000,0.53839306640625,-0.990325927734375,0.013519287109375,-0.01104736328125
1761916283069448700,0.54844873046875,-0.9900970458984375,0.0123748779296875,-0.0116729736328125
1761916283079504000,0.55850390625,-0.98956298828125,0.0140838623046875,-0.0118408203125
1761916283089558800,0.568558837890625,-0.9907684326171875,0.01422119140625,-0.0107574462890625
1761916283099615000,0.578614990234375,-0.989990234375,0.0135650634765625,-0.0106201171875
1761916283109670000,0.588669921875,-0.989501953125,0.01397705078125,-0.0111846923828125
1761916283119724800,0.598724853515625,-0.990753173828125,0.012725830078125,-0.01116943359375
1761916283129780700,0.60878076171875,-0.98992919921875,0.013427734375,-0.0117950439453125
1761916283139836000,0.6188359375,-0.9893798828125,0.013946533203125,-0.0114593505859375
1761916283149890800,0.628890869140625,-0.99029541015625,0.0140533447265625,-0.012481689453125
1761916283159947000,0.638947021484375,-0.990478515625,0.0131683349609375,-0.011871337890625
1761916283170001700,0.649001708984375,-0.99072265625,0.0128936767578125,-0.0116729736328125
1761916283180056800,0.659056884765625,-0.9889068603515625,0.01409912109375,-0.011444091796875
1761916283190112800,0.66911279296875,-0.9892578125,0.0137176513671875,-0.011505126953125
1761916283200168000,0.67916796875,-0.9909210205078125,0.012969970703125,-0.0107574462890625
1761916283210222800,0.689222900390625,-0.991119384765625,0.0133819580078125,-0.0108642578125
1761916283220278800,0.69927880859375,-0.9893341064453125,0.0129241943359375,-0.010894775390625
1761916283230333700,0.709333740234375,-0.9893646240234375,0.013275146484375,-0.0108642578125
1761916283240388900,0.719388916015625,-0.9894561767578125,0.0131988525390625,-0.010986328125
1761916283250444800,0.72944482421875,-0.9904937744140625,0.013397216796875,-0.0110321044921875
1761916283260499700,0.739499755859375,-0.99127197265625,0.0137786865234375,-0.011749267578125
1761916283270555000,0.749554931640625,-0.989715576171875,0.0136260986328125,-0.0118408203125
1761916283280610800,0.75961083984375,-0.989837646484375,0.0141143798828125,-0.012054443359375
1761916283290666000,0.769666015625,-0.9903717041015625,0.01458740234375,-0.011566162109375
1761916283300721000,0.779720947265625,-0.989471435546875,0.01495361328125,-0.011871337890625
1761916283310776800,0.78977685546875,-0.9906158447265625,0.0136260986328125,-0.010955810546875
1761916283320831700,0.799831787109375,-0.9910125732421875,0.01361083984375,-0.0116119384765625
1761916283330887000,0.809886962890625,-0.989349365234375,0.01318359375,-0.0114593505859375
1761916283340942800,0.81994287109375,-0.98858642578125,0.01361083984375,-0.0117950439453125
1761916283350998000,0.829998046875,-0.990570068359375,0.0140228271484375,-0.0112152099609375
1761916283361052700,0.840052734375,-0.9915313720703125,0.013153076171875,-0.01092529296875
1761916283371108900,0.85010888671875,-0.9898834228515625,0.0141754150390625,-0.0115203857421875
1761916283381163800,0.860163818359375,-0.9898529052734375,0.0133514404296875,-0.01177978515625
1761916283391219000,0.870218994140625,-0.9908447265625,0.0137939453125,-0.011566162109375
1761916283401275000,0.88027490234375,-0.9905548095703125,0.0142974853515625,-0.011199951171875
1761916283411329800,0.890329833984375,-0.989166259765625,0.0144805908203125,-0.01080322265625
1761916283421384700,0.900384765625,-0.9911651611328125,0.0128326416015625,-0.0113067626953125
1761916283431441000,0.91044091796875,-0.989715576171875,0.0112762451171875,-0.012115478515625
1761916283441495800,0.920495849609375,-0.9886627197265625,0.0128173828125,-0.0111541748046875
1761916283451552000,0.930552001953125,-0.990509033203125,0.014495849609375,-0.0112457275390625
1761916283461606700,0.940606689453125,-0.9907073974609375,0.0139312744140625,-0.0106353759765625
1761916283471661800,0.950661865234375,-0.9903564453125,0.012664794921875,-0.0114288330078125
1761916283481717800,0.9607177734375,-0.9897613525390625,0.013427734375,-0.011322021484375
1761916283491773000,0.97077294921875,-0.98968505859375,0.0137939453125,-0.0119781494140625
1761916283501827800,0.980827880859375,-0.989288330078125,0.01416015625,-0.0113677978515625
1761916283511883800,0.9908837890625,-0.9908447265625,0.013885498046875,-0.0112762451171875
1761916283521938700,1.000938720703125,-0.98968505859375,0.0128326416015625,-0.0120391845703125
1761916283531993900,1.010993896484375,-0.9900054931640625,0.0145416259765625,-0.0117645263671875
1761916283542049800,1.0210498046875,-0.989715576171875,0.014434814453125,-0.0115814208984375
1761916283552104700,1.031104736328125,-0.9893951416015625,0.0143280029296875,-0.0110931396484375
1761916283562159900,1.041159912109375,-0.989959716796875,0.0133514404296875,-0.0108795166015625
1761916283572215800,1.0512158203125,-0.9903717041015625,0.012176513671875,-0.0111846923828125
1761916283582271000,1.06127099609375,-0.9899139404296875,0.0145111083984375,-0.01171875
1761916283592326000,1.071325927734375,-0.9904937744140625,0.014495849609375,-0.0116424560546875
1761916283602381800,1.0813818359375,-0.9899444580078125,0.014129638671875,-0.01177978515625
1761916283612436700,1.091436767578125,-0.9896240234375,0.0130157470703125,-0.0115509033203125
1761916283622492000,1.101491943359375,-0.98944091796875,0.0146331787109375,-0.012420654296875
1761916283632547800,1.1115478515625,-0.989593505859375,0.0142822265625,-0.0113067626953125
1761916283642603000,1.12160302734375,-0.9911651611328125,0.012481689453125,-0.011138916015625
1761916283652657700,1.13165771484375,-0.99163818359375,0.013153076171875,-0.0108184814453125
1761916283662713900,1.1417138671875,-0.9898834228515625,0.0136566162109375,-0.011749267578125
1761916283672768800,1.151768798828125,-0.9896392822265625,0.0135955810546875,-0.010894775390625
1761916283682824000,1.161823974609375,-0.9906158447265625,0.014068603515625,-0.0113372802734375
1761916283692880000,1.1718798828125,-0.98968505859375,0.014251708984375,-0.0118255615234375
1761916283702934800,1.181934814453125,-0.98883056640625,0.01324462890625,-0.012298583984375
1761916283712989700,1.19198974609375,-0.9893341064453125,0.0135040283203125,-0.0111541748046875
1761916283723041800,1.202041748046875,-0.9896392822265625,0.013336181640625,-0.0112457275390625
1761916283733096700,1.2120966796875,-0.9886322021484375,0.013397216796875,-0.0110321044921875
1761916283743151600,1.222151611328125,-0.990142822265625,0.013427734375,-0.01165771484375
1761916283753207800,1.232207763671875,-0.9900970458984375,0.0131378173828125,-0.012237548828125
1761916283763262700,1.2422626953125,-0.9895172119140625,0.014801025390625,-0.0113067626953125
1761916283773317600,1.252317626953125,-0.98919677734375,0.0142822265625,-0.0113372802734375
1761916283783373600,1.26237353515625,-0.9907073974609375,0.0131378173828125,-0.011688232421875
1761916283793428700,1.2724287109375,-0.990875244140625,0.0127716064453125,-0.011932373046875
1761916283803483600,1.282483642578125,-0.9900054931640625,0.0134735107421875,-0.011566162109375
1761916283813539800,1.292539794921875,-0.9892578125,0.01324462890625,-0.01171875
1761916283823594500,1.302594482421875,-0.990020751953125,0.013092041015625,-0.011322021484375
1761916283833649700,1.312649658203125,-0.989288330078125,0.013641357421875,-0.011505126953125
1761916283843705600,1.32270556640625,-0.9895477294921875,0.013275146484375,-0.0122222900390625
1761916283853760800,1.3327607421875,-0.989959716796875,0.013427734375,-0.0119171142578125
1761916283863815700,1.342815673828125,-0.9896697998046875,0.014190673828125,-0.0118865966796875
1761916283873872000,1.352871826171875,-0.989898681640625,0.0139007568359375,-0.0103759765625
1761916283883926500,1.362926513671875,-0.9900970458984375,0.0136566162109375,-0.0107421875
1761916283893981700,1.372981689453125,-0.989898681640625,0.0143585205078125,-0.0110015869140625
1761916283904037600,1.38303759765625,-0.9897003173828125,0.01458740234375,-0.010101318359375
1761916283914092800,1.3930927734375,-0.988739013671875,0.013092041015625,-0.01080322265625
1761916283924147700,1.403147705078125,-0.9901275634765625,0.0130615234375,-0.011383056640625
1761916283934203600,1.41320361328125,-0.9907989501953125,0.013916015625,-0.010467529296875
1761916283944258800,1.4232587890625,-0.98980712890625,0.013275146484375,-0.0110931396484375
1761916283954313700,1.433313720703125,-0.99072265625,0.013946533203125,-0.0111083984375
1761916283964369700,1.44336962890625,-0.991424560546875,0.01483154296875,-0.011688232421875
1761916283974424600,1.453424560546875,-0.9905548095703125,0.0135345458984375,-0.0112457275390625
1761916283984479700,1.463479736328125,-0.9901580810546875,0.0138702392578125,-0.0114288330078125
1761916283994535700,1.47353564453125,-0.990509033203125,0.0141448974609375,-0.0113677978515625
1761916284004590800,1.4835908203125,-0.9893646240234375,0.0145111083984375,-0.0114288330078125
1761916284014645500,1.4936455078125,-0.990081787109375,0.01348876953125,-0.0123291015625
1761916284024701700,1.50370166015625,-0.9905548095703125,0.0134124755859375,-0.0115966796875
1761916284034756600,1.513756591796875,-0.9910125732421875,0.013397216796875,-0.012054443359375
1761916284044811800,1.523811767578125,-0.989501953125,0.0130615234375,-0.01190185546875
1761916284054867700,1.53386767578125,-0.9903717041015625,0.0128021240234375,-0.01092529296875
1761916284064922600,1.543922607421875,-0.990570068359375,0.0131378173828125,-0.0110931396484375
1761916284074977500,1.5539775390625,-0.9884033203125,0.0140380859375,-0.0117950439453125
1761916284085033700,1.56403369140625,-0.9885101318359375,0.0142669677734375,-0.0115966796875
1761916284095088600,1.574088623046875,-0.9903411865234375,0.0137939453125,-0.010650634765625
1761916284105143800,1.584143798828125,-0.992828369140625,0.013885498046875,-0.0108184814453125
1761916284115199700,1.59419970703125,-0.990234375,0.01361083984375,-0.0117645263671875
1761916284125254700,1.604254638671875,-0.988494873046875,0.0138397216796875,-0.0112152099609375
1761916284135309800,1.614309814453125,-0.9901123046875,0.014129638671875,-0.0106353759765625
1761916284145365800,1.62436572265625,-0.9907989501953125,0.0135345458984375,-0.01080322265625
1761916284155420700,1.634420654296875,-0.9902191162109375,0.0135650634765625,-0.0112762451171875
1761916284165475600,1.6444755859375,-0.9896697998046875,0.0131378173828125,-0.012664794921875
1761916284175531500,1.654531494140625,-0.9892578125,0.0134735107421875,-0.0125732421875
1761916284185586700,1.664586669921875,-0.9903717041015625,0.0139007568359375,-0.0122222900390625
1761916284195641900,1.674641845703125,-0.9896697998046875,0.01287841796875,-0.011932373046875
1761916284205697800,1.68469775390625,-0.98992919921875,0.0134124755859375,-0.0117034912109375
1761916284215752700,1.694752685546875,-0.9889373779296875,0.01397705078125,-0.0113677978515625
1761916284225807600,1.7048076171875,-0.9907379150390625,0.014495849609375,-0.0106048583984375
1761916284235863800,1.71486376953125,-0.9910736083984375,0.0125579833984375,-0.01068115234375
1761916284245918700,1.724918701171875,-0.9910888671875,0.011871337890625,-0.011627197265625
1761916284255973600,1.7349736328125,-0.98968505859375,0.012908935546875,-0.0112457275390625
1761916284266029600,1.745029541015625,-0.989837646484375,0.0137481689453125,-0.011138916015625
1761916284276084700,1.755084716796875,-0.990478515625,0.0142822265625,-0.0113983154296875
1761916284286139600,1.7651396484375,-0.9911041259765625,0.0139617919921875,-0.0109710693359375
1761916284296195800,1.77519580078125,-0.9909820556640625,0.013885498046875,-0.0104827880859375
1761916284306250500,1.78525048828125,-0.98968505859375,0.013397216796875,-0.011199951171875
1761916284316305700,1.7953056640625,-0.9896392822265625,0.0138397216796875,-0.0110626220703125
1761916284326361600,1.805361572265625,-0.9907379150390625,0.0134735107421875,-0.0101776123046875
1761916284336416800,1.815416748046875,-0.9903106689453125,0.0135040283203125,-0.0117034912109375
1761916284346471700,1.8254716796875,-0.98956298828125,0.01385498046875,-0.0112152099609375
1761916284356527900,1.83552783203125,-0.9894866943359375,0.0140228271484375,-0.0109100341796875
1761916284366582500,1.84558251953125,-0.9897003173828125,0.013275146484375,-0.0114593505859375
1761916284376637700,1.8556376953125,-0.99029541015625,0.01409912109375,-0.011474609375
1761916284386693600,1.865693603515625,-0.9906768798828125,0.013824462890625,-0.011688232421875
1761916284396748800,1.875748779296875,-0.9896240234375,0.0134735107421875,-0.011962890625
1761916284406803700,1.8858037109375,-0.98956298828125,0.013702392578125,-0.0121917724609375
1761916284416859600,1.895859619140625,-0.9892730712890625,0.01416015625,-0.0119476318359375
1761916284426914800,1.905914794921875,-0.9908447265625,0.0140380859375,-0.0113525390625
1761916284436969700,1.9159697265625,-0.9910888671875,0.01416015625,-0.011474609375
1761916284447025700,1.926025634765625,-0.9899444580078125,0.0140380859375,-0.010162353515625
1761916284457080600,1.93608056640625,-0.989776611328125,0.0135498046875,-0.011016845703125
1761916284467136500,1.946136474609375,-0.9902801513671875,0.012969970703125,-0.0108489990234375
1761916284477191700,1.956191650390625,-0.98944091796875,0.0134735107421875,-0.0102386474609375
1761916284487246800,1.966246826171875,-0.98944091796875,0.014251708984375,-0.010040283203125
1761916284497302800,1.976302734375,-0.9905853271484375,0.0124359130859375,-0.011260986328125
1761916284507357700,1.986357666015625,-0.9897308349609375,0.01385498046875,-0.011566162109375
1761916284517412600,1.99641259765625,-0.991546630859375,0.0126495361328125,-0.0121307373046875
1761916284527468800,2.00646875,-0.98931884765625,0.0133819580078125,-0.0115966796875
1761916284537523700,2.016523681640625,-0.9892730712890625,0.0138702392578125,-0.0113067626953125
1761916284547578600,2.02657861328125,-0.991058349609375,0.013763427734375,-0.0111083984375
1761916284557634600,2.036634521484375,-0.9908599853515625,0.0131378173828125,-0.010986328125
1761916284567689700,2.046689697265625,-0.989715576171875,0.0140228271484375,-0.0111236572265625
1761916284577744600,2.05674462890625,-0.9895782470703125,0.0142822265625,-0.0116729736328125
1761916284587800800,2.06680078125,-0.9911651611328125,0.0143890380859375,-0.01177978515625
1761916284597855700,2.076855712890625,-0.9906768798828125,0.0142669677734375,-0.012481689453125
1761916284607910700,2.08691064453125,-0.990234375,0.0140380859375,-0.0116729736328125
1761916284617966600,2.096966552734375,-0.9903564453125,0.013702392578125,-0.010498046875
1761916284628021800,2.107021728515625,-0.990325927734375,0.0130157470703125,-0.0111236572265625
1761916284638076700,2.11707666015625,-0.9897308349609375,0.0130462646484375,-0.01190185546875
1761916284648132900,2.1271328125,-0.989776611328125,0.013427734375,-0.01141357421875
1761916284658187500,2.1371875,-0.989990234375,0.0135650634765625,-0.0114288330078125
1761916284668242700,2.14724267578125,-0.9911041259765625,0.01324462890625,-0.010498046875
1761916284678298600,2.157298583984375,-0.9890594482421875,0.0132904052734375,-0.011749267578125
1761916284688353800,2.167353759765625,-0.98907470703125,0.01275634765625,-0.0104827880859375
1761916284698408700,2.17740869140625,-0.9909820556640625,0.0123443603515625,-0.0106964111328125
1761916284708464600,2.187464599609375,-0.99102783203125,0.0123291015625,-0.011077880859375
1761916284718519800,2.197519775390625,-0.9889678955078125,0.0141143798828125,-0.0117645263671875
1761916284728574700,2.20757470703125,-0.989471435546875,0.014312744140625,-0.01141357421875
1761916284738630700,2.217630615234375,-0.99139404296875,0.0133056640625,-0.0110015869140625
1761916284748685800,2.227685791015625,-0.9898223876953125,0.0129241943359375,-0.01123046875
1761916284758740700,2.23774072265625,-0.9900054931640625,0.014801025390625,-0.0113983154296875
1761916284768796700,2.247796630859375,-0.9906158447265625,0.0148162841796875,-0.011566162109375
1761916284778851800,2.257851806640625,-0.988525390625,0.0132598876953125,-0.01123046875
1761916284788906800,2.26790673828125,-0.9900665283203125,0.013214111328125,-0.0105743408203125
1761916284798963000,2.277962890625,-0.9898681640625,0.0140380859375,-0.0110015869140625
1761916284809017600,2.288017578125,-0.9888153076171875,0.0143585205078125,-0.01092529296875
1761916284819072800,2.29807275390625,-0.989410400390625,0.013275146484375,-0.010833740234375
1761916284829128700,2.308128662109375,-0.99102783203125,0.0124053955078125,-0.0115509033203125
1761916284839184000,2.318183837890625,-0.9897918701171875,0.0135498046875,-0.01153564453125
1761916284849238500,2.328238525390625,-0.9892730712890625,0.0140380859375,-0.011444091796875
1761916284859294700,2.338294677734375,-0.9901885986328125,0.013641357421875,-0.01123046875
1761916284869349600,2.348349609375,-0.9900970458984375,0.013946533203125,-0.0116729736328125
1761916284879404800,2.35840478515625,-0.9890899658203125,0.013275146484375,-0.0118865966796875
1761916284889460700,2.368460693359375,-0.99066162109375,0.013427734375,-0.0114898681640625
1761916284899515600,2.378515625,-0.9893798828125,0.013519287109375,-0.01165771484375
1761916284909570800,2.38857080078125,-0.989105224609375,0.0146636962890625,-0.0113067626953125
1761916284919626800,2.398626708984375,-0.9906158447265625,0.013824462890625,-0.0116119384765625
1761916284929681700,2.408681640625,-0.9895477294921875,0.0134124755859375,-0.0115814208984375
1761916284939736800,2.41873681640625,-0.9894256591796875,0.013519287109375,-0.0109405517578125
1761916284949792500,2.42879248046875,-0.9892425537109375,0.013031005859375,-0.0106658935546875
1761916284959847700,2.43884765625,-0.9888916015625,0.0127410888671875,-0.010833740234375
1761916284969902800,2.44890283203125,-0.990234375,0.01324462890625,-0.012176513671875
1761916284979958800,2.458958740234375,-0.9894561767578125,0.0128936767578125,-0.011627197265625
1761916284990014000,2.469013916015625,-0.9891357421875,0.0145111083984375,-0.01123046875
1761916285000068600,2.479068603515625,-0.9892578125,0.0145721435546875,-0.012237548828125
1761916285010124800,2.489124755859375,-0.9893951416015625,0.014129638671875,-0.0109100341796875
1761916285020179700,2.4991796875,-0.990142822265625,0.0130615234375,-0.011444091796875
1761916285030235000,2.50923486328125,-0.9900054931640625,0.0132598876953125,-0.0109405517578125
1761916285040290800,2.519290771484375,-0.9893798828125,0.0138397216796875,-0.011688232421875
1761916285050345700,2.529345703125,-0.9904937744140625,0.014862060546875,-0.0109405517578125
1761916285060400600,2.539400634765625,-0.9905548095703125,0.01434326171875,-0.0108642578125
1761916285070456800,2.549456787109375,-0.990081787109375,0.0135955810546875,-0.0114593505859375
1761916285080511700,2.55951171875,-0.9898834228515625,0.013153076171875,-0.0110931396484375
1761916285090566700,2.569566650390625,-0.9893798828125,0.0142059326171875,-0.0106201171875
1761916285100622600,2.57962255859375,-0.989501953125,0.0141448974609375,-0.01116943359375
1761916285110677800,2.589677734375,-0.991668701171875,0.01318359375,-0.011322021484375
1761916285120732700,2.599732666015625,-0.9901580810546875,0.0135498046875,-0.01104736328125
1761916285130788900,2.609788818359375,-0.9902801513671875,0.013214111328125,-0.0118560791015625
1761916285140843500,2.619843505859375,-0.9894561767578125,0.0137481689453125,-0.011749267578125
1761916285150898700,2.629898681640625,-0.990081787109375,0.0141754150390625,-0.0110321044921875
1761916285160954600,2.63995458984375,-0.9905853271484375,0.012603759765625,-0.0118560791015625
1761916285171009800,2.650009765625,-0.9887847900390625,0.01251220703125,-0.0111083984375
1761916285181065000,2.66006494140625,-0.9893035888671875,0.012969970703125,-0.01116943359375
1761916285191120600,2.67012060546875,-0.98968505859375,0.0137176513671875,-0.011444091796875
1761916285201175800,2.68017578125,-0.989349365234375,0.0136566162109375,-0.0104827880859375
1761916285211231700,2.690231689453125,-0.9894256591796875,0.0135040283203125,-0.01092529296875
1761916285221286700,2.70028662109375,-0.9900970458984375,0.0136566162109375,-0.0117950439453125
1761916285231341800,2.710341796875,-0.98992919921875,0.013763427734375,-0.0116119384765625
1761916285241397500,2.7203974609375,-0.9898529052734375,0.0146331787109375,-0.010833740234375
1761916285251452700,2.73045263671875,-0.9899139404296875,0.0129241943359375,-0.011566162109375
1761916285261507800,2.7405078125,-0.990203857421875,0.0128021240234375,-0.0115203857421875
1761916285271563800,2.750563720703125,-0.9891357421875,0.0142669677734375,-0.0113677978515625
1761916285281619000,2.760618896484375,-0.9886627197265625,0.0130157470703125,-0.01092529296875
1761916285291673600,2.770673583984375,-0.9900360107421875,0.013519287109375,-0.01220703125
1761916285301729800,2.780729736328125,-0.9890899658203125,0.0145416259765625,-0.011688232421875
1761916285311784700,2.79078466796875,-0.989837646484375,0.0140838623046875,-0.0106658935546875
1761916285321839900,2.80083984375,-0.99041748046875,0.013946533203125,-0.0119781494140625
1761916285331895800,2.810895751953125,-0.9892578125,0.0136260986328125,-0.0106353759765625
1761916285341950700,2.82095068359375,-0.9909820556640625,0.0140380859375,-0.0107269287109375
1761916285352005600,2.831005615234375,-0.9904022216796875,0.0135498046875,-0.011016845703125
1761916285362061800,2.841061767578125,-0.9900665283203125,0.013916015625,-0.011566162109375
1761916285372116700,2.85111669921875,-0.9905242919921875,0.013702392578125,-0.0107421875
1761916285382171600,2.861171630859375,-0.990203857421875,0.013702392578125,-0.0112152099609375
1761916285392227600,2.8712275390625,-0.990875244140625,0.0131988525390625,-0.01116943359375
1761916285402282800,2.88128271484375,-0.99072265625,0.01385498046875,-0.011993408203125
1761916285412337700,2.891337646484375,-0.98992919921875,0.012939453125,-0.011932373046875
1761916285422393900,2.901393798828125,-0.9906005859375,0.0130767822265625,-0.0107574462890625
1761916285432448500,2.911448486328125,-0.9906158447265625,0.013214111328125,-0.0116729736328125
1761916285442503700,2.921503662109375,-0.99017333984375,0.01318359375,-0.0108184814453125
1761916285452559600,2.9315595703125,-0.9906768798828125,0.013580322265625,-0.0107879638671875
1761916285462614800,2.94161474609375,-0.9890289306640625,0.0129547119140625,-0.011199951171875
1761916285472670000,2.951669921875,-0.9892425537109375,0.0128021240234375,-0.0114593505859375
1761916285482725600,2.9617255859375,-0.990447998046875,0.012786865234375,-0.0121612548828125
1761916285492780800,2.97178076171875,-0.9892425537109375,0.0135498046875,-0.0115203857421875
1761916285502835700,2.981835693359375,-0.9892120361328125,0.0135650634765625,-0.0120086669921875
1761916285512891600,2.9918916015625,-0.9906005859375,0.0139617919921875,-0.0110626220703125
1761916285522946800,3.00194677734375,-0.9899444580078125,0.0141143798828125,-0.0114288330078125
1761916285533001700,3.012001708984375,-0.98834228515625,0.01397705078125,-0.01171875
1761916285543057700,3.0220576171875,-0.989654541015625,0.0139617919921875,-0.0121612548828125
1761916285553112800,3.03211279296875,-0.9913482666015625,0.0132293701171875,-0.01153564453125
1761916285563167700,3.042167724609375,-0.990631103515625,0.0135498046875,-0.0106964111328125
1761916285573224000,3.052223876953125,-0.990142822265625,0.0133056640625,-0.0110626220703125
1761916285583278600,3.062278564453125,-0.9908905029296875,0.0135345458984375,-0.01123046875
1761916285593334800,3.072334716796875,-0.990753173828125,0.0138397216796875,-0.01104736328125
1761916285603389700,3.0823896484375,-0.989410400390625,0.0142974853515625,-0.0117340087890625
1761916285613444900,3.09244482421875,-0.9903564453125,0.012359619140625,-0.0117340087890625
1761916285623500800,3.102500732421875,-0.989166259765625,0.0133819580078125,-0.011810302734375
1761916285633555700,3.1125556640625,-0.9891357421875,0.0138092041015625,-0.0117034912109375
1761916285643610600,3.122610595703125,-0.989105224609375,0.0135650634765625,-0.0106201171875
1761916285653666800,3.132666748046875,-0.98956298828125,0.01287841796875,-0.0110931396484375
1761916285663721700,3.1427216796875,-0.990509033203125,0.01300048828125,-0.0114593505859375
1761916285673776600,3.152776611328125,-0.99005126953125,0.013458251953125,-0.0113372802734375
1761916285683832600,3.16283251953125,-0.9890594482421875,0.013153076171875,-0.0118408203125
1761916285693887700,3.1728876953125,-0.990692138671875,0.01263427734375,-0.0109100341796875
1761916285703942700,3.182942626953125,-0.9904022216796875,0.013458251953125,-0.0108184814453125
1761916285713998800,3.192998779296875,-0.9891357421875,0.0142974853515625,-0.01171875
1761916285724054000,3.203053955078125,-0.9891815185546875,0.0129241943359375,-0.011688232421875
1761916285734109200,3.213109130859375,-0.9892120361328125,0.0131378173828125,-0.0115966796875
1761916285744165000,3.2231650390625,-0.98919677734375,0.0134124755859375,-0.0112152099609375
1761916285754220000,3.233219970703125,-0.9896240234375,0.0133819580078125,-0.0112762451171875
1761916285764275200,3.243275146484375,-0.989837646484375,0.012939453125,-0.0107574462890625
1761916285774331100,3.2533310546875,-0.9904937744140625,0.0124359130859375,-0.0119781494140625
1761916285784386000,3.263385986328125,-0.9897613525390625,0.0141448974609375,-0.01202392578125
1761916285794441000,3.27344091796875,-0.9899139404296875,0.0143280029296875,-0.011077880859375
1761916285804497000,3.283496826171875,-0.9899139404296875,0.013336181640625,-0.011199951171875
1761916285814552000,3.293552001953125,-0.9899749755859375,0.0144195556640625,-0.01007080078125
1761916285824607200,3.303607177734375,-0.9893798828125,0.0136260986328125,-0.010406494140625
1761916285834663200,3.3136630859375,-0.98980712890625,0.013671875,-0.0116424560546875
1761916285844718000,3.323718017578125,-0.9916534423828125,0.0140380859375,-0.0119476318359375
1761916285854773000,3.33377294921875,-0.9909820556640625,0.0142669677734375,-0.0113067626953125
1761916285864829200,3.3438291015625,-0.9901275634765625,0.0136260986328125,-0.0111236572265625
1761916285874884000,3.353884033203125,-0.9892120361328125,0.0137176513671875,-0.0113372802734375
1761916285884940000,3.36393994140625,-0.9903564453125,0.0135345458984375,-0.011383056640625
1761916285894995000,3.373994873046875,-0.9893951416015625,0.013397216796875,-0.011871337890625
1761916285905050000,3.384050048828125,-0.9898834228515625,0.014068603515625,-0.011810302734375
1761916285915106000,3.39410595703125,-0.989410400390625,0.01385498046875,-0.01104736328125
1761916285925161200,3.4041611328125,-0.9903411865234375,0.014312744140625,-0.011383056640625
1761916285935215900,3.4142158203125,-0.991455078125,0.0134429931640625,-0.011505126953125
1761916285945272000,3.42427197265625,-0.989471435546875,0.0146942138671875,-0.0117340087890625
1761916285955327000,3.434326904296875,-0.989990234375,0.014068603515625,-0.0114593505859375
1761916285965382100,3.444382080078125,-0.9899139404296875,0.0128021240234375,-0.0116729736328125
1761916285975438000,3.45443798828125,-0.9894866943359375,0.013580322265625,-0.011138916015625
1761916285985493000,3.464492919921875,-0.990203857421875,0.01348876953125,-0.011810302734375
1761916285995548000,3.4745478515625,-0.990142822265625,0.0144500732421875,-0.011688232421875
1761916286005604000,3.48460400390625,-0.9904022216796875,0.0128021240234375,-0.0107879638671875
1761916286015659000,3.494658935546875,-0.9903564453125,0.012847900390625,-0.0113372802734375
1761916286025714200,3.504714111328125,-0.9898834228515625,0.012237548828125,-0.011322021484375
1761916286035770000,3.51477001953125,-0.98870849609375,0.0140533447265625,-0.0115203857421875
1761916286045825000,3.524824951171875,-0.9896240234375,0.0135498046875,-0.011505126953125
1761916286055880200,3.534880126953125,-0.9908294677734375,0.0131988525390625,-0.0117645263671875
1761916286065936100,3.54493603515625,-0.9907684326171875,0.01324462890625,-0.01123046875
1761916286075991000,3.554990966796875,-0.9893798828125,0.013946533203125,-0.0115509033203125
1761916286086046000,3.5650458984375,-0.989349365234375,0.0143585205078125,-0.011016845703125
1761916286096102000,3.575101806640625,-0.9903411865234375,0.013092041015625,-0.01141357421875
1761916286106157000,3.585156982421875,-0.9900665283203125,0.013671875,-0.0111236572265625
1761916286116213000,3.595212890625,-0.9898529052734375,0.013336181640625,-0.0105133056640625
1761916286126268200,3.60526806640625,-0.989654541015625,0.0135345458984375,-0.0111846923828125
1761916286136323000,3.615322998046875,-0.989288330078125,0.013885498046875,-0.0116729736328125
1761916286146379000,3.62537890625,-0.9896240234375,0.0135650634765625,-0.0114288330078125
1761916286156434200,3.63543408203125,-0.9915313720703125,0.012969970703125,-0.01129150390625
1761916286166489000,3.645489013671875,-0.9897003173828125,0.013916015625,-0.0108642578125
1761916286176545000,3.655544921875,-0.9889984130859375,0.013519287109375,-0.011871337890625
1761916286186600000,3.665599853515625,-0.989288330078125,0.013427734375,-0.0111541748046875
1761916286196655000,3.675655029296875,-0.990997314453125,0.013153076171875,-0.0110015869140625
1761916286206711000,3.6857109375,-0.9895782470703125,0.013397216796875,-0.0103759765625
1761916286216766200,3.69576611328125,-0.9909820556640625,0.0133056640625,-0.0111083984375
1761916286226820900,3.70582080078125,-0.9895172119140625,0.01385498046875,-0.011749267578125
1761916286236877000,3.715876953125,-0.989471435546875,0.0135650634765625,-0.01123046875
1761916286246932000,3.725931884765625,-0.9906768798828125,0.0131378173828125,-0.011474609375
1761916286256987100,3.735987060546875,-0.9892730712890625,0.0125732421875,-0.011932373046875
1761916286267043000,3.74604296875,-0.989501953125,0.0134124755859375,-0.0118255615234375
1761916286277098200,3.75609814453125,-0.9906768798828125,0.0137481689453125,-0.011199951171875
1761916286287153000,3.76615283203125,-0.9912109375,0.0133056640625,-0.0117340087890625
1761916286297209000,3.776208984375,-0.9899444580078125,0.0142669677734375,-0.01153564453125
1761916286307264000,3.786263916015625,-0.989288330078125,0.01287841796875,-0.0103759765625
1761916286317319200,3.796319091796875,-0.9902801513671875,0.0135650634765625,-0.010040283203125
1761916286327375000,3.806375,-0.989654541015625,0.0137176513671875,-0.0114898681640625
1761916286337430000,3.816429931640625,-0.9900665283203125,0.0125274658203125,-0.0105133056640625
1761916286347485200,3.826485107421875,-0.989593505859375,0.0127105712890625,-0.01104736328125
1761916286357541000,3.836541015625,-0.988861083984375,0.014801025390625,-0.011627197265625
1761916286367596000,3.846595947265625,-0.99066162109375,0.0137176513671875,-0.011260986328125
1761916286377652200,3.85665234375,-0.9909515380859375,0.013031005859375,-0.011962890625
1761916286387707000,3.866706787109375,-0.990203857421875,0.0135955810546875,-0.011749267578125
1761916286397762000,3.876761962890625,-0.990081787109375,0.014801025390625,-0.011474609375
1761916286407818000,3.88681787109375,-0.990966796875,0.014068603515625,-0.011566162109375
1761916286417873200,3.896873046875,-0.9898529052734375,0.0142822265625,-0.010772705078125
1761916286427928000,3.906927978515625,-0.9893951416015625,0.0138702392578125,-0.0111236572265625
1761916286437984000,3.91698388671875,-0.990142822265625,0.0129241943359375,-0.0106658935546875
1761916286448039200,3.9270390625,-0.9909210205078125,0.0128936767578125,-0.01171875
1761916286458094000,3.937093994140625,-0.9897918701171875,0.01361083984375,-0.011627197265625
1761916286468150000,3.94714990234375,-0.98974609375,0.013336181640625,-0.0117645263671875
1761916286478205000,3.957204833984375,-0.9904632568359375,0.0128021240234375,-0.0115509033203125
1761916286488260000,3.967260009765625,-0.9908905029296875,0.0134124755859375,-0.011474609375
1761916286498316000,3.97731591796875,-0.989471435546875,0.0135498046875,-0.0110015869140625
1761916286508371200,3.98737109375,-0.9895172119140625,0.0132904052734375,-0.0114288330078125
1761916286518426000,3.997426025390625,-0.9910430908203125,0.0126495361328125,-0.011260986328125
1761916286528482000,4.00748193359375,-0.9895782470703125,0.0133514404296875,-0.0105743408203125
1761916286538534100,4.0175341796875,-0.9906463623046875,0.013946533203125,-0.011199951171875
1761916286548589800,4.02758984375,-0.98992919921875,0.0145721435546875,-0.0109710693359375
1761916286558645000,4.03764501953125,-0.9900665283203125,0.01361083984375,-0.011077880859375
1761916286568700200,4.0477001953125,-0.989837646484375,0.0128021240234375,-0.0113677978515625
1761916286578756000,4.057756103515625,-0.9894866943359375,0.0136566162109375,-0.0114898681640625
1761916286588811300,4.067811279296875,-0.98956298828125,0.01324462890625,-0.0123138427734375
1761916286598866000,4.077865966796875,-0.9898223876953125,0.012939453125,-0.010986328125
1761916286608922000,4.087922119140625,-0.99066162109375,0.0133056640625,-0.0123138427734375
1761916286618977000,4.09797705078125,-0.990875244140625,0.0138092041015625,-0.0116119384765625
1761916286629033200,4.108033203125,-0.988922119140625,0.0139007568359375,-0.0118408203125
1761916286639088000,4.118088134765625,-0.9897918701171875,0.0138702392578125,-0.01171875
1761916286649143000,4.12814306640625,-0.9893951416015625,0.01409912109375,-0.0113525390625
1761916286659199000,4.138198974609375,-0.9904022216796875,0.013275146484375,-0.0116424560546875
1761916286669254100,4.148254150390625,-0.9901580810546875,0.0132293701171875,-0.0114898681640625
1761916286679309000,4.15830908203125,-0.9904937744140625,0.0131683349609375,-0.0106048583984375
1761916286689365200,4.168365234375,-0.9901123046875,0.0144195556640625,-0.011016845703125
1761916286699420000,4.178419921875,-0.9893951416015625,0.014739990234375,-0.0107421875
1761916286709475000,4.18847509765625,-0.990325927734375,0.0135040283203125,-0.0116119384765625
1761916286719531000,4.198531005859375,-0.9907073974609375,0.01324462890625,-0.011505126953125
1761916286729586400,4.20858642578125,-0.98907470703125,0.0133056640625,-0.01104736328125
1761916286739641300,4.218641357421875,-0.989776611328125,0.01324462890625,-0.0111083984375
1761916286749697500,4.228697509765625,-0.9900970458984375,0.013153076171875,-0.0109710693359375
1761916286759752400,4.23875244140625,-0.99017333984375,0.013671875,-0.01080322265625
1761916286769807400,4.248807373046875,-0.990020751953125,0.014190673828125,-0.01080322265625
1761916286779863300,4.25886328125,-0.990814208984375,0.0143280029296875,-0.0115203857421875
1761916286789918500,4.26891845703125,-0.99200439453125,0.0137939453125,-0.0118408203125
1761916286799973400,4.278973388671875,-0.9910736083984375,0.0143890380859375,-0.0113372802734375
1761916286810029600,4.289029541015625,-0.989837646484375,0.0138092041015625,-0.0108642578125
1761916286820084200,4.299084228515625,-0.990264892578125,0.01416015625,-0.0112457275390625
1761916286830140400,4.309140380859375,-0.9907073974609375,0.01348876953125,-0.0121307373046875
1761916286840195300,4.3191953125,-0.9904022216796875,0.013580322265625,-0.0118560791015625
1761916286850250500,4.32925048828125,-0.990753173828125,0.013641357421875,-0.0112457275390625
1761916286860306400,4.339306396484375,-0.9911346435546875,0.013153076171875,-0.0109710693359375
1761916286870361300,4.349361328125,-0.990142822265625,0.01397705078125,-0.0104217529296875
1761916286880416500,4.35941650390625,-0.990997314453125,0.0136871337890625,-0.0116424560546875
1761916286890472400,4.369472412109375,-0.9906768798828125,0.0137939453125,-0.010955810546875
1761916286900527400,4.37952734375,-0.9897918701171875,0.0147857666015625,-0.0108489990234375
1761916286910582500,4.38958251953125,-0.988677978515625,0.0138702392578125,-0.0115966796875
1761916286920638200,4.39963818359375,-0.989654541015625,0.01373291015625,-0.0113372802734375
1761916286930693400,4.409693359375,-0.9904937744140625,0.013092041015625,-0.0109710693359375
1761916286940748500,4.41974853515625,-0.9900665283203125,0.013916015625,-0.0111083984375
1761916286950804500,4.429804443359375,-0.9892730712890625,0.0141754150390625,-0.0111236572265625
1761916286960859600,4.439859619140625,-0.9908905029296875,0.013214111328125,-0.0114898681640625
1761916286970914300,4.449914306640625,-0.9904327392578125,0.01324462890625,-0.011444091796875
1761916286980970500,4.459970458984375,-0.99017333984375,0.0128631591796875,-0.0113525390625
1761916286991025400,4.470025390625,-0.9897918701171875,0.01287841796875,-0.0118408203125
1761916287001081300,4.480081298828125,-0.99053955078125,0.0143890380859375,-0.01177978515625
1761916287011136500,4.490136474609375,-0.9896697998046875,0.0145721435546875,-0.011383056640625
1761916287021191400,4.50019140625,-0.989959716796875,0.0130462646484375,-0.0110626220703125
1761916287031247400,4.510247314453125,-0.98980712890625,0.01409912109375,-0.0108489990234375
1761916287041302500,4.520302490234375,-0.9900665283203125,0.0136260986328125,-0.011474609375
1761916287051357400,4.530357421875,-0.9898529052734375,0.0144195556640625,-0.011810302734375
1761916287061413600,4.54041357421875,-0.9904022216796875,0.0147705078125,-0.0119171142578125
1761916287071468300,4.55046826171875,-0.9910888671875,0.0137176513671875,-0.0106658935546875
1761916287081523500,4.5605234375,-0.9906463623046875,0.0137481689453125,-0.0103607177734375
1761916287091579400,4.570579345703125,-0.99005126953125,0.0126495361328125,-0.01116943359375
1761916287101634600,4.580634521484375,-0.9891357421875,0.0135040283203125,-0.0115814208984375
1761916287111689200,4.590689208984375,-0.9897613525390625,0.01287841796875,-0.011199951171875
1761916287121748500,4.60074853515625,-0.9904937744140625,0.01300048828125,-0.0115814208984375
1761916287131803400,4.610803466796875,-0.9899139404296875,0.01348876953125,-0.011810302734375
1761916287141858300,4.6208583984375,-0.9895782470703125,0.0147857666015625,-0.011260986328125
1761916287151914200,4.630914306640625,-0.9906768798828125,0.014434814453125,-0.011260986328125
1761916287161969400,4.640969482421875,-0.989959716796875,0.01434326171875,-0.011322021484375
1761916287172024600,4.651024658203125,-0.99017333984375,0.013641357421875,-0.0112152099609375
1761916287182080500,4.66108056640625,-0.990753173828125,0.0134735107421875,-0.011444091796875
1761916287192135400,4.671135498046875,-0.9891204833984375,0.013702392578125,-0.0112457275390625
1761916287202190300,4.6811904296875,-0.9897918701171875,0.0143280029296875,-0.0107421875
1761916287212246500,4.69124658203125,-0.98968505859375,0.0139617919921875,-0.011474609375
1761916287222301400,4.701301513671875,-0.98992919921875,0.01348876953125,-0.0106201171875
1761916287232356600,4.711356689453125,-0.9901123046875,0.01312255859375,-0.012237548828125
1761916287242412300,4.721412353515625,-0.9901580810546875,0.013427734375,-0.0113677978515625
1761916287252467500,4.731467529296875,-0.9895782470703125,0.0133056640625,-0.011260986328125
1761916287262522400,4.7415224609375,-0.9908294677734375,0.0136260986328125,-0.0112762451171875
1761916287272578600,4.75157861328125,-0.990020751953125,0.0130462646484375,-0.0116119384765625
1761916287282633500,4.761633544921875,-0.989593505859375,0.0130157470703125,-0.0126190185546875
1761916287292689400,4.771689453125,-0.989715576171875,0.01348876953125,-0.0114898681640625
1761916287302744300,4.781744384765625,-0.9904937744140625,0.0137481689453125,-0.0106658935546875
1761916287312799500,4.791799560546875,-0.9901580810546875,0.0128021240234375,-0.010711669921875
1761916287322855400,4.80185546875,-0.990081787109375,0.0141448974609375,-0.0110321044921875
1761916287332910600,4.81191064453125,-0.9908905029296875,0.0133514404296875,-0.0106964111328125
1761916287342965200,4.82196533203125,-0.9890899658203125,0.01385498046875,-0.0111541748046875
1761916287353021400,4.832021484375,-0.9899749755859375,0.0131683349609375,-0.0108489990234375
1761916287363076400,4.842076416015625,-0.9898529052734375,0.0135650634765625,-0.011627197265625
1761916287373131500,4.852131591796875,-0.990264892578125,0.0137786865234375,-0.01116943359375
1761916287383187500,4.8621875,-0.9903411865234375,0.01373291015625,-0.0113067626953125
1761916287393242400,4.872242431640625,-0.989959716796875,0.012786865234375,-0.011383056640625
1761916287403297500,4.882297607421875,-0.9903564453125,0.0143280029296875,-0.011444091796875
1761916287413353500,4.892353515625,-0.9897918701171875,0.0136260986328125,-0.01031494140625
1761916287423408400,4.902408447265625,-0.9907684326171875,0.013671875,-0.01141357421875
1761916287433463300,4.91246337890625,-0.99066162109375,0.013641357421875,-0.011199951171875
1761916287443519200,4.922519287109375,-0.991363525390625,0.01318359375,-0.0101318359375
1761916287453574400,4.932574462890625,-0.9913177490234375,0.013946533203125,-0.0112762451171875
1761916287463630300,4.94263037109375,-0.9902801513671875,0.0134429931640625,-0.0110626220703125
1761916287473685500,4.952685546875,-0.989990234375,0.0126190185546875,-0.011260986328125
1761916287483740400,4.962740478515625,-0.990509033203125,0.0136260986328125,-0.0112457275390625
1761916287493796400,4.97279638671875,-0.9903564453125,0.0131378173828125,-0.0115966796875
1761916287503851500,4.9828515625,-0.99041748046875,0.01348876953125,-0.011505126953125
1761916287513906400,4.992906494140625,-0.9907073974609375,0.01373291015625,-0.011932373046875
1761916287523962600,5.002962646484375,-0.990325927734375,0.013458251953125,-0.0111083984375
1761916287534017300,5.013017333984375,-0.989654541015625,0.013580322265625,-0.0108795166015625
1761916287544072400,5.023072509765625,-0.9888916015625,0.0125885009765625,-0.0107421875
1761916287554128400,5.03312841796875,-0.9891815185546875,0.0133056640625,-0.01141357421875
1761916287564183600,5.04318359375,-0.99066162109375,0.013763427734375,-0.0122528076171875
1761916287574238500,5.053238525390625,-0.9902191162109375,0.0136871337890625,-0.0115509033203125
1761916287584294700,5.063294677734375,-0.990631103515625,0.0139923095703125,-0.011688232421875
1761916287594349300,5.073349365234375,-0.9901885986328125,0.0130462646484375,-0.01123046875
1761916287604404500,5.083404541015625,-0.989715576171875,0.0137176513671875,-0.010711669921875
1761916287614460400,5.09346044921875,-0.99005126953125,0.0136871337890625,-0.0106964111328125
1761916287624515600,5.103515625,-0.9906768798828125,0.013519287109375,-0.0115966796875
1761916287634571500,5.113571533203125,-0.989837646484375,0.013519287109375,-0.01141357421875
1761916287644626400,5.12362646484375,-0.989166259765625,0.0128021240234375,-0.0117645263671875
1761916287654681300,5.133681396484375,-0.9905548095703125,0.01312255859375,-0.0111846923828125
1761916287664737500,5.143737548828125,-0.9901885986328125,0.0136566162109375,-0.011474609375
1761916287674792400,5.15379248046875,-0.9885101318359375,0.0129241943359375,-0.0107421875
1761916287684847400,5.163847412109375,-0.9895782470703125,0.0134735107421875,-0.01080322265625
1761916287694903300,5.1739033203125,-0.989593505859375,0.013702392578125,-0.0116119384765625
1761916287704958500,5.18395849609375,-0.9902191162109375,0.0132598876953125,-0.01226806640625
1761916287715013600,5.194013671875,-0.9897003173828125,0.0135955810546875,-0.011566162109375
1761916287725069300,5.2040693359375,-0.9893646240234375,0.013641357421875,-0.0114898681640625
1761916287735124200,5.214124267578125,-0.9891357421875,0.014007568359375,-0.0115814208984375
1761916287745179100,5.22417919921875,-0.9901275634765625,0.0146636962890625,-0.0113983154296875
1761916287755235000,5.234235107421875,-0.990081787109375,0.01434326171875,-0.0113067626953125
1761916287765290200,5.244290283203125,-0.9901275634765625,0.0128173828125,-0.0108642578125
1761916287775346200,5.25434619140625,-0.99072265625,0.013824462890625,-0.0117340087890625
1761916287785401000,5.264401123046875,-0.9907989501953125,0.0136260986328125,-0.0119171142578125
1761916287795456300,5.274456298828125,-0.9892730712890625,0.0136871337890625,-0.0105438232421875
1761916287805512200,5.28451220703125,-0.990875244140625,0.01275634765625,-0.0113983154296875
1761916287815567400,5.2945673828125,-0.98907470703125,0.0136871337890625,-0.0123138427734375
1761916287825622000,5.3046220703125,-0.990570068359375,0.013702392578125,-0.01129150390625
1761916287835678200,5.31467822265625,-0.9906463623046875,0.013214111328125,-0.01068115234375
1761916287845733000,5.324733154296875,-0.99029541015625,0.013763427734375,-0.0108489990234375
1761916287855788300,5.334788330078125,-0.990753173828125,0.01263427734375,-0.0111236572265625
1761916287865844200,5.34484423828125,-0.989013671875,0.0131683349609375,-0.0106964111328125
1761916287875899100,5.354899169921875,-0.989410400390625,0.0133514404296875,-0.0112457275390625
1761916287885954000,5.3649541015625,-0.9904022216796875,0.013519287109375,-0.0112762451171875
1761916287896010200,5.37501025390625,-0.9906005859375,0.0133209228515625,-0.0113067626953125
1761916287906065200,5.385065185546875,-0.99017333984375,0.0128631591796875,-0.0110321044921875
1761916287916120300,5.395120361328125,-0.989654541015625,0.0135650634765625,-0.0114898681640625
1761916287926176000,5.405176025390625,-0.989959716796875,0.01239013671875,-0.010955810546875
1761916287936231200,5.415231201171875,-0.9907684326171875,0.0131988525390625,-0.010955810546875
1761916287946287000,5.425287109375,-0.99139404296875,0.01324462890625,-0.0116424560546875
1761916287956342300,5.43534228515625,-0.9910736083984375,0.0142669677734375,-0.010955810546875
1761916287966397200,5.445397216796875,-0.9893646240234375,0.014495849609375,-0.0120391845703125
1761916287976453400,5.455453369140625,-0.988922119140625,0.01397705078125,-0.011566162109375
1761916287986508000,5.465508056640625,-0.9912567138671875,0.013885498046875,-0.0117645263671875
1761916287996563200,5.475563232421875,-0.990478515625,0.0136566162109375,-0.010986328125
1761916288006619100,5.485619140625,-0.989410400390625,0.0128326416015625,-0.0113983154296875
1761916288016674300,5.49567431640625,-0.9895477294921875,0.0136871337890625,-0.0107269287109375
1761916288026729200,5.505729248046875,-0.990234375,0.0134429931640625,-0.010772705078125
1761916288036785200,5.51578515625,-0.9910736083984375,0.0133819580078125,-0.0113983154296875
1761916288046840000,5.525840087890625,-0.9897308349609375,0.0138397216796875,-0.011627197265625
1761916288056895200,5.535895263671875,-0.9891204833984375,0.0136871337890625,-0.0113983154296875
1761916288066951200,5.545951171875,-0.990264892578125,0.0144195556640625,-0.0108642578125
1761916288077006000,5.556006103515625,-0.990753173828125,0.014312744140625,-0.0110321044921875
1761916288087062000,5.56606201171875,-0.990997314453125,0.0142822265625,-0.010894775390625
1761916288097117200,5.5761171875,-0.9902801513671875,0.012786865234375,-0.0111541748046875
1761916288107172400,5.58617236328125,-0.9892578125,0.0136871337890625,-0.01141357421875
1761916288117228300,5.596228271484375,-0.990264892578125,0.0145111083984375,-0.01141357421875
1761916288127283200,5.606283203125,-0.9898223876953125,0.0131988525390625,-0.0117645263671875
1761916288137338000,5.616338134765625,-0.989349365234375,0.012115478515625,-0.0112457275390625
1761916288147394300,5.626394287109375,-0.9900665283203125,0.0126190185546875,-0.0118560791015625
1761916288157449200,5.63644921875,-0.989227294921875,0.01361083984375,-0.012237548828125
1761916288167504100,5.646504150390625,-0.9890594482421875,0.0135498046875,-0.01092529296875
1761916288177560000,5.65656005859375,-0.9905242919921875,0.0131988525390625,-0.0111541748046875
1761916288187615200,5.666615234375,-0.989959716796875,0.013824462890625,-0.0109100341796875
1761916288197670100,5.676670166015625,-0.9900054931640625,0.0143585205078125,-0.0109405517578125
1761916288207726300,5.686726318359375,-0.990875244140625,0.013946533203125,-0.01055908203125
1761916288217781200,5.69678125,-0.9900970458984375,0.01220703125,-0.0106201171875
1761916288227837200,5.706837158203125,-0.9902191162109375,0.01263427734375,-0.01123046875
1761916288237892000,5.71689208984375,-0.98931884765625,0.0131683349609375,-0.0115814208984375
1761916288247947300,5.726947265625,-0.9895782470703125,0.013885498046875,-0.01165771484375
1761916288258003200,5.737003173828125,-0.990509033203125,0.0142364501953125,-0.0107879638671875
1761916288268058400,5.747058349609375,-0.991119384765625,0.0149383544921875,-0.0109710693359375
1761916288278113000,5.757113037109375,-0.98876953125,0.01416015625,-0.01129150390625
1761916288288169200,5.767169189453125,-0.990020751953125,0.0136566162109375,-0.0113677978515625
1761916288298224000,5.77722412109375,-0.990570068359375,0.0135498046875,-0.0111083984375
1761916288308279300,5.787279296875,-0.98968505859375,0.0142669677734375,-0.011138916015625
1761916288318335200,5.797335205078125,-0.9900970458984375,0.014129638671875,-0.01092529296875
1761916288328390100,5.80739013671875,-0.98992919921875,0.013916015625,-0.01104736328125
1761916288338445300,5.8174453125,-0.9892120361328125,0.01361083984375,-0.011444091796875
1761916288348501200,5.827501220703125,-0.98956298828125,0.0138702392578125,-0.0112457275390625
1761916288358556200,5.83755615234375,-0.9900360107421875,0.013153076171875,-0.0115814208984375
1761916288368612400,5.8476123046875,-0.9907073974609375,0.01434326171875,-0.0108642578125
1761916288378667000,5.8576669921875,-0.989715576171875,0.014556884765625,-0.01092529296875
1761916288388722200,5.86772216796875,-0.98980712890625,0.0140380859375,-0.0111236572265625
1761916288398778000,5.877778076171875,-0.99053955078125,0.01287841796875,-0.0120086669921875
1761916288408833300,5.887833251953125,-0.9902191162109375,0.0136871337890625,-0.01226806640625
1761916288418888200,5.89788818359375,-0.990814208984375,0.013916015625,-0.0106658935546875
1761916288428944100,5.907944091796875,-0.98980712890625,0.0130462646484375,-0.0112152099609375
1761916288438999300,5.917999267578125,-0.99041748046875,0.0124053955078125,-0.0112152099609375
1761916288449054200,5.92805419921875,-0.9900054931640625,0.0129241943359375,-0.011322021484375
1761916288459110100,5.938110107421875,-0.9896087646484375,0.013763427734375,-0.011810302734375
1761916288469165000,5.9481650390625,-0.98980712890625,0.0133514404296875,-0.01068115234375
1761916288479220200,5.95822021484375,-0.9898834228515625,0.012725830078125,-0.0110931396484375
1761916288489276200,5.968276123046875,-0.988861083984375,0.0145111083984375,-0.0114898681640625
1761916288499331300,5.978331298828125,-0.989715576171875,0.014068603515625,-0.01104736328125
1761916288509386200,5.98838623046875,-0.990692138671875,0.013092041015625,-0.010711669921875
1761916288519442200,5.998442138671875,-0.99029541015625,0.01348876953125,-0.011474609375
1761916288529497000,6.0084970703125,-0.9909210205078125,0.0132904052734375,-0.0113372802734375
1761916288539553300,6.01855322265625,-0.9886474609375,0.013397216796875,-0.0123291015625
1761916288549608200,6.028608154296875,-0.9899749755859375,0.0135955810546875,-0.0114593505859375
1761916288559663400,6.038663330078125,-0.9904327392578125,0.014129638671875,-0.010284423828125
1761916288569719000,6.048718994140625,-0.9892425537109375,0.01275634765625,-0.00970458984375
1761916288579774200,6.058774169921875,-0.990936279296875,0.012908935546875,-0.01080322265625
1761916288589829000,6.0688291015625,-0.9898681640625,0.014495849609375,-0.011444091796875
1761916288599885300,6.07888525390625,-0.9899139404296875,0.0146026611328125,-0.010711669921875
1761916288609940200,6.088940185546875,-0.990814208984375,0.014617919921875,-0.0117645263671875
1761916288619995100,6.0989951171875,-0.9907379150390625,0.0136260986328125,-0.011566162109375
1761916288630051000,6.109051025390625,-0.9896392822265625,0.0136566162109375,-0.0108642578125
1761916288640106200,6.119106201171875,-0.989898681640625,0.014251708984375,-0.0109710693359375
1761916288650161200,6.1291611328125,-0.9900970458984375,0.012939453125,-0.01104736328125
1761916288660217300,6.13921728515625,-0.990325927734375,0.01348876953125,-0.0115203857421875
1761916288670272000,6.14927197265625,-0.98968505859375,0.01422119140625,-0.0113067626953125
1761916288680328200,6.159328125,-0.990142822265625,0.0135650634765625,-0.0108642578125
1761916288690383000,6.169383056640625,-0.989532470703125,0.0137786865234375,-0.0111083984375
1761916288700438300,6.179438232421875,-0.989288330078125,0.012115478515625,-0.0121002197265625
1761916288710494200,6.189494140625,-0.9891204833984375,0.01324462890625,-0.0108795166015625
1761916288720549000,6.199549072265625,-0.9907379150390625,0.0144500732421875,-0.0103607177734375
1761916288730607900,6.20960791015625,-0.9906463623046875,0.0142364501953125,-0.01129150390625
1761916288740664000,6.2196640625,-0.990081787109375,0.0132904052734375,-0.0112152099609375
1761916288750718700,6.22971875,-0.990692138671875,0.013427734375,-0.012054443359375
1761916288760774000,6.23977392578125,-0.989410400390625,0.013275146484375,-0.011749267578125
1761916288770829800,6.249829833984375,-0.988433837890625,0.0126190185546875,-0.011962890625
1761916288780885000,6.259885009765625,-0.99102783203125,0.0122833251953125,-0.0116424560546875
1761916288790940200,6.269940185546875,-0.991119384765625,0.012908935546875,-0.0122222900390625
1761916288800995800,6.279995849609375,-0.9883880615234375,0.0132598876953125,-0.0115966796875
1761916288811051000,6.290051025390625,-0.990631103515625,0.0139007568359375,-0.0124664306640625
1761916288821107000,6.30010693359375,-0.9901885986328125,0.0140533447265625,-0.0113067626953125
1761916288831161900,6.310161865234375,-0.989654541015625,0.01397705078125,-0.0113372802734375
1761916288841217000,6.320217041015625,-0.991546630859375,0.013092041015625,-0.0111541748046875
1761916288851272700,6.330272705078125,-0.990447998046875,0.0142059326171875,-0.0110626220703125
1761916288861328000,6.340327880859375,-0.987823486328125,0.0148162841796875,-0.0105133056640625
1761916288871383000,6.350383056640625,-0.9909210205078125,0.013214111328125,-0.0111846923828125
1761916288881439000,6.36043896484375,-0.991058349609375,0.0132293701171875,-0.0116424560546875
1761916288891494100,6.370494140625,-0.990692138671875,0.01300048828125,-0.0117034912109375
1761916288901548800,6.380548828125,-0.9886474609375,0.0146484375,-0.011260986328125
1761916288911605000,6.39060498046875,-0.990234375,0.0150146484375,-0.0105438232421875
1761916288921660000,6.400659912109375,-0.9913177490234375,0.0143585205078125,-0.0105438232421875
1761916288931715000,6.410715087890625,-0.9916229248046875,0.0136871337890625,-0.011688232421875
1761916288941771000,6.42077099609375,-0.9897918701171875,0.0132598876953125,-0.011199951171875
1761916288951826000,6.430825927734375,-0.98876953125,0.01373291015625,-0.0109100341796875
1761916288961880800,6.440880859375,-0.9911346435546875,0.0133056640625,-0.011322021484375
1761916288971937000,6.45093701171875,-0.9916534423828125,0.0131072998046875,-0.0113372802734375
1761916288981992000,6.460991943359375,-0.989959716796875,0.0131683349609375,-0.011932373046875
1761916288992048000,6.471048095703125,-0.9886474609375,0.013671875,-0.01141357421875
1761916289002102800,6.481102783203125,-0.99151611328125,0.0136871337890625,-0.011199951171875
1761916289012158000,6.491157958984375,-0.9915771484375,0.0126953125,-0.0112152099609375
1761916289022214000,6.5012138671875,-0.9900054931640625,0.012359619140625,-0.0111846923828125
1761916289032269000,6.51126904296875,-0.9889373779296875,0.0139007568359375,-0.011199951171875
1761916289042323700,6.52132373046875,-0.990692138671875,0.01397705078125,-0.0118255615234375
1761916289052380000,6.5313798828125,-0.990081787109375,0.013214111328125,-0.011383056640625
1761916289062434800,6.541434814453125,-0.988616943359375,0.012176513671875,-0.0114898681640625
1761916289072490000,6.551489990234375,-0.9900360107421875,0.01275634765625,-0.012176513671875
1761916289082546000,6.5615458984375,-0.9912109375,0.0126953125,-0.0118408203125
1761916289092600800,6.571600830078125,-0.99072265625,0.0125885009765625,-0.01129150390625
1761916289102656000,6.581656005859375,-0.9882049560546875,0.0139617919921875,-0.0119781494140625
1761916289112712000,6.5917119140625,-0.9902801513671875,0.013885498046875,-0.0118560791015625
1761916289122766800,6.601766845703125,-0.990325927734375,0.0142059326171875,-0.011474609375
1761916289132823000,6.611822998046875,-0.98931884765625,0.013671875,-0.0113067626953125
1761916289142878000,6.6218779296875,-0.9891204833984375,0.0147857666015625,-0.0111083984375
1761916289152932900,6.631932861328125,-0.9908599853515625,0.015411376953125,-0.011199951171875
1761916289162988800,6.64198876953125,-0.990936279296875,0.0156097412109375,-0.011962890625
1761916289173044000,6.6520439453125,-0.989105224609375,0.0141754150390625,-0.0119171142578125
1761916289183099100,6.66209912109375,-0.9892120361328125,0.01336669921875,-0.0119781494140625
1761916289193155000,6.672155029296875,-0.992034912109375,0.0146331787109375,-0.0113525390625
1761916289203210000,6.6822099609375,-0.99169921875,0.0127410888671875,-0.01202392578125
1761916289213265000,6.692264892578125,-0.9887237548828125,0.0132904052734375,-0.012115478515625
1761916289223321000,6.702321044921875,-0.98797607421875,0.014312744140625,-0.012908935546875
1761916289233376000,6.7123759765625,-0.9900665283203125,0.013031005859375,-0.0118560791015625
1761916289243431000,6.722430908203125,-0.9908599853515625,0.013580322265625,-0.0115509033203125
1761916289253486800,6.73248681640625,-0.990509033203125,0.0138397216796875,-0.0124053955078125
1761916289263542000,6.7425419921875,-0.990631103515625,0.0131378173828125,-0.01239013671875
1761916289273598000,6.752597900390625,-0.9901885986328125,0.0140838623046875,-0.011322021484375
1761916289283653000,6.762653076171875,-0.989776611328125,0.0135345458984375,-0.0117645263671875
1761916289293707800,6.772707763671875,-0.990234375,0.013763427734375,-0.010894775390625
1761916289303764000,6.782763916015625,-0.9919891357421875,0.0130615234375,-0.0108795166015625
1761916289313819000,6.79281884765625,-0.9886627197265625,0.01348876953125,-0.0128021240234375
1761916289323874000,6.8028740234375,-0.9890594482421875,0.01336669921875,-0.0128173828125
1761916289333930000,6.812929931640625,-0.9904937744140625,0.0130462646484375,-0.011566162109375
1761916289343985000,6.82298486328125,-0.98907470703125,0.0135345458984375,-0.011016845703125
1761916289354039800,6.833039794921875,-0.99017333984375,0.013824462890625,-0.0117950439453125
1761916289364096000,6.843095947265625,-0.990325927734375,0.0134429931640625,-0.0116729736328125
1761916289374151000,6.85315087890625,-0.9901123046875,0.0136566162109375,-0.01202392578125
1761916289384206000,6.8632060546875,-0.990203857421875,0.01361083984375,-0.0113677978515625
1761916289394261800,6.87326171875,-0.991119384765625,0.0131378173828125,-0.0112762451171875
1761916289404317000,6.88331689453125,-0.9898681640625,0.0134124755859375,-0.0114593505859375
1761916289414372900,6.893372802734375,-0.989288330078125,0.0138397216796875,-0.0120849609375
1761916289424428000,6.903427978515625,-0.9902801513671875,0.013275146484375,-0.01129150390625
1761916289434483000,6.91348291015625,-0.9906005859375,0.0133514404296875,-0.0113525390625
1761916289444539000,6.923538818359375,-0.9906463623046875,0.0127716064453125,-0.01153564453125
1761916289454593800,6.93359375,-0.9901580810546875,0.0124359130859375,-0.011138916015625
1761916289464649000,6.94364892578125,-0.990020751953125,0.013397216796875,-0.011962890625
1761916289474705000,6.953704833984375,-0.989715576171875,0.0141143798828125,-0.0119171142578125
1761916289484760000,6.963760009765625,-0.9913330078125,0.0145111083984375,-0.01202392578125
1761916289494815000,6.97381494140625,-0.991424560546875,0.0128173828125,-0.0114288330078125
1761916289504871000,6.983870849609375,-0.988739013671875,0.0139617919921875,-0.0118255615234375
1761916289514926000,6.993926025390625,-0.9892730712890625,0.01422119140625,-0.0119781494140625
1761916289524981000,7.00398095703125,-0.9899139404296875,0.013671875,-0.0120391845703125
1761916289535037000,7.014036865234375,-0.9904327392578125,0.0133819580078125,-0.0111236572265625
1761916289545091800,7.024091796875,-0.990386962890625,0.013702392578125,-0.0116119384765625
1761916289555147800,7.034147705078125,-0.991424560546875,0.013031005859375,-0.01165771484375
1761916289565203000,7.044202880859375,-0.9902191162109375,0.0132293701171875,-0.0122528076171875
1761916289575258000,7.054258056640625,-0.9900665283203125,0.01275634765625,-0.01190185546875
1761916289585314000,7.06431396484375,-0.9905242919921875,0.01385498046875,-0.0112457275390625
1761916289595369000,7.074368896484375,-0.990936279296875,0.0140533447265625,-0.0111236572265625
1761916289605423900,7.084423828125,-0.9908599853515625,0.01348876953125,-0.01104736328125
1761916289615480000,7.09447998046875,-0.9907684326171875,0.0130767822265625,-0.01171875
1761916289625535000,7.104534912109375,-0.987945556640625,0.0132293701171875,-0.0120849609375
1761916289635590000,7.11458984375,-0.990020751953125,0.012908935546875,-0.0120391845703125
1761916289645645800,7.124645751953125,-0.9911956787109375,0.0126495361328125,-0.011383056640625
1761916289655701000,7.134700927734375,-0.9891357421875,0.012939453125,-0.012115478515625
1761916289665756000,7.144755859375,-0.988037109375,0.013336181640625,-0.012115478515625
1761916289675812000,7.15481201171875,-0.990936279296875,0.0135955810546875,-0.01141357421875
1761916289685866800,7.16486669921875,-0.9910736083984375,0.0136871337890625,-0.010772705078125
1761916289695923000,7.1749228515625,-0.990447998046875,0.0133819580078125,-0.01080322265625
1761916289705977900,7.184977783203125,-0.990386962890625,0.0128936767578125,-0.011688232421875
1761916289716033000,7.195032958984375,-0.98931884765625,0.0138092041015625,-0.0122222900390625
1761916289726089000,7.2050888671875,-0.99072265625,0.01287841796875,-0.0117034912109375
1761916289736140300,7.215140380859375,-0.99212646484375,0.0136260986328125,-0.0110321044921875
1761916289746195200,7.2251953125,-0.98974609375,0.0139923095703125,-0.011871337890625
1761916289756251400,7.23525146484375,-0.988372802734375,0.0136871337890625,-0.011199951171875
1761916289766306000,7.24530615234375,-0.990875244140625,0.012115478515625,-0.0113983154296875
1761916289776361200,7.255361328125,-0.99090576171875,0.011962890625,-0.0113372802734375
1761916289786417200,7.265417236328125,-0.99029541015625,0.012664794921875,-0.0120697021484375
1761916289796472300,7.275472412109375,-0.9897308349609375,0.01324462890625,-0.0135498046875
1761916289806527200,7.28552734375,-0.98895263671875,0.0144500732421875,-0.0121612548828125
1761916289816583200,7.295583251953125,-0.990814208984375,0.01531982421875,-0.011199951171875
1761916289826638300,7.305638427734375,-0.9895782470703125,0.014923095703125,-0.0103912353515625
1761916289836694300,7.3156943359375,-0.9899444580078125,0.0136871337890625,-0.010650634765625
1761916289846749200,7.325749267578125,-0.9903717041015625,0.012603759765625,-0.011962890625
1761916289856804000,7.33580419921875,-0.989654541015625,0.0124359130859375,-0.0113983154296875
1761916289866860000,7.345860107421875,-0.990447998046875,0.0129852294921875,-0.0112152099609375
1761916289876915200,7.355915283203125,-0.9919586181640625,0.0135498046875,-0.01165771484375
1761916289886970400,7.365970458984375,-0.990325927734375,0.013946533203125,-0.0119476318359375
1761916289897026300,7.3760263671875,-0.9882659912109375,0.0130462646484375,-0.01165771484375
1761916289907081200,7.386081298828125,-0.9914093017578125,0.01300048828125,-0.0109710693359375
1761916289917136100,7.39613623046875,-0.9918670654296875,0.0125885009765625,-0.011016845703125
1761916289927192300,7.4061923828125,-0.9907073974609375,0.0133056640625,-0.01141357421875
1761916289937247200,7.416247314453125,-0.99005126953125,0.01318359375,-0.011505126953125
1761916289947302400,7.426302490234375,-0.990203857421875,0.0135498046875,-0.011505126953125
1761916289957358000,7.436358154296875,-0.9908294677734375,0.0138092041015625,-0.011505126953125
1761916289967413200,7.446413330078125,-0.99072265625,0.0140228271484375,-0.0110626220703125
1761916289977469200,7.45646923828125,-0.9902191162109375,0.013427734375,-0.0117340087890625
1761916289987524400,7.4665244140625,-0.989166259765625,0.0126953125,-0.0113372802734375
1761916289997579300,7.476579345703125,-0.989593505859375,0.013153076171875,-0.01153564453125
1761916290007635200,7.48663525390625,-0.990936279296875,0.013885498046875,-0.0113372802734375
1761916290017690000,7.496690185546875,-0.99017333984375,0.0125885009765625,-0.011932373046875
1761916290027745300,7.506745361328125,-0.98919677734375,0.0123138427734375,-0.012481689453125
1761916290037801200,7.51680126953125,-0.9897003173828125,0.0126953125,-0.0114898681640625
1761916290047856400,7.5268564453125,-0.989898681640625,0.0139312744140625,-0.0111846923828125
1761916290057911000,7.5369111328125,-0.990753173828125,0.01361083984375,-0.0113677978515625
1761916290067967200,7.54696728515625,-0.9899749755859375,0.0130157470703125,-0.0113372802734375
1761916290078022100,7.557022216796875,-0.9890899658203125,0.0127716064453125,-0.0113372802734375
1761916290088077300,7.567077392578125,-0.9898529052734375,0.013275146484375,-0.011322021484375
1761916290098133200,7.57713330078125,-0.989990234375,0.0137481689453125,-0.0114898681640625
1761916290108188200,7.587188232421875,-0.9900970458984375,0.01361083984375,-0.010772705078125
1761916290118244000,7.597244140625,-0.9899139404296875,0.011871337890625,-0.012054443359375
1761916290128299300,7.60729931640625,-0.990203857421875,0.012969970703125,-0.0120086669921875
1761916290138354200,7.617354248046875,-0.9899444580078125,0.0142974853515625,-0.0121307373046875
1761916290148410400,7.627410400390625,-0.9902801513671875,0.0145721435546875,-0.0127105712890625
1761916290158465000,7.637465087890625,-0.9892425537109375,0.0135345458984375,-0.0113983154296875
1761916290168520200,7.647520263671875,-0.990325927734375,0.0125732421875,-0.01153564453125
1761916290178576100,7.657576171875,-0.9913330078125,0.012847900390625,-0.0116119384765625
1761916290188631300,7.66763134765625,-0.990142822265625,0.013946533203125,-0.0119171142578125
1761916290198686200,7.677686279296875,-0.9895782470703125,0.013458251953125,-0.0113983154296875
1761916290208742100,7.6877421875,-0.9890289306640625,0.012725830078125,-0.010467529296875
1761916290218797300,7.69779736328125,-0.99114990234375,0.0136566162109375,-0.010162353515625
1761916290228852200,7.707852294921875,-0.9893798828125,0.0131988525390625,-0.0104827880859375
1761916290238908400,7.717908447265625,-0.9898681640625,0.0123748779296875,-0.01104736328125
1761916290248963000,7.727963134765625,-0.9902496337890625,0.0108489990234375,-0.0124969482421875
1761916290259018200,7.738018310546875,-0.9911956787109375,0.0115203857421875,-0.01202392578125
1761916290269074200,7.74807421875,-0.9890289306640625,0.0132598876953125,-0.0122833251953125
1761916290279129300,7.75812939453125,-0.98907470703125,0.01348876953125,-0.011749267578125
1761916290289185300,7.768185302734375,-0.9905548095703125,0.01348876953125,-0.010955810546875
1761916290299240200,7.778240234375,-0.990478515625,0.0137481689453125,-0.0113372802734375
1761916290309295000,7.788295166015625,-0.989227294921875,0.012481689453125,-0.01165771484375
1761916290319351300,7.798351318359375,-0.989044189453125,0.013671875,-0.0107421875
1761916290329406200,7.80840625,-0.9910430908203125,0.0126495361328125,-0.0109100341796875
1761916290339461400,7.81846142578125,-0.9906463623046875,0.0128021240234375,-0.01092529296875
1761916290349517300,7.828517333984375,-0.98992919921875,0.0120849609375,-0.012115478515625
1761916290359572200,7.838572265625,-0.9907684326171875,0.0134429931640625,-0.0122528076171875
1761916290369627100,7.848627197265625,-0.9898834228515625,0.0130157470703125,-0.0120697021484375
1761916290379683300,7.858683349609375,-0.98968505859375,0.0120697021484375,-0.0115509033203125
1761916290389738200,7.86873828125,-0.9898681640625,0.0128631591796875,-0.0116119384765625
1761916290399793200,7.878793212890625,-0.9900360107421875,0.014678955078125,-0.0106048583984375
1761916290409849000,7.88884912109375,-0.990447998046875,0.014556884765625,-0.0112457275390625
1761916290419904300,7.898904296875,-0.991058349609375,0.01348876953125,-0.0115814208984375
1761916290429960200,7.908960205078125,-0.989166259765625,0.0129852294921875,-0.0117645263671875
1761916290440015400,7.919015380859375,-0.9896087646484375,0.0128936767578125,-0.0114593505859375
1761916290450070000,7.929070068359375,-0.9913177490234375,0.01318359375,-0.012359619140625
1761916290460126200,7.939126220703125,-0.9914703369140625,0.01312255859375,-0.011444091796875
1761916290470181000,7.94918115234375,-0.990875244140625,0.0130767822265625,-0.0111236572265625
1761916290480236300,7.959236328125,-0.9904022216796875,0.0133514404296875,-0.0118255615234375
1761916290490292200,7.969292236328125,-0.9905242919921875,0.0131988525390625,-0.0115814208984375
1761916290500347100,7.97934716796875,-0.989898681640625,0.013275146484375,-0.010833740234375
1761916290510402300,7.98940234375,-0.9902496337890625,0.012298583984375,-0.0106353759765625
1761916290520458200,7.999458251953125,-0.990570068359375,0.012481689453125,-0.0122222900390625
1761916290530513400,8.009513427734374,-0.9888763427734375,0.0147552490234375,-0.0120849609375
1761916290540566300,8.019566162109374,-0.989288330078125,0.0136871337890625,-0.01092529296875
1761916290550621200,8.02962109375,-0.989593505859375,0.0135345458984375,-0.0114898681640625
1761916290560676400,8.03967626953125,-0.990631103515625,0.0132904052734375,-0.010894775390625
1761916290570732000,8.04973193359375,-0.9907073974609375,0.0125274658203125,-0.0111236572265625
1761916290580787200,8.059787109375,-0.9895782470703125,0.0122528076171875,-0.0112457275390625
1761916290590842400,8.06984228515625,-0.989410400390625,0.014251708984375,-0.010589599609375
1761916290600898300,8.079898193359375,-0.9920501708984375,0.01336669921875,-0.0110931396484375
1761916290610953200,8.089953125,-0.991119384765625,0.0129547119140625,-0.0114898681640625
1761916290621009200,8.100009033203126,-0.9900665283203125,0.01348876953125,-0.0118408203125
1761916290631064000,8.11006396484375,-0.9905242919921875,0.013671875,-0.0116729736328125
1761916290641119200,8.120119140625,-0.9903106689453125,0.013092041015625,-0.0125274658203125
1761916290651175200,8.130175048828125,-0.9910888671875,0.0139312744140625,-0.01190185546875
1761916290661230300,8.140230224609375,-0.990570068359375,0.013092041015625,-0.01116943359375
1761916290671285200,8.15028515625,-0.9891357421875,0.0135955810546875,-0.011810302734375
1761916290681341200,8.160341064453124,-0.990631103515625,0.01416015625,-0.0116119384765625
1761916290691396400,8.170396240234375,-0.9901885986328125,0.0134124755859375,-0.0121612548828125
1761916290701451300,8.180451171875,-0.99005126953125,0.01324462890625,-0.0123138427734375
1761916290711507200,8.190507080078126,-0.991363525390625,0.01409912109375,-0.0116424560546875
1761916290721562000,8.20056201171875,-0.990478515625,0.0133056640625,-0.011688232421875
1761916290731617300,8.2106171875,-0.99090576171875,0.0140533447265625,-0.0116119384765625
1761916290741673200,8.220673095703125,-0.990478515625,0.0132293701171875,-0.0109710693359375
1761916290751728400,8.230728271484375,-0.9894866943359375,0.01275634765625,-0.01104736328125
1761916290761784300,8.240784423828124,-0.9898223876953125,0.0125732421875,-0.0115814208984375
1761916290771839500,8.250839599609375,-0.99114990234375,0.011962890625,-0.011505126953125
1761916290781894100,8.26089404296875,-0.990509033203125,0.0123443603515625,-0.01123046875
1761916290791950300,8.270950439453125,-0.9905548095703125,0.01336669921875,-0.01171875
1761916290802005200,8.281005126953126,-0.991180419921875,0.0125274658203125,-0.0119476318359375
1761916290812060400,8.291060302734374,-0.9911956787109375,0.013397216796875,-0.0110931396484375
1761916290822116400,8.301116455078125,-0.990203857421875,0.013641357421875,-0.0108642578125
1761916290832171300,8.311171142578125,-0.989776611328125,0.0135040283203125,-0.0121917724609375
1761916290842226200,8.32122607421875,-0.9906768798828125,0.013519287109375,-0.011962890625
1761916290852282400,8.331282470703124,-0.9919281005859375,0.013427734375,-0.011688232421875
1761916290862337300,8.341337158203125,-0.98974609375,0.0131072998046875,-0.0113067626953125
1761916290872392400,8.351392333984375,-0.989105224609375,0.0125885009765625,-0.010894775390625
1761916290882448100,8.3614482421875,-0.990753173828125,0.0128173828125,-0.0101776123046875
1761916290892503300,8.37150341796875,-0.9902801513671875,0.0132293701171875,-0.011627197265625
1761916290902558200,8.38155810546875,-0.9899444580078125,0.0123443603515625,-0.01177978515625
1761916290912614400,8.391614501953125,-0.9897308349609375,0.0127716064453125,-0.0106658935546875
1761916290922669300,8.40166943359375,-0.990631103515625,0.0148162841796875,-0.0118560791015625
1761916290932725500,8.4117255859375,-0.9903564453125,0.013336181640625,-0.011077880859375
1761916290942780200,8.4217802734375,-0.9899139404296875,0.0140838623046875,-0.010467529296875
1761916290952835300,8.43183544921875,-0.9898681640625,0.01385498046875,-0.0110321044921875
1761916290962891300,8.441891357421875,-0.9898223876953125,0.0125274658203125,-0.011322021484375
1761916290972946400,8.451946533203126,-0.990020751953125,0.01220703125,-0.0107269287109375
1761916290983001300,8.46200146484375,-0.9900054931640625,0.01251220703125,-0.010833740234375
1761916290993057300,8.472057373046875,-0.989593505859375,0.013214111328125,-0.0119171142578125
1761916291003112200,8.4821123046875,-0.989959716796875,0.0129547119140625,-0.0110931396484375
1761916291013167400,8.49216748046875,-0.9901275634765625,0.012542724609375,-0.010711669921875
1761916291023223300,8.502223388671876,-0.9904937744140625,0.01318359375,-0.011993408203125
1761916291033278200,8.5122783203125,-0.990814208984375,0.0130615234375,-0.0122833251953125
1761916291043333400,8.52233349609375,-0.991455078125,0.01336669921875,-0.010894775390625
1761916291053389300,8.532389404296875,-0.9912109375,0.01312255859375,-0.0118255615234375
1761916291063444500,8.542444580078126,-0.988922119140625,0.014068603515625,-0.0115203857421875
1761916291073500400,8.55250048828125,-0.989227294921875,0.01348876953125,-0.0116119384765625
1761916291083555300,8.562555419921875,-0.99169921875,0.0131683349609375,-0.0114288330078125
1761916291093610200,8.5726103515625,-0.990936279296875,0.012847900390625,-0.0109100341796875
1761916291103666400,8.58266650390625,-0.9907379150390625,0.01324462890625,-0.011749267578125
1761916291113721300,8.592721435546874,-0.9908447265625,0.01324462890625,-0.01080322265625
1761916291123776300,8.6027763671875,-0.98968505859375,0.013031005859375,-0.0113983154296875
1761916291133832200,8.612832275390625,-0.9892730712890625,0.0132293701171875,-0.011566162109375
1761916291143887400,8.622887451171875,-0.9905853271484375,0.0133514404296875,-0.0123291015625
1761916291153942300,8.6329423828125,-0.9903106689453125,0.0125732421875,-0.0114593505859375
1761916291163998500,8.64299853515625,-0.9901580810546875,0.0126190185546875,-0.0116119384765625
1761916291174053400,8.653053466796875,-0.9896087646484375,0.013397216796875,-0.011444091796875
1761916291184108300,8.6631083984375,-0.990447998046875,0.01361083984375,-0.011627197265625
1761916291194164200,8.673164306640626,-0.9908294677734375,0.013427734375,-0.011383056640625
1761916291204219400,8.683219482421874,-0.989990234375,0.0117034912109375,-0.0108642578125
1761916291214274300,8.6932744140625,-0.9905853271484375,0.0123138427734375,-0.0100555419921875
1761916291224330500,8.70333056640625,-0.989837646484375,0.01251220703125,-0.011138916015625
1761916291234385200,8.71338525390625,-0.9897308349609375,0.0134429931640625,-0.011474609375
1761916291244441300,8.72344140625,-0.9892425537109375,0.0126953125,-0.0120697021484375
1761916291254496300,8.733496337890625,-0.9886016845703125,0.0128936767578125,-0.011688232421875
1761916291264551400,8.743551513671875,-0.9900665283203125,0.01336669921875,-0.010894775390625
1761916291274607400,8.753607421875,-0.9913482666015625,0.0137939453125,-0.011322021484375
1761916291284662300,8.763662353515626,-0.989501953125,0.01348876953125,-0.0111846923828125
1761916291294717200,8.77371728515625,-0.9890289306640625,0.01336669921875,-0.0110321044921875
1761916291304773400,8.7837734375,-0.99151611328125,0.012481689453125,-0.01129150390625
1761916291314828300,8.793828369140625,-0.9895172119140625,0.0130767822265625,-0.01092529296875
1761916291324883200,8.80388330078125,-0.989471435546875,0.0126190185546875,-0.0108489990234375
1761916291334939100,8.813939208984374,-0.9908447265625,0.0127716064453125,-0.0113372802734375
1761916291344994300,8.823994384765625,-0.9898681640625,0.0135650634765625,-0.010894775390625
1761916291355049500,8.834049560546875,-0.9895782470703125,0.014068603515625,-0.0120697021484375
1761916291365105400,8.84410546875,-0.9892120361328125,0.0128021240234375,-0.0117034912109375
1761916291375160300,8.854160400390626,-0.9904632568359375,0.0124359130859375,-0.01141357421875
1761916291385216300,8.86421630859375,-0.990631103515625,0.0134124755859375,-0.0113983154296875
1761916291395271400,8.874271484375,-0.9894561767578125,0.0135650634765625,-0.0116424560546875
1761916291405326300,8.884326416015625,-0.9900665283203125,0.01312255859375,-0.0116119384765625
1761916291415382300,8.89438232421875,-0.9894561767578125,0.0131072998046875,-0.01116943359375
1761916291425437200,8.904437255859374,-0.98992919921875,0.0139007568359375,-0.0109100341796875
1761916291435492400,8.914492431640625,-0.9898681640625,0.0141754150390625,-0.0117950439453125
1761916291445548300,8.92454833984375,-0.9903106689453125,0.012786865234375,-0.0118865966796875
1761916291455603500,8.934603515625,-0.99029541015625,0.0124359130859375,-0.0118408203125
1761916291465658400,8.944658447265626,-0.9896087646484375,0.0120849609375,-0.01190185546875
1761916291475714300,8.95471435546875,-0.990203857421875,0.013397216796875,-0.011627197265625
1761916291485769200,8.964769287109375,-0.9913177490234375,0.0128173828125,-0.0119476318359375
1761916291495824400,8.974824462890625,-0.9895782470703125,0.01214599609375,-0.0117340087890625
1761916291505880300,8.98488037109375,-0.9898223876953125,0.01373291015625,-0.0107574462890625
1761916291515935500,8.994935546875,-0.99005126953125,0.012939453125,-0.0109405517578125
1761916291525991200,9.0049912109375,-0.9907379150390625,0.0133514404296875,-0.0108184814453125
1761916291536046300,9.01504638671875,-0.98931884765625,0.013824462890625,-0.0109710693359375
1761916291546101200,9.025101318359376,-0.9907989501953125,0.012908935546875,-0.011383056640625
1761916291556157400,9.035157470703124,-0.99072265625,0.011688232421875,-0.0117645263671875
1761916291566212400,9.04521240234375,-0.9899749755859375,0.012664794921875,-0.011749267578125
1761916291576267300,9.055267333984375,-0.9903106689453125,0.0129241943359375,-0.0123291015625
1761916291586323200,9.0653232421875,-0.989105224609375,0.0125579833984375,-0.0110626220703125
1761916291596378400,9.07537841796875,-0.9898681640625,0.0127716064453125,-0.011627197265625
1761916291606433300,9.085433349609374,-0.9921417236328125,0.012939453125,-0.01202392578125
1761916291616489500,9.095489501953125,-0.990142822265625,0.012908935546875,-0.01141357421875
1761916291626544000,9.105544189453125,-0.9900665283203125,0.013671875,-0.0107574462890625
1761916291636599300,9.115599365234376,-0.9906768798828125,0.0130157470703125,-0.011474609375
1761916291646655200,9.1256552734375,-0.990692138671875,0.012939453125,-0.0115966796875
1761916291656710400,9.13571044921875,-0.9905853271484375,0.0140228271484375,-0.0110626220703125
1761916291666765300,9.145765380859375,-0.9905853271484375,0.0133819580078125,-0.01190185546875
1761916291676821200,9.1558212890625,-0.991241455078125,0.013153076171875,-0.0114898681640625
1761916291686876400,9.16587646484375,-0.99102783203125,0.0131683349609375,-0.0106201171875
1761916291696932400,9.175932373046875,-0.9904327392578125,0.0134124755859375,-0.011688232421875
1761916291706987300,9.1859873046875,-0.990570068359375,0.012481689453125,-0.011871337890625
1761916291717042200,9.196042236328125,-0.99053955078125,0.0125732421875,-0.0113525390625
1761916291727098000,9.20609814453125,-0.9902496337890625,0.0127410888671875,-0.011688232421875
1761916291737153800,9.21615380859375,-0.9904937744140625,0.0134735107421875,-0.0106658935546875
1761916291747209000,9.226208984375,-0.9907379150390625,0.0133209228515625,-0.0112152099609375
1761916291757265000,9.236264892578125,-0.990631103515625,0.0127105712890625,-0.01129150390625
1761916291767319800,9.24631982421875,-0.9899139404296875,0.0133209228515625,-0.01177978515625
1761916291777374700,9.256374755859374,-0.990447998046875,0.0123443603515625,-0.0114593505859375
1761916291787430700,9.2664306640625,-0.991119384765625,0.0124359130859375,-0.01171875
1761916291797485800,9.27648583984375,-0.9903564453125,0.012542724609375,-0.0111846923828125
1761916291807541000,9.286541015625,-0.9893341064453125,0.01251220703125,-0.0115509033203125
1761916291817597000,9.296596923828124,-0.9900054931640625,0.0139007568359375,-0.010650634765625
1761916291827651800,9.30665185546875,-0.9908599853515625,0.013427734375,-0.0108642578125
1761916291837707800,9.316707763671875,-0.9903564453125,0.0124969482421875,-0.0114593505859375
1761916291847763000,9.326762939453126,-0.9906158447265625,0.012664794921875,-0.0111083984375
1761916291857817900,9.33681787109375,-0.9905853271484375,0.0130157470703125,-0.01092529296875
1761916291867873800,9.346873779296875,-0.9900970458984375,0.0125732421875,-0.0108795166015625
1761916291877929000,9.356928955078125,-0.991729736328125,0.01239013671875,-0.0109405517578125
1761916291887983900,9.36698388671875,-0.989990234375,0.01239013671875,-0.011077880859375
1761916291898039800,9.377039794921876,-0.989349365234375,0.0131072998046875,-0.01141357421875
1761916291908095000,9.387094970703124,-0.9908447265625,0.0133819580078125,-0.011505126953125
1761916291918150000,9.39714990234375,-0.9906768798828125,0.01318359375,-0.011016845703125
1761916291928206000,9.4072060546875,-0.9896087646484375,0.01336669921875,-0.0117034912109375
1761916291938260700,9.4172607421875,-0.990325927734375,0.013153076171875,-0.0115966796875
1761916291948316000,9.42731591796875,-0.9905853271484375,0.0134735107421875,-0.01092529296875
1761916291958371800,9.437371826171875,-0.989898681640625,0.012939453125,-0.0113983154296875
1761916291968427000,9.447427001953125,-0.9900054931640625,0.013580322265625,-0.0121612548828125
1761916291978481700,9.457481689453125,-0.9919281005859375,0.0135955810546875,-0.01116943359375
1761916291988537900,9.467537841796876,-0.99029541015625,0.0129241943359375,-0.0111236572265625
1761916291998592800,9.4775927734375,-0.98907470703125,0.0123138427734375,-0.01116943359375
1761916292008649000,9.48764892578125,-0.99090576171875,0.013885498046875,-0.01116943359375
1761916292018704000,9.497703857421875,-0.9896087646484375,0.013763427734375,-0.0122222900390625
1761916292028758800,9.5077587890625,-0.9887542724609375,0.012939453125,-0.012603759765625
1761916292038814700,9.517814697265624,-0.99151611328125,0.0125579833984375,-0.011322021484375
1761916292048870000,9.527869873046875,-0.9913330078125,0.013519287109375,-0.011566162109375
1761916292058924800,9.5379248046875,-0.988739013671875,0.013702392578125,-0.01104736328125
1761916292068981000,9.54798095703125,-0.989532470703125,0.0130615234375,-0.011260986328125
1761916292079035600,9.55803564453125,-0.9912567138671875,0.0126495361328125,-0.01116943359375
1761916292089090800,9.5680908203125,-0.991058349609375,0.0124053955078125,-0.011138916015625
1761916292099146800,9.578146728515625,-0.9901123046875,0.0128936767578125,-0.0112152099609375
1761916292109202000,9.588201904296875,-0.98956298828125,0.0128936767578125,-0.011199951171875
1761916292119257000,9.598257080078126,-0.9895477294921875,0.0127716064453125,-0.0115966796875
1761916292129312800,9.608312744140624,-0.9902496337890625,0.01348876953125,-0.011566162109375
1761916292139368000,9.618367919921875,-0.9902191162109375,0.012481689453125,-0.0107574462890625
1761916292149423900,9.628423828125,-0.9909210205078125,0.0128936767578125,-0.0119476318359375
1761916292159478800,9.638478759765626,-0.9903106689453125,0.013519287109375,-0.0116119384765625
1761916292169534000,9.648533935546874,-0.9904022216796875,0.0130615234375,-0.0105133056640625
1761916292179589600,9.658589599609375,-0.990631103515625,0.0125579833984375,-0.011016845703125
1761916292189644800,9.668644775390625,-0.9903564453125,0.0134124755859375,-0.0121002197265625
1761916292199700000,9.678699951171875,-0.989288330078125,0.0127410888671875,-0.0109405517578125
1761916292209756000,9.688755859375,-0.989501953125,0.01287841796875,-0.0113067626953125
1761916292219811000,9.69881103515625,-0.9895782470703125,0.0130767822265625,-0.0113677978515625
1761916292229865700,9.70886572265625,-0.9904022216796875,0.0132904052734375,-0.0109405517578125
1761916292239922000,9.718921875,-0.9893035888671875,0.0127105712890625,-0.011993408203125
1761916292249976800,9.728976806640626,-0.9888916015625,0.0126800537109375,-0.0115814208984375
1761916292260032000,9.739031982421874,-0.990966796875,0.0135650634765625,-0.011505126953125
1761916292270088000,9.749087890625,-0.99114990234375,0.0125732421875,-0.0110931396484375
1761916292280142800,9.759142822265625,-0.990478515625,0.0139617919921875,-0.0110931396484375
1761916292290197800,9.76919775390625,-0.989776611328125,0.01361083984375,-0.01129150390625
1761916292300254000,9.77925390625,-0.9897918701171875,0.0135345458984375,-0.0107574462890625
1761916292310308900,9.789308837890625,-0.99090576171875,0.0138397216796875,-0.010894775390625
1761916292320365000,9.799364990234375,-0.9899444580078125,0.0128631591796875,-0.0111846923828125
1761916292330419700,9.809419677734375,-0.9901275634765625,0.0130462646484375,-0.011688232421875
1761916292340475000,9.819474853515626,-0.9907684326171875,0.013275146484375,-0.0118865966796875
1761916292350530800,9.82953076171875,-0.989471435546875,0.0133056640625,-0.01171875
1761916292360586000,9.8395859375,-0.9906768798828125,0.012542724609375,-0.0114898681640625
1761916292370640600,9.849640625,-0.9915008544921875,0.0137939453125,-0.0110321044921875
1761916292380696800,9.85969677734375,-0.9885711669921875,0.0139312744140625,-0.0114288330078125
1761916292390751700,9.869751708984374,-0.9896697998046875,0.013031005859375,-0.01165771484375
1761916292400807000,9.879806884765625,-0.991424560546875,0.0135498046875,-0.010589599609375
1761916292410862800,9.88986279296875,-0.991943359375,0.012481689453125,-0.01190185546875
1761916292420917800,9.899917724609375,-0.9902801513671875,0.0128173828125,-0.0111083984375
1761916292430973000,9.909972900390626,-0.9891815185546875,0.0142364501953125,-0.01190185546875
1761916292441028900,9.92002880859375,-0.99078369140625,0.0129852294921875,-0.0114593505859375
1761916292451083800,9.930083740234375,-0.992523193359375,0.012725830078125,-0.01092529296875
1761916292461139000,9.940138916015625,-0.9889373779296875,0.0130767822265625,-0.0113067626953125
1761916292471194600,9.950194580078126,-0.9888458251953125,0.0136566162109375,-0.011810302734375
1761916292481249800,9.960249755859374,-0.9908294677734375,0.0134124755859375,-0.0115966796875
1761916292491305700,9.9703056640625,-0.990936279296875,0.013153076171875,-0.011016845703125
1761916292501361000,9.98036083984375,-0.991058349609375,0.0128936767578125,-0.0107574462890625
1761916292511416000,9.990416015625,-0.989593505859375,0.013214111328125,-0.0117645263671875
1761916292521471700,10.0004716796875,-0.989501953125,0.01312255859375,-0.011993408203125
1761916292531527000,10.01052685546875,-0.9908294677734375,0.0133819580078125,-0.0118865966796875
1761916292541581800,10.020581787109375,-0.9899749755859375,0.0133514404296875,-0.010986328125
1761916292551637800,10.0306376953125,-0.9892730712890625,0.0126953125,-0.0115203857421875
1761916292561693000,10.04069287109375,-0.99102783203125,0.0135650634765625,-0.0113677978515625
1761916292571747800,10.050747802734374,-0.989990234375,0.0130767822265625,-0.0122528076171875
1761916292581803800,10.0608037109375,-0.99053955078125,0.0122833251953125,-0.0118865966796875
1761916292591859000,10.07085888671875,-0.991363525390625,0.0125274658203125,-0.0109100341796875
1761916292601913900,10.080913818359376,-0.9901885986328125,0.0135040283203125,-0.0106201171875
1761916292611970000,10.090969970703124,-0.9725341796875,0.0148773193359375,-0.0155181884765625
1761916292622024700,10.101024658203125,-0.9325714111328125,0.018524169921875,-0.02435302734375
1761916292632080000,10.111079833984375,-1.0254364013671875,0.0070343017578125,-0.0032501220703125
1761916292642135800,10.1211357421875,-1.0459136962890625,0.0080718994140625,0.0074920654296875
1761916292652191000,10.13119091796875,-0.9887542724609375,0.01239013671875,-0.0035400390625
1761916292662245600,10.14124560546875,-0.992279052734375,0.010528564453125,-0.009765625
1761916292672301800,10.1513017578125,-0.997589111328125,0.0117950439453125,-0.0109710693359375
1761916292682356700,10.161356689453125,-0.9897918701171875,0.0120391845703125,-0.00830078125
1761916292692413000,10.171412841796876,-0.99505615234375,0.0113677978515625,-0.0064697265625
1761916292702467800,10.1814677734375,-0.97607421875,0.0161895751953125,-0.016632080078125
1761916292712522800,10.191522705078125,-0.9497528076171875,0.0161895751953125,-0.0232696533203125
