time,seconds_elapsed,z,y,x
1761915579726431200,0.07843115234375,-0.9567108154296875,-0.18426513671875,0.0679931640625
1761915579736485000,0.088485107421875,-0.972991943359375,-0.182159423828125,0.0723114013671875
1761915579746539000,0.0985390625,-0.9866180419921875,-0.1779632568359375,0.074615478515625
1761915579756594200,0.10859423828125,-0.98699951171875,-0.17254638671875,0.0749664306640625
1761915579766648300,0.1186484375,-0.9814910888671875,-0.1715545654296875,0.0729522705078125
1761915579776702200,0.1287021484375,-0.9756927490234375,-0.17327880859375,0.073089599609375
1761915579786756400,0.13875634765625,-0.9775238037109375,-0.177093505859375,0.0726470947265625
1761915579796810200,0.148810302734375,-0.9869232177734375,-0.1819305419921875,0.0716705322265625
1761915579806864400,0.158864501953125,-0.9935150146484375,-0.18560791015625,0.0735321044921875
1761915579816918000,0.16891796875,-0.9908447265625,-0.1906280517578125,0.072418212890625
1761915579826972200,0.17897216796875,-0.9759674072265625,-0.199188232421875,0.065277099609375
1761915579837026000,0.189026123046875,-0.9585723876953125,-0.2039947509765625,0.0559234619140625
1761915579847081200,0.199081298828125,-0.9426727294921875,-0.2075347900390625,0.045928955078125
1761915579857135400,0.20913525390625,-0.931793212890625,-0.2054595947265625,0.0366973876953125
1761915579867189200,0.219189208984375,-0.9344940185546875,-0.1976318359375,0.034271240234375
1761915579877243400,0.229243408203125,-0.9430694580078125,-0.1922760009765625,0.0364227294921875
1761915579887297300,0.23929736328125,-0.9559478759765625,-0.1931304931640625,0.0325469970703125
1761915579897351200,0.24935107421875,-0.9582061767578125,-0.18792724609375,0.0360260009765625
1761915579907405000,0.259405029296875,-0.9583740234375,-0.1869659423828125,0.038360595703125
1761915579917459200,0.269459228515625,-0.9522552490234375,-0.188812255859375,0.0392608642578125
1761915579927513000,0.27951318359375,-0.951934814453125,-0.1927032470703125,0.03607177734375
1761915579937568300,0.289568359375,-0.958984375,-0.1983184814453125,0.0290679931640625
1761915579947622400,0.299622314453125,-0.9563446044921875,-0.196197509765625,0.0243377685546875
1761915579957676300,0.30967626953125,-0.9545745849609375,-0.179168701171875,0.025146484375
1761915579967730200,0.319730224609375,-0.9602508544921875,-0.1634979248046875,0.0235443115234375
1761915579977784000,0.3297841796875,-0.973114013671875,-0.1526336669921875,0.0240936279296875
1761915579987838200,0.339838134765625,-0.9833984375,-0.1448211669921875,0.0274505615234375
1761915579997892000,0.34989208984375,-0.9886016845703125,-0.1455535888671875,0.0281219482421875
1761915580007946500,0.359946533203125,-0.9829864501953125,-0.1458282470703125,0.0281982421875
1761915580018000600,0.370000732421875,-0.99853515625,-0.148773193359375,0.0257720947265625
1761915580028055600,0.3800556640625,-1.0383148193359375,-0.1449432373046875,0.0265960693359375
1761915580038109400,0.390109375,-1.0687103271484375,-0.1365966796875,0.03692626953125
1761915580048163300,0.400163330078125,-1.0740509033203125,-0.14385986328125,0.039642333984375
1761915580058217500,0.410217529296875,-1.0580291748046875,-0.158355712890625,0.032867431640625
1761915580068271600,0.420271728515625,-1.0434722900390625,-0.1690216064453125,0.0311431884765625
1761915580078325500,0.430325439453125,-1.027679443359375,-0.180877685546875,0.0352783203125
1761915580088379600,0.440379638671875,-1.0067291259765625,-0.2008514404296875,0.0386199951171875
1761915580098433500,0.45043359375,-0.961212158203125,-0.2129974365234375,0.0166168212890625
1761915580108487700,0.46048779296875,-0.881988525390625,-0.21722412109375,-0.029754638671875
1761915580118542300,0.470542236328125,-0.8834686279296875,-0.2483978271484375,-0.0520477294921875
1761915580128596500,0.480596435546875,-0.872222900390625,-0.2542724609375,-0.0796356201171875
1761915580138650400,0.490650390625,-0.932525634765625,-0.2100830078125,-0.0663299560546875
1761915580148704500,0.50070458984375,-0.959320068359375,-0.194549560546875,0.0056610107421875
1761915580158758700,0.510758544921875,-0.9388580322265625,-0.225311279296875,-0.0040740966796875
1761915580168812500,0.5208125,-0.923187255859375,-0.26904296875,-0.0302886962890625
1761915580178866700,0.53086669921875,-0.89959716796875,-0.3177032470703125,-0.0420989990234375
1761915580188920600,0.540920654296875,-0.972991943359375,-0.3455810546875,-0.0488433837890625
1761915580198974700,0.550974609375,-1.088165283203125,-0.3354644775390625,-0.02874755859375
1761915580209029400,0.561029296875,-1.102020263671875,-0.2938079833984375,-0.0080108642578125
1761915580219083500,0.57108349609375,-1.0681304931640625,-0.2793731689453125,-0.0283660888671875
1761915580229137400,0.581137451171875,-1.0095367431640625,-0.2955474853515625,-0.07867431640625
1761915580239191600,0.591191650390625,-0.9499053955078125,-0.3172607421875,-0.139984130859375
1761915580249245700,0.60124560546875,-0.89593505859375,-0.3228912353515625,-0.1736602783203125
1761915580259299600,0.611299560546875,-0.856353759765625,-0.30255126953125,-0.187042236328125
1761915580269353700,0.621353759765625,-0.803466796875,-0.2467803955078125,-0.247802734375
1761915580279407600,0.63140771484375,-0.8510894775390625,-0.234527587890625,-0.2654876708984375
1761915580289461500,0.64146142578125,-0.8574371337890625,-0.2390899658203125,-0.259735107421875
1761915580299516400,0.651516357421875,-0.81976318359375,-0.2696685791015625,-0.2787933349609375
1761915580309570600,0.661570556640625,-0.715545654296875,-0.3116455078125,-0.3238677978515625
1761915580319624400,0.67162451171875,-0.640106201171875,-0.3207550048828125,-0.3580474853515625
1761915580329678600,0.6816787109375,-0.7613677978515625,-0.287933349609375,-0.3339996337890625
1761915580339732500,0.691732421875,-0.8279571533203125,-0.2694244384765625,-0.3182373046875
1761915580349786600,0.70178662109375,-0.8554229736328125,-0.2935791015625,-0.31494140625
1761915580359840500,0.711840576171875,-0.839996337890625,-0.237518310546875,-0.2594451904296875
1761915580369894400,0.721894287109375,-0.816436767578125,-0.19384765625,-0.23394775390625
1761915580379949600,0.731949462890625,-0.902618408203125,-0.183807373046875,-0.2257843017578125
1761915580390003500,0.74200341796875,-1.03485107421875,-0.1696014404296875,-0.20635986328125
1761915580400057600,0.7520576171875,-1.107513427734375,-0.1396636962890625,-0.1702423095703125
1761915580410111500,0.762111572265625,-1.1099395751953125,-0.11541748046875,-0.1446990966796875
1761915580420165600,0.77216552734375,-1.098114013671875,-0.1135101318359375,-0.138580322265625
1761915580430219500,0.782219482421875,-1.06524658203125,-0.1464080810546875,-0.1630706787109375
1761915580440273400,0.7922734375,-0.99871826171875,-0.1676483154296875,-0.180999755859375
1761915580450327600,0.80232763671875,-0.9499969482421875,-0.1700286865234375,-0.1848602294921875
1761915580460381400,0.81238134765625,-0.9551239013671875,-0.1669921875,-0.176300048828125
1761915580470436600,0.8224365234375,-0.9792938232421875,-0.1596527099609375,-0.156890869140625
1761915580480490500,0.832490478515625,-0.98358154296875,-0.1733245849609375,-0.1467742919921875
1761915580490544600,0.842544677734375,-0.9945831298828125,-0.213470458984375,-0.14727783203125
1761915580500598500,0.8525986328125,-1.0164794921875,-0.2464447021484375,-0.15234375
1761915580510652400,0.86265234375,-0.9973602294921875,-0.2475128173828125,-0.1348419189453125
1761915580520706300,0.872706298828125,-1.0003509521484375,-0.2354888916015625,-0.1013946533203125
1761915580530760400,0.882760498046875,-1.0509796142578125,-0.2178802490234375,-0.079193115234375
1761915580540814600,0.892814697265625,-1.056182861328125,-0.205596923828125,-0.0701904296875
1761915580550868500,0.902868408203125,-1.05523681640625,-0.197113037109375,-0.06060791015625
1761915580560923600,0.912923583984375,-1.0446624755859375,-0.1756591796875,-0.0556640625
1761915580570977500,0.9229775390625,-1.0216827392578125,-0.161102294921875,-0.0718231201171875
1761915580581031700,0.93303173828125,-0.9759063720703125,-0.148162841796875,-0.091949462890625
1761915580591085300,0.943085205078125,-0.93267822265625,-0.1445465087890625,-0.1033935546875
1761915580601139500,0.953139404296875,-0.8925323486328125,-0.15966796875,-0.1153411865234375
1761915580611193300,0.963193359375,-0.8669281005859375,-0.185455322265625,-0.1210784912109375
1761915580621247500,0.97324755859375,-0.850982666015625,-0.209136962890625,-0.1180267333984375
1761915580631301600,0.983301513671875,-0.891387939453125,-0.2007904052734375,-0.1009063720703125
1761915580641355500,0.99335546875,-0.9842681884765625,-0.1696624755859375,-0.052520751953125
1761915580651410700,1.00341064453125,-1.0249481201171875,-0.1434173583984375,-0.0072784423828125
1761915580661464600,1.013464599609375,-1.0179290771484375,-0.129302978515625,0.0147247314453125
1761915580671518500,1.0235185546875,-1.0131072998046875,-0.130645751953125,0.0250091552734375
1761915580681572400,1.033572265625,-1.0063629150390625,-0.1332855224609375,0.0309600830078125
1761915580691626500,1.04362646484375,-1.0144805908203125,-0.1348419189453125,0.029449462890625
1761915580701680400,1.053680419921875,-1.0224609375,-0.1335601806640625,0.0287933349609375
1761915580711734500,1.063734619140625,-1.0057220458984375,-0.1320648193359375,0.026397705078125
1761915580721788400,1.073788330078125,-0.9781494140625,-0.137725830078125,0.020111083984375
1761915580731842600,1.083842529296875,-0.9738006591796875,-0.154937744140625,0.0144500732421875
1761915580741896700,1.093896728515625,-0.9858245849609375,-0.170623779296875,0.0206756591796875
1761915580751951400,1.103951416015625,-0.98974609375,-0.1802215576171875,0.028900146484375
1761915580762005500,1.114005615234375,-0.9833984375,-0.1875152587890625,0.0381927490234375
1761915580772059400,1.124059326171875,-0.97296142578125,-0.1937713623046875,0.0455169677734375
1761915580782113500,1.134113525390625,-0.9661407470703125,-0.21038818359375,0.038421630859375
1761915580792167400,1.14416748046875,-0.973876953125,-0.228546142578125,0.0315399169921875
1761915580802221600,1.1542216796875,-0.9865264892578125,-0.2331390380859375,0.0341796875
1761915580812275500,1.164275390625,-0.98956298828125,-0.2154388427734375,0.0378570556640625
1761915580822329600,1.17432958984375,-0.98492431640625,-0.1955718994140625,0.03607177734375
1761915580832383700,1.1843837890625,-0.98992919921875,-0.1939697265625,0.041717529296875
1761915580842438400,1.1944384765625,-0.9788970947265625,-0.2137451171875,0.033782958984375
1761915580852492500,1.204492431640625,-0.9537811279296875,-0.2249755859375,0.0260772705078125
1761915580862546400,1.21454638671875,-0.9456939697265625,-0.2229156494140625,0.0177154541015625
1761915580872600600,1.2246005859375,-0.965087890625,-0.2114410400390625,0.0156097412109375
1761915580882654500,1.234654541015625,-0.9801788330078125,-0.2000885009765625,0.0207061767578125
1761915580892708600,1.24470849609375,-0.9745330810546875,-0.1966094970703125,0.0197906494140625
1761915580902762500,1.254762451171875,-0.9729461669921875,-0.1978607177734375,0.0184478759765625
1761915580912816600,1.264816650390625,-0.96734619140625,-0.206146240234375,0.0171661376953125
1761915580922870500,1.27487060546875,-0.9651336669921875,-0.2129364013671875,0.0193328857421875
1761915580932925400,1.284925537109375,-0.9722900390625,-0.213134765625,0.0229949951171875
1761915580942979600,1.2949794921875,-0.9793701171875,-0.207672119140625,0.0300140380859375
1761915580953033500,1.305033447265625,-0.9722442626953125,-0.2038116455078125,0.0264434814453125
1761915580963087600,1.315087646484375,-0.9625244140625,-0.2046356201171875,0.019073486328125
1761915580973141500,1.3251416015625,-0.9547576904296875,-0.2071075439453125,0.011810302734375
1761915580983195600,1.335195556640625,-0.95343017578125,-0.207366943359375,0.01220703125
1761915580993249500,1.34524951171875,-0.9634552001953125,-0.2038116455078125,0.0137786865234375
1761915581003303000,1.355302978515625,-0.977630615234375,-0.196380615234375,0.0149383544921875
1761915581013356800,1.365356689453125,-0.9795379638671875,-0.1865234375,0.0135955810546875
1761915581023412000,1.375411865234375,-0.9706268310546875,-0.18798828125,0.0059661865234375
1761915581033465900,1.3854658203125,-0.958831787109375,-0.197967529296875,-0.005828857421875
1761915581043520000,1.39552001953125,-0.9482879638671875,-0.205413818359375,-0.0135345458984375
1761915581053574000,1.405573974609375,-0.94219970703125,-0.209808349609375,-0.014312744140625
1761915581063628000,1.4156279296875,-0.9444580078125,-0.210968017578125,-0.0150299072265625
1761915581073682000,1.425681884765625,-0.94500732421875,-0.2112579345703125,-0.0186004638671875
1761915581083736000,1.435736083984375,-0.9428863525390625,-0.2075958251953125,-0.0202178955078125
1761915581093789700,1.445789794921875,-0.93939208984375,-0.1987457275390625,-0.0226593017578125
1761915581103843800,1.45584375,-0.9421539306640625,-0.1952362060546875,-0.0231170654296875
1761915581113899000,1.46589892578125,-0.9509429931640625,-0.200927734375,-0.019287109375
1761915581123953000,1.475952880859375,-0.966583251953125,-0.2041473388671875,-0.01300048828125
1761915581134007000,1.486007080078125,-0.9851531982421875,-0.198272705078125,-0.0051422119140625
1761915581144061000,1.49606103515625,-0.9937591552734375,-0.186248779296875,0.0005340576171875
1761915581154115000,1.506114990234375,-0.990966796875,-0.1795806884765625,-0.0065460205078125
1761915581164169000,1.5161689453125,-0.981231689453125,-0.1764984130859375,-0.01214599609375
1761915581174222800,1.526222900390625,-0.96954345703125,-0.1759185791015625,-0.0112762451171875
1761915581184276700,1.53627685546875,-0.9597930908203125,-0.1845855712890625,-0.0113372802734375
1761915581194331000,1.546330810546875,-0.9607391357421875,-0.20001220703125,-0.0125274658203125
1761915581204386000,1.556385986328125,-0.967681884765625,-0.2074127197265625,-0.01153564453125
1761915581214440000,1.56643994140625,-0.976776123046875,-0.2054290771484375,-0.0079193115234375
1761915581224494000,1.576494140625,-0.9754638671875,-0.196319580078125,-0.0027923583984375
1761915581234548000,1.5865478515625,-0.9694366455078125,-0.192840576171875,-0.002105712890625
1761915581244601900,1.596601806640625,-0.9633026123046875,-0.1913299560546875,-0.0047454833984375
1761915581254655700,1.60665576171875,-0.958465576171875,-0.193511962890625,-0.006378173828125
1761915581264710000,1.6167099609375,-0.9611968994140625,-0.1955718994140625,-0.0056304931640625
1761915581274763800,1.626763671875,-0.9786376953125,-0.191375732421875,-0.001129150390625
1761915581284818000,1.63681787109375,-0.99859619140625,-0.1885986328125,0.0062103271484375
1761915581294873000,1.646873046875,-1.0006256103515625,-0.1890106201171875,0.0105133056640625
1761915581304927000,1.656927001953125,-0.9866943359375,-0.19091796875,0.0047760009765625
1761915581314980900,1.66698095703125,-0.9734649658203125,-0.1915283203125,-0.0047760009765625
1761915581325034800,1.67703466796875,-0.964202880859375,-0.184783935546875,-0.00921630859375
1761915581335089000,1.6870888671875,-0.9673614501953125,-0.17645263671875,-0.0071563720703125
1761915581345142800,1.697142822265625,-0.9846343994140625,-0.1741790771484375,-0.0027923583984375
1761915581355197000,1.707197021484375,-1.006378173828125,-0.167999267578125,0.0069427490234375
1761915581365250800,1.717250732421875,-1.0146636962890625,-0.1607208251953125,0.0146026611328125
1761915581375305000,1.727304931640625,-1.008209228515625,-0.1579437255859375,0.010589599609375
1761915581385358800,1.73735888671875,-0.9943389892578125,-0.1577301025390625,0.001220703125
1761915581395413800,1.747413818359375,-0.9808197021484375,-0.1571044921875,-0.00244140625
1761915581405468000,1.757468017578125,-0.97381591796875,-0.1588592529296875,-0.0010528564453125
1761915581415521800,1.767521728515625,-0.9700164794921875,-0.1611480712890625,0.0019378662109375
1761915581425576000,1.777575927734375,-0.96343994140625,-0.1705322265625,-0.0006103515625
1761915581435629800,1.7876298828125,-0.9611053466796875,-0.1817169189453125,-0.0003204345703125
1761915581445684000,1.79768408203125,-0.9622039794921875,-0.1958770751953125,0.0037384033203125
1761915581455737900,1.80773779296875,-0.9668121337890625,-0.208465576171875,0.0093841552734375
1761915581465792000,1.8177919921875,-0.970947265625,-0.21221923828125,0.013580322265625
1761915581475846000,1.827845947265625,-0.973236083984375,-0.2025146484375,0.01031494140625
1761915581485900800,1.83790087890625,-0.9852294921875,-0.190582275390625,0.007965087890625
1761915581495955000,1.847954833984375,-0.9929046630859375,-0.17913818359375,0.00787353515625
1761915581506008800,1.8580087890625,-0.993194580078125,-0.175323486328125,0.0064544677734375
1761915581516063000,1.86806298828125,-0.98345947265625,-0.177825927734375,0.0055694580078125
1761915581526116900,1.878116943359375,-0.968292236328125,-0.183868408203125,0.00238037109375
1761915581536171000,1.8881708984375,-0.9607086181640625,-0.1904296875,0.00018310546875
1761915581546225000,1.898224853515625,-0.9587860107421875,-0.1925811767578125,-0.00018310546875
1761915581556279000,1.908279052734375,-0.961212158203125,-0.193878173828125,0.0011444091796875
1761915581566333000,1.9183330078125,-0.971954345703125,-0.1926116943359375,0.0010986328125
1761915581576387800,1.928387939453125,-0.9815826416015625,-0.1847076416015625,0.0048980712890625
1761915581586442000,1.93844189453125,-0.9892730712890625,-0.1794281005859375,0.0111541748046875
1761915581596496000,1.948495849609375,-0.988128662109375,-0.1710205078125,0.0197601318359375
1761915581606550000,1.958550048828125,-0.98345947265625,-0.1639251708984375,0.022552490234375
1761915581616604000,1.96860400390625,-0.97686767578125,-0.1629638671875,0.0185394287109375
1761915581626658000,1.978657958984375,-0.97314453125,-0.163726806640625,0.0164947509765625
1761915581636712000,1.9887119140625,-0.9710845947265625,-0.1656341552734375,0.0184173583984375
1761915581646765800,1.998765869140625,-0.9703216552734375,-0.1692657470703125,0.0164794921875
1761915581656819700,2.00881982421875,-0.9718475341796875,-0.1682281494140625,0.0149993896484375
1761915581666875000,2.018875,-0.9745941162109375,-0.1659393310546875,0.0155181884765625
1761915581676929000,2.028928955078125,-0.979095458984375,-0.1675872802734375,0.0146942138671875
1761915581686983000,2.03898291015625,-0.9751434326171875,-0.1688232421875,0.0142364501953125
1761915581697037000,2.049037109375,-0.9603424072265625,-0.17120361328125,0.0144805908203125
1761915581707091000,2.059091064453125,-0.948760986328125,-0.1742401123046875,0.0137786865234375
1761915581717145000,2.06914501953125,-0.95294189453125,-0.1711883544921875,0.0152740478515625
1761915581727198700,2.07919873046875,-0.9597015380859375,-0.16986083984375,0.0161590576171875
1761915581737252900,2.0892529296875,-0.966217041015625,-0.1678466796875,0.018310546875
1761915581747306800,2.099306640625,-0.974761962890625,-0.1639251708984375,0.0179443359375
1761915581757361000,2.10936083984375,-0.990966796875,-0.16339111328125,0.0174560546875
1761915581767416000,2.119416015625,-0.9992828369140625,-0.1606597900390625,0.0230865478515625
1761915581777470000,2.129469970703125,-0.9954681396484375,-0.1631011962890625,0.0228424072265625
1761915581787524000,2.139524169921875,-0.9821929931640625,-0.16534423828125,0.01739501953125
1761915581797578000,2.149577880859375,-0.9678955078125,-0.1628875732421875,0.0132904052734375
1761915581807632000,2.1596318359375,-0.961761474609375,-0.1594085693359375,0.0112762451171875
1761915581817685800,2.169685791015625,-0.9622344970703125,-0.159149169921875,0.0088043212890625
1761915581827740000,2.179739990234375,-0.9612884521484375,-0.1637420654296875,0.0102081298828125
1761915581837793800,2.189793701171875,-0.958251953125,-0.1714935302734375,0.0115509033203125
1761915581847848000,2.199847900390625,-0.95550537109375,-0.1785125732421875,0.0128021240234375
1761915581857901800,2.20990185546875,-0.9640960693359375,-0.1812896728515625,0.0126495361328125
1761915581867957000,2.21995703125,-0.9783935546875,-0.18072509765625,0.013397216796875
1761915581878011000,2.230010986328125,-0.986785888671875,-0.1771392822265625,0.0142974853515625
1761915581888064800,2.240064697265625,-0.98486328125,-0.1743621826171875,0.0160980224609375
1761915581898119000,2.250118896484375,-0.975006103515625,-0.1741943359375,0.01678466796875
1761915581908172800,2.2601728515625,-0.9685211181640625,-0.17803955078125,0.015045166015625
1761915581918227000,2.27022705078125,-0.96875,-0.1782684326171875,0.0107269287109375
1761915581928280800,2.28028076171875,-0.9729461669921875,-0.1757659912109375,0.00921630859375
1761915581938335000,2.2903349609375,-0.9795074462890625,-0.1678924560546875,0.01116943359375
1761915581948388900,2.300388916015625,-0.9857177734375,-0.1602935791015625,0.0162353515625
1761915581958443800,2.31044384765625,-0.9889984130859375,-0.157196044921875,0.0176544189453125
1761915581968498000,2.320497802734375,-0.9916534423828125,-0.153350830078125,0.0207977294921875
1761915581978551800,2.3305517578125,-1.0044097900390625,-0.1490020751953125,0.0240478515625
1761915581988606000,2.34060595703125,-1.0196990966796875,-0.1464385986328125,0.0282745361328125
1761915581998659800,2.350659912109375,-1.026763916015625,-0.1457672119140625,0.0294952392578125
1761915582008710700,2.360710693359375,-1.021514892578125,-0.147186279296875,0.0250244140625
1761915582018764500,2.3707646484375,-1.0031280517578125,-0.1479949951171875,0.0226287841796875
1761915582028818700,2.380818603515625,-0.981719970703125,-0.1518096923828125,0.01861572265625
1761915582038872600,2.39087255859375,-0.968170166015625,-0.1549072265625,0.01348876953125
1761915582048927500,2.400927490234375,-0.9680938720703125,-0.1550750732421875,0.0102386474609375
1761915582058981400,2.4109814453125,-0.9737396240234375,-0.151123046875,0.0125274658203125
1761915582069035500,2.421035400390625,-0.983978271484375,-0.1519775390625,0.0166473388671875
1761915582079089700,2.431089599609375,-0.994232177734375,-0.1508331298828125,0.022308349609375
1761915582089143600,2.4411435546875,-0.999908447265625,-0.149444580078125,0.026702880859375
1761915582099197700,2.45119775390625,-0.9926300048828125,-0.1519775390625,0.027679443359375
1761915582109251600,2.46125146484375,-0.9816741943359375,-0.1543731689453125,0.02178955078125
1761915582119305700,2.4713056640625,-0.9776153564453125,-0.1553192138671875,0.0163726806640625
1761915582129359400,2.481359375,-0.975128173828125,-0.149932861328125,0.018310546875
1761915582139413500,2.49141357421875,-0.970794677734375,-0.151031494140625,0.0179901123046875
1761915582149468400,2.501468505859375,-0.97149658203125,-0.15673828125,0.01470947265625
1761915582159522600,2.5115224609375,-0.977203369140625,-0.1613922119140625,0.0167694091796875
1761915582169576400,2.521576416015625,-0.9798583984375,-0.1646270751953125,0.0188751220703125
1761915582179630600,2.531630615234375,-0.976776123046875,-0.1660919189453125,0.018951416015625
1761915582189684700,2.541684814453125,-0.9708251953125,-0.164215087890625,0.0159759521484375
1761915582199738600,2.551738525390625,-0.9698028564453125,-0.1628570556640625,0.0141754150390625
1761915582209792500,2.56179248046875,-0.9739837646484375,-0.1635589599609375,0.0146942138671875
1761915582219846400,2.571846435546875,-0.9786834716796875,-0.16595458984375,0.013763427734375
1761915582229900500,2.581900634765625,-0.983642578125,-0.171539306640625,0.0145721435546875
1761915582239955500,2.59195556640625,-0.9859161376953125,-0.17425537109375,0.0140380859375
1761915582250009600,2.602009521484375,-0.9781951904296875,-0.1733551025390625,0.010528564453125
1761915582260063500,2.6120634765625,-0.9810333251953125,-0.16558837890625,0.007537841796875
1761915582270117600,2.62211767578125,-0.9937744140625,-0.1571502685546875,0.0087432861328125
1761915582280171500,2.632171630859375,-0.997772216796875,-0.1512908935546875,0.011260986328125
1761915582290225400,2.642225341796875,-0.992889404296875,-0.1533660888671875,0.0047760009765625
1761915582300279600,2.652279541015625,-0.9861907958984375,-0.157135009765625,-0.0021514892578125
1761915582310333400,2.66233349609375,-0.9769439697265625,-0.1597442626953125,-0.002960205078125
1761915582320387600,2.6723876953125,-0.9676971435546875,-0.162567138671875,-0.004119873046875
1761915582330441500,2.68244140625,-0.96533203125,-0.165802001953125,-0.0034332275390625
1761915582340496600,2.69249658203125,-0.9754486083984375,-0.165496826171875,-0.003662109375
1761915582350550500,2.702550537109375,-0.9856414794921875,-0.15509033203125,-0.0011749267578125
1761915582360604400,2.7126044921875,-0.9867095947265625,-0.141845703125,0.00372314453125
1761915582370658600,2.722658447265625,-0.9820098876953125,-0.14031982421875,0.0035247802734375
1761915582380712400,2.73271240234375,-0.97503662109375,-0.1471405029296875,0.002166748046875
1761915582390766600,2.7427666015625,-0.9723968505859375,-0.1569061279296875,0.005157470703125
1761915582400820500,2.752820556640625,-0.97265625,-0.1708221435546875,0.0068359375
1761915582410874600,2.76287451171875,-0.972930908203125,-0.1798248291015625,0.0088653564453125
1761915582420928500,2.772928466796875,-0.9666595458984375,-0.174713134765625,0.011016845703125
1761915582430983400,2.7829833984375,-0.96343994140625,-0.1621246337890625,0.0106353759765625
1761915582441037300,2.793037353515625,-0.9727935791015625,-0.1509857177734375,0.0094757080078125
1761915582451091500,2.803091552734375,-0.9834136962890625,-0.1448822021484375,0.009857177734375
1761915582461145600,2.8131455078125,-0.9912109375,-0.148590087890625,0.009124755859375
1761915582471199500,2.823199462890625,-0.9978179931640625,-0.15447998046875,0.0138702392578125
1761915582481253600,2.833253662109375,-0.9933319091796875,-0.1624908447265625,0.0187835693359375
1761915582491307500,2.8433076171875,-0.986663818359375,-0.170654296875,0.0151824951171875
1761915582501361700,2.853361572265625,-0.9795074462890625,-0.1754150390625,0.0128173828125
1761915582511415600,2.86341552734375,-0.97210693359375,-0.1745758056640625,0.0102691650390625
1761915582521470500,2.873470458984375,-0.9681854248046875,-0.174591064453125,0.003814697265625
1761915582531524400,2.8835244140625,-0.9676361083984375,-0.1694488525390625,0.0007781982421875
1761915582541578500,2.89357861328125,-0.968780517578125,-0.163818359375,0.0009765625
1761915582551632600,2.903632568359375,-0.9698028564453125,-0.1588897705078125,0.0038604736328125
1761915582561686500,2.9136865234375,-0.97589111328125,-0.1566162109375,0.0055084228515625
1761915582571740700,2.92374072265625,-0.9822235107421875,-0.157196044921875,0.008575439453125
1761915582581794600,2.933794677734375,-0.98345947265625,-0.1604766845703125,0.0079345703125
1761915582591848700,2.9438486328125,-0.9840240478515625,-0.165802001953125,0.0057830810546875
1761915582601902600,2.953902587890625,-0.984344482421875,-0.1648712158203125,0.0041351318359375
1761915582611957500,2.96395751953125,-0.9821929931640625,-0.1573486328125,0.0026092529296875
1761915582622011400,2.974011474609375,-0.9760589599609375,-0.1504974365234375,0.0009918212890625
1761915582632065500,2.9840654296875,-0.9715423583984375,-0.15093994140625,-0.003570556640625
1761915582642119400,2.994119384765625,-0.973297119140625,-0.152252197265625,-0.0033721923828125
1761915582652173600,3.004173583984375,-0.981170654296875,-0.155364990234375,-0.00030517578125
1761915582662227700,3.014227783203125,-0.9910888671875,-0.16015625,0.0049285888671875
1761915582672281600,3.024281494140625,-0.992401123046875,-0.1641845703125,0.00762939453125
1761915582682335500,3.03433544921875,-0.98834228515625,-0.16351318359375,0.00689697265625
1761915582692390400,3.044390380859375,-0.98150634765625,-0.1600189208984375,0.0050506591796875
1761915582702444500,3.054444580078125,-0.9772186279296875,-0.15960693359375,0.0021820068359375
1761915582712498400,3.06449853515625,-0.968109130859375,-0.16082763671875,0.0009765625
1761915582722552600,3.074552490234375,-0.964599609375,-0.1640625,0.0004425048828125
1761915582732606500,3.0846064453125,-0.9760589599609375,-0.161651611328125,0.002349853515625
1761915582742660600,3.09466064453125,-0.9859466552734375,-0.156829833984375,0.0093536376953125
1761915582752714800,3.10471484375,-0.9874267578125,-0.1583404541015625,0.0082550048828125
1761915582762768400,3.114768310546875,-0.985565185546875,-0.1651763916015625,0.005462646484375
1761915582772822500,3.124822509765625,-0.983642578125,-0.167022705078125,0.005157470703125
1761915582782877400,3.13487744140625,-0.9794464111328125,-0.1641998291015625,0.0082550048828125
1761915582792931600,3.144931640625,-0.9753875732421875,-0.1636505126953125,0.0070037841796875
1761915582802985500,3.1549853515625,-0.972320556640625,-0.164306640625,0.005706787109375
1761915582813039600,3.16503955078125,-0.9756317138671875,-0.1667938232421875,0.0063018798828125
1761915582823093500,3.175093505859375,-0.97821044921875,-0.166290283203125,0.00604248046875
1761915582833147600,3.185147705078125,-0.973876953125,-0.1636810302734375,0.004608154296875
1761915582843201500,3.195201416015625,-0.970458984375,-0.1609039306640625,0.0054168701171875
1761915582853255400,3.20525537109375,-0.9733734130859375,-0.1586151123046875,0.0060577392578125
1761915582863309600,3.2153095703125,-0.982452392578125,-0.1597137451171875,0.0060577392578125
1761915582873364500,3.225364501953125,-0.9902801513671875,-0.1603546142578125,0.0067138671875
1761915582883418600,3.235418701171875,-0.99322509765625,-0.1605682373046875,0.006256103515625
1761915582893472500,3.245472412109375,-0.9874725341796875,-0.1569976806640625,0.0046539306640625
1761915582903526700,3.255526611328125,-0.983551025390625,-0.1544952392578125,0.0044708251953125
1761915582913580500,3.26558056640625,-0.983367919921875,-0.1527557373046875,0.007293701171875
1761915582923634400,3.275634521484375,-0.9847259521484375,-0.1525421142578125,0.0102691650390625
1761915582933688600,3.2856884765625,-0.987060546875,-0.159698486328125,0.0079345703125
1761915582943742500,3.295742431640625,-0.989959716796875,-0.164093017578125,0.0032806396484375
1761915582953797600,3.305797607421875,-0.9852294921875,-0.162261962890625,0.00274658203125
1761915582963851500,3.3158515625,-0.9737701416015625,-0.1612548828125,0.0018310546875
1761915582973905700,3.32590576171875,-0.962066650390625,-0.1624603271484375,-0.00164794921875
1761915582983959600,3.33595947265625,-0.958221435546875,-0.163482666015625,-0.0027923583984375
1761915582994013400,3.346013427734375,-0.9607696533203125,-0.16754150390625,-0.0041656494140625
1761915583004067600,3.356067626953125,-0.967987060546875,-0.1692047119140625,-0.0037689208984375
1761915583014121700,3.366121826171875,-0.975494384765625,-0.16851806640625,-0.0041046142578125
1761915583024175900,3.37617578125,-0.9898529052734375,-0.167633056640625,-0.00152587890625
1761915583034229800,3.386229736328125,-0.9973907470703125,-0.1663055419921875,0.0019378662109375
1761915583044285000,3.396284912109375,-0.992828369140625,-0.1603546142578125,0.003021240234375
1761915583054338800,3.4063388671875,-0.9851226806640625,-0.15570068359375,0.0010223388671875
1761915583064392700,3.416392822265625,-0.981903076171875,-0.1575775146484375,-0.00152587890625
1761915583074446600,3.426446533203125,-0.9791259765625,-0.160064697265625,-0.0008697509765625
1761915583084500700,3.436500732421875,-0.9814605712890625,-0.162994384765625,-0.001007080078125
1761915583094554600,3.4465546875,-0.987396240234375,-0.1615447998046875,-0.000823974609375
1761915583104608800,3.45660888671875,-0.9903106689453125,-0.1570281982421875,-0.00054931640625
1761915583114663000,3.466662841796875,-0.9907379150390625,-0.1535491943359375,-0.0008392333984375
1761915583124717800,3.4767177734375,-0.984710693359375,-0.1529388427734375,-0.003021240234375
1761915583134771700,3.486771728515625,-0.976837158203125,-0.154693603515625,-0.00634765625
1761915583144825600,3.49682568359375,-0.9718475341796875,-0.1563262939453125,-0.00665283203125
1761915583154879700,3.506879638671875,-0.972076416015625,-0.16058349609375,-0.004669189453125
1761915583164933600,3.51693359375,-0.9774017333984375,-0.1630096435546875,-0.0016021728515625
1761915583174987800,3.52698779296875,-0.9801025390625,-0.1603546142578125,0.0032958984375
1761915583185041700,3.537041748046875,-0.98150634765625,-0.15850830078125,0.00457763671875
1761915583195095800,3.547095703125,-0.9851837158203125,-0.1573028564453125,0.00469970703125
1761915583205150000,3.55714990234375,-0.9873046875,-0.1559600830078125,0.006011962890625
1761915583215204600,3.56720458984375,-0.9842376708984375,-0.1597747802734375,0.0092620849609375
1761915583225258800,3.5772587890625,-0.9789276123046875,-0.1669769287109375,0.01104736328125
1761915583235312600,3.587312744140625,-0.9738922119140625,-0.17181396484375,0.0133819580078125
1761915583245366800,3.59736669921875,-0.9713592529296875,-0.1740264892578125,0.0179290771484375
1761915583255420700,3.607420654296875,-0.9734039306640625,-0.1707000732421875,0.018341064453125
1761915583265474800,3.617474853515625,-0.9818572998046875,-0.165496826171875,0.0184783935546875
1761915583275528700,3.62752880859375,-0.9918975830078125,-0.162261962890625,0.0183258056640625
1761915583285582800,3.637582763671875,-0.9949493408203125,-0.161895751953125,0.0187530517578125
1761915583295637000,3.647636962890625,-0.9874267578125,-0.165252685546875,0.016998291015625
1761915583305691600,3.657691650390625,-0.9731903076171875,-0.170654296875,0.014495849609375
1761915583315745800,3.667745849609375,-0.9602203369140625,-0.171630859375,0.016754150390625
1761915583325799700,3.677799560546875,-0.9561920166015625,-0.1738433837890625,0.016448974609375
1761915583335853800,3.687853759765625,-0.9581298828125,-0.175445556640625,0.01373291015625
1761915583345907700,3.69790771484375,-0.96478271484375,-0.171905517578125,0.0113677978515625
1761915583355961900,3.7079619140625,-0.9732818603515625,-0.1706085205078125,0.0090789794921875
1761915583366015700,3.718015625,-0.97412109375,-0.1677398681640625,0.00885009765625
1761915583376070000,3.72806982421875,-0.972076416015625,-0.162445068359375,0.0120849609375
1761915583386124800,3.738124755859375,-0.9750518798828125,-0.160064697265625,0.0179290771484375
1761915583396178700,3.7481787109375,-0.99176025390625,-0.1600494384765625,0.021148681640625
1761915583406232800,3.75823291015625,-1.00750732421875,-0.1599578857421875,0.0256805419921875
1761915583416286700,3.76828662109375,-1.007293701171875,-0.1578216552734375,0.025299072265625
1761915583426340900,3.7783408203125,-0.9917144775390625,-0.1600189208984375,0.0190582275390625
1761915583436394800,3.788394775390625,-0.98046875,-0.1646270751953125,0.0165252685546875
1761915583446449000,3.798448974609375,-0.965301513671875,-0.16748046875,0.0150604248046875
1761915583456502800,3.808502685546875,-0.9597625732421875,-0.174835205078125,0.0145263671875
1761915583466557700,3.8185576171875,-0.9623565673828125,-0.1819915771484375,0.011016845703125
1761915583476611800,3.82861181640625,-0.9705963134765625,-0.187286376953125,0.008392333984375
1761915583486665700,3.838665771484375,-0.9732513427734375,-0.1847076416015625,0.012054443359375
1761915583496720000,3.848719970703125,-0.97454833984375,-0.1796112060546875,0.0143585205078125
1761915583506773800,3.858773681640625,-0.978271484375,-0.1752166748046875,0.01654052734375
1761915583516828000,3.868827880859375,-0.984100341796875,-0.16845703125,0.0205230712890625
1761915583526881800,3.8788818359375,-0.9882354736328125,-0.1662139892578125,0.0228271484375
1761915583536935700,3.888935791015625,-0.9917755126953125,-0.1729888916015625,0.02276611328125
1761915583546989600,3.898989501953125,-0.9839019775390625,-0.17877197265625,0.0207061767578125
1761915583557044700,3.909044677734375,-0.97027587890625,-0.181121826171875,0.01641845703125
1761915583567099000,3.919098876953125,-0.9646759033203125,-0.1819305419921875,0.0113983154296875
1761915583577152800,3.92915283203125,-0.96905517578125,-0.1790313720703125,0.010040283203125
1761915583587207000,3.93920703125,-0.9796295166015625,-0.173004150390625,0.0127716064453125
1761915583597260800,3.9492607421875,-0.9877166748046875,-0.17156982421875,0.01116943359375
1761915583607315000,3.95931494140625,-0.9861602783203125,-0.1751556396484375,0.009307861328125
1761915583617368600,3.96936865234375,-0.9776153564453125,-0.179107666015625,0.0087890625
1761915583627422700,3.979422607421875,-0.965972900390625,-0.1814727783203125,0.0085601806640625
1761915583637478000,3.989477783203125,-0.9542083740234375,-0.1849365234375,0.0087432861328125
1761915583647531800,3.99953173828125,-0.950439453125,-0.189483642578125,0.0048675537109375
1761915583657586000,4.0095859375,-0.9600067138671875,-0.1908111572265625,0.002899169921875
1761915583667639800,4.019639892578125,-0.9789276123046875,-0.18341064453125,0.0069122314453125
1761915583677694000,4.02969384765625,-0.9912109375,-0.172637939453125,0.01458740234375
1761915583687747800,4.039747802734375,-0.9895477294921875,-0.1697998046875,0.0133056640625
1761915583697801700,4.0498017578125,-0.98382568359375,-0.1705322265625,0.0086822509765625
1761915583707855600,4.059855712890625,-0.9753570556640625,-0.1693267822265625,0.009063720703125
1761915583717910800,4.069910888671875,-0.9669036865234375,-0.1675262451171875,0.0081939697265625
1761915583727965000,4.07996484375,-0.96343994140625,-0.1682891845703125,0.0051727294921875
1761915583738018800,4.090018798828125,-0.965850830078125,-0.1696319580078125,0.0035247802734375
1761915583748073000,4.100072998046875,-0.9720611572265625,-0.169219970703125,0.00433349609375
1761915583758126800,4.110126953125,-0.9785614013671875,-0.169281005859375,0.0102691650390625
1761915583768180700,4.1201806640625,-0.984039306640625,-0.17559814453125,0.011322021484375
1761915583778234600,4.130234619140625,-0.9804840087890625,-0.1800994873046875,0.010528564453125
1761915583788288800,4.140288818359375,-0.9700469970703125,-0.178253173828125,0.0087127685546875
1761915583798342700,4.1503427734375,-0.9586639404296875,-0.1753692626953125,0.008453369140625
1761915583808397800,4.160397705078125,-0.954193115234375,-0.17547607421875,0.0063934326171875
1761915583818452000,4.170451904296875,-0.9635467529296875,-0.179931640625,0.0049285888671875
1761915583828505900,4.180505859375,-0.9810333251953125,-0.1832122802734375,0.009521484375
1761915583838559700,4.190559814453125,-0.9836273193359375,-0.1827545166015625,0.0134124755859375
1761915583848613600,4.200613525390625,-0.9739227294921875,-0.1830596923828125,0.0122833251953125
1761915583858667800,4.210667724609375,-0.965850830078125,-0.18084716796875,0.0091400146484375
1761915583868721700,4.2207216796875,-0.969451904296875,-0.17803955078125,0.0100250244140625
1761915583878775800,4.23077587890625,-0.988525390625,-0.179229736328125,0.01617431640625
1761915583888830700,4.240830810546875,-1.0052490234375,-0.180389404296875,0.0202484130859375
1761915583898884900,4.250884765625,-1.006103515625,-0.185089111328125,0.01629638671875
1761915583908939000,4.26093896484375,-0.9865570068359375,-0.1838531494140625,0.007720947265625
1761915583918992600,4.27099267578125,-0.965118408203125,-0.1842803955078125,-0.0055694580078125
1761915583929046800,4.281046875,-0.9503631591796875,-0.1861572265625,-0.0135955810546875
1761915583939100700,4.2911005859375,-0.9463043212890625,-0.1884613037109375,-0.011810302734375
1761915583949154800,4.30115478515625,-0.957366943359375,-0.193084716796875,-0.008026123046875
1761915583959208700,4.311208740234375,-0.974822998046875,-0.1961212158203125,-0.00616455078125
1761915583969263900,4.321263916015625,-0.9842529296875,-0.194488525390625,-0.0072479248046875
1761915583979317800,4.33131787109375,-0.981719970703125,-0.18707275390625,-0.01165771484375
1761915583989372000,4.341371826171875,-0.976409912109375,-0.173858642578125,-0.0149078369140625
1761915583999425800,4.35142578125,-0.971343994140625,-0.1643829345703125,-0.015045166015625
1761915584009482800,4.361482666015625,-0.966522216796875,-0.1635284423828125,-0.0137939453125
1761915584019536600,4.37153662109375,-0.97418212890625,-0.175537109375,-0.0136871337890625
1761915584029590800,4.3815908203125,-0.9864654541015625,-0.1832122802734375,-0.0074615478515625
1761915584039644700,4.391644775390625,-0.9897308349609375,-0.1831512451171875,-0.0004119873046875
1761915584049699800,4.401699951171875,-0.989044189453125,-0.183624267578125,-0.000518798828125
1761915584059754000,4.41175390625,-0.9809417724609375,-0.1827239990234375,-0.005035400390625
1761915584069807900,4.421807861328125,-0.96826171875,-0.181396484375,-0.011016845703125
1761915584079861800,4.43186181640625,-0.96087646484375,-0.1790771484375,-0.01385498046875
1761915584089915600,4.44191552734375,-0.9647216796875,-0.179779052734375,-0.0145263671875
1761915584099969800,4.4519697265625,-0.97393798828125,-0.1836395263671875,-0.01275634765625
1761915584110023700,4.462023681640625,-0.9809112548828125,-0.1903533935546875,-0.01080322265625
1761915584120077800,4.472077880859375,-0.9776153564453125,-0.1904449462890625,-0.007049560546875
1761915584130133000,4.482133056640625,-0.97314453125,-0.1887359619140625,-0.004547119140625
1761915584140187000,4.492186767578125,-0.9709014892578125,-0.186004638671875,-0.00689697265625
1761915584150241000,4.502240966796875,-0.9697723388671875,-0.182769775390625,-0.008270263671875
1761915584160294700,4.512294677734375,-0.968841552734375,-0.18231201171875,-0.0082244873046875
1761915584170348800,4.522348876953125,-0.9705963134765625,-0.1835479736328125,-0.002960205078125
1761915584180402700,4.532402587890625,-0.9763031005859375,-0.1902923583984375,-0.0003204345703125
1761915584190456800,4.542456787109375,-0.98675537109375,-0.197662353515625,0.0005035400390625
1761915584200510700,4.5525107421875,-0.9929046630859375,-0.2008209228515625,0.0030975341796875
1761915584210566000,4.56256591796875,-0.9930877685546875,-0.1997833251953125,0.0010223388671875
1761915584220620000,4.5726201171875,-0.9813385009765625,-0.1968536376953125,0.000213623046875
1761915584230673700,4.582673583984375,-0.9665069580078125,-0.1958770751953125,-0.0015869140625
1761915584240727800,4.592727783203125,-0.9566192626953125,-0.2032470703125,-0.0045928955078125
1761915584250781700,4.60278173828125,-0.9528961181640625,-0.2107391357421875,-0.0043792724609375
1761915584260835800,4.6128359375,-0.950531005859375,-0.213348388671875,-0.003753662109375
1761915584270889700,4.6228896484375,-0.9544677734375,-0.215179443359375,-0.00201416015625
1761915584280943900,4.63294384765625,-0.9696197509765625,-0.2158050537109375,0.000579833984375
1761915584290997800,4.642997802734375,-0.977874755859375,-0.2100067138671875,0.002044677734375
1761915584301053000,4.653052978515625,-0.970703125,-0.2052764892578125,-0.0038299560546875
1761915584311106800,4.66310693359375,-0.9626617431640625,-0.1969451904296875,-0.0077056884765625
1761915584321160700,4.67316064453125,-0.9693145751953125,-0.1913909912109375,-0.0095672607421875
1761915584331214800,4.68321484375,-0.982757568359375,-0.18536376953125,-0.00823974609375
1761915584341268700,4.693268798828125,-0.992401123046875,-0.1838531494140625,-0.006317138671875
1761915584351323000,4.703322998046875,-0.9886474609375,-0.1865692138671875,-0.008392333984375
1761915584361376800,4.713376708984375,-0.9771728515625,-0.189849853515625,-0.0127716064453125
1761915584371431000,4.723430908203125,-0.9641265869140625,-0.192047119140625,-0.01611328125
1761915584381482800,4.733482666015625,-0.962066650390625,-0.192779541015625,-0.0176544189453125
1761915584391536600,4.74353662109375,-0.9626312255859375,-0.19610595703125,-0.0196685791015625
1761915584401591800,4.753591796875,-0.963714599609375,-0.197052001953125,-0.01898193359375
1761915584411646000,4.76364599609375,-0.96343994140625,-0.1948394775390625,-0.0192108154296875
1761915584421699800,4.773699951171875,-0.9651336669921875,-0.1926422119140625,-0.0226593017578125
1761915584431754000,4.78375390625,-0.9675750732421875,-0.1880035400390625,-0.0244140625
1761915584441808000,4.793807861328125,-0.9749755859375,-0.1838836669921875,-0.0244293212890625
1761915584451861800,4.80386181640625,-0.98419189453125,-0.1825408935546875,-0.020721435546875
1761915584461915600,4.81391552734375,-0.994110107421875,-0.1846923828125,-0.016082763671875
1761915584471969800,4.8239697265625,-0.9984893798828125,-0.1876373291015625,-0.010345458984375
1761915584482025000,4.83402490234375,-1.001251220703125,-0.1893157958984375,-0.0062255859375
1761915584492078800,4.844078857421875,-0.996795654296875,-0.189453125,-0.006378173828125
1761915584502133000,4.854133056640625,-0.9890594482421875,-0.1900177001953125,-0.0080718994140625
1761915584512187000,4.864186767578125,-0.98114013671875,-0.188323974609375,-0.0093841552734375
1761915584522240800,4.87424072265625,-0.97503662109375,-0.189697265625,-0.01312255859375
1761915584532294700,4.884294677734375,-0.972320556640625,-0.1924896240234375,-0.0160064697265625
1761915584542348800,4.894348876953125,-0.9733123779296875,-0.192413330078125,-0.0170440673828125
1761915584552402700,4.904402587890625,-0.975067138671875,-0.1922454833984375,-0.0175933837890625
1761915584562457900,4.914457763671875,-0.9736175537109375,-0.188629150390625,-0.018096923828125
1761915584572512000,4.924511962890625,-0.9776611328125,-0.1809844970703125,-0.017486572265625
1761915584582566000,4.93456591796875,-0.9840087890625,-0.179290771484375,-0.0175323486328125
1761915584592619800,4.944619873046875,-0.9926910400390625,-0.1828155517578125,-0.0194854736328125
1761915584602673700,4.954673583984375,-0.999755859375,-0.185943603515625,-0.0204925537109375
1761915584612727800,4.964727783203125,-0.9979248046875,-0.185150146484375,-0.01824951171875
1761915584622781700,4.97478173828125,-0.9956207275390625,-0.1883544921875,-0.0173492431640625
1761915584632835800,4.9848359375,-0.98828125,-0.1860504150390625,-0.0224151611328125
1761915584642891000,4.99489111328125,-0.9835052490234375,-0.1819915771484375,-0.0272979736328125
1761915584652945000,5.00494482421875,-0.9798126220703125,-0.1775360107421875,-0.0327301025390625
1761915584662999000,5.0149990234375,-0.9685821533203125,-0.1776275634765625,-0.0392608642578125
1761915584673052700,5.025052734375,-0.9568328857421875,-0.177215576171875,-0.0426788330078125
1761915584683106800,5.03510693359375,-0.949981689453125,-0.17926025390625,-0.042236328125
1761915584693160700,5.04516064453125,-0.9500732421875,-0.1852874755859375,-0.0422515869140625
1761915584703214800,5.05521484375,-0.961334228515625,-0.1918182373046875,-0.0388336181640625
1761915584713268700,5.065268798828125,-0.969757080078125,-0.1908721923828125,-0.0347747802734375
1761915584723324000,5.075323974609375,-0.9783935546875,-0.1910247802734375,-0.0332183837890625
1761915584733378000,5.0853779296875,-0.9827423095703125,-0.1908111572265625,-0.030242919921875
1761915584743431700,5.095431640625,-0.9793243408203125,-0.1861724853515625,-0.0257720947265625
1761915584753485800,5.10548583984375,-0.9766387939453125,-0.187164306640625,-0.024322509765625
1761915584763539700,5.115539794921875,-0.9763336181640625,-0.1891632080078125,-0.0252838134765625
1761915584773593900,5.12559375,-0.97454833984375,-0.1920623779296875,-0.022369384765625
1761915584783647700,5.135647705078125,-0.9658660888671875,-0.1961517333984375,-0.0244598388671875
1761915584793702000,5.145701904296875,-0.95440673828125,-0.19818115234375,-0.0284423828125
1761915584803756800,5.1557568359375,-0.9488372802734375,-0.1947479248046875,-0.029327392578125
1761915584813811000,5.16581103515625,-0.9497528076171875,-0.1929931640625,-0.030548095703125
1761915584823864600,5.175864501953125,-0.9526519775390625,-0.1933135986328125,-0.030426025390625
1761915584833918700,5.185918701171875,-0.9534759521484375,-0.1946258544921875,-0.0306854248046875
1761915584843972900,5.195972900390625,-0.955902099609375,-0.197723388671875,-0.0307159423828125
1761915584854026800,5.20602685546875,-0.9564056396484375,-0.2010040283203125,-0.0296478271484375
1761915584864081000,5.216080810546875,-0.9530029296875,-0.20257568359375,-0.0306396484375
1761915584874134800,5.226134765625,-0.9534454345703125,-0.206939697265625,-0.032318115234375
1761915584884190000,5.23618994140625,-0.9583740234375,-0.2093048095703125,-0.033905029296875
1761915584894243800,5.246243896484375,-0.970489501953125,-0.2035980224609375,-0.0348968505859375
1761915584904297700,5.256297607421875,-0.985107421875,-0.19036865234375,-0.03118896484375
1761915584914351600,5.2663515625,-0.995452880859375,-0.1800079345703125,-0.02996826171875
1761915584924405800,5.27640576171875,-0.994110107421875,-0.176116943359375,-0.0316162109375
1761915584934460000,5.2864599609375,-0.984588623046875,-0.1810302734375,-0.0323486328125
1761915584944513800,5.296513671875,-0.974853515625,-0.1865386962890625,-0.03448486328125
1761915584954568000,5.30656787109375,-0.9715576171875,-0.1890869140625,-0.0357208251953125
1761915584964624000,5.316623779296875,-0.97564697265625,-0.186981201171875,-0.0343780517578125
1761915584974677800,5.326677734375,-0.974151611328125,-0.18389892578125,-0.032745361328125
1761915584984732000,5.33673193359375,-0.9693450927734375,-0.186309814453125,-0.0348663330078125
1761915584994785800,5.346785888671875,-0.965179443359375,-0.187835693359375,-0.036041259765625
1761915585004841000,5.356841064453125,-0.9640045166015625,-0.1888427734375,-0.033050537109375
1761915585014890800,5.366890869140625,-0.968536376953125,-0.1884765625,-0.029998779296875
1761915585024945000,5.37694482421875,-0.972991943359375,-0.1868896484375,-0.0292510986328125
1761915585034998500,5.38699853515625,-0.982818603515625,-0.182861328125,-0.0316925048828125
1761915585045052700,5.397052734375,-0.9941253662109375,-0.175994873046875,-0.0305633544921875
1761915585055106600,5.4071064453125,-0.9979400634765625,-0.17498779296875,-0.028350830078125
1761915585065160700,5.41716064453125,-0.9922637939453125,-0.1796417236328125,-0.0295257568359375
1761915585075214600,5.427214599609375,-0.985198974609375,-0.18621826171875,-0.03228759765625
1761915585085269800,5.437269775390625,-0.98089599609375,-0.1895751953125,-0.033477783203125
1761915585095324000,5.447323974609375,-0.978912353515625,-0.1920013427734375,-0.032257080078125
1761915585105377800,5.457377685546875,-0.9768218994140625,-0.19464111328125,-0.03546142578125
1761915585115431700,5.467431640625,-0.97100830078125,-0.1911468505859375,-0.037139892578125
1761915585125485600,5.477485595703125,-0.9670562744140625,-0.187164306640625,-0.0365753173828125
1761915585135539700,5.487539794921875,-0.967681884765625,-0.185760498046875,-0.0325927734375
1761915585145593600,5.497593505859375,-0.9714508056640625,-0.185638427734375,-0.0312652587890625
1761915585155648800,5.507648681640625,-0.97735595703125,-0.18731689453125,-0.030731201171875
1761915585165702700,5.51770263671875,-0.977142333984375,-0.187103271484375,-0.029571533203125
1761915585175756800,5.5277568359375,-0.9769134521484375,-0.1873626708984375,-0.0292205810546875
1761915585185810700,5.537810791015625,-0.981658935546875,-0.1877288818359375,-0.029937744140625
1761915585195864600,5.547864501953125,-0.9845428466796875,-0.1871337890625,-0.03173828125
1761915585205918700,5.557918701171875,-0.9876556396484375,-0.1886138916015625,-0.030242919921875
1761915585215972600,5.56797265625,-0.98724365234375,-0.1865081787109375,-0.02862548828125
1761915585226026800,5.57802685546875,-0.9814300537109375,-0.183868408203125,-0.029693603515625
1761915585236081700,5.58808154296875,-0.971832275390625,-0.180511474609375,-0.0306396484375
1761915585246135800,5.5981357421875,-0.9676666259765625,-0.1812744140625,-0.0343475341796875
1761915585256189700,5.608189697265625,-0.9713897705078125,-0.18310546875,-0.0351715087890625
1761915585266243600,5.61824365234375,-0.9802398681640625,-0.181640625,-0.0317535400390625
1761915585276297700,5.628297607421875,-0.9864501953125,-0.1798553466796875,-0.0286102294921875
1761915585286351600,5.6383515625,-0.9830780029296875,-0.1758270263671875,-0.0301666259765625
1761915585296405800,5.64840576171875,-0.9732513427734375,-0.1767425537109375,-0.0302734375
1761915585306459600,5.658459716796875,-0.9622039794921875,-0.1830291748046875,-0.0320281982421875
1761915585316514800,5.668514892578125,-0.953704833984375,-0.1933135986328125,-0.0317840576171875
1761915585326568700,5.678568603515625,-0.9568634033203125,-0.2041015625,-0.0306396484375
1761915585336622600,5.68862255859375,-0.96856689453125,-0.2100982666015625,-0.0288543701171875
1761915585346676500,5.698676513671875,-0.9770965576171875,-0.2072601318359375,-0.0281524658203125
1761915585356730600,5.708730712890625,-0.9790496826171875,-0.20166015625,-0.0283966064453125
1761915585366784800,5.71878466796875,-0.9746856689453125,-0.193206787109375,-0.0304412841796875
1761915585376838700,5.728838623046875,-0.972930908203125,-0.1890411376953125,-0.03173828125
1761915585386893800,5.738893798828125,-0.9736785888671875,-0.1904144287109375,-0.0316925048828125
1761915585396947700,5.74894775390625,-0.976531982421875,-0.1920166015625,-0.032806396484375
1761915585407001900,5.759001953125,-0.9871063232421875,-0.1902313232421875,-0.0303192138671875
1761915585417055500,5.769055419921875,-0.99365234375,-0.187835693359375,-0.0277252197265625
1761915585427109600,5.779109619140625,-0.9897613525390625,-0.18597412109375,-0.029083251953125
1761915585437163500,5.78916357421875,-0.980224609375,-0.1843109130859375,-0.03106689453125
1761915585447217700,5.7992177734375,-0.965972900390625,-0.1849365234375,-0.0322265625
1761915585457271600,5.809271484375,-0.955841064453125,-0.1898651123046875,-0.0319976806640625
1761915585467326700,5.81932666015625,-0.9580078125,-0.1922607421875,-0.034698486328125
1761915585477380900,5.829380859375,-0.9727020263671875,-0.1906890869140625,-0.032196044921875
1761915585487434800,5.839434814453125,-0.983917236328125,-0.1851348876953125,-0.0299835205078125
1761915585497488600,5.849488525390625,-0.9778594970703125,-0.1815032958984375,-0.0329742431640625
1761915585507542500,5.85954248046875,-0.9645538330078125,-0.1810302734375,-0.0372161865234375
1761915585517596700,5.8695966796875,-0.961578369140625,-0.1834564208984375,-0.0391998291015625
1761915585527650600,5.879650634765625,-0.96795654296875,-0.18426513671875,-0.0365447998046875
1761915585537704700,5.88970458984375,-0.9710845947265625,-0.180877685546875,-0.03472900390625
1761915585547759900,5.899759765625,-0.9769287109375,-0.1795806884765625,-0.033294677734375
1761915585557813800,5.909813720703125,-0.980926513671875,-0.1782073974609375,-0.030548095703125
1761915585567867600,5.91986767578125,-0.98455810546875,-0.181182861328125,-0.0284576416015625
1761915585577921500,5.929921630859375,-0.98193359375,-0.181732177734375,-0.02813720703125
1761915585587975700,5.9399755859375,-0.9777984619140625,-0.17926025390625,-0.029571533203125
1761915585598029600,5.950029541015625,-0.981231689453125,-0.177703857421875,-0.030059814453125
1761915585608083700,5.960083740234375,-0.983062744140625,-0.1754302978515625,-0.025177001953125
1761915585618137600,5.9701376953125,-0.9784698486328125,-0.178131103515625,-0.023681640625
1761915585628192800,5.98019287109375,-0.9664306640625,-0.18365478515625,-0.023895263671875
1761915585638246700,5.99024658203125,-0.96026611328125,-0.19256591796875,-0.0261383056640625
1761915585648300500,6.000300537109375,-0.9638671875,-0.19561767578125,-0.023468017578125
1761915585658354700,6.010354736328125,-0.975830078125,-0.1986083984375,-0.019622802734375
1761915585668408600,6.02040869140625,-0.9891815185546875,-0.20037841796875,-0.0176849365234375
1761915585678462700,6.030462646484375,-0.988983154296875,-0.1965179443359375,-0.0138092041015625
1761915585688516600,6.0405166015625,-0.9787445068359375,-0.19140625,-0.0159759521484375
1761915585698571800,6.05057177734375,-0.9686126708984375,-0.1848297119140625,-0.0200653076171875
1761915585708626000,6.0606259765625,-0.9604034423828125,-0.183502197265625,-0.02435302734375
1761915585718679600,6.070679443359375,-0.9642181396484375,-0.185546875,-0.02777099609375
1761915585728733700,6.080733642578125,-0.972015380859375,-0.191009521484375,-0.027313232421875
1761915585738787600,6.09078759765625,-0.97503662109375,-0.196258544921875,-0.025115966796875
1761915585748841700,6.100841796875,-0.9744720458984375,-0.193695068359375,-0.0231781005859375
1761915585758895600,6.1108955078125,-0.97027587890625,-0.19195556640625,-0.02716064453125
1761915585768949800,6.12094970703125,-0.972381591796875,-0.1878814697265625,-0.030853271484375
1761915585779004700,6.131004638671875,-0.971221923828125,-0.1838226318359375,-0.03228759765625
1761915585789058600,6.14105859375,-0.96942138671875,-0.186614990234375,-0.0335235595703125
1761915585799112700,6.15111279296875,-0.9678802490234375,-0.1910858154296875,-0.0352325439453125
1761915585809166600,6.16116650390625,-0.9639434814453125,-0.1944427490234375,-0.0342864990234375
1761915585819220700,6.171220703125,-0.9599151611328125,-0.1960906982421875,-0.0343170166015625
1761915585829274600,6.181274658203125,-0.957977294921875,-0.1960906982421875,-0.0348663330078125
1761915585839328800,6.191328857421875,-0.9597015380859375,-0.1923675537109375,-0.0362548828125
1761915585849382700,6.201382568359375,-0.9658203125,-0.185760498046875,-0.036468505859375
1761915585859437800,6.211437744140625,-0.9702301025390625,-0.1798858642578125,-0.0380859375
1761915585869491500,6.221491455078125,-0.9759368896484375,-0.1769561767578125,-0.0372772216796875
1761915585879545600,6.231545654296875,-0.98516845703125,-0.1742095947265625,-0.0340423583984375
1761915585889599700,6.241599853515625,-0.99078369140625,-0.169219970703125,-0.032135009765625
1761915585899653600,6.251653564453125,-0.9883270263671875,-0.169952392578125,-0.034088134765625
1761915585909707800,6.261707763671875,-0.9790496826171875,-0.1750335693359375,-0.0362091064453125
1761915585919761700,6.27176171875,-0.9710235595703125,-0.1799468994140625,-0.03948974609375
1761915585929816800,6.28181689453125,-0.970367431640625,-0.18402099609375,-0.038665771484375
1761915585939870700,6.29187060546875,-0.979949951171875,-0.1829376220703125,-0.0362396240234375
1761915585949924600,6.301924560546875,-0.9965362548828125,-0.17822265625,-0.0291595458984375
1761915585959978500,6.311978515625,-1.0103607177734375,-0.1760711669921875,-0.0233917236328125
1761915585970032600,6.32203271484375,-1.009246826171875,-0.1776123046875,-0.0225982666015625
1761915585980086800,6.332086669921875,-0.9922332763671875,-0.1793060302734375,-0.0248260498046875
1761915585990140700,6.342140625,-0.9792327880859375,-0.1832733154296875,-0.0267181396484375
1761915586000194800,6.35219482421875,-0.969635009765625,-0.188934326171875,-0.0245361328125
1761915586010253800,6.36225390625,-0.9625244140625,-0.1963653564453125,-0.0218048095703125
1761915586020307700,6.3723076171875,-0.95947265625,-0.2001953125,-0.0238189697265625
1761915586030361900,6.38236181640625,-0.9668731689453125,-0.200775146484375,-0.022064208984375
1761915586040415700,6.392415771484375,-0.977691650390625,-0.1958770751953125,-0.01806640625
1761915586050470000,6.402469970703125,-0.982025146484375,-0.1907958984375,-0.016326904296875
1761915586060523800,6.412523681640625,-0.980438232421875,-0.18890380859375,-0.0165863037109375
1761915586070578000,6.422577880859375,-0.9789276123046875,-0.1868896484375,-0.018524169921875
1761915586080631800,6.4326318359375,-0.97735595703125,-0.1794891357421875,-0.0222625732421875
1761915586090686700,6.442686767578125,-0.97637939453125,-0.1727294921875,-0.0256500244140625
1761915586100740900,6.452740966796875,-0.974456787109375,-0.17120361328125,-0.030426025390625
1761915586110794800,6.462794677734375,-0.9709625244140625,-0.1734161376953125,-0.0361175537109375
1761915586120849000,6.472848876953125,-0.96600341796875,-0.1777496337890625,-0.0373077392578125
1761915586130902800,6.48290283203125,-0.9603729248046875,-0.182281494140625,-0.0345916748046875
1761915586140957000,6.49295703125,-0.9547271728515625,-0.182220458984375,-0.0354766845703125
1761915586151010800,6.5030107421875,-0.95648193359375,-0.1819305419921875,-0.0371246337890625
1761915586161065700,6.513065673828125,-0.963775634765625,-0.177459716796875,-0.03607177734375
1761915586171119900,6.523119873046875,-0.9718017578125,-0.1703338623046875,-0.0330657958984375
1761915586181173800,6.533173828125,-0.9777374267578125,-0.1639556884765625,-0.0320587158203125
1761915586191228000,6.543227783203125,-0.9810791015625,-0.164031982421875,-0.035125732421875
1761915586201281800,6.55328173828125,-0.978759765625,-0.1712646484375,-0.039031982421875
1761915586211336000,6.5633359375,-0.970367431640625,-0.1808013916015625,-0.0393524169921875
1761915586221389800,6.573389892578125,-0.96661376953125,-0.1890411376953125,-0.0336151123046875
1761915586231444000,6.58344384765625,-0.9676055908203125,-0.193084716796875,-0.0310821533203125
1761915586241498600,6.59349853515625,-0.967498779296875,-0.189361572265625,-0.0305328369140625
1761915586251552800,6.603552734375,-0.97003173828125,-0.1833343505859375,-0.0318450927734375
1761915586261607000,6.61360693359375,-0.976806640625,-0.1767730712890625,-0.0349884033203125
1761915586271660800,6.623660888671875,-0.9770355224609375,-0.1746063232421875,-0.0366973876953125
1761915586281715000,6.63371484375,-0.9703369140625,-0.1749420166015625,-0.0405426025390625
1761915586291768800,6.643768798828125,-0.9647674560546875,-0.18109130859375,-0.039520263671875
1761915586301823000,6.653822998046875,-0.9711761474609375,-0.1917877197265625,-0.0337066650390625
1761915586311877600,6.663877685546875,-0.9754791259765625,-0.1971893310546875,-0.0329437255859375
1761915586321931800,6.673931884765625,-0.9747772216796875,-0.196136474609375,-0.0348052978515625
1761915586331985700,6.683985595703125,-0.971893310546875,-0.1898956298828125,-0.0374908447265625
1761915586342039800,6.694039794921875,-0.9739532470703125,-0.185760498046875,-0.04217529296875
1761915586352094000,6.704093994140625,-0.979949951171875,-0.1822357177734375,-0.0420074462890625
1761915586362147800,6.71414794921875,-0.9826812744140625,-0.1769866943359375,-0.0363006591796875
1761915586372202000,6.724201904296875,-0.9879302978515625,-0.1815032958984375,-0.0363006591796875
1761915586382255900,6.734255859375,-0.9865570068359375,-0.1880035400390625,-0.035308837890625
1761915586392310800,6.744310791015625,-0.9783935546875,-0.190826416015625,-0.0351104736328125
1761915586402364700,6.75436474609375,-0.9656982421875,-0.1903076171875,-0.0361328125
1761915586412418800,6.764418701171875,-0.957244873046875,-0.18634033203125,-0.038238525390625
1761915586422472700,6.77447265625,-0.9654998779296875,-0.1830596923828125,-0.0394287109375
1761915586432526800,6.78452685546875,-0.9833221435546875,-0.1826171875,-0.0349273681640625
1761915586442580700,6.794580810546875,-0.9954833984375,-0.1801300048828125,-0.02935791015625
1761915586452635000,6.804634765625,-0.9959259033203125,-0.1756744384765625,-0.0288238525390625
1761915586462689000,6.81468896484375,-0.9888916015625,-0.173828125,-0.0322723388671875
1761915586472743700,6.82474365234375,-0.98297119140625,-0.1725006103515625,-0.0358123779296875
1761915586482797800,6.8347978515625,-0.9716339111328125,-0.173583984375,-0.034942626953125
1761915586492851700,6.844851806640625,-0.9590911865234375,-0.1822509765625,-0.03619384765625
1761915586502905900,6.85490576171875,-0.952484130859375,-0.194610595703125,-0.0349884033203125
1761915586512959700,6.864959716796875,-0.9530487060546875,-0.1984710693359375,-0.0330047607421875
1761915586523014000,6.875013916015625,-0.9600982666015625,-0.193603515625,-0.033935546875
1761915586533067800,6.88506787109375,-0.9725494384765625,-0.184234619140625,-0.0354156494140625
1761915586543122700,6.895122802734375,-0.984466552734375,-0.1731414794921875,-0.035400390625
1761915586553176800,6.9051767578125,-0.989654541015625,-0.16888427734375,-0.0353240966796875
1761915586563230700,6.915230712890625,-0.9864349365234375,-0.1696624755859375,-0.03680419921875
1761915586573284900,6.925284912109375,-0.9774322509765625,-0.1717987060546875,-0.0366973876953125
1761915586583338800,6.9353388671875,-0.9716033935546875,-0.1795501708984375,-0.0366668701171875
1761915586593393000,6.945392822265625,-0.970703125,-0.1883544921875,-0.0363616943359375
1761915586603446800,6.95544677734375,-0.97760009765625,-0.19146728515625,-0.03277587890625
1761915586613501000,6.9655009765625,-0.9849853515625,-0.1919708251953125,-0.0289459228515625
1761915586623555800,6.975555908203125,-0.9859771728515625,-0.19036865234375,-0.0297088623046875
1761915586633609700,6.985609619140625,-0.9737548828125,-0.18292236328125,-0.0313873291015625
1761915586643664000,6.995663818359375,-0.9654388427734375,-0.1735992431640625,-0.0327301025390625
1761915586653717800,7.0057177734375,-0.9691619873046875,-0.169189453125,-0.03460693359375
1761915586663772000,7.01577197265625,-0.983062744140625,-0.1730804443359375,-0.031951904296875
1761915586673825800,7.02582568359375,-0.9971466064453125,-0.180908203125,-0.0289764404296875
1761915586683880000,7.0358798828125,-0.9966278076171875,-0.1886138916015625,-0.024993896484375
1761915586693934800,7.045934814453125,-0.9864349365234375,-0.191925048828125,-0.0240325927734375
1761915586703988700,7.05598876953125,-0.970001220703125,-0.1922149658203125,-0.02752685546875
1761915586714043000,7.06604296875,-0.9586029052734375,-0.1890106201171875,-0.034423828125
1761915586724096800,7.0760966796875,-0.9619598388671875,-0.1849365234375,-0.037353515625
1761915586734151000,7.08615087890625,-0.9734954833984375,-0.17962646484375,-0.03564453125
1761915586744204800,7.096204833984375,-0.9758453369140625,-0.1777191162109375,-0.0362701416015625
1761915586754259000,7.106259033203125,-0.9687347412109375,-0.1817779541015625,-0.0389251708984375
1761915586764312800,7.116312744140625,-0.964508056640625,-0.1847991943359375,-0.0385894775390625
1761915586774367700,7.12636767578125,-0.9665069580078125,-0.1869659423828125,-0.0369873046875
1761915586784422000,7.136421875,-0.9753570556640625,-0.189239501953125,-0.0339508056640625
1761915586794475800,7.146475830078125,-0.986541748046875,-0.1876068115234375,-0.034912109375
1761915586804530000,7.156530029296875,-0.9953460693359375,-0.17999267578125,-0.0326995849609375
1761915586814583800,7.166583740234375,-1.0007476806640625,-0.1722259521484375,-0.0343170166015625
1761915586824638000,7.176637939453125,-0.9947967529296875,-0.16693115234375,-0.0363006591796875
1761915586834691800,7.18669189453125,-0.9782867431640625,-0.166961669921875,-0.0394744873046875
1761915586844746000,7.19674609375,-0.96441650390625,-0.1711273193359375,-0.0416412353515625
1761915586854800600,7.206800537109375,-0.9633331298828125,-0.18096923828125,-0.040130615234375
1761915586864854800,7.216854736328125,-0.9694366455078125,-0.191131591796875,-0.03472900390625
1761915586874909000,7.226908935546875,-0.97235107421875,-0.1930694580078125,-0.0316009521484375
1761915586884962800,7.236962890625,-0.9752197265625,-0.1905670166015625,-0.028717041015625
1761915586895017000,7.247016845703125,-0.9781036376953125,-0.1826629638671875,-0.0293121337890625
1761915586905070800,7.25707080078125,-0.980255126953125,-0.174407958984375,-0.034423828125
1761915586915125000,7.267125,-0.9820709228515625,-0.1698455810546875,-0.037811279296875
1761915586925179600,7.2771796875,-0.975341796875,-0.1630096435546875,-0.03460693359375
1761915586935233800,7.28723388671875,-0.9691619873046875,-0.1701812744140625,-0.0369873046875
1761915586945287700,7.29728759765625,-0.96044921875,-0.180023193359375,-0.040374755859375
1761915586955341800,7.307341796875,-0.95123291015625,-0.1893768310546875,-0.0396270751953125
1761915586965396000,7.31739599609375,-0.9449005126953125,-0.1983184814453125,-0.0369415283203125
1761915586975449900,7.327449951171875,-0.9437255859375,-0.2053070068359375,-0.036590576171875
1761915586985504000,7.33750390625,-0.9491729736328125,-0.2076568603515625,-0.040130615234375
1761915586995558000,7.347557861328125,-0.958221435546875,-0.200347900390625,-0.0407257080078125
1761915587005612800,7.35761279296875,-0.9688720703125,-0.191070556640625,-0.03973388671875
1761915587015663600,7.36766357421875,-0.9760589599609375,-0.1873626708984375,-0.0394134521484375
1761915587025717800,7.3777177734375,-0.97833251953125,-0.185943603515625,-0.038665771484375
1761915587035771600,7.387771728515625,-0.9821014404296875,-0.18597412109375,-0.03851318359375
1761915587045825800,7.39782568359375,-0.988800048828125,-0.1857757568359375,-0.0374908447265625
1761915587055879700,7.407879638671875,-0.991455078125,-0.182373046875,-0.0378875732421875
1761915587065933800,7.417933837890625,-0.99151611328125,-0.1810150146484375,-0.0407867431640625
1761915587075988500,7.427988525390625,-0.991729736328125,-0.181488037109375,-0.04058837890625
1761915587086042600,7.438042724609375,-0.98779296875,-0.182342529296875,-0.0379638671875
1761915587096096800,7.4480966796875,-0.9832000732421875,-0.18365478515625,-0.0389556884765625
1761915587106150700,7.458150634765625,-0.9797515869140625,-0.18499755859375,-0.0420379638671875
1761915587116204800,7.468204833984375,-0.97601318359375,-0.183319091796875,-0.0440673828125
1761915587126258700,7.4782587890625,-0.9732666015625,-0.1785736083984375,-0.0425567626953125
1761915587136312800,7.488312744140625,-0.971099853515625,-0.175048828125,-0.0432586669921875
1761915587146366700,7.49836669921875,-0.9732818603515625,-0.1792449951171875,-0.0413818359375
1761915587156421600,7.508421630859375,-0.9777374267578125,-0.1862030029296875,-0.0369720458984375
1761915587166475500,7.5184755859375,-0.9768524169921875,-0.191650390625,-0.03326416015625
1761915587176529700,7.52852978515625,-0.9694976806640625,-0.1944427490234375,-0.0325927734375
1761915587186583800,7.538583740234375,-0.9675750732421875,-0.19244384765625,-0.0303802490234375
1761915587196637700,7.5486376953125,-0.9694671630859375,-0.18450927734375,-0.029754638671875
1761915587206691800,7.55869189453125,-0.9708099365234375,-0.1798095703125,-0.032012939453125
1761915587216745700,7.568745849609375,-0.97039794921875,-0.1775054931640625,-0.0333251953125
1761915587226800600,7.578800537109375,-0.970550537109375,-0.1828460693359375,-0.035430908203125
1761915587236854500,7.5888544921875,-0.968963623046875,-0.188201904296875,-0.038116455078125
1761915587246908700,7.59890869140625,-0.967376708984375,-0.189697265625,-0.0398101806640625
1761915587256962600,7.608962646484375,-0.9717864990234375,-0.188323974609375,-0.0374755859375
1761915587267016700,7.6190166015625,-0.9778289794921875,-0.184112548828125,-0.03741455078125
1761915587277070800,7.62907080078125,-0.98681640625,-0.1756134033203125,-0.0383758544921875
1761915587287124700,7.639124755859375,-0.9961700439453125,-0.166290283203125,-0.0369720458984375
1761915587297178600,7.6491787109375,-1.00079345703125,-0.1605987548828125,-0.0352325439453125
1761915587307232500,7.659232421875,-1.0019378662109375,-0.1622314453125,-0.0343475341796875
1761915587317287700,7.66928759765625,-1.0032806396484375,-0.162994384765625,-0.0314788818359375
1761915587327341600,7.679341552734375,-1.0040435791015625,-0.1646575927734375,-0.029876708984375
1761915587337395700,7.689395751953125,-0.9957427978515625,-0.17474365234375,-0.0317840576171875
1761915587347449600,7.69944970703125,-0.976806640625,-0.1835784912109375,-0.035980224609375
1761915587357503700,7.709503662109375,-0.9493560791015625,-0.187652587890625,-0.039031982421875
1761915587367558000,7.719557861328125,-0.933624267578125,-0.1941680908203125,-0.0434112548828125
1761915587377611500,7.729611572265625,-0.9328460693359375,-0.1967926025390625,-0.04388427734375
1761915587387666700,7.739666748046875,-0.941436767578125,-0.19256591796875,-0.0405120849609375
1761915587397720600,7.749720458984375,-0.9577789306640625,-0.1859283447265625,-0.03985595703125
1761915587407774700,7.759774658203125,-0.968475341796875,-0.178619384765625,-0.0391082763671875
1761915587417828600,7.76982861328125,-0.9719696044921875,-0.1767730712890625,-0.03607177734375
1761915587427882800,7.7798828125,-0.96807861328125,-0.1808929443359375,-0.038909912109375
1761915587437936600,7.7899365234375,-0.9633331298828125,-0.187103271484375,-0.0377960205078125
1761915587447990500,7.799990478515625,-0.967254638671875,-0.1920013427734375,-0.036865234375
1761915587458044700,7.810044677734375,-0.9805145263671875,-0.1914520263671875,-0.037506103515625
1761915587468099600,7.820099609375,-0.9921417236328125,-0.1840667724609375,-0.0360107421875
1761915587478153700,7.83015380859375,-0.9893035888671875,-0.1756439208984375,-0.035980224609375
1761915587488207600,7.84020751953125,-0.9809417724609375,-0.173095703125,-0.040771484375
1761915587498261800,7.85026171875,-0.9754180908203125,-0.1774139404296875,-0.04425048828125
1761915587508315600,7.860315673828125,-0.9747314453125,-0.1817626953125,-0.0438232421875
1761915587518369800,7.870369873046875,-0.9763946533203125,-0.1856689453125,-0.04296875
1761915587528423400,7.88042333984375,-0.979888916015625,-0.1882781982421875,-0.0411224365234375
1761915587538478600,7.890478515625,-0.983428955078125,-0.187744140625,-0.040252685546875
1761915587548532700,7.90053271484375,-0.9810028076171875,-0.1831207275390625,-0.0420379638671875
1761915587558586600,7.910586669921875,-0.9766845703125,-0.1765594482421875,-0.0423736572265625
1761915587568640800,7.920640869140625,-0.975341796875,-0.172119140625,-0.041595458984375
1761915587578694700,7.930694580078125,-0.983428955078125,-0.1729888916015625,-0.040069580078125
1761915587588748800,7.940748779296875,-0.992462158203125,-0.180206298828125,-0.0353240966796875
1761915587598802700,7.950802734375,-0.9942779541015625,-0.1847076416015625,-0.03216552734375
1761915587608856600,7.960856689453125,-0.983642578125,-0.1823272705078125,-0.0327911376953125
1761915587618911700,7.970911865234375,-0.971771240234375,-0.1806640625,-0.037506103515625
1761915587628965600,7.980965576171875,-0.9693145751953125,-0.1812744140625,-0.0419158935546875
1761915587639019800,7.991019775390625,-0.9712371826171875,-0.185302734375,-0.0442657470703125
1761915587649073700,8.00107373046875,-0.9685516357421875,-0.1920928955078125,-0.0403900146484375
1761915587659127800,8.0111279296875,-0.965789794921875,-0.1969451904296875,-0.034881591796875
1761915587669181700,8.021181640625,-0.9648895263671875,-0.194915771484375,-0.032989501953125
1761915587679235600,8.031235595703125,-0.9658660888671875,-0.1861572265625,-0.0346527099609375
1761915587689290800,8.041290771484375,-0.9719390869140625,-0.173858642578125,-0.037841796875
1761915587699344600,8.0513447265625,-0.98193359375,-0.16864013671875,-0.0378875732421875
1761915587709398800,8.061398681640625,-0.98504638671875,-0.171875,-0.0367889404296875
1761915587719452700,8.07145263671875,-0.98309326171875,-0.1754913330078125,-0.035614013671875
1761915587729506800,8.0815068359375,-0.9762725830078125,-0.18109130859375,-0.035400390625
1761915587739560700,8.091560791015626,-0.966033935546875,-0.1849365234375,-0.0371856689453125
1761915587749614600,8.101614501953126,-0.9640350341796875,-0.18707275390625,-0.0406341552734375
1761915587759668500,8.11166845703125,-0.9735870361328125,-0.1846771240234375,-0.0425567626953125
1761915587769723600,8.1217236328125,-0.98858642578125,-0.1810150146484375,-0.0397491455078125
1761915587779777800,8.13177783203125,-0.994415283203125,-0.178314208984375,-0.0353240966796875
1761915587789831700,8.141831787109375,-0.986968994140625,-0.180206298828125,-0.0338287353515625
1761915587799885800,8.1518857421875,-0.979339599609375,-0.1833343505859375,-0.0326995849609375
1761915587809939700,8.161939697265625,-0.970947265625,-0.1827850341796875,-0.0326080322265625
1761915587819993900,8.171993896484375,-0.963958740234375,-0.182281494140625,-0.034637451171875
1761915587830047500,8.182047607421875,-0.9631195068359375,-0.185333251953125,-0.035308837890625
1761915587840102700,8.1921025390625,-0.963775634765625,-0.1849212646484375,-0.0340576171875
1761915587850156500,8.202156494140626,-0.96392822265625,-0.1848907470703125,-0.0335235595703125
1761915587860210700,8.212210693359374,-0.967498779296875,-0.1861572265625,-0.032318115234375
1761915587870264800,8.222264892578124,-0.9726104736328125,-0.1891326904296875,-0.0306396484375
1761915587880318700,8.232318603515624,-0.976348876953125,-0.19036865234375,-0.0303955078125
1761915587890372900,8.242372802734375,-0.9761962890625,-0.19000244140625,-0.0283966064453125
1761915587900426800,8.2524267578125,-0.971893310546875,-0.1908416748046875,-0.0273590087890625
1761915587910480600,8.262480712890625,-0.96710205078125,-0.193084716796875,-0.0308990478515625
1761915587920535600,8.27253564453125,-0.9610443115234375,-0.191680908203125,-0.03363037109375
1761915587930589700,8.282589599609375,-0.95904541015625,-0.1926116943359375,-0.033935546875
1761915587940643600,8.2926435546875,-0.9654388427734375,-0.20013427734375,-0.033660888671875
1761915587950697700,8.30269775390625,-0.9743499755859375,-0.2019195556640625,-0.03271484375
1761915587960751600,8.312751708984376,-0.9861297607421875,-0.1957550048828125,-0.03228759765625
1761915587970805800,8.3228056640625,-0.9919891357421875,-0.1849822998046875,-0.032684326171875
1761915587980859600,8.332859619140624,-0.987579345703125,-0.1733551025390625,-0.0371856689453125
1761915587990913500,8.34291357421875,-0.9850006103515625,-0.165679931640625,-0.041595458984375
1761915588000968700,8.35296875,-0.98968505859375,-0.164794921875,-0.0432281494140625
1761915588011026200,8.363026123046875,-0.9920196533203125,-0.1665191650390625,-0.0441131591796875
1761915588021080000,8.373080078125,-0.9897003173828125,-0.1697235107421875,-0.0444183349609375
1761915588031134200,8.38313427734375,-0.98602294921875,-0.1752471923828125,-0.0442962646484375
1761915588041188000,8.39318798828125,-0.9758148193359375,-0.1766510009765625,-0.0427398681640625
1761915588051242200,8.4032421875,-0.9630584716796875,-0.1773681640625,-0.0459747314453125
1761915588061295900,8.4132958984375,-0.95831298828125,-0.1763153076171875,-0.0504150390625
1761915588071351000,8.42335107421875,-0.9587554931640625,-0.1758575439453125,-0.0499114990234375
1761915588081405000,8.433405029296875,-0.9647369384765625,-0.1764373779296875,-0.046356201171875
1761915588091459000,8.443458984375,-0.9739837646484375,-0.177734375,-0.040069580078125
1761915588101513000,8.453512939453125,-0.978515625,-0.177490234375,-0.0388641357421875
1761915588111567000,8.463567138671875,-0.97601318359375,-0.1794586181640625,-0.04132080078125
1761915588121621200,8.473621337890625,-0.9690399169921875,-0.1790618896484375,-0.044281005859375
1761915588131675000,8.4836748046875,-0.962066650390625,-0.179473876953125,-0.043701171875
1761915588141729000,8.49372900390625,-0.962005615234375,-0.1817169189453125,-0.0422210693359375
1761915588151784000,8.503783935546876,-0.966888427734375,-0.182952880859375,-0.0379791259765625
1761915588161838000,8.513838134765624,-0.9756011962890625,-0.181671142578125,-0.03656005859375
1761915588171892000,8.52389208984375,-0.9813385009765625,-0.181671142578125,-0.035888671875
1761915588181946000,8.533946044921874,-0.98565673828125,-0.1843414306640625,-0.0362701416015625
1761915588192000000,8.544,-0.9865264892578125,-0.1866455078125,-0.037506103515625
1761915588202054100,8.55405419921875,-0.982025146484375,-0.1861724853515625,-0.0367431640625
1761915588212108000,8.56410791015625,-0.9765625,-0.185638427734375,-0.0369720458984375
1761915588222162000,8.574161865234375,-0.9773712158203125,-0.1844635009765625,-0.0360107421875
1761915588232217000,8.584217041015625,-0.98309326171875,-0.1797027587890625,-0.0374755859375
1761915588242271000,8.59427099609375,-0.985382080078125,-0.176116943359375,-0.03912353515625
1761915588252325000,8.6043251953125,-0.990142822265625,-0.1732940673828125,-0.0381927490234375
1761915588262379000,8.61437890625,-1.0015106201171875,-0.1716156005859375,-0.0346832275390625
1761915588272433200,8.62443310546875,-0.9987030029296875,-0.1716766357421875,-0.031951904296875
1761915588282487000,8.634487060546874,-0.987457275390625,-0.1723785400390625,-0.033538818359375
1761915588292541000,8.644541015625,-0.975311279296875,-0.174591064453125,-0.0396270751953125
1761915588302596000,8.65459619140625,-0.9660186767578125,-0.176727294921875,-0.04443359375
1761915588312650000,8.66464990234375,-0.9624481201171875,-0.1799774169921875,-0.0460205078125
1761915588322704100,8.6747041015625,-0.962127685546875,-0.180633544921875,-0.0425567626953125
1761915588332758000,8.684758056640625,-0.9667510986328125,-0.181793212890625,-0.0367889404296875
1761915588342812200,8.694812255859375,-0.97601318359375,-0.1863555908203125,-0.033966064453125
1761915588352866000,8.704865966796875,-0.980865478515625,-0.1859283447265625,-0.0321044921875
1761915588362920000,8.714919921875,-0.976165771484375,-0.1799774169921875,-0.03265380859375
1761915588372973800,8.724973876953126,-0.97320556640625,-0.174896240234375,-0.038665771484375
1761915588383027200,8.735027099609376,-0.9735260009765625,-0.1664276123046875,-0.0404205322265625
1761915588393080800,8.745080810546876,-0.97625732421875,-0.162689208984375,-0.0394287109375
1761915588403135000,8.755135009765626,-0.982513427734375,-0.16790771484375,-0.037445068359375
1761915588413188900,8.76518896484375,-0.9827117919921875,-0.1772613525390625,-0.033599853515625
1761915588423244000,8.775244140625,-0.9812164306640625,-0.188720703125,-0.0319671630859375
1761915588433298200,8.785298095703125,-0.975494384765625,-0.191925048828125,-0.0303192138671875
1761915588443352000,8.79535205078125,-0.973175048828125,-0.1913299560546875,-0.028167724609375
1761915588453406200,8.80540625,-0.9744110107421875,-0.1889190673828125,-0.0270538330078125
1761915588463460000,8.815460205078125,-0.968780517578125,-0.18670654296875,-0.029388427734375
1761915588473514000,8.825513916015625,-0.9660797119140625,-0.183380126953125,-0.0338592529296875
1761915588483567900,8.83556787109375,-0.9738006591796875,-0.1796722412109375,-0.033447265625
1761915588493623000,8.845623046875,-0.984954833984375,-0.177703857421875,-0.02813720703125
1761915588503677200,8.85567724609375,-0.99676513671875,-0.180419921875,-0.026031494140625
1761915588513731000,8.86573095703125,-1.0030517578125,-0.1811370849609375,-0.0218048095703125
1761915588523785200,8.87578515625,-0.9985809326171875,-0.1775054931640625,-0.018798828125
1761915588533839000,8.885839111328124,-0.988494873046875,-0.1790008544921875,-0.0223236083984375
1761915588543893000,8.89589306640625,-0.9807891845703125,-0.1856231689453125,-0.031768798828125
1761915588553947000,8.90594677734375,-0.96533203125,-0.188140869140625,-0.036102294921875
1761915588564001000,8.9160009765625,-0.948150634765625,-0.186859130859375,-0.0362396240234375
1761915588574056000,8.926055908203125,-0.941680908203125,-0.1911468505859375,-0.0401153564453125
1761915588584110000,8.936110107421875,-0.9463348388671875,-0.1967010498046875,-0.0396728515625
1761915588594164200,8.946164306640625,-0.9546356201171875,-0.19927978515625,-0.0357208251953125
1761915588604218000,8.956218017578125,-0.963714599609375,-0.2015838623046875,-0.0326690673828125
1761915588614272000,8.96627197265625,-0.97161865234375,-0.19378662109375,-0.031585693359375
1761915588624326000,8.976325927734376,-0.9781951904296875,-0.1817626953125,-0.031463623046875
1761915588634380000,8.986380126953126,-0.9791107177734375,-0.16741943359375,-0.0335845947265625
1761915588644434000,8.996433837890624,-0.9783935546875,-0.1610260009765625,-0.0368194580078125
1761915588654489000,9.006489013671874,-0.9803314208984375,-0.1640777587890625,-0.040313720703125
1761915588664543000,9.01654296875,-0.982940673828125,-0.16864013671875,-0.0394287109375
1761915588674597000,9.02659716796875,-0.98431396484375,-0.1772613525390625,-0.0368194580078125
1761915588684651300,9.0366513671875,-0.981414794921875,-0.1859893798828125,-0.036224365234375
1761915588694705000,9.046704833984375,-0.978607177734375,-0.192352294921875,-0.03460693359375
1761915588704759000,9.056759033203125,-0.9779052734375,-0.1940765380859375,-0.0361175537109375
1761915588714813000,9.06681298828125,-0.9763031005859375,-0.19146728515625,-0.037689208984375
1761915588724868000,9.0768681640625,-0.97119140625,-0.1860809326171875,-0.03802490234375
1761915588734922000,9.086921875,-0.9718017578125,-0.1826324462890625,-0.037139892578125
1761915588744976100,9.09697607421875,-0.9744720458984375,-0.1819610595703125,-0.0351715087890625
1761915588755030000,9.107030029296874,-0.97845458984375,-0.1822967529296875,-0.03192138671875
1761915588765084000,9.117083984375,-0.9793701171875,-0.1827545166015625,-0.0287322998046875
1761915588775138000,9.127137939453124,-0.9766693115234375,-0.1855621337890625,-0.0264434814453125
1761915588785192000,9.13719189453125,-0.9716644287109375,-0.1859893798828125,-0.026458740234375
1761915588795246000,9.14724609375,-0.971771240234375,-0.1833343505859375,-0.0294342041015625
1761915588805301000,9.157301025390625,-0.975372314453125,-0.178466796875,-0.031219482421875
1761915588815355100,9.167355224609375,-0.975830078125,-0.171661376953125,-0.032257080078125
1761915588825409000,9.177408935546875,-0.975555419921875,-0.1751556396484375,-0.0343780517578125
1761915588835463200,9.187463134765625,-0.9788970947265625,-0.1819610595703125,-0.036163330078125
1761915588845516800,9.197516845703126,-0.975341796875,-0.1869049072265625,-0.0337982177734375
1761915588855571000,9.207571044921876,-0.969451904296875,-0.18975830078125,-0.0311737060546875
1761915588865625000,9.217625,-0.9626617431640625,-0.1930389404296875,-0.0324249267578125
1761915588875680000,9.227679931640624,-0.9579925537109375,-0.1937713623046875,-0.031494140625
1761915588885734100,9.237734130859375,-0.9596405029296875,-0.191314697265625,-0.0351104736328125
1761915588895788000,9.2477880859375,-0.9693145751953125,-0.185882568359375,-0.0355377197265625
1761915588905842200,9.25784228515625,-0.9786834716796875,-0.1792449951171875,-0.0352935791015625
1761915588915896000,9.26789599609375,-0.978179931640625,-0.17822265625,-0.0317840576171875
1761915588925950000,9.277949951171875,-0.9744720458984375,-0.1841888427734375,-0.0317840576171875
1761915588936003800,9.28800390625,-0.9700775146484375,-0.18646240234375,-0.0348968505859375
1761915588946059000,9.29805908203125,-0.963226318359375,-0.1850738525390625,-0.03509521484375
1761915588956113200,9.308113037109376,-0.95880126953125,-0.1812591552734375,-0.039642333984375
1761915588966169000,9.318169189453124,-0.9584197998046875,-0.1772308349609375,-0.0432586669921875
1761915588976223000,9.328222900390625,-0.9646453857421875,-0.1760406494140625,-0.042938232421875
1761915588986277000,9.338277099609375,-0.9763641357421875,-0.177398681640625,-0.0401611328125
1761915588996331000,9.3483310546875,-0.98028564453125,-0.177764892578125,-0.0382537841796875
1761915589006386000,9.358385986328125,-0.97772216796875,-0.177764892578125,-0.037445068359375
1761915589016436000,9.36843603515625,-0.9670867919921875,-0.17767333984375,-0.0403594970703125
1761915589026489900,9.37848974609375,-0.949920654296875,-0.1773834228515625,-0.0464630126953125
1761915589036543700,9.388543701171875,-0.938018798828125,-0.177154541015625,-0.046142578125
1761915589046597600,9.39859765625,-0.9442901611328125,-0.176849365234375,-0.0428924560546875
1761915589056651800,9.40865185546875,-0.9636383056640625,-0.1774749755859375,-0.0416717529296875
1761915589066705700,9.41870556640625,-0.9785308837890625,-0.1760101318359375,-0.0400543212890625
1761915589076760800,9.4287607421875,-0.9767608642578125,-0.1759185791015625,-0.03857421875
1761915589086815000,9.43881494140625,-0.969268798828125,-0.1768341064453125,-0.0373992919921875
1761915589096868900,9.448868896484376,-0.9735870361328125,-0.172119140625,-0.033935546875
1761915589106922800,9.4589228515625,-0.99468994140625,-0.168914794921875,-0.0336456298828125
1761915589116976600,9.4689765625,-1.00677490234375,-0.17047119140625,-0.03094482421875
1761915589127030800,9.47903076171875,-1.003814697265625,-0.1717681884765625,-0.0332183837890625
1761915589137084700,9.489084716796874,-0.985443115234375,-0.1743011474609375,-0.038787841796875
1761915589147139800,9.499139892578125,-0.9648284912109375,-0.1793975830078125,-0.0413360595703125
1761915589157194000,9.509194091796875,-0.953277587890625,-0.18438720703125,-0.0411529541015625
1761915589167248000,9.519247802734375,-0.95880126953125,-0.1877593994140625,-0.038177490234375
1761915589177301800,9.5293017578125,-0.972503662109375,-0.188201904296875,-0.0305633544921875
1761915589187355600,9.539355712890625,-0.9888458251953125,-0.191192626953125,-0.02655029296875
1761915589197409800,9.549409912109375,-0.99432373046875,-0.1884765625,-0.0274810791015625
1761915589207463700,9.559463623046875,-0.9910888671875,-0.18243408203125,-0.0266571044921875
1761915589217517800,9.569517822265626,-0.98968505859375,-0.1775054931640625,-0.0273284912109375
1761915589227573000,9.579572998046874,-0.99530029296875,-0.17584228515625,-0.0260162353515625
1761915589237627000,9.589626953125,-0.9984283447265625,-0.1776885986328125,-0.02093505859375
1761915589247681000,9.599680908203124,-1.0000457763671875,-0.1829986572265625,-0.0197296142578125
1761915589257734700,9.609734619140625,-0.9928741455078125,-0.183319091796875,-0.0212249755859375
1761915589267788800,9.619788818359375,-0.9836578369140625,-0.183563232421875,-0.0246429443359375
1761915589277842700,9.6298427734375,-0.9779815673828125,-0.1829833984375,-0.026458740234375
1761915589287896800,9.639896728515625,-0.9780731201171875,-0.1811370849609375,-0.025665283203125
1761915589297951700,9.64995166015625,-0.981658935546875,-0.1824798583984375,-0.0254364013671875
1761915589308006000,9.660005859375,-0.983123779296875,-0.18145751953125,-0.0257568359375
1761915589318060000,9.67006005859375,-0.974395751953125,-0.1765289306640625,-0.0293731689453125
1761915589328114000,9.680114013671876,-0.9650726318359375,-0.1735687255859375,-0.0354766845703125
1761915589338167800,9.690167724609376,-0.9627532958984375,-0.1740875244140625,-0.0370941162109375
1761915589348221700,9.7002216796875,-0.9631805419921875,-0.17742919921875,-0.036834716796875
1761915589358275800,9.71027587890625,-0.968170166015625,-0.1802978515625,-0.0343170166015625
1761915589368329700,9.720329833984374,-0.9798736572265625,-0.1792144775390625,-0.0293121337890625
1761915589378385000,9.730385009765625,-0.9887847900390625,-0.1778717041015625,-0.0244598388671875
1761915589388438800,9.740438720703125,-0.9889373779296875,-0.1797637939453125,-0.0241241455078125
1761915589398493000,9.750492919921875,-0.9814453125,-0.17254638671875,-0.026397705078125
1761915589408546800,9.760546875,-0.965301513671875,-0.16925048828125,-0.03131103515625
1761915589418600700,9.7706005859375,-0.9694366455078125,-0.17083740234375,-0.039520263671875
1761915589428654800,9.78065478515625,-0.9781951904296875,-0.1776885986328125,-0.0432586669921875
1761915589438708700,9.790708740234376,-0.97662353515625,-0.1804351806640625,-0.0386810302734375
1761915589448764000,9.800763916015624,-0.977264404296875,-0.184661865234375,-0.0362091064453125
1761915589458817800,9.81081787109375,-0.9740447998046875,-0.1903839111328125,-0.0352325439453125
1761915589468872000,9.820871826171874,-0.9681243896484375,-0.1909332275390625,-0.033477783203125
1761915589478925800,9.83092578125,-0.9616546630859375,-0.193572998046875,-0.0328826904296875
1761915589488979700,9.840979736328125,-0.960235595703125,-0.198394775390625,-0.03533935546875
1761915589499033900,9.851033935546875,-0.960601806640625,-0.19439697265625,-0.0343017578125
1761915589509087700,9.861087646484375,-0.962554931640625,-0.185791015625,-0.0322265625
1761915589519142000,9.871141845703125,-0.979583740234375,-0.1771087646484375,-0.032073974609375
1761915589529196800,9.88119677734375,-0.992523193359375,-0.1734466552734375,-0.0281982421875
1761915589539251000,9.8912509765625,-1.000946044921875,-0.17803955078125,-0.0249176025390625
1761915589549304800,9.901304931640626,-0.998870849609375,-0.185150146484375,-0.0268402099609375
1761915589559358700,9.911358642578126,-0.985748291015625,-0.185760498046875,-0.025909423828125
1761915589569412600,9.92141259765625,-0.98443603515625,-0.1795501708984375,-0.0252227783203125
1761915589579466800,9.931466796875,-0.9963531494140625,-0.1743621826171875,-0.0235137939453125
1761915589589521000,9.94152099609375,-0.992462158203125,-0.176605224609375,-0.028839111328125
1761915589599575800,9.951575927734375,-0.9860382080078125,-0.18359375,-0.03460693359375
1761915589609630000,9.9616298828125,-0.987060546875,-0.188018798828125,-0.0310821533203125
1761915589619683800,9.971683837890625,-1.00628662109375,-0.18914794921875,-0.0249786376953125
1761915589629737700,9.98173779296875,-1.021331787109375,-0.186614990234375,-0.0243682861328125
1761915589639791600,9.99179150390625,-0.98907470703125,-0.1939697265625,-0.0370330810546875
1761915589649845800,10.001845703125,-0.9066162109375,-0.21453857421875,-0.0659027099609375
1761915589659899600,10.011899658203125,-0.858734130859375,-0.2068023681640625,-0.0771026611328125
1761915589669954800,10.021954833984376,-0.871063232421875,-0.1952667236328125,-0.073974609375
1761915589680009000,10.032009033203124,-0.9435577392578125,-0.1872711181640625,-0.0711822509765625
1761915589690062800,10.042062744140624,-0.9962310791015625,-0.181121826171875,-0.0592803955078125
1761915589700117000,10.052116943359374,-1.005096435546875,-0.17510986328125,-0.0500640869140625
