time,seconds_elapsed,z,y,x
1761915579776702200,0.1287021484375,0.04341185622513294,0.14513503164350985,0.2102523045245558
1761915579786756400,0.13875634765625,0.04311667267084122,0.11462123543620109,0.21449151299688965
1761915579796810200,0.148810302734375,-0.05059446120560169,0.06898702698647975,0.21420370903145522
1761915579806864400,0.158864501953125,-0.11834405535161495,0.03526654369235038,0.2472777476482093
1761915579816918000,0.16891796875,-0.1071703349083662,-0.009285130217671394,0.2662220290277153
1761915579826972200,0.17897216796875,0.029245968228578566,-0.0880829187311232,0.23386596595458686
1761915579837026000,0.189026123046875,0.19816168843209742,-0.14332052956745028,0.16903306297287343
1761915579847081200,0.199081298828125,0.3629419162660837,-0.1811789894491434,0.09495411967486142
1761915579857135400,0.20913525390625,0.47805648817718027,-0.16913023973703384,0.017246756746619938
1761915579867189200,0.219189208984375,0.47434126704633234,-0.09994695952609181,-0.0036837665466591713
1761915579877243400,0.229243408203125,0.38740065021812914,-0.039286739119142294,0.03183664230890572
1761915579887297300,0.23929736328125,0.26443127315342424,-0.054772623673081396,0.0024624080581590532
1761915579897351200,0.24935107421875,0.22883856624662874,-0.009860592018067837,0.03738254946563393
1761915579907405000,0.259405029296875,0.22846388771533965,0.0011309037260711192,0.07319269851539284
1761915579917459200,0.269459228515625,0.2829962728917599,-0.023213117805123328,0.09302634821636602
1761915579927513000,0.27951318359375,0.30341420702040195,-0.0685188249528408,0.07219575989991427
1761915579937568300,0.289568359375,0.23681495195329189,-0.13615370667800306,0.013460936331283301
1761915579947622400,0.299622314453125,0.2552881817549467,-0.14844342553913592,-0.038363724256400014
1761915579957676300,0.30967626953125,0.2817436424821615,-0.016893121003359556,-0.03585470057753846
1761915579967730200,0.319730224609375,0.24239362886846064,0.1278390289276838,-0.05496007253658026
1761915579977784000,0.3297841796875,0.11956804418861865,0.2197374142937362,-0.05721910350974649
1761915579987838200,0.339838134765625,0.02108896525800228,0.2969609392277896,-0.027875848919153214
1761915579997892000,0.34989208984375,-0.045750528305768964,0.29502909438237546,-0.01736369765717536
1761915580007946500,0.359946533203125,0.005112812969088554,0.2934258969694376,-0.011662873933371155
1761915580018000600,0.370000732421875,-0.10082476527392864,0.2712270707733929,-0.02754051601756364
1761915580028055600,0.3800556640625,-0.48609950937926766,0.29654651320800185,-0.017265443180780857
1761915580038109400,0.390109375,-0.8069839066386222,0.39415217030495403,0.10407165650697424
1761915580048163300,0.400163330078125,-0.8927221619397401,0.3546373215183615,0.19520824545398355
1761915580058217500,0.410217529296875,-0.7543249141186475,0.22256518506556747,0.19628650567736475
1761915580068271600,0.420271728515625,-0.6015449206799268,0.12956862919926643,0.25480615212535485
1761915580078325500,0.430325439453125,-0.4650146357744932,0.03768967918604612,0.3899861731993034
1761915580088379600,0.440379638671875,-0.2580985630005598,-0.12435162520334124,0.5531847213324159
1761915580098433500,0.45043359375,0.10162439121901988,-0.22269056501090526,0.5041328864589333
1761915580108487700,0.46048779296875,0.8888625639021396,-0.2054746417939663,0.1656067417860031
1761915580118542300,0.470542236328125,0.9620230771809816,-0.4120566603079438,-0.01251925330068916
1761915580128596500,0.480596435546875,1.0149152939349413,-0.4786322422385215,-0.18823457051645964
1761915580138650400,0.490650390625,0.4969219321668148,0.054811932770162816,-0.12463994062542914
1761915580148704500,0.50070458984375,0.08556932847499847,0.3993883173927665,0.6873636208061128
1761915580158758700,0.510758544921875,0.23732056338787078,0.2800274862140417,0.7801896424110978
1761915580168812500,0.5208125,0.3477314876526594,-0.015358312651515006,0.5797698728539049
1761915580178866700,0.53086669921875,0.5678419730424881,-0.39323680902570485,0.5326205106008798
1761915580188920600,0.540920654296875,-0.02895779893696308,-0.6260100843727588,0.5237476144459098
1761915580198974700,0.550974609375,-1.2429179938793182,-0.533192099943757,0.7856022420443594
1761915580209029400,0.561029296875,-1.5227356367349625,-0.10110182864964008,1.171644463390857
1761915580219083500,0.57108349609375,-1.2506383589982986,0.08863573030829429,1.187022211395204
1761915580229137400,0.581137451171875,-0.7151397356778383,-0.06474515163302422,0.9153321992851793
1761915580239191600,0.591191650390625,-0.14991232904791832,-0.3319298151478171,0.48858255836665626
1761915580249245700,0.60124560546875,0.3757826931387186,-0.48105479321032757,0.30053514445275065
1761915580259299600,0.611299560546875,0.7526029126316308,-0.3861839679047465,0.31989260974302886
1761915580269353700,0.621353759765625,1.2779156575024126,0.06333353126943111,-0.05529460172057152
1761915580279407600,0.63140771484375,0.9160551067322492,0.23830606729388235,-0.29084610960930585
1761915580289461500,0.64146142578125,0.7138689850896597,0.16503244902938605,-0.07479688230901956
1761915580299516400,0.651516357421875,1.0497165582031012,-0.0908858473226428,-0.2209086500301957
1761915580309570600,0.661570556640625,1.9500071095705032,-0.5057864988848567,-0.587018090416491
1761915580319624400,0.67162451171875,2.9079958166688678,-0.6510653229132294,-1.029013377392292
1761915580329678600,0.6816787109375,1.8704799838691948,-0.38844343726933,-0.9173916160330176
1761915580339732500,0.691732421875,1.1164321331262588,-0.14815876337885855,-0.7977876237481832
1761915580349786600,0.70178662109375,0.8844453319817781,-0.45297743036970495,-0.9116131787620484
1761915580359840500,0.711840576171875,0.9756523740828037,-0.03682575583308935,-0.4765813010580837
1761915580369894400,0.721894287109375,1.3385750011265276,0.3723496499501168,-0.2898532991796732
1761915580379949600,0.731949462890625,0.6610048253864049,0.40653862753883,-0.319150997595489
1761915580390003500,0.74200341796875,-0.602175035277009,0.4485993614159524,-0.24408538134768604
1761915580400057600,0.7520576171875,-1.3955886817246674,0.667295449963212,0.013838555738329886
1761915580410111500,0.762111572265625,-1.4484540104717016,0.8843246282115578,0.23161796783208846
1761915580420165600,0.77216552734375,-1.331000766479969,0.9279974734604358,0.27367563296929
1761915580430219500,0.782219482421875,-1.0477543182194233,0.6461103308543562,0.02638093418627977
1761915580440273400,0.7922734375,-0.4187637567311525,0.42227614876627917,-0.22431743556037545
1761915580450327600,0.80232763671875,0.12035656421780586,0.4284272187419235,-0.3310501097038388
1761915580460381400,0.81238134765625,0.12584288667440413,0.480144838758558,-0.3453185812920332
1761915580470436600,0.8224365234375,-0.10515548795461654,0.5942338670141994,-0.23679580886140464
1761915580480490500,0.832490478515625,-0.1684124468564987,0.5226142995670437,-0.2010692464418709
1761915580490544600,0.842544677734375,-0.241846516379714,0.16813450669795274,-0.2765454162519425
1761915580500598500,0.8525986328125,-0.4629629639416933,-0.19016937450394034,-0.39380869062952695
1761915580510652400,0.86265234375,-0.3136293115645647,-0.252588859668374,-0.33437275132052596
1761915580520706300,0.872706298828125,-0.23639760332405566,-0.19032456506565212,-0.07202201076820493
1761915580530760400,0.882760498046875,-0.7287251934379338,-0.07489946590065956,0.1067821393083781
1761915580540814600,0.892814697265625,-0.7989847245782613,-0.009327215793728827,0.16065730268508194
1761915580550868500,0.902868408203125,-0.783531719380617,0.0049954701997339725,0.2280320721693337
1761915580560923600,0.912923583984375,-0.6736082863718271,0.14757657957673073,0.27357268405146895
1761915580570977500,0.9229775390625,-0.4645645539194345,0.2509223877608776,0.13216405251994728
1761915580581031700,0.93303173828125,-0.021675240713357923,0.33270153017267584,-0.08968896568827331
1761915580591085300,0.943085205078125,0.4225350919634103,0.3438677979618311,-0.23356880963891744
1761915580601139500,0.953139404296875,0.8277326801568269,0.17638883256316185,-0.394633889407292
1761915580611193300,0.963193359375,1.1190361781448126,-0.11865648230165242,-0.533567070735991
1761915580621247500,0.97324755859375,1.3008335917532443,-0.4063523111864924,-0.601340484149009
1761915580631301600,0.983301513671875,1.0235130264103411,-0.4160331627234816,-0.5789067897511646
1761915580641355500,0.99335546875,0.12443594248592853,-0.14127543360590933,-0.23017931333109734
1761915580651410700,1.00341064453125,-0.361492301979661,0.10873612292036414,0.15741214675139634
1761915580661464600,1.013464599609375,-0.31340543968081475,0.2677837984517217,0.33279819548018275
1761915580671518500,1.0235185546875,-0.2607224817633629,0.2810543450437486,0.3882430923916399
1761915580681572400,1.033572265625,-0.19543372477293014,0.272960324306786,0.4096208114631474
1761915580691626500,1.04362646484375,-0.25771687020659445,0.29312589110955595,0.36412970127854494
1761915580701680400,1.053680419921875,-0.3624018180400133,0.3290905000686645,0.32408162239808586
1761915580711734500,1.063734619140625,-0.23448154056966303,0.37954336084648965,0.2862064305773005
1761915580721788400,1.073788330078125,0.0395095880895853,0.37045857550650835,0.2028933565964922
1761915580731842600,1.083842529296875,0.11008183844089507,0.24039544078856706,0.12007914464906788
1761915580741896700,1.093896728515625,-0.0068634560286998745,0.10261632486581802,0.1491605425662361
1761915580751951400,1.103951416015625,-0.06562602612078189,0.030970892325043676,0.22337368843685834
1761915580762005500,1.114005615234375,-0.01549976694881916,-0.030192747559398412,0.2967016307044774
1761915580772059400,1.124059326171875,0.08213760046064854,-0.07083864620253444,0.3786411147771403
1761915580782113500,1.134113525390625,0.1590355467021465,-0.21463483045771717,0.3164708916660398
1761915580792167400,1.14416748046875,0.10075111551582813,-0.39938846352323887,0.23104928283235057
1761915580802221600,1.1542216796875,-0.025045009407401085,-0.4647608071438968,0.2413544950790703
1761915580812275500,1.164275390625,-0.08268880460262298,-0.3027057664901018,0.28636921992357817
1761915580822329600,1.17432958984375,-0.02397416530549526,-0.09141323219761252,0.26045707229282705
1761915580832383700,1.1843837890625,-0.07689677719771862,-0.028060119444876908,0.33627164374440904
1761915580842438400,1.1944384765625,0.00037643209695816036,-0.20468407593816518,0.2851143975568935
1761915580852492500,1.204492431640625,0.2439852819740772,-0.3297910495534539,0.22063752320492638
1761915580862546400,1.21454638671875,0.36235856342017647,-0.3222536397859454,0.13782993279453365
1761915580872600600,1.2246005859375,0.18814824393987656,-0.2126420492053032,0.10489056254127062
1761915580882654500,1.234654541015625,0.016626725152134893,-0.08224296053126454,0.14939960288596338
1761915580892708600,1.24470849609375,0.05547931063771248,-0.03000190116241574,0.14800151785737833
1761915580902762500,1.254762451171875,0.07200491350293159,-0.010591828902065753,0.13436127030327916
1761915580912816600,1.264816650390625,0.11823884141147135,-0.07030629289150238,0.12069810766447335
1761915580922870500,1.27487060546875,0.14649579860270023,-0.12451689876765012,0.14260733979679643
1761915580932925400,1.284925537109375,0.08331891919970512,-0.12533186841234564,0.1781450651133433
1761915580942979600,1.2949794921875,0.0014256488889455795,-0.061130614397674796,0.25159993996256963
1761915580953033500,1.305033447265625,0.05513911889791488,-0.011051847629249096,0.24340110714426264
1761915580963087600,1.315087646484375,0.15078735831677914,-0.002089811886101961,0.17915482667777685
1761915580973141500,1.3251416015625,0.22918284963965416,-0.018362462903559206,0.11698732524672523
1761915580983195600,1.335195556640625,0.2513736386597156,-0.019272417355328798,0.12109857822414487
1761915580993249500,1.34524951171875,0.1663520071953535,0.011008593009412287,0.15338627050248904
1761915581003303000,1.355302978515625,0.022715689677000044,0.07386383924260735,0.1800544789312407
1761915581013356800,1.365356689453125,-0.011672317615151405,0.16775062194690107,0.19757797026000914
1761915581023412000,1.375411865234375,0.06836275760829448,0.16294059131667016,0.15584177389582618
1761915581033465900,1.3854658203125,0.1873223145097494,0.05413081863820553,0.06615553902075626
1761915581043520000,1.39552001953125,0.2932861962378025,-0.03584069031849503,0.00987803634321317
1761915581053574000,1.405573974609375,0.3676034783363342,-0.09780644036605954,0.012895155674684793
1761915581063628000,1.4156279296875,0.35166765805780886,-0.12881488822251558,0.027168924492504447
1761915581073682000,1.425681884765625,0.3479834165871143,-0.14809519662335513,0.0063351030393503606
1761915581083736000,1.435736083984375,0.3639928866237402,-0.13462941972017287,-0.005705280703213065
1761915581093789700,1.445789794921875,0.40714755321741103,-0.060978784836828705,-0.027047764064557847
1761915581103843800,1.45584375,0.38628421340882774,-0.020243454344570637,-0.04024387544719502
1761915581113899000,1.46589892578125,0.3101771252840757,-0.07158654196038841,-0.015798110574577
1761915581123953000,1.475952880859375,0.16653905420005322,-0.11359218464940786,0.034326796890515834
1761915581134007000,1.486007080078125,-0.020897826600074765,-0.06902560543119907,0.10225993090989068
1761915581144061000,1.49606103515625,-0.11908932076096534,0.0489263818629086,0.15887845644429324
1761915581154115000,1.506114990234375,-0.10499065278172492,0.12288725173920392,0.10230762424282729
1761915581164169000,1.5161689453125,-0.01575812562406063,0.1593655093088746,0.029555691764876244
1761915581174222800,1.526222900390625,0.09790215582549572,0.17039529123678804,0.03335921223368495
1761915581184276700,1.53627685546875,0.20306991873979569,0.10082432688251138,0.026830869910866022
1761915581194331000,1.546330810546875,0.20682313379347322,-0.056609191450476645,0.007257241119258105
1761915581204386000,1.556385986328125,0.1449070681065321,-0.14825783983916044,0.0018073690823744981
1761915581214440000,1.56643994140625,0.055412675142288204,-0.15054244364500044,0.030408381337765602
1761915581224494000,1.576494140625,0.05257306780219078,-0.0734388918288052,0.0738334258380346
1761915581234548000,1.5865478515625,0.11636427971124648,-0.036676118229329584,0.08331716563403606
1761915581244601900,1.596601806640625,0.174818222245574,-0.030291677889227864,0.04988793863775208
1761915581254655700,1.60665576171875,0.22893442783653734,-0.049217181503027674,0.024219490969227625
1761915581264710000,1.6167099609375,0.21850421923696994,-0.08037877409458159,0.011211760031851007
1761915581274763800,1.626763671875,0.06270517023801803,-0.04724164364635944,0.040620129447639916
1761915581284818000,1.63681787109375,-0.14230243856608868,-0.015831044729799033,0.10481060177339241
1761915581294873000,1.646873046875,-0.18654840752780436,-0.0304883695051074,0.15514213772648944
1761915581304927000,1.656927001953125,-0.057740241307020185,-0.05543342566937208,0.11106398134604095
1761915581314980900,1.66698095703125,0.07891337771713733,-0.08399521102607249,0.016525858593545852
1761915581325034800,1.67703466796875,0.18140929107367992,-0.046493601758033035,-0.042456267966772425
1761915581335089000,1.6870888671875,0.1736070928901434,0.02108282777816057,-0.034986863667867144
1761915581345142800,1.697142822265625,0.02257598894536495,0.025104630640149114,-0.005500492545845918
1761915581355197000,1.707197021484375,-0.19370470902323722,0.06764671829342842,0.0787174167536199
1761915581365250800,1.717250732421875,-0.29473990217745305,0.1298060912169516,0.16325811456693334
1761915581375305000,1.727304931640625,-0.24351824898421762,0.16274799135401843,0.14362334843892605
1761915581385358800,1.73735888671875,-0.11435703154206275,0.16671236494034528,0.0489760114246048
1761915581395413800,1.747413818359375,0.023846155011653897,0.18183628431409596,0.005065288599510677
1761915581405468000,1.757468017578125,0.09755261173546313,0.1784577477917075,0.008099240334774367
1761915581415521800,1.767521728515625,0.13130641277730465,0.17262319641932844,0.033654685765632894
1761915581425576000,1.777575927734375,0.19047230297327042,0.10135054271370172,0.006785522821126506
1761915581435629800,1.7876298828125,0.21964462144374847,0.0016932137839496134,-0.007462876376707572
1761915581445684000,1.79768408203125,0.21052081926763055,-0.12861147460490466,0.019844221327337434
1761915581455737900,1.80773779296875,0.16993980255424976,-0.252234639403224,0.06494871594768482
1761915581465792000,1.8177919921875,0.12486205894351005,-0.3089779786273837,0.10467002425892277
1761915581475846000,1.827845947265625,0.10916180098652839,-0.22936770468726753,0.07259030304229817
1761915581485900800,1.83790087890625,0.00014086977541446686,-0.11890870349705218,0.03944311699094251
1761915581495955000,1.847954833984375,-0.08259586562216281,-0.009295651611685753,0.03519110383596271
1761915581506008800,1.8580087890625,-0.09624912792146205,0.03369447207003832,0.0275788159010699
1761915581516063000,1.86806298828125,-0.013021394136548042,0.006761603089421987,0.02228971021673642
1761915581526116900,1.878116943359375,0.13934066615104673,-0.05022971954643726,-0.002665310219116509
1761915581536171000,1.8881708984375,0.22408815684914588,-0.11863076333850621,-0.028199379501806104
1761915581546225000,1.898224853515625,0.2484685648679733,-0.15346300726681947,-0.038375624756747856
1761915581556279000,1.908279052734375,0.2361561957836151,-0.16733444236144424,-0.030370241284463553
1761915581566333000,1.9183330078125,0.1337403619259596,-0.16679799739718437,-0.03830323080739472
1761915581576387800,1.928387939453125,0.03752981244921684,-0.09908668943494557,-0.010756527077639475
1761915581586442000,1.93844189453125,-0.04120762417912483,-0.046214638686180115,0.04124688761043362
1761915581596496000,1.948495849609375,-0.0385901351571083,0.025730507453531025,0.1278007244776003
1761915581606550000,1.958550048828125,0.007004910326004028,0.09784048876613378,0.16729378155749292
1761915581616604000,1.96860400390625,0.07001812359988689,0.10954203247576952,0.13307840915219857
1761915581626658000,1.978657958984375,0.11089081673622131,0.1021031146466732,0.10895391212319955
1761915581636712000,1.9887119140625,0.12962065164744854,0.08369944294989108,0.12277570852297358
1761915581646765800,1.998765869140625,0.14515256730020046,0.04853577511012554,0.10744469487033784
1761915581656819700,2.00881982421875,0.127032973241806,0.051284489296376704,0.08262901897309348
1761915581666875000,2.018875,0.10209083968698977,0.08268880460262298,0.08403389906864613
1761915581676929000,2.028928955078125,0.057741410350799556,0.07044789331927895,0.07601203938559628
1761915581686983000,2.03898291015625,0.07986556387543678,0.05620324099808931,0.07354368564384058
1761915581697037000,2.049037109375,0.21737784555554387,0.03310410496145487,0.07942333653327077
1761915581707091000,2.059091064453125,0.3489583990991115,-0.00921732567846775,0.07252241173812654
1761915581717145000,2.06914501953125,0.3233306213676929,0.004689765251427888,0.08331671810946427
1761915581727198700,2.07919873046875,0.25884149032235143,0.011874123797565698,0.09030903381537646
1761915581737252900,2.0892529296875,0.19551848044693468,0.007771364653855562,0.10734017504993826
1761915581747306800,2.099306640625,0.12262392462790012,0.03680120591372251,0.10266363460626453
1761915581757361000,2.10936083984375,-0.03028407910466194,0.030921354094892738,0.09059176888004876
1761915581767416000,2.119416015625,-0.12800854027569294,0.05329495233595371,0.14387000754321924
1761915581777470000,2.129469970703125,-0.10124211390316486,0.03495250930711627,0.1565497577684
1761915581787524000,2.139524169921875,0.01715980911552906,0.009045768503844738,0.1134864957852289
1761915581797578000,2.149577880859375,0.16416355724036694,0.031204408819973467,0.07124607165937777
1761915581807632000,2.1596318359375,0.2353068854779005,0.07323065590560436,0.0508959466365166
1761915581817685800,2.169685791015625,0.23210078291296957,0.08262041554152966,0.024109783517057073
1761915581827740000,2.179739990234375,0.23859306754171847,0.04612169970571994,0.031775852032378316
1761915581837793800,2.189793701171875,0.2640408125311136,-0.027290596377104518,0.04633192209003027
1761915581847848000,2.199847900390625,0.3011018384248018,-0.10618906878605484,0.0554933208967559
1761915581857901800,2.20990185546875,0.23245792578756808,-0.14763152463436127,0.05216886634889524
1761915581867957000,2.21995703125,0.0944604909390211,-0.1558935954146087,0.05309978595688007
1761915581878011000,2.230010986328125,0.0013958382725715636,-0.1278252926632762,0.06111164483572356
1761915581888064800,2.240064697265625,0.006856441766023636,-0.10517010100185871,0.08043274190467782
1761915581898119000,2.250118896484375,0.09903086759448052,-0.10038374350816011,0.0885936264659278
1761915581908172800,2.2601728515625,0.17261925089657307,-0.14168255310207606,0.07384325311230495
1761915581918227000,2.27022705078125,0.1768698940783739,-0.15261018982976673,0.023471595211373642
1761915581928280800,2.28028076171875,0.1431640238314867,-0.13754910655915736,-0.0032897257277742027
1761915581938335000,2.2903349609375,0.07910977707207202,-0.07495280352309346,-0.0009351071593351662
1761915581948388900,2.300388916015625,0.018622282883524893,0.0008691840499639511,0.03766316563845612
1761915581958443800,2.31044384765625,-0.015072481447458267,0.023611615603417156,0.04738596575418487
1761915581968498000,2.320497802734375,-0.037380174845457075,0.051233051370084284,0.06522118078009224
1761915581978551800,2.3305517578125,-0.14665245046913622,0.08999006752669811,0.09422782382746227
1761915581988606000,2.34060595703125,-0.3033995939731598,0.11137217051237822,0.13085729903662577
1761915581998659800,2.350659912109375,-0.3841933786094188,0.12009805941209196,0.16000227284245191
1761915582008710700,2.360710693359375,-0.34627485910356043,0.10563538042604922,0.12829241698468102
1761915582018764500,2.3707646484375,-0.18198212252557278,0.10108429299294948,0.11617965299249626
1761915582028818700,2.380818603515625,0.03244388748705387,0.06742080058306456,0.08698006292260252
1761915582038872600,2.39087255859375,0.1783686082035303,0.036692046450823544,0.045645049504144115
1761915582048927500,2.400927490234375,0.19059680613577365,0.03141439830884337,0.007867491105245426
1761915582058981400,2.4109814453125,0.14288812949955462,0.07362506205067038,0.02545896963630803
1761915582069035500,2.421035400390625,0.0455003529369831,0.07217033319771289,0.06310726649919525
1761915582079089700,2.431089599609375,-0.05705576617419719,0.08007087718918919,0.11970399119374342
1761915582089143600,2.4411435546875,-0.125643564710021,0.0967165993027389,0.17461564887817949
1761915582099197700,2.45119775390625,-0.06715922703742981,0.07385711724087596,0.20153900111177936
1761915582109251600,2.46125146484375,0.04254851739406586,0.045616088271141046,0.16239921444896607
1761915582119305700,2.4713056640625,0.09518471356034278,0.025494652871042488,0.1129149977738969
1761915582129359400,2.481359375,0.11676526172757148,0.0696995591700077,0.13481724304300732
1761915582139413500,2.49141357421875,0.16099486407637595,0.07482230901122093,0.14554321058560163
1761915582149468400,2.501468505859375,0.1613502533853054,0.0173214294180274,0.11537498554610646
1761915582159522600,2.5115224609375,0.10504442879557609,-0.024418255811184644,0.1307125842031557
1761915582169576400,2.521576416015625,0.0721919605076313,-0.05211217229217291,0.15827051714640109
1761915582179630600,2.531630615234375,0.09414777172803879,-0.06587342501059174,0.16606464162133633
1761915582189684700,2.541684814453125,0.15639526132643222,-0.04881751466095447,0.13917899104962125
1761915582199738600,2.551738525390625,0.17222645218670368,-0.02748158890455961,0.11991415421254932
1761915582209792500,2.56179248046875,0.13266659521460533,-0.033884880075603724,0.12450076961675659
1761915582219846400,2.571846435546875,0.08809797016978263,-0.05471271017938852,0.11490704837394877
1761915582229900500,2.581900634765625,0.0423071098536253,-0.11103402459919452,0.1204162585157901
1761915582239955500,2.59195556640625,0.009081716600060463,-0.1443346750460565,0.12080249962070956
1761915582250009600,2.602009521484375,0.08161328432559967,-0.1503720555141568,0.09159401385830715
1761915582260063500,2.6120634765625,0.0741354957908392,-0.08243746019005775,0.06294785185351502
1761915582270117600,2.62211767578125,-0.04717500815093517,0.0007962649442255496,0.07029815068424214
1761915582280171500,2.632171630859375,-0.10489829832315445,0.06702171826288103,0.10425946156349963
1761915582290225400,2.642225341796875,-0.06368599796891213,0.06286737506240606,0.05327013298852835
1761915582300279600,2.652279541015625,-0.0004506663769483566,0.03431435753405094,-0.013536830562108661
1761915582310333400,2.66233349609375,0.0853197376281023,0.01487213656976819,-0.02118185172282392
1761915582320387600,2.6723876953125,0.1806786387115717,-0.00727583622187376,-0.03011308818561956
1761915582330441500,2.68244140625,0.2139654067635536,-0.03548500874862075,-0.027554206616198642
1761915582340496600,2.69249658203125,0.12766717949211598,-0.04338716017529368,-0.024985739801102316
1761915582350550500,2.702550537109375,0.019299159231781958,0.04236176265031099,-0.01030251339955721
1761915582360604400,2.7126044921875,-0.00004325461983680725,0.17874971647560595,0.04104596734400839
1761915582370658600,2.722658447265625,0.040162499040365215,0.2101671835243702,0.0479200954637723
1761915582380712400,2.73271240234375,0.10982172619998454,0.15436623971685767,0.033135440814634785
1761915582390766600,2.7427666015625,0.13880115244686603,0.06356514806821942,0.05989700378237758
1761915582400820500,2.752820556640625,0.14069208076000214,-0.06897285233065485,0.07859012797898612
1761915582410874600,2.76287451171875,0.13408522984087468,-0.1696983950138092,0.09543024015347473
1761915582420928500,2.772928466796875,0.18729016580581664,-0.14028729935139417,0.12156870735338889
1761915582430983400,2.7829833984375,0.2329226206898689,-0.0204018597766757,0.11548016295363195
1761915582441037300,2.793037353515625,0.15432020861804485,0.09129325907975434,0.09874458886585198
1761915582451091500,2.803091552734375,0.046563013732433316,0.1544847515299916,0.09721804601885378
1761915582461145600,2.8131455078125,-0.030700843212008475,0.126132225009799,0.0878612844702322
1761915582471199500,2.823199462890625,-0.10351298144459724,0.06497633004039526,0.12646709212050772
1761915582481253600,2.833253662109375,-0.06695172176659107,-0.006964578315615653,0.18806346999956294
1761915582491307500,2.8433076171875,-0.006707388684153557,-0.08824322385936975,0.1652061798947863
1761915582501361700,2.853361572265625,0.06306874285340308,-0.13547156963273882,0.1457639680636581
1761915582511415600,2.86341552734375,0.13867898737192152,-0.1266148939602077,0.12661916827652603
1761915582521470500,2.873470458984375,0.17981763796806335,-0.12702654350101947,0.07009176422483288
1761915582531524400,2.8835244140625,0.18889643195867536,-0.08814882357418537,0.032462468889937736
1761915582541578500,2.89357861328125,0.17771511273086069,-0.029146453376859425,0.028444565884931942
1761915582551632600,2.903632568359375,0.1707178011894226,0.019596827004104853,0.05432371542837936
1761915582561686500,2.9136865234375,0.116594581335783,0.04524316330552101,0.06989432825685944
1761915582571740700,2.92374072265625,0.050800212910771365,0.044384646780043835,0.09811754300869069
1761915582581794600,2.933794677734375,0.033300212055444714,0.015002923342585562,0.10076477871499954
1761915582591848700,2.9438486328125,0.030322073027491566,-0.04018441861122846,0.0792949426469393
1761915582601902600,2.953902587890625,0.023605916514992713,-0.040623979072272776,0.06437190244041849
1761915582611957500,2.96395751953125,0.04139584022760391,0.02800444373488426,0.048164224684261715
1761915582622011400,2.974011474609375,0.09824585469663143,0.10145254178345203,0.034545508541958404
1761915582632065500,2.9840654296875,0.14700550169050694,0.1118595156379044,-0.016004587223887208
1761915582642119400,2.994119384765625,0.13842238226234913,0.10167115297019481,-0.02225888582020998
1761915582652173600,3.004173583984375,0.06550327652394772,0.07747165447622537,0.0009788230034755542
1761915582662227700,3.014227783203125,-0.03509527877867222,0.03479468839690089,0.05181449082011822
1761915582672281600,3.024281494140625,-0.05920446864068508,-0.012113923902809619,0.08598063095593825
1761915582682335500,3.03433544921875,-0.023092121773958203,-0.014582067582011223,0.08488707269872538
1761915582692390400,3.044390380859375,0.045317397585511204,0.014788842200487852,0.06915376642209012
1761915582702444500,3.054444580078125,0.08958148672580718,0.018600217182189224,0.048272758526075626
1761915582712498400,3.06449853515625,0.1704039129346609,0.00600815437361598,0.032680705617344936
1761915582722552600,3.074552490234375,0.2237514722406864,-0.024643004477769136,0.03005197139881784
1761915582732606500,3.0846064453125,0.12216741303205489,-0.006841974849253893,0.03151407299076672
1761915582742660600,3.09466064453125,0.01576981606185436,0.04972936880886555,0.10148516541142016
1761915582752714800,3.10471484375,-0.009295067089796065,0.052222208537906406,0.09731348748365416
1761915582762768400,3.114768310546875,0.006916647520661354,-0.0037079146072268483,0.06869980297635775
1761915582772822500,3.124822509765625,0.024132570737600324,-0.02978168254047632,0.060352419399679634
1761915582782877400,3.13487744140625,0.061626142829656595,0.0015767477974295615,0.09057077175779267
1761915582792931600,3.144931640625,0.10361235016584396,0.004928104051947594,0.08669745572209357
1761915582802985500,3.1549853515625,0.13879238461852073,-0.00011588146463036536,0.07234924256172962
1761915582813039600,3.16503955078125,0.11362111848294734,-0.03273249517008662,0.077859165089624
1761915582823093500,3.175093505859375,0.08129179728627205,-0.03620090193301439,0.08056969355680048
1761915582833147600,3.185147705078125,0.12109773797392845,-0.019554741428047417,0.06978404084937646
1761915582843201500,3.195201416015625,0.15899404564797878,0.0024237200155854226,0.06934479091558605
1761915582853255400,3.20525537109375,0.13969488641619682,0.024948563295602796,0.07908581167459487
1761915582863309600,3.2153095703125,0.05567921712398529,0.015803572200983763,0.0745718687809538
1761915582873364500,3.225364501953125,-0.025523732835054398,0.010030980148911475,0.07948709508501924
1761915582883418600,3.235418701171875,-0.0649766223013401,0.009351473452150821,0.077796959174145
1761915582893472500,3.245472412109375,-0.014922843843698502,0.046072015345096584,0.05920575184889603
1761915582903526700,3.255526611328125,0.03072890026271343,0.07535290875658393,0.05816947217029519
1761915582913580500,3.26558056640625,0.0325906024813652,0.09065481504574417,0.07951527086673305
1761915582923634400,3.275634521484375,0.02290858190059662,0.09302183643803,0.11115028052316046
1761915582933688600,3.2856884765625,0.001665302863717079,0.02705196531563997,0.09966561270090751
1761915582943742500,3.295742431640625,-0.02803717696070671,-0.02842515336498618,0.05433180740328971
1761915582953797600,3.305797607421875,0.00530862780213356,-0.017760989879071713,0.05225430700948927
1761915582963851500,3.3158515625,0.11612287217080593,0.0005159866981208324,0.052932649229047814
1761915582973905700,3.32590576171875,0.23413725717663764,-0.010160597877949476,0.02199968232817482
1761915582983959600,3.33595947265625,0.2785118209540844,-0.017383388738334178,0.01317392466700403
1761915582994013400,3.346013427734375,0.2649380536317825,-0.05501856125816702,-0.006030347939115018
1761915583004067600,3.356067626953125,0.19218202950060367,-0.07946458185911179,-0.00610671937726438
1761915583014121700,3.366121826171875,0.12770634245872498,-0.07383154440820217,-0.01652898669897113
1761915583024175900,3.37617578125,-0.010853986969590187,-0.06797916511818766,0.0035303980492753908
1761915583034229800,3.386229736328125,-0.0994230817824602,-0.055324266206473106,0.034832031582470516
1761915583044285000,3.396284912109375,-0.06689677670896053,0.00004866144731640816,0.049980585357267404
1761915583054338800,3.4063388671875,0.010599135425686836,0.05644187205955386,0.03759330157290678
1761915583064392700,3.416392822265625,0.04460428088009357,0.04428074801415205,0.009690489298303146
1761915583074446600,3.426446533203125,0.07305120768547058,0.021767887432873247,0.014520096845261286
1761915583084500700,3.436500732421875,0.061087798169255254,-0.005625877057760954,0.012609484300832263
1761915583094554600,3.4465546875,0.0008680150061845779,0.0010815116263926028,0.013226823898020665
1761915583104608800,3.45660888671875,-0.03439502155482769,0.0434419591024518,0.012270845197304151
1761915583114663000,3.466662841796875,-0.040678047347068785,0.08204524600207805,0.011403636192006524
1761915583124717800,3.4767177734375,0.010381693282723425,0.09530775541812181,-0.00544505886444822
1761915583134771700,3.486771728515625,0.08785364001989364,0.0772916217342019,-0.036262064385588745
1761915583144825600,3.49682568359375,0.14483283382654188,0.0634327538602054,-0.04781683601869736
1761915583154879700,3.506879638671875,0.14760463662743567,0.024386691629141567,-0.029158417809288947
1761915583164933600,3.51693359375,0.09759060565829276,-0.006631254708021879,-0.006743479485908755
1761915583174987800,3.52698779296875,0.06713467711806297,0.02068126123994589,0.041591737259039654
1761915583185041700,3.537041748046875,0.05027297416627407,0.04498889628350734,0.05427213593819178
1761915583195095800,3.547095703125,0.018042437168955802,0.05914338610321283,0.052724047979665914
1761915583205150000,3.55714990234375,-0.008547463592886924,0.07879793464392423,0.05936988376888912
1761915583215204600,3.56720458984375,0.015005845952033995,0.053897740534693,0.09291837606355548
1761915583225258800,3.5772587890625,0.06570026040077209,-0.012654022128880024,0.11102361280303448
1761915583235312600,3.587312744140625,0.11659925751090049,-0.06008168986663222,0.1322418669965118
1761915583245366800,3.59736669921875,0.14535890352725983,-0.08807926546931266,0.17484118299605325
1761915583255420700,3.607420654296875,0.13149872047901154,-0.06461261129453778,0.17952287453887983
1761915583265474800,3.617474853515625,0.05854220533967018,-0.014132862509787082,0.17750130558339877
1761915583275528700,3.62752880859375,-0.04438976134657859,0.016424626708775758,0.17616695170709862
1761915583285582800,3.637582763671875,-0.08553951785862446,0.023903438156843183,0.17934799289600922
1761915583295637000,3.647636962890625,-0.02538286305963993,0.00025397476106882094,0.1696681094733998
1761915583305691600,3.657691650390625,0.11066343772113323,-0.054068859317898746,0.14292346567441708
1761915583315745800,3.667745849609375,0.24345745870769023,-0.06539207123443484,0.16302487206663935
1761915583325799700,3.677799560546875,0.29406594843864436,-0.08189867713823915,0.1623906292837113
1761915583335853800,3.687853759765625,0.28028292227983476,-0.09711188223063945,0.12834135242663322
1761915583345907700,3.69790771484375,0.22115385696291923,-0.06016366906166076,0.0934089908584021
1761915583355961900,3.7079619140625,0.13310031045675277,-0.03492006834223866,0.06089341267489362
1761915583366015700,3.718015625,0.11071312208175658,-0.0022134382657706736,0.04540926798689179
1761915583376070000,3.72806982421875,0.12941606898605823,0.059749973694235084,0.05868320297924801
1761915583386124800,3.738124755859375,0.11351181288957596,0.09702347329482436,0.10533751172432676
1761915583396178700,3.7481787109375,-0.039000469523668285,0.10342106537744403,0.12826199444695374
1761915583406232800,3.75823291015625,-0.20674305429458617,0.11026873931512236,0.16829725951161234
1761915583416286700,3.76828662109375,-0.23033318871855735,0.1361189276255667,0.17316610765699297
1761915583426340900,3.7783408203125,-0.08094634484946728,0.13216127604097128,0.11777359851989895
1761915583436394800,3.788394775390625,0.020872692158818245,0.09548632685542106,0.086774886606168
1761915583446449000,3.798448974609375,0.17611702988445757,0.0828428261205554,0.07647251477050594
1761915583456502800,3.808502685546875,0.23681086030006407,0.02304097610861063,0.0702816242411267
1761915583466557700,3.8185576171875,0.2242436396718025,-0.03867094530835748,0.035147739618271584
1761915583476611800,3.82861181640625,0.13833996467590332,-0.09607888592109083,0.003086513039562851
1761915583486665700,3.838665771484375,0.1084942769885063,-0.0811152716755867,0.031664637609710916
1761915583496720000,3.848719970703125,0.09624620531201362,-0.03411664300486445,0.056566265624202784
1761915583506773800,3.858773681640625,0.06546762068867683,0.0009922259077429771,0.07467155716260895
1761915583516828000,3.868827880859375,0.007093757653236389,0.06131327748820185,0.11553514454388059
1761915583526881800,3.8788818359375,-0.03041092035472393,0.09083762426674366,0.14207763510057703
1761915583536935700,3.888935791015625,-0.07179331657886505,0.032115093924105165,0.1486771794960834
1761915583546989600,3.898989501953125,-0.006686345896124839,-0.0347474882543087,0.1348154986104928
1761915583557044700,3.909044677734375,0.12522796964645386,-0.057622898537665605,0.09997074226047843
1761915583567099000,3.919098876953125,0.19568565370738505,-0.06857245483621954,0.04681431704580318
1761915583577152800,3.92915283203125,0.16084230386316775,-0.03960340385288,0.026493609913671386
1761915583587207000,3.93920703125,0.0623451047539711,0.020589637433737516,0.04742337058854755
1761915583597260800,3.9492607421875,-0.028589550146460533,0.05187281057834625,0.03611559826973826
1761915583607315000,3.95931494140625,-0.025130934125185012,0.024540859277546404,0.014521656331396661
1761915583617368600,3.96936865234375,0.050367082190513605,-0.00737798142209649,0.014763958920980803
1761915583627422700,3.979422607421875,0.1604956823825836,-0.02555690445229411,0.01232004093416035
1761915583637478000,3.989477783203125,0.2783849797040224,-0.04630947736278176,0.016477717736037446
1761915583647531800,3.99953173828125,0.32614450974464415,-0.08564224758073687,-0.021285958267981187
1761915583657586000,4.0095859375,0.24838965441286562,-0.10321706723794341,-0.05328367289011366
1761915583667639800,4.019639892578125,0.06859948897361755,-0.03466434001550078,-0.02833169379471801
1761915583677694000,4.02969384765625,-0.07053659451603889,0.07422814251035452,0.046698248351505024
1761915583687747800,4.039747802734375,-0.06520984653532505,0.11764715912863612,0.05031052969768643
1761915583697801700,4.0498017578125,-0.014170564171671866,0.10975625974833965,0.0025218557609710843
1761915583707855600,4.059855712890625,0.0657218877106905,0.11979849194362759,0.008527809044346213
1761915583717910800,4.069910888671875,0.15349311014413833,0.1374421390533447,0.011508263326971791
1761915583727965000,4.07996484375,0.194354112842679,0.1299922614388168,-0.01708434642625507
1761915583738018800,4.090018798828125,0.17784020041525364,0.11622209476158023,-0.032448472330626095
1761915583748073000,4.100072998046875,0.12039338909685611,0.1137241404660046,-0.03255566359872464
1761915583758126800,4.110126953125,0.05568155521154403,0.12127440971508621,0.026542211995483376
1761915583768180700,4.1201806640625,-0.004760346269607543,0.06716141899451614,0.052256768394634126
1761915583778234600,4.130234619140625,0.017595277923345566,0.01942424691617489,0.05097323595669586
1761915583788288800,4.140288818359375,0.11515899557471275,0.039122780729085205,0.04161619128028396
1761915583798342700,4.1503427734375,0.22743103753626345,0.06925619931668042,0.04567163611697033
1761915583808397800,4.160397705078125,0.2832990552306175,0.07119564294666052,0.03384178528597113
1761915583818452000,4.170451904296875,0.21540333061218261,0.02585091896280646,0.018967201030789874
1761915583828505900,4.180505859375,0.03885141644179821,-0.01734364124983549,0.06209607102950103
1761915583838559700,4.190559814453125,-0.008869535154104232,-0.017645108414441345,0.1154361685482785
1761915583848613600,4.200613525390625,0.0828928027421236,-0.024029548754543065,0.11712101636268198
1761915583858667800,4.210667724609375,0.1680512123286724,-0.008803776441514491,0.09472063057939521
1761915583868721700,4.2207216796875,0.15429799678623676,0.018747662828862664,0.10066002143258228
1761915583878775800,4.23077587890625,-0.021290040788054465,0.00395487510561943,0.16613461985131725
1761915583888830700,4.240830810546875,-0.19633330396115778,-0.009275193345546722,0.22637277892129495
1761915583898884900,4.250884765625,-0.22925766844153403,-0.056872226300835604,0.21779680161997675
1761915583908939000,4.26093896484375,-0.05976911678612232,-0.04645779979228973,0.1629853437738493
1761915583918992600,4.27099267578125,0.15835340965688227,-0.0397404742360115,0.057275071480683976
1761915583929046800,4.281046875,0.31140052959918973,-0.05082008665502071,-0.016076644388167187
1761915583939100700,4.2911005859375,0.36420799067914483,-0.06612272359654307,0.004684093562467024
1761915583949154800,4.30115478515625,0.2778092256426811,-0.10517433878555893,0.04770920635918155
1761915583959208700,4.311208740234375,0.10063830279111861,-0.14250044535622,0.07325684979278593
1761915583969263900,4.321263916015625,-0.0029307927548885343,-0.12945070190802216,0.0745492002914194
1761915583979317800,4.33131787109375,0.006617956835031509,-0.0626839813195169,0.03591731748497114
1761915583989372000,4.341371826171875,0.063085693988204,0.07309680039286613,0.00845994970621541
1761915583999425800,4.35142578125,0.10569850879013538,0.18425152876228093,0.0009209051040466875
1761915584009482800,4.361482666015625,0.15630349138975141,0.2194018987290561,0.012066860757535323
1761915584019536600,4.37153662109375,0.09668225864171981,0.12409925787746906,0.004913783265650272
1761915584029590800,4.3815908203125,-0.03100771720409393,0.0496615642696619,0.05253892807057127
1761915584039644700,4.391644775390625,-0.0749672704398632,0.0595509439907968,0.12047831830079667
1761915584049699800,4.401699951171875,-0.07730418895483017,0.06451382709518075,0.12885324747152627
1761915584059754000,4.41175390625,-0.009756254860758781,0.08523235160559416,0.08892409139615483
1761915584069807900,4.421807861328125,0.11361994943916796,0.10163140548169612,0.03009320530821569
1761915584079861800,4.43186181640625,0.19567747040092945,0.12698591922968624,-0.004240176586713641
1761915584089915600,4.44191552734375,0.17102818231284617,0.1251379532754421,-0.016428334769513456
1761915584099969800,4.4519697265625,0.08500000415444374,0.09032207596004009,8.585165254771709e-7
1761915584110023700,4.462023681640625,0.0071843585461378095,0.02124430195018649,0.019825375062972307
1761915584120077800,4.472077880859375,0.030747604963183402,0.00920490458831191,0.060703347162622955
1761915584130133000,4.482133056640625,0.07592354825139046,0.02236453815177083,0.09637371328235603
1761915584140187000,4.492186767578125,0.10388356832265853,0.043618484713137146,0.08236118008345365
1761915584150241000,4.502240966796875,0.11313421174883842,0.07443140999749302,0.06773884442313574
1761915584160294700,4.512294677734375,0.12635609689354896,0.08300064703077077,0.06173375878944062
1761915584170348800,4.522348876953125,0.10770283434987067,0.0748012662231922,0.10252530384780839
1761915584180402700,4.532402587890625,0.06310673677623271,0.022541794414818284,0.1314757414622232
1761915584190456800,4.542456787109375,-0.043159342768788335,-0.04635127067789435,0.13116865740758366
1761915584200510700,4.5525107421875,-0.1095271271675825,-0.07279796357676387,0.16070066690277307
1761915584210566000,4.56256591796875,-0.12838964854776858,-0.06013721944615245,0.1501321914768312
1761915584220620000,4.5726201171875,-0.02344575751721859,-0.02329845800101757,0.14591798044843599
1761915584230673700,4.582673583984375,0.1201671791255474,0.0005928513266146183,0.13947160818749108
1761915584240727800,4.592727783203125,0.22648937277197836,-0.05726926279440522,0.1152241697654128
1761915584250781700,4.60278173828125,0.26657529944479463,-0.13859876174256205,0.11732457611076533
1761915584260835800,4.6128359375,0.29277006340920925,-0.17375614597201347,0.12331219915300606
1761915584270889700,4.6228896484375,0.2703407894581556,-0.19968159147575495,0.13980024648681283
1761915584280943900,4.63294384765625,0.1309685591250658,-0.21667539637461303,0.16159748787833378
1761915584290997800,4.642997802734375,0.032357378247380254,-0.1664073906444013,0.1896360165459104
1761915584301053000,4.653052978515625,0.08507540747821331,-0.12232143454998731,0.13795635391948743
1761915584311106800,4.66310693359375,0.17777298039793968,-0.03979088924899697,0.09658542893743143
1761915584321160700,4.67316064453125,0.12561843026876449,0.021404168687015772,0.07349433007678016
1761915584331214800,4.68321484375,-0.00033610008656978605,0.07694193151369691,0.08428895154194906
1761915584341268700,4.693268798828125,-0.11053133577406406,0.09745163557901979,0.10387978719668463
1761915584351323000,4.703322998046875,-0.08324059326648711,0.06864011324495077,0.0971830843033269
1761915584361376800,4.713376708984375,0.018922142612934113,0.030652766286581753,0.06411903735762461
1761915584371431000,4.723430908203125,0.15842413680553435,-0.0033763445653021335,0.03735341470269486
1761915584381482800,4.733482666015625,0.1890571754783392,-0.01605374756976962,0.025628490117471665
1761915584391536600,4.74353662109375,0.18566577947437762,-0.05265840799808502,0.010323423756845295
1761915584401591800,4.753591796875,0.17710662544369696,-0.07511588513031602,0.016999303057882935
1761915584411646000,4.76364599609375,0.17860650861263275,-0.06209244516715407,0.01947625109804794
1761915584421699800,4.773699951171875,0.1665215185433626,-0.04471826264858245,-0.018148929750733078
1761915584431754000,4.78375390625,0.14282207852602005,-0.0009147767573595046,-0.03732975983247161
1761915584441808000,4.793807861328125,0.07965162886381148,0.04634513319805264,-0.05063778889067471
1761915584451861800,4.80386181640625,-0.012408230674266815,0.06809986888840794,-0.02297037682412192
1761915584461915600,4.81391552734375,-0.11145488035976886,0.053297144293040034,0.018787209387961773
1761915584471969800,4.8239697265625,-0.16150865881741047,0.027902006273716688,0.07167436637431383
1761915584482025000,4.83402490234375,-0.19206980129778384,0.005382423690706491,0.1199170585556887
1761915584492078800,4.844078857421875,-0.15791852537095546,0.005870499468594789,0.1335382452162914
1761915584502133000,4.854133056640625,-0.08183481812179089,-0.0062118602521717544,0.12458307760534808
1761915584512187000,4.864186767578125,-0.004824643677473068,0.006692337245494127,0.12563587459390982
1761915584522240800,4.87424072265625,0.061598670300841325,-0.009608370822668076,0.10011981360865756
1761915584532294700,4.884294677734375,0.09357844740748406,-0.03887947349250316,0.07726544611332938
1761915584542348800,4.894348876953125,0.08783318175375461,-0.049952510040253396,0.07296959381662309
1761915584552402700,4.904402587890625,0.07085282085835934,-0.05089432093501091,0.0753267696683295
1761915584562457900,4.914457763671875,0.07966974904239177,-0.02708309110626578,0.07687920500840992
1761915584572512000,4.924511962890625,0.051045712104439735,0.04561418857499957,0.08629579785233363
1761915584582566000,4.93456591796875,-0.009673837274312973,0.07037818908393383,0.0919001937306486
1761915584592619800,4.944619873046875,-0.09257248523533344,0.04252060647383332,0.07862533628968521
1761915584602673700,4.954673583984375,-0.17051438757181167,0.0027514906652271747,0.07758057647710666
1761915584612727800,4.964727783203125,-0.15940438001453874,0.013258856154233216,0.11052086917897685
1761915584622781700,4.97478173828125,-0.1350204648643732,-0.02144055517464876,0.14227142237331716
1761915584632835800,4.9848359375,-0.072300681579113,-0.009069587770849466,0.11162691245842725
1761915584642891000,4.99489111328125,-0.01698328350484371,0.023538404236733913,0.07627667253799736
1761915584652945000,5.00494482421875,0.014206220006942749,0.0691710052512586,0.035551680776663125
1761915584662999000,5.0149990234375,0.11491408090293406,0.07726210337877273,-0.019452596227824685
1761915584673052700,5.025052734375,0.23224282173216343,0.08695698344111442,-0.054133522051945326
1761915584683106800,5.03510693359375,0.3038987756669521,0.08322247308790683,-0.050791773875989016
1761915584693160700,5.04516064453125,0.31288170806765553,0.04322247113287449,-0.05561079153027385
1761915584703214800,5.05521484375,0.20749358040094373,-0.016308891374617815,-0.031443843599036334
1761915584713268700,5.065268798828125,0.12205927648246287,-0.0011509236007928847,0.0006933890916407107
1761915584723324000,5.075323974609375,0.03123392717540264,0.0084777593575418,0.01602890538945794
1761915584733378000,5.0853779296875,-0.017588263660669325,0.0194945356734097,0.04010810197200626
1761915584743431700,5.095431640625,0.004205634996294975,0.06644318772256375,0.08763101024515926
1761915584753485800,5.10548583984375,0.03514905479252338,0.07078764666765928,0.10795483634956181
1761915584763539700,5.115539794921875,0.0407470209300518,0.05047828748002648,0.1073613639684394
1761915584773593900,5.12559375,0.053476738643646236,0.01857230626195669,0.1393281354630366
1761915584783647700,5.135647705078125,0.12947276760935783,-0.023942601123452187,0.13900836545675993
1761915584793702000,5.145701904296875,0.2448527124583721,-0.05553513247817755,0.10662406266983598
1761915584803756800,5.1557568359375,0.30632980220615863,-0.02901566660404205,0.10232205462697892
1761915584813811000,5.16581103515625,0.3057552171885967,-0.008132745312154292,0.09351604969576001
1761915584823864600,5.175864501953125,0.2760439695358276,-0.012885785058140755,0.09564615705963224
1761915584833918700,5.185918701171875,0.2668997090935707,-0.021444500697404147,0.09677242114320397
1761915584843972900,5.195972900390625,0.24469021537303923,-0.045195963162928815,0.09878069222569465
1761915584854026800,5.20602685546875,0.23398937313854692,-0.07790157032608985,0.10903141607251017
1761915584864081000,5.216080810546875,0.26425708563029765,-0.0935679260134697,0.10572397202495484
1761915584874134800,5.226134765625,0.268572026219964,-0.13521847165450454,0.08570113816112279
1761915584884190000,5.23618994140625,0.22307518041431904,-0.16616028401553629,0.06439652085844427
1761915584894243800,5.246243896484375,0.11773381449878215,-0.1287355393759906,0.04654916787017137
1761915584904297700,5.256297607421875,-0.025669278785586357,-0.004389905522018671,0.07692585716173052
1761915584914351600,5.2663515625,-0.13642857809662817,0.09997574722915888,0.09303834918141364
1761915584924405800,5.27640576171875,-0.13974223268926142,0.14866495933532714,0.08058584097400308
1761915584934460000,5.2864599609375,-0.05009411046802997,0.10430296277850866,0.07454035026468336
1761915584944513800,5.296513671875,0.04636135368049144,0.0478010310947895,0.055993470704928036
1761915584954568000,5.30656787109375,0.09474749118685721,0.01534092312529683,0.03842862445246428
1761915584964624000,5.316623779296875,0.05473287618458271,0.030466742195189,0.04899754740297794
1761915584974677800,5.326677734375,0.0631166736483574,0.05936243568137288,0.06439516915157437
1761915584984732000,5.33673193359375,0.10809563305974006,0.0407949517250061,0.04514865342248231
1761915584994785800,5.346785888671875,0.15213234318494795,0.02040975082218647,0.02371189764011651
1761915585004841000,5.356841064453125,0.168508892968297,0.010267419253289698,0.04510583719406277
1761915585014890800,5.366890869140625,0.13021335684359073,0.013084668631106614,0.06793426653053611
1761915585024945000,5.37694482421875,0.0832592979669571,0.030366496691107747,0.07144293223861604
1761915585034998500,5.38699853515625,-0.000412087932229042,0.06310322964489459,0.040697628830373284
1761915585045052700,5.397052734375,-0.11736264309883117,0.1325301093533635,0.0420904348956421
1761915585055106600,5.4071064453125,-0.16600655475854872,0.15253127937465905,0.06498491520565003
1761915585065160700,5.41716064453125,-0.12034779638946055,0.11362111848294734,0.05927881251852959
1761915585075214600,5.427214599609375,-0.04740414073169231,0.04485284881368279,0.03481858072914183
1761915585085269800,5.437269775390625,-0.0007873509854078293,0.0034349428847432134,0.02089278509877622
1761915585095324000,5.447323974609375,0.021417466560006142,-0.025429332549870013,0.03732007868867367
1761915585105377800,5.457377685546875,0.038116087904572486,-0.056323214115947484,0.012870222162827849
1761915585115431700,5.467431640625,0.09473813883662223,-0.03343479822054505,-0.008067534588836134
1761915585125485600,5.477485595703125,0.1394347741752863,0.011019991186261176,-0.008992759674973785
1761915585135539700,5.487539794921875,0.1350771634876728,0.024809739346802234,0.027008929891511796
1761915585145593600,5.497593505859375,0.10416998404860496,0.0325298122048378,0.0430612161565572
1761915585155648800,5.507648681640625,0.04364098880589008,0.018190905728936193,0.042549649905227124
1761915585165702700,5.51770263671875,0.038114334338903426,0.023373715194314717,0.05741097282003611
1761915585175756800,5.5277568359375,0.04606558560431003,0.025257336983829735,0.05752791373059153
1761915585185810700,5.537810791015625,0.0009247136294841766,0.022017039888352154,0.055055203474126756
1761915585195864600,5.547864501953125,-0.029962592065334318,0.027221915055066347,0.03616831483766436
1761915585205918700,5.557918701171875,-0.06090192020833492,0.00765402188450098,0.05304448470622301
1761915585215972600,5.56797265625,-0.06021276890039444,0.01845525575354695,0.07644684147313237
1761915585226026800,5.57802685546875,-0.011551906105875968,0.03806450384780764,0.07357676592953502
1761915585236081700,5.58808154296875,0.0836859989464283,0.06483838287442922,0.07397562905400991
1761915585246135800,5.5981357421875,0.13897884710133074,0.059032911466062064,0.04563512176517397
1761915585256189700,5.608189697265625,0.10801146190762519,0.03068462272956967,0.033296156934835015
1761915585266243600,5.61824365234375,0.028235329881310462,0.04058437771424651,0.06568564735352993
1761915585276297700,5.628297607421875,-0.0442284333050251,0.05493935854211449,0.10332958770170807
1761915585286351600,5.6383515625,-0.024793080472946167,0.09398995081782341,0.09763064540773629
1761915585296405800,5.64840576171875,0.07054653138816357,0.09618906829729676,0.09998159244805574
1761915585306459600,5.658459716796875,0.17547464032769203,0.04095189585238695,0.08665628346148878
1761915585316514800,5.668514892578125,0.2675526200443506,-0.05375263297557831,0.08724774654861539
1761915585326568700,5.678568603515625,0.2520458388328552,-0.16125746053531764,0.10079199551548808
1761915585336622600,5.68862255859375,0.1432289057612419,-0.23212372539713977,0.1158634905822575
1761915585346676500,5.698676513671875,0.05073708454668521,-0.21510361701324582,0.12235950153805315
1761915585356730600,5.708730712890625,0.02716214769184589,-0.16505217664316296,0.12708868548441676
1761915585366784800,5.71878466796875,0.0633510669261217,-0.0878755595907569,0.10851097239498049
1761915585376838700,5.728838623046875,0.08700783684551715,-0.041232904750853776,0.09429879757128655
1761915585386893800,5.738893798828125,0.08180909915864468,-0.049979690308123825,0.09463683388661592
1761915585396947700,5.74894775390625,0.05900222406685352,-0.0729838415376842,0.08199464832600206
1761915585407001900,5.759001953125,-0.03788111010491848,-0.059692398288100953,0.09945289239883422
1761915585417055500,5.769055419921875,-0.11217968750298023,-0.03127513596862554,0.1278604370418936
1761915585427109600,5.779109619140625,-0.08791033864319324,-0.012403992890566587,0.11959496872816235
1761915585437163500,5.78916357421875,0.0016115268498659134,0.006550736817717551,0.1019950876949355
1761915585447217700,5.7992177734375,0.13611293627619742,0.006739829649031162,0.09087532592862844
1761915585457271600,5.809271484375,0.25000059674084185,-0.04136281474083662,0.09209580763429402
1761915585467326700,5.81932666015625,0.24268004459440706,-0.06963482337072491,0.06315912455059587
1761915585477380900,5.829380859375,0.11095569866597652,-0.0595313625074923,0.07482132263053208
1761915585487434800,5.839434814453125,-0.013764905980229378,-0.0037498540528118607,0.10232125090938061
1761915585497488600,5.849488525390625,0.022424597775936125,0.041027006915211675,0.07278053751792758
1761915585507542500,5.85954248046875,0.15429975035190582,0.05420680648386478,0.027317009459994733
1761915585517596700,5.8695966796875,0.20013737241923807,0.04119549534991383,-0.00354603857640177
1761915585527650600,5.879650634765625,0.13751871142089367,0.030636691934615372,0.015916823317110536
1761915585537704700,5.88970458984375,0.1049088197171688,0.06263663504645228,0.028862850662507114
1761915585547759900,5.899759765625,0.05429623833298683,0.07707476411312818,0.036691863787733016
1761915585557813800,5.909813720703125,0.009913491249084472,0.09178601103276014,0.05448054539132863
1761915585567867600,5.91986767578125,-0.02493628833591938,0.06366933909505605,0.07451331612728536
1761915585577921500,5.929921630859375,-0.010568740287423134,0.04566694167554378,0.07509473274443298
1761915585587975700,5.9399755859375,0.03579845861196518,0.06927037397250532,0.06155811909474432
1761915585598029600,5.950029541015625,0.010229717591404914,0.08306377539485693,0.04831741965170949
1761915585608083700,5.960083740234375,-0.014196867656707763,0.11181114645153284,0.09099544517695904
1761915585618137600,5.9701376953125,0.022965280523896216,0.09381956268697976,0.11357329728584736
1761915585628192800,5.98019287109375,0.1323854401856661,0.0458709398150444,0.11405304362680763
1761915585638246700,5.99024658203125,0.20674948403537272,-0.0404094595387578,0.0906941606754437
1761915585648300500,6.000300537109375,0.18306231897771358,-0.07114478954225778,0.10452014919314533
1761915585658354700,6.010354736328125,0.07355448103249072,-0.09290595497339964,0.14513229169715194
1761915585668408600,6.02040869140625,-0.06251812323331833,-0.12023118427246808,0.16217340633645652
1761915585678462700,6.030462646484375,-0.08197627241909504,-0.08649667245298623,0.20615634044781325
1761915585688516600,6.0405166015625,0.014296820899844168,-0.04193199293091893,0.19910777364317325
1761915585698571800,6.05057177734375,0.11440788494646549,0.018545856646448373,0.16171050153244285
1761915585708626000,6.0606259765625,0.2030558902144432,0.03617006840333342,0.12242303176093845
1761915585718679600,6.070679443359375,0.18109540281891823,0.016436317146569488,0.08564334355928004
1761915585728733700,6.080733642578125,0.1029261214673519,-0.03436009637191891,0.08566380182541906
1761915585738787600,6.09078759765625,0.06888999635279178,-0.08812178943678736,0.10325422091055661
1761915585748841700,6.100841796875,0.0663578475266695,-0.07165712297856808,0.1269180416252464
1761915585758895600,6.1108955078125,0.10805822365880012,-0.049221273156255484,0.09093333972617983
1761915585768949800,6.12094970703125,0.09404255778789519,-0.01677197884172201,0.05270787316299975
1761915585779004700,6.131004638671875,0.10072773464024067,0.02732537542954087,0.03794098706599325
1761915585789058600,6.14105859375,0.11982815642952918,0.00602510550841689,0.027223668620735407
1761915585799112700,6.15111279296875,0.13386486508846282,-0.04336553286537528,0.00929137729536742
1761915585809166600,6.16116650390625,0.1686643757909536,-0.07684519314095377,0.019620828934200106
1761915585819220700,6.171220703125,0.21155776109993457,-0.09712021166756749,0.018072759241983292
1761915585829274600,6.181274658203125,0.2318026767492294,-0.09541253096684812,0.012637618983350694
1761915585839328800,6.191328857421875,0.2232370929777622,-0.06580941986367106,-0.005712715090997517
1761915585849382700,6.201382568359375,0.16581892323195932,-0.006241963129490613,-0.012506722612679004
1761915585859437800,6.211437744140625,0.11878536937832831,0.05175400650426745,-0.03289539411421865
1761915585869491500,6.221491455078125,0.06942717196941375,0.08542407478541135,-0.03618062632996589
1761915585879545600,6.231545654296875,-0.02024842278063297,0.10805851591974497,-0.009061404464393854
1761915585889599700,6.241599853515625,-0.08107844679653645,0.1599002007074654,0.015932057418860494
1761915585899653600,6.251653564453125,-0.07186638181507587,0.16215455550551414,-0.002709916545823216
1761915585909707800,6.261707763671875,0.018577274698019026,0.11242007213011383,-0.02068370892535895
1761915585919761700,6.27176171875,0.10035188706517219,0.056008595208823675,-0.05104129165764898
1761915585929816800,6.28181689453125,0.1198971300125122,0.006737199300527573,-0.046686274785920974
1761915585939870700,6.29187060546875,0.042969957676529884,-0.001095101760327816,-0.03244648130293935
1761915585949924600,6.301924560546875,-0.11612988643348217,0.03871054666638374,0.03124094143807888
1761915585959978500,6.311978515625,-0.26093290964365,0.06034603989124298,0.09588679741509258
1761915585970032600,6.32203271484375,-0.27286592402160165,0.04746610005199909,0.11448040219340473
1761915585980086800,6.332086669921875,-0.11507190181314944,0.031024814469367265,0.09873151932172476
1761915585990140700,6.342140625,0.01941021839082241,0.0010607610993087291,0.08225260514244437
1761915586000194800,6.35219482421875,0.11712065103650092,-0.04918590958192944,0.10522818786464631
1761915586010253800,6.36225390625,0.18820318899750707,-0.12115604403242468,0.13414335323628038
1761915586020307700,6.3723076171875,0.22562661846280097,-0.15797157073244453,0.11446783497277646
1761915586030361900,6.38236181640625,0.16432020910680292,-0.1649452091373503,0.11746292513553053
1761915586040415700,6.392415771484375,0.053531683701276776,-0.11180603188499807,0.1542605143200606
1761915586050470000,6.402469970703125,-0.0007867664635181426,-0.05354103605151176,0.17345372895933686
1761915586060523800,6.412523681640625,0.012869418445229529,-0.023548341108858582,0.17000903186555952
1761915586070578000,6.422577880859375,0.02633972539305687,-0.005337269374728203,0.15851718538384885
1761915586080631800,6.4326318359375,0.042592356535792346,0.06197904792055487,0.1259580009540543
1761915586090686700,6.442686767578125,0.05053659353852272,0.1305319212734699,0.09756148916166275
1761915586100740900,6.452740966796875,0.0704623602360487,0.14939619621932507,0.05953348139934241
1761915586110794800,6.462794677734375,0.09982698640823363,0.12658961338847874,0.009301606428436934
1761915586120849000,6.472848876953125,0.15119477007389068,0.08637713772654533,-0.001752287027426064
1761915586130902800,6.48290283203125,0.20477964526712894,0.03652516545131802,0.028622100709192452
1761915586140957000,6.49295703125,0.26385551909208294,0.035443507694453,0.028640951540134844
1761915586151010800,6.5030107421875,0.25502047072947026,0.03435702763199806,0.01146766188852489
1761915586161065700,6.513065673828125,0.18705518800616264,0.0728637222893536,0.01650565605573356
1761915586171119900,6.523119873046875,0.10851473525464535,0.14121990402638912,0.04778214373122901
1761915586181173800,6.533173828125,0.04515022432506084,0.2109713395141065,0.06111538029592484
1761915586191228000,6.543227783203125,0.008542787417769431,0.2231052832916379,0.03828337076287716
1761915586201281800,6.55328173828125,0.021412790384888646,0.16196531654372812,0.0010913023680448532
1761915586211336000,6.5633359375,0.10130874939858912,0.06972367069795728,-0.004233582449145614
1761915586221389800,6.573389892578125,0.14458733463287352,-0.018217939866334198,0.05270100503079593
1761915586231444000,6.58344384765625,0.141020582062006,-0.06863324511274695,0.08815923537034541
1761915586241498600,6.59349853515625,0.14099077144563196,-0.049360973887890576,0.09780432147420942
1761915586251552800,6.603552734375,0.12405132708251476,-0.0007817980274558067,0.09013740357551724
1761915586261607000,6.61360693359375,0.06120937872231006,0.06064560735970735,0.06397522670645267
1761915586271660800,6.623660888671875,0.04629880983829498,0.08088146291971206,0.051800695190206164
1761915586281715000,6.63371484375,0.10705986027121543,0.08028232798278331,0.017964622692391276
1761915586291768800,6.643768798828125,0.16841946111917494,0.03577536999732256,0.017449622374959287
1761915586301823000,6.653822998046875,0.1169517242103815,-0.0683791242212057,0.07564918828941881
1761915586311877600,6.663877685546875,0.06648468877673148,-0.1243972179107368,0.09008563685566186
1761915586321931800,6.673931884765625,0.06842413240671158,-0.12094254741221666,0.0736272174751386
1761915586331985700,6.683985595703125,0.09737725516855716,-0.06298164909183979,0.04496489435341209
1761915586342039800,6.694039794921875,0.08685060045719147,-0.018766952051222325,-0.00038388475105166435
1761915586352094000,6.704093994140625,0.024169980138540267,0.009046499156206846,-0.01179163314588368
1761915586362147800,6.71414794921875,-0.002303016245365143,0.06256254689693451,0.04521616570074111
1761915586372202000,6.724201904296875,-0.05008066646456718,0.027655484166741368,0.05620725958608091
1761915586382255900,6.734255859375,-0.050881461453437804,-0.04408493318110704,0.06794997555632144
1761915586392310800,6.744310791015625,0.025727146452665328,-0.07770926262438296,0.07870360742397606
1761915586402364700,6.75436474609375,0.14598960264623165,-0.08136135539114475,0.07228928340226412
1761915586412418800,6.764418701171875,0.24309505513608454,-0.04469590468630195,0.04858900313470512
1761915586422472700,6.77447265625,0.1821025340348482,-0.0031926585614681243,0.02800594157222658
1761915586432526800,6.78452685546875,0.009487959313392639,0.01077975268959999,0.05681757350414991
1761915586442580700,6.794580810546875,-0.12336626742780207,0.03707213180959224,0.11250606991313397
1761915586452635000,6.804634765625,-0.14519173026680945,0.0882766877375543,0.12674827454891055
1761915586462689000,6.81468896484375,-0.0790711986273527,0.10828604106530547,0.0979945468166843
1761915586472743700,6.82474365234375,-0.021094810476899147,0.12137070969641207,0.06518536968119443
1761915586482797800,6.8347978515625,0.08308861757516861,0.1107834108389914,0.07730817101020365
1761915586492851700,6.844851806640625,0.21053017161786555,0.03370323989838361,0.07237820379473268
1761915586502905900,6.85490576171875,0.2849298713028431,-0.09360562767535448,0.07773275309782475
1761915586512959700,6.864959716796875,0.29054829570651053,-0.150033178948611,0.09912256446592509
1761915586523014000,6.875013916015625,0.22749533494412896,-0.11066826002672314,0.08684362272713333
1761915586533067800,6.88506787109375,0.11044774914383887,-0.023589111510664222,0.06713266782406717
1761915586543122700,6.895122802734375,-0.010299275696277617,0.08749284388348459,0.060465099693648515
1761915586553176800,6.9051767578125,-0.0715904874831438,0.14075710882022976,0.06430610262863337
1761915586563230700,6.915230712890625,-0.04949439100921154,0.133833739297837,0.049659518443048
1761915586573284900,6.925284912109375,0.035927637949585915,0.117944826900959,0.05013710935954004
1761915586583338800,6.9353388671875,0.09972118794620037,0.045928953612595795,0.05561064539980143
1761915586593393000,6.945392822265625,0.11573825676739215,-0.049171004273742436,0.05197024307083338
1761915586603446800,6.95544677734375,0.05621113204360008,-0.08696063670292496,0.08096534181088208
1761915586613501000,6.9655009765625,-0.01748188067674637,-0.09557605096548795,0.1233973932184279
1761915586623555800,6.975555908203125,-0.040941666719317434,-0.08497486971318721,0.1202278963368386
1761915586633609700,6.985609619140625,0.06782265938222408,-0.02233019749075174,0.10171206950247287
1761915586643664000,6.995663818359375,0.16238602617383002,0.07262845222875476,0.09141125943623482
1761915586653717800,7.0057177734375,0.1399479843944311,0.12413725180029868,0.06375168361626565
1761915586663772000,7.01577197265625,0.01680208171904087,0.09779255797117949,0.08241977840289473
1761915586673825800,7.02582568359375,-0.13623100969791413,0.023321400485187768,0.1127681914480403
1761915586683880000,7.0358798828125,-0.14774141474962232,-0.04980521052405238,0.15068024468049407
1761915586693934800,7.045934814453125,-0.05856149456202984,-0.08642579917386174,0.17050485255848616
1761915586703988700,7.05598876953125,0.09920797772705554,-0.09140826376155019,0.14567403389103709
1761915586714043000,7.06604296875,0.2248188092112541,-0.06481310230270028,0.07895049485713243
1761915586724096800,7.0760966796875,0.21005846245288848,-0.02499240243732929,0.04253580404296517
1761915586734151000,7.08615087890625,0.09683189624547958,0.023339959055185315,0.0566771055875346
1761915586744204800,7.096204833984375,0.05776829835772514,0.049771162123978134,0.05991754881348461
1761915586754259000,7.106259033203125,0.12304653395414351,0.011259791291505098,0.03422342784758657
1761915586764312800,7.116312744140625,0.17249825486540793,-0.020920038431882858,0.03248871300946921
1761915586774367700,7.12636767578125,0.16171733313202857,-0.041042642875760794,0.043928719706088304
1761915586784422000,7.136421875,0.08262509171664714,-0.06338263110816478,0.07073876602463423
1761915586794475800,7.146475830078125,-0.02824059057831764,-0.05596811706796288,0.05511526309829205
1761915586804530000,7.156530029296875,-0.1175005902647972,0.015348375779390334,0.07474566357843578
1761915586814583800,7.166583740234375,-0.17956512451171874,0.09733911511525511,0.06193908123634755
1761915586824638000,7.176637939453125,-0.13689210395514964,0.1580234470501542,0.04709752246793359
1761915586834691800,7.18669189453125,0.014731120663881301,0.170820530911535,0.02122325916215777
1761915586844746000,7.19674609375,0.16188392187058925,0.1381879889845848,-0.0013522183265537023
1761915586854800600,7.206800537109375,0.18820026638805865,0.04937982471883297,0.011371508037671446
1761915586864854800,7.216854736328125,0.12693301999866963,-0.05189531467109918,0.06371814667284488
1761915586874909000,7.226908935546875,0.09607201778888702,-0.08397051497623324,0.09866389744561165
1761915586884962800,7.236962890625,0.0698088647633791,-0.06709668319523335,0.12940730115771293
1761915586895017000,7.247016845703125,0.041328620210289956,0.002483048987388611,0.1331078727087006
1761915586905070800,7.25707080078125,0.01894143183529377,0.08666793736666441,0.09322251010928302
1761915586915125000,7.267125,-0.00015080664753913878,0.12741802703663707,0.05626859785187989
1761915586925179600,7.2771796875,0.05287351205348968,0.20436127372458576,0.09466920178625732
1761915586935233800,7.28723388671875,0.11763619934320449,0.15118381028845906,0.08436320408824831
1761915586945287700,7.29728759765625,0.19722762245237827,0.052641164602339266,0.05487071375269442
1761915586955341800,7.307341796875,0.289769712549448,-0.037141397653520106,0.0618374474927783
1761915586965396000,7.31739599609375,0.3547843287736177,-0.1278800915904343,0.08636106337457895
1761915586975449900,7.327449951171875,0.3752116152524948,-0.19460428821146486,0.09445011567547917
1761915586985504000,7.33750390625,0.3278109816521406,-0.2301573937602341,0.05463727032300084
1761915586995558000,7.347557861328125,0.24104396782517432,-0.1648155914083123,0.03541756953559816
1761915587005612800,7.35761279296875,0.13968553406596182,-0.06997983741611243,0.040827136961556966
1761915587015663600,7.36766357421875,0.06245324130356311,-0.029969460197538135,0.03718092594631016
1761915587025717800,7.3777177734375,0.036470074263215066,-0.017107348275929687,0.043408641354739666
1761915587035771600,7.387771728515625,0.008961889612674712,-0.020325579670071602,0.04018748735114932
1761915587045825800,7.39782568359375,-0.05977087035179138,-0.02986263882219791,0.047224729044176635
1761915587055879700,7.407879638671875,-0.08732698579728602,-0.004019757035374641,0.05002177588418126
1761915587065933800,7.417933837890625,-0.08666355345249176,0.005554126995801926,0.021962496689520775
1761915587075988500,7.427988525390625,-0.09338380161821842,-0.0015165420427918433,0.022100736116431652
1761915587086042600,7.438042724609375,-0.05721124899685383,-0.009182838886976241,0.048900918628089124
1761915587096096800,7.4480966796875,-0.014179916521906852,-0.02200242684110999,0.048757089710608124
1761915587106150700,7.458150634765625,0.024055998370051384,-0.03712327747493982,0.024838088658452034
1761915587116204800,7.468204833984375,0.05722001682519912,-0.02482537530735135,-0.0026201924357563255
1761915587126258700,7.4782587890625,0.08638882816433906,0.020554712250828742,0.012348244115337728
1761915587136312800,7.488312744140625,0.11232698701918124,0.06334931336045264,0.005167173504829406
1761915587146366700,7.49836669921875,0.09266483969390392,0.03470277232974767,0.015319149684906004
1761915587156421600,7.508421630859375,0.05110241072773933,-0.02674830619394779,0.05298541146274656
1761915587166475500,7.5184755859375,0.04472118525803089,-0.08075535232201218,0.0918390929268673
1761915587176529700,7.52852978515625,0.11742810955047607,-0.10530658686310053,0.09801127875577657
1761915587186583800,7.538583740234375,0.14341770633161066,-0.09458893962427974,0.11839563940837979
1761915587196637700,7.5486376953125,0.12679507283270358,-0.020348229893296956,0.13000139459334314
1761915587206691800,7.55869189453125,0.10945932262837886,0.028122224895656106,0.10792831366881728
1761915587216745700,7.568745849609375,0.11428805795907973,0.05431099751070141,0.09537935934960842
1761915587226800600,7.578800537109375,0.11550152540206908,0.005042962603271008,0.07701583700012415
1761915587236854500,7.5888544921875,0.12658230686485766,-0.055786330760270356,0.0528479392208159
1761915587246908700,7.59890869140625,0.15009294631183145,-0.07833645461201667,0.031270496326126156
1761915587256962600,7.608962646484375,0.11095569866597652,-0.0710875063970685,0.04784318973608315
1761915587267016700,7.6190166015625,0.052907414323091505,-0.033804508315771815,0.04929821084998548
1761915587277070800,7.62907080078125,-0.028422376886010167,0.04603548272699117,0.033834282399527724
1761915587287124700,7.639124755859375,-0.12513678423166275,0.14177140042930841,0.04147317978013307
1761915587297178600,7.6491787109375,-0.17871464516222477,0.21128142837658523,0.056574229734949764
1761915587307232500,7.659232421875,-0.19059096091687677,0.2053160902313888,0.0656942690514028
1761915587317287700,7.66928759765625,-0.2042319482564926,0.1953814100638032,0.09511694555375724
1761915587327341600,7.679341552734375,-0.21672727269232273,0.19157792612761257,0.11981613719817251
1761915587337395700,7.689395751953125,-0.1501993292957544,0.10085019197613,0.11513970635235309
1761915587347449600,7.69944970703125,0.019835165804624556,0.009710223761945962,0.08687398133277893
1761915587357503700,7.709503662109375,0.28703531914949415,-0.03700418113991618,0.06491820664498954
1761915587367558000,7.719557861328125,0.46498540968000884,-0.10088131776675581,0.02989069587290287
1761915587377611500,7.729611572265625,0.48573885937333106,-0.13606529774218798,0.0202715844605118
1761915587387666700,7.739666748046875,0.414120899361372,-0.10140344194471836,0.04985489488467574
1761915587397720600,7.749720458984375,0.2568365802407265,-0.038537820447981354,0.05609667535107583
1761915587407774700,7.759774658203125,0.14184183531701564,0.03460588782653212,0.053538478768244385
1761915587417828600,7.76982861328125,0.09965221436321735,0.06296835121884942,0.08380988105442375
1761915587427882800,7.7798828125,0.1294213296830654,0.03182444041445851,0.058121751437895
1761915587437936600,7.7899365234375,0.179680275323987,-0.027572774319350717,0.06036302755866199
1761915587447990500,7.799990478515625,0.1562216583251953,-0.08138634370192885,0.06717552058510481
1761915587458044700,7.810044677734375,0.037405309286713595,-0.08420812312439084,0.05856112923584878
1761915587468099600,7.820099609375,-0.09188450297117233,-0.022447394129633903,0.06952475059237331
1761915587478153700,7.83015380859375,-0.07904372609853744,0.06270078632384539,0.07626501863282173
1761915587488207600,7.84020751953125,0.00025718963146209714,0.09605404374077915,0.03578695083726197
1761915587498261800,7.85026171875,0.062115972173213956,0.05596913998126983,-0.0030398426199331877
1761915587508315600,7.860315673828125,0.07489186711609364,0.009708470196276903,-0.00011595452986657619
1761915587518369800,7.870369873046875,0.05970540390014648,-0.03494476439207792,0.007937040076963603
1761915587528423400,7.88042333984375,0.03213525992929935,-0.06711451111286879,0.02733523923642933
1761915587538478600,7.890478515625,-0.008589549168944359,-0.07073065578341484,0.03952537018060684
1761915587548532700,7.90053271484375,0.010728899285197257,-0.028837679688632486,0.02415744945053011
1761915587558586600,7.910586669921875,0.04929857617616653,0.034880320853739974,0.017480784698203206
1761915587568640800,7.920640869140625,0.07467617853879928,0.08869900480285287,0.020975458413548767
1761915587578694700,7.930694580078125,0.0019885434687137602,0.09357757062464953,0.031668373069912194
1761915587588748800,7.940748779296875,-0.09187222801148891,0.031564035912603136,0.07429415695127099
1761915587598802700,7.950802734375,-0.12245265971422195,-0.01972352212369442,0.11018624866344034
1761915587608856600,7.960856689453125,-0.031019407641887663,0.0005744388870894909,0.11329915651958435
1761915587618911700,7.970911865234375,0.0936246246367693,0.018562807781249285,0.07063329635616392
1761915587628965600,7.980965576171875,0.12693652713000775,0.017676088074594736,0.025044278755038975
1761915587639019800,7.991019775390625,0.10675766245424746,-0.016732815875113008,-0.0013717632772400974
1761915587649073700,8.00107373046875,0.12786883954405784,-0.07415288531705737,0.027524697393923995
1761915587659127800,8.0111279296875,0.15692542268037796,-0.12597381957769394,0.08206880954075604
1761915587669181700,8.021181640625,0.16953531340658665,-0.11291574669256806,0.10287793494407087
1761915587679235600,8.031235595703125,0.15892214945554733,-0.03242006822004914,0.08761855262238531
1761915587689290800,8.041290771484375,0.10973697052597998,0.08863573030829429,0.05024542857222259
1761915587699344600,8.0513447265625,0.009067688074707984,0.15614683952331543,0.04441511498354375
1761915587709398800,8.061398681640625,-0.032523382464051245,0.1307134153202176,0.05032269505951553
1761915587719452700,8.07145263671875,-0.01827566140294075,0.10257394702881574,0.0652452831748873
1761915587729506800,8.0815068359375,0.04125438593029976,0.04711801726669073,0.07165679418500512
1761915587739560700,8.091560791015626,0.1429495042979717,0.0073981474272906775,0.057021535111032425
1761915587749614600,8.101614501953126,0.17816577910780906,-0.02023410199433565,0.024916268461197613
1761915587759668500,8.11166845703125,0.09617781625092028,-0.003639525546133518,-0.004355491795763373
1761915587769723600,8.1217236328125,-0.049421325773000714,0.0302574833586812,0.014759141181968152
1761915587779777800,8.13177783203125,-0.12520458877086638,0.058546296992897984,0.06377217841502279
1761915587789831700,8.141831787109375,-0.06020400107204914,0.04691723399758339,0.08534110920969397
1761915587799885800,8.1518857421875,0.014085808497667312,0.017487872026115656,0.10250694620721042
1761915587809939700,8.161939697265625,0.09636369421184063,0.018331190982460974,0.11183492918591946
1761915587819993900,8.171993896484375,0.16953589792847631,0.029478169549256562,0.09661934947334229
1761915587830047500,8.182047607421875,0.18383038074076175,-0.0017823533721268176,0.08683551248591392
1761915587840102700,8.1921025390625,0.1759293983578682,-0.0013819558776915072,0.09618903176467865
1761915587850156500,8.202156494140626,0.178124862575531,-0.000032733225822448726,0.10030055873673409
1761915587860210700,8.212210693359374,0.14416063365340231,-0.0058341129809617994,0.1021017994724214
1761915587870264800,8.222264892578124,0.09630407297909259,-0.033598610480129715,0.11964140168577432
1761915587880318700,8.232318603515624,0.05315525160431862,-0.0445180639013648,0.11965904694031923
1761915587890372900,8.242372802734375,0.05099836583137512,-0.04279226302206516,0.1389779337858781
1761915587900426800,8.2524267578125,0.09070376875400543,-0.04858823594972491,0.15580083909723907
1761915587910480600,8.262480712890625,0.13927870683073998,-0.07811682051196694,0.12862232479248195
1761915587920535600,8.27253564453125,0.1973871969282627,-0.0744096365571022,0.09571790712159127
1761915587930589700,8.282589599609375,0.22868659055531024,-0.07900456313192844,0.08991517565958201
1761915587940643600,8.2926435546875,0.17366671412289142,-0.16084347290694712,0.08748447791393846
1761915587950697700,8.30269775390625,0.08940145398378371,-0.19010522322654724,0.0921198460970074
1761915587960751600,8.312751708984376,-0.02223229007422924,-0.14014964444637298,0.09482318677157163
1761915587970805800,8.3228056640625,-0.09684241763949393,-0.038008535876870156,0.09006448446977883
1761915587980859600,8.332859619140624,-0.05689385361075401,0.07428381822034716,0.05303549768216908
1761915587990913500,8.34291357421875,-0.02377075168788433,0.15557225450575352,0.004496580766886473
1761915588000968700,8.35296875,-0.06697919429540634,0.17025822085365652,-0.012174568048864602
1761915588011026200,8.363026123046875,-0.09553191956281662,0.153801445440948,-0.021370376015268266
1761915588021080000,8.373080078125,-0.07522329102754592,0.1282122461542487,-0.019879662533476946
1761915588031134200,8.38313427734375,-0.04149462442696094,0.07444090847820044,-0.019275778356194494
1761915588041188000,8.39318798828125,0.045479310148954386,0.057079877702146765,0.0018261925138533114
1761915588051242200,8.4032421875,0.176843590593338,0.05132686713337898,-0.0239305453594774
1761915588061295900,8.4132958984375,0.23109598978459833,0.061267977041751145,-0.07178396422863006
1761915588071351000,8.42335107421875,0.23374855011999607,0.06786722917631269,-0.0725990434711799
1761915588081405000,8.433405029296875,0.18215221839547155,0.06270122471526265,-0.047965683604590595
1761915588091459000,8.443458984375,0.09092179541885852,0.04701075749993324,0.010923508541844784
1761915588101513000,8.453512939453125,0.037920273071527476,0.05337298600822687,0.031573059469275175
1761915588111567000,8.463567138671875,0.056254971185326574,0.032071693173795934,0.010956789756938815
1761915588121621200,8.473621337890625,0.11895838785767554,0.03494695634916425,-0.020110439082048834
1761915588131675000,8.4836748046875,0.19170447511672972,0.029519524472951888,-0.018915055285021663
1761915588141729000,8.49372900390625,0.20328560731709003,0.004122194496542215,-0.007234810091741382
1761915588151784000,8.503783935546876,0.16059037492871284,-0.010883943716436624,0.02961958731394261
1761915588161838000,8.513838134765624,0.07830196782052516,-0.004298281715810298,0.04501863383464515
1761915588171892000,8.52389208984375,0.01740413926541805,-0.0014117664940655231,0.04643153283987194
1761915588181946000,8.533946044921874,-0.02536532740294933,-0.024700726014375684,0.04455002994220703
1761915588192000000,8.544,-0.04149345538318157,-0.04816460371017456,0.03168221893217414
1761915588202054100,8.55405419921875,0.00044774376749992365,-0.05001315418630838,0.04271722502447665
1761915588212108000,8.56410791015625,0.053117257681488984,-0.04575155121907592,0.04181417523752898
1761915588222162000,8.574161865234375,0.05794540849030017,-0.052582127891480916,0.052636707622930407
1761915588232217000,8.584217041015625,0.004545826736092567,-0.012998013260960579,0.038458508134074504
1761915588242271000,8.59427099609375,-0.022933131819963454,0.01590571740120649,0.021304873031005263
1761915588252325000,8.6043251953125,-0.05702887816727161,0.04257482087910175,0.0265363804763183
1761915588262379000,8.61437890625,-0.1686398258715868,0.0659960284769535,0.058861025497876106
1761915588272433200,8.62443310546875,-0.165476393404603,0.07132350711002945,0.08974131693001836
1761915588282487000,8.634487060546874,-0.06030804596841335,0.07481529474854469,0.08743800842370837
1761915588292541000,8.644541015625,0.058770168876647946,0.06335325888320803,0.035390535398200154
1761915588302596000,8.65459619140625,0.1535638372927904,0.045621933490037916,-0.011945581598579882
1761915588312650000,8.66464990234375,0.19641864415705204,0.015377748004347085,-0.03564454669188708
1761915588322704100,8.6747041015625,0.20157178913652896,0.002529956869035959,-0.007598528837598859
1761915588332758000,8.684758056640625,0.16488719533979893,-0.007866787852346896,0.053063591265492135
1761915588342812200,8.694812255859375,0.07824643824100494,-0.05419803865551948,0.08132738005630671
1761915588352866000,8.704865966796875,0.01803425386250019,-0.06578706190139055,0.10524170493334531
1761915588362920000,8.714919921875,0.05783668741881847,-0.010927344466745852,0.10520769306588917
1761915588372973800,8.724973876953126,0.09438333404958248,0.032665567413717504,0.051148989815823734
1761915588383027200,8.735027099609376,0.09081073625981807,0.11629311417117714,0.02305244735069573
1761915588393080800,8.745080810546876,0.07286416068077087,0.16685951832607387,0.028059023466333745
1761915588403135000,8.755135009765626,0.006346738678216934,0.13220847618356346,0.0422821580754593
1761915588413188900,8.76518896484375,-0.0022930793732404706,0.052655339258164166,0.07541479501165449
1761915588423244000,8.775244140625,0.00871580589711666,-0.051854982660710806,0.09375595939885824
1761915588433298200,8.785298095703125,0.05666472102999687,-0.0884055748142302,0.10439495191089808
1761915588443352000,8.79535205078125,0.09041793754994869,-0.07807751141488552,0.12779957370012998
1761915588453406200,8.80540625,0.07612170117199421,-0.06068140932545066,0.14009137492049484
1761915588463460000,8.815460205078125,0.12115209850966929,-0.041838907819986344,0.12115527684744447
1761915588473514000,8.825513916015625,0.1637602371364832,-0.017109101841598747,0.07936532273571938
1761915588483567900,8.83556787109375,0.09827858792245388,0.015046031831949948,0.07020473221316934
1761915588493623000,8.845623046875,-0.008884732723236083,0.03789280054271221,0.11875800644736736
1761915588503677200,8.85567724609375,-0.12559329582750797,0.017170184379070995,0.13858871527258307
1761915588513731000,8.86573095703125,-0.19983283651471137,0.007993336841464043,0.17702928589116781
1761915588523785200,8.87578515625,-0.16768413258194922,0.049677200230211015,0.2139140784351155
1761915588533839000,8.885839111328124,-0.07377543030679226,0.05068316240236163,0.1905965504074469
1761915588543893000,8.89589306640625,-0.0005143792629241943,-0.005393091215193271,0.10601721935048698
1761915588553947000,8.90594677734375,0.13967092101871967,-0.03354731868430972,0.05813402639757841
1761915588564001000,8.9160009765625,0.3121259212642908,-0.017069792744517327,0.06316380072571337
1761915588574056000,8.926055908203125,0.3910778774261474,-0.04933160166293382,0.025852562930621204
1761915588584110000,8.936110107421875,0.35658699428141116,-0.1121133442685008,0.02281841939911246
1761915588594164200,8.946164306640625,0.2787777784138918,-0.14321575401872397,0.059674753033556044
1761915588604218000,8.956218017578125,0.18946867888867855,-0.1753219339840114,0.08851776648443192
1761915588614272000,8.96627197265625,0.11314005696773528,-0.11378609978631138,0.09988934758733957
1761915588624326000,8.976325927734376,0.04514028745293617,-0.0014110358417034148,0.10164112315811216
1761915588634380000,8.986380126953126,0.030173604467511175,0.1391128487445414,0.07955211401209235
1761915588644434000,8.996433837890624,0.03575871112346649,0.22056407437622547,0.047236382949352264
1761915588654489000,9.006489013671874,0.018055881172418593,0.2039018395192921,0.004787818798422813
1761915588664543000,9.01654296875,-0.007665420061349868,0.17226619967520235,0.0034273075675591825
1761915588674597000,9.02659716796875,-0.02859481084346771,0.10411635416522622,0.029454715608432887
1761915588684651300,9.0366513671875,-0.0027338088780641556,0.018978256714344024,0.03435278984829783
1761915588694705000,9.046704833984375,0.0248527017056942,-0.043348435600101945,0.0500402979215607
1761915588704759000,9.056759033203125,0.03647650400400162,-0.06575725128501653,0.043049452653527255
1761915588714813000,9.06681298828125,0.04359890322983265,-0.050058308502286666,0.026007899622805416
1761915588724868000,9.0768681640625,0.09692425070405006,0.0012456161469221114,0.022671192948147654
1761915588734922000,9.086921875,0.09828326409757136,0.03523264142274856,0.03180317843072116
1761915588744976100,9.09697607421875,0.07124678861200809,0.04390884596183896,0.0512777307620272
1761915588755030000,9.107030029296874,0.03711597095131874,0.04197378624603152,0.08170589451249688
1761915588765084000,9.117083984375,0.01906242786645889,0.03897460443004966,0.11686897783037274
1761915588775138000,9.127137939453124,0.04355798669755458,0.010698796407878398,0.14109430488534272
1761915588785192000,9.13719189453125,0.09096095838546753,0.002881839046627283,0.14347765635792165
1761915588795246000,9.14724609375,0.09894669644236564,0.025428748027980327,0.1165818314520642
1761915588805301000,9.157301025390625,0.0661661243468523,0.07281199210211634,0.0942005613612011
1761915588815355100,9.167355224609375,0.051775779944658276,0.14568798935115337,0.08226867949441075
1761915588825409000,9.177408935546875,0.06225918003618717,0.12931553122103215,0.06411901909131557
1761915588835463200,9.187463134765625,0.026262568503618237,0.06317366453260183,0.041894985388778144
1761915588845516800,9.197516845703126,0.050609074252843854,0.01233867256939411,0.06444879903495311
1761915588855571000,9.207571044921876,0.10892740770876407,-0.022426497472077606,0.09729118432030082
1761915588865625000,9.217625,0.17634031724631785,-0.057189475556463,0.09047459964063018
1761915588875680000,9.227679931640624,0.22733517594635486,-0.0761392368286848,0.10258198420479893
1761915588885734100,9.237734130859375,0.22626842349767684,-0.060428603608161206,0.07086239240430295
1761915588895788000,9.2477880859375,0.13508359322845934,-0.013074147237092255,0.05917348898053169
1761915588905842200,9.25784228515625,0.035282325783371926,0.05444309945777058,0.06136504420805722
1761915588915896000,9.26789599609375,0.030248423269391058,0.08059227071478962,0.09459927835520357
1761915588925950000,9.277949951171875,0.06544014815986156,0.028761399582028387,0.10471928849443793
1761915588936003800,9.28800390625,0.10525018050074576,0.003320376594364643,0.07540500427000224
1761915588946059000,9.29805908203125,0.17053367679417133,0.011874123797565698,0.07315232997238635
1761915588956113200,9.308113037109376,0.2211333986967802,0.046861996679008006,0.037388942673802376
1761915588966169000,9.318169189453124,0.22837328682243824,0.08203706269562244,-0.0035856034018099305
1761915588976223000,9.328222900390625,0.1792442219942808,0.09011617812439798,-0.009933620721660553
1761915588986277000,9.338277099609375,0.06779343328773975,0.07438055659309029,0.013896934862062334
1761915588996331000,9.3483310546875,0.016133388677239416,0.06300634514167905,0.035941228083521126
1761915589006386000,9.358385986328125,0.03510580017268657,0.06304667715206742,0.04702617426477372
1761915589016436000,9.36843603515625,0.1263414838463068,0.06475421172231435,0.027046850749105213
1761915589026489900,9.37848974609375,0.2916916205227375,0.0685492200911045,-0.03480320049691945
1761915589036543700,9.388543701171875,0.42525954849123954,0.07117109302729367,-0.044318851534835994
1761915589046597600,9.39859765625,0.3862970728904009,0.07674465537592769,-0.019643077298626303
1761915589056651800,9.40865185546875,0.20673077933490275,0.06856076439842582,-0.01741791206244379
1761915589066705700,9.41870556640625,0.04154313974380493,0.07945435272604226,-0.006643127808906138
1761915589076760800,9.4287607421875,0.04495850114524364,0.08030775468498468,0.0036280543040484187
1761915589086815000,9.43881494140625,0.12195873871743679,0.06696195089966059,0.009991196127794682
1761915589096868900,9.448868896484376,0.10313011960685252,0.0933661198310554,0.03412088078856468
1761915589106922800,9.4589228515625,-0.08964461508989334,0.12805018746033311,0.0417407446751371
1761915589116976600,9.4689765625,-0.230714296990633,0.10311316847205161,0.06134692402947694
1761915589127030800,9.47903076171875,-0.21750468680560586,0.08400178689733147,0.05597377962376922
1761915589137084700,9.489084716796874,-0.05235036496222019,0.06016732232347131,0.003811411514319479
1761915589147139800,9.499139892578125,0.1539303325176239,0.00886222863048315,-0.020387319794669748
1761915589157194000,9.509194091796875,0.28339024064540863,-0.037732057023048396,-0.023148272407986222
1761915589167248000,9.519247802734375,0.25032325282394885,-0.0790766054548323,-0.006264211493916809
1761915589177301800,9.5293017578125,0.12100012281835079,-0.08277560610324144,0.061207186765223735
1761915589187355600,9.539355712890625,-0.03823708393573761,-0.11660831760019064,0.10267769966423511
1761915589197409800,9.549409912109375,-0.11076105287671088,-0.10676306928172707,0.09124821436163037
1761915589207463700,9.559463623046875,-0.08081365838050841,-0.05116115517765283,0.09173453657384961
1761915589217517800,9.569517822265626,-0.056659460332989686,-0.004700140514969826,0.08588091517481952
1761915589227573000,9.579572998046874,-0.1080675760090351,0.015598112756758927,0.0876379879752174
1761915589237627000,9.589626953125,-0.1447808113783598,0.0018399287782609461,0.13412150673065334
1761915589247681000,9.599680908203124,-0.16275895113945008,-0.0414443555444479,0.15171243727244435
1761915589257734700,9.609734619140625,-0.10731938799023627,-0.04985372584089637,0.1391357181634754
1761915589267788800,9.619788818359375,-0.012006079614162444,-0.047151627275347704,0.11100070685148239
1761915589277842700,9.6298427734375,0.04773088846802711,-0.04220438013151288,0.08778221875149757
1761915589287896800,9.639896728515625,0.05248012882173061,-0.022653438095748425,0.09795330149084329
1761915589297951700,9.64995166015625,0.021404607078433037,-0.03349149684384465,0.10291815735660492
1761915589308006000,9.660005859375,-0.0015700257956981658,-0.03168824681416154,0.10477478154134005
1761915589318060000,9.67006005859375,0.07129705749452114,0.015042816961556672,0.08309968695845454
1761915589328114000,9.680114013671876,0.1706260312527418,0.0460747918240726,0.024622071287594735
1761915589338167800,9.690167724609376,0.2015571760892868,0.04337546973749995,0.003731770406849682
1761915589348221700,9.7002216796875,0.19796236646771428,0.017958266016840935,0.0004722571542486548
1761915589358275800,9.71027587890625,0.15609423255324362,-0.008360708849132061,0.020263072360493243
1761915589368329700,9.720329833984374,0.04446867180168628,0.006005085633695125,0.06565832095518707
1761915589378385000,9.730385009765625,-0.05255377857983112,0.02960048075467348,0.11494575468283146
1761915589388438800,9.740438720703125,-0.061113517132401464,0.021002163757383823,0.13446863966789097
1761915589398493000,9.750492919921875,-0.01594458810687065,0.0940391967870295,0.11276030040252953
1761915589408546800,9.760546875,0.16148469341993332,0.14299611991867422,0.07575469449050724
1761915589418600700,9.7706005859375,0.13404139069914817,0.1485992006227374,-0.005484934217110276
1761915589428654800,9.78065478515625,0.04182721738219261,0.07783946487531065,-0.05375391161721199
1761915589438708700,9.790708740234376,0.051178398573398586,0.05772592052072286,-0.015596687984652816
1761915589448764000,9.800763916015624,0.04322597826421261,0.016897504917532204,0.013053762036189437
1761915589458817800,9.81081787109375,0.0721522130191326,-0.04003448874652386,0.02006316587422043
1761915589468872000,9.820871826171874,0.12720949885249136,-0.055366205652058124,0.039152883606404065
1761915589478925800,9.83092578125,0.1935492262005806,-0.07675254642143844,0.04790920417699963
1761915589488979700,9.840979736328125,0.21502280686199665,-0.13077362107485532,0.02631875567026436
1761915589499033900,9.851033935546875,0.2095207023143768,-0.1117798745304346,0.03206891669481993
1761915589509087700,9.861087646484375,0.20384207215607164,-0.029949001931399107,0.05323562336415052
1761915589519142000,9.871141845703125,0.050906595894694325,0.051343526007235046,0.05281948031131178
1761915589529196800,9.88119677734375,-0.0845920078754425,0.09809007961302996,0.08665025557950139
1761915589539251000,9.8912509765625,-0.17691022608876228,0.05765358593687415,0.13066972230896354
1761915589549304800,9.901304931640626,-0.17046002703607083,-0.01001709775403142,0.12199300631321966
1761915589559358700,9.911358642578126,-0.05581131907105445,-0.03083250676766038,0.1399703058240935
1761915589569412600,9.92141259765625,-0.006875146466493606,0.030368396387249228,0.15585472470894454
1761915589579466800,9.931466796875,-0.13607786496281624,0.08870645745694637,0.18943506888002157
1761915589589521000,9.94152099609375,-0.11345569878816604,0.07577683325707912,0.16119791236780584
1761915589599575800,9.951575927734375,-0.046937692263722415,0.007420797650516032,0.11368972673974931
1761915589609630000,9.9616298828125,-0.038133039039373394,-0.04234115825369954,0.15137275698930025
1761915589619683800,9.971683837890625,-0.2074339591681957,-0.05958762273937463,0.23498733466733246
1761915589629737700,9.98173779296875,-0.38681963545978065,-0.04308408557549119,0.27941567445863036
1761915589639791600,9.99179150390625,-0.15004150838553904,-0.09026464668437838,0.22102522561457008
1761915589649845800,10.001845703125,0.6301642814427614,-0.3018378976143896,-0.030354879318550226
1761915589659899600,10.011899658203125,1.1769114440083503,-0.2550122874230146,-0.16841993604321032
1761915589669954800,10.021954833984376,1.133399634540081,-0.12767258631959558,-0.15614431877266616
1761915589680009000,10.032009033203124,0.4678898989498615,-0.04479746536463499,-0.16870963970478622
1761915589690062800,10.042062744140624,-0.10991466518044471,0.030839667160809037,-0.07112900745123624
1761915589700117000,10.052116943359374,-0.23698212521374223,0.08314151680618524,0.008736848685145378
