time,seconds_elapsed,z,y,x
1761915579776702200,0.1287021484375,0.03683135285973549,-0.0505538135766983,0.05830371007323265
1761915579786756400,0.13875634765625,0.02863030694425106,-0.08143523335456848,0.044443655759096146
1761915579796810200,0.148810302734375,0.01280047744512558,-0.14293694496154785,0.034873317927122116
1761915579806864400,0.158864501953125,-0.000023358501493930817,-0.21797218918800354,0.021749010309576988
1761915579816918000,0.16891796875,-0.007747058756649494,-0.2765319049358368,0.011686522513628006
1761915579826972200,0.17897216796875,0.006315680220723152,-0.2902369201183319,-0.0030032219365239143
1761915579837026000,0.189026123046875,0.024486161768436432,-0.2607743740081787,-0.0030572842806577682
1761915579847081200,0.199081298828125,0.03496159240603447,-0.21109804511070251,-0.011507967486977577
1761915579857135400,0.20913525390625,0.03154662251472473,-0.14792653918266296,-0.02228711172938347
1761915579867189200,0.219189208984375,0.014323906973004341,-0.1052180752158165,-0.03037799336016178
1761915579877243400,0.229243408203125,-0.0031251241452991962,-0.09864140301942825,-0.031045380979776382
1761915579887297300,0.23929736328125,-0.022308355197310448,-0.0999603420495987,-0.03697764128446579
1761915579897351200,0.24935107421875,-0.03857067972421646,-0.10020454972982407,-0.04504914954304695
1761915579907405000,0.259405029296875,-0.04100246727466583,-0.09926164895296097,-0.060057058930397034
1761915579917459200,0.269459228515625,-0.03750466927886009,-0.07134852558374405,-0.08030188083648682
1761915579927513000,0.27951318359375,-0.026521697640419006,-0.06379524618387222,-0.11862653493881226
1761915579937568300,0.289568359375,-0.0005446914583444595,-0.04585300013422966,-0.16231916844844818
1761915579947622400,0.299622314453125,0.012726911343634129,-0.0005484095308929682,-0.20203325152397156
1761915579957676300,0.30967626953125,0.0023669484071433544,0.0405723974108696,-0.21629074215888977
1761915579967730200,0.319730224609375,-0.021632950752973557,0.05361271649599075,-0.1834501028060913
1761915579977784000,0.3297841796875,-0.0601678267121315,0.030870122835040092,-0.12227517366409302
1761915579987838200,0.339838134765625,-0.10593639314174652,-0.0173044353723526,-0.054852697998285294
1761915579997892000,0.34989208984375,-0.1345163732767105,-0.055543698370456696,0.00781547836959362
1761915580007946500,0.359946533203125,-0.14835405349731445,-0.06020526587963104,0.04345984756946564
1761915580018000600,0.370000732421875,-0.15642130374908447,-0.10315300524234772,0.05104559659957886
1761915580028055600,0.3800556640625,-0.1826353371143341,-0.22510606050491333,0.0643739178776741
1761915580038109400,0.390109375,-0.22103251516819,-0.420328825712204,0.09145480394363403
1761915580048163300,0.400163330078125,-0.2516840398311615,-0.6232255697250366,0.12506361305713654
1761915580058217500,0.410217529296875,-0.27383995056152344,-0.8110985159873962,0.14497821033000946
1761915580068271600,0.420271728515625,-0.3013307452201843,-1.005558729171753,0.16934524476528168
1761915580078325500,0.430325439453125,-0.30778276920318604,-1.2005183696746826,0.22744449973106384
1761915580088379600,0.440379638671875,-0.2769060432910919,-1.3577017784118652,0.3311114013195038
1761915580098433500,0.45043359375,-0.23377986252307892,-1.2589871883392334,0.4501941204071045
1761915580108487700,0.46048779296875,-0.17592181265354156,-1.0418051481246948,0.5592107176780701
1761915580118542300,0.470542236328125,-0.017403803765773773,-0.7103563547134399,0.7103267312049866
1761915580128596500,0.480596435546875,0.14071621000766754,-0.5293065905570984,1.0214617252349854
1761915580138650400,0.490650390625,0.18619979918003082,-0.7040128707885742,1.3125306367874146
1761915580148704500,0.50070458984375,0.20696856081485748,-0.8532742857933044,1.4791592359542847
1761915580158758700,0.510758544921875,0.24133771657943726,-0.8761361837387085,1.4557456970214844
1761915580168812500,0.5208125,0.2686136066913605,-0.7510368227958679,1.2639176845550537
1761915580178866700,0.53086669921875,0.2619679570198059,-0.6245059967041016,0.9786038994789124
1761915580188920600,0.540920654296875,0.25141969323158264,-0.8260943293571472,0.6920252442359924
1761915580198974700,0.550974609375,0.24326322972774506,-1.256909728050232,0.4444572627544403
1761915580209029400,0.561029296875,0.2273453325033188,-1.6512746810913086,0.20040291547775269
1761915580219083500,0.57108349609375,0.219648540019989,-1.8818413019180298,-0.05604539066553116
1761915580229137400,0.581137451171875,0.21896983683109283,-1.9649674892425537,-0.33537253737449646
1761915580239191600,0.591191650390625,0.21115265786647797,-1.9292473793029785,-0.5759467482566833
1761915580249245700,0.60124560546875,0.20480874180793762,-1.8260327577590942,-0.7312948703765869
1761915580259299600,0.611299560546875,0.18013988435268402,-1.520976185798645,-0.7481247186660767
1761915580269353700,0.621353759765625,0.01223717350512743,-1.1503435373306274,-0.5459286570549011
1761915580279407600,0.63140771484375,-0.06567200273275375,-0.9876648783683777,-0.29315584897994995
1761915580289461500,0.64146142578125,-0.020278634503483772,-0.754218339920044,-0.06552068144083023
1761915580299516400,0.651516357421875,0.04213414341211319,-0.46053239703178406,0.06432386487722397
1761915580309570600,0.661570556640625,0.11889547854661942,0.20242692530155182,0.04639753699302673
1761915580319624400,0.67162451171875,0.21433037519454956,0.7088009119033813,-0.026415150612592697
1761915580329678600,0.6816787109375,0.24817878007888794,0.9359074234962463,-0.10678981989622116
1761915580339732500,0.691732421875,0.26421022415161133,1.080140233039856,-0.23945918679237366
1761915580349786600,0.70178662109375,0.30791306495666504,1.0780755281448364,-0.4248916506767273
1761915580359840500,0.711840576171875,0.3586966395378113,1.1724745035171509,-0.6367841958999634
1761915580369894400,0.721894287109375,0.3701185882091522,1.2842038869857788,-0.7966995239257812
1761915580379949600,0.731949462890625,0.3552863895893097,1.226427674293518,-0.8205574750900269
1761915580390003500,0.74200341796875,0.31382670998573303,1.0066314935684204,-0.7098901867866516
1761915580400057600,0.7520576171875,0.26090437173843384,0.7896543741226196,-0.49942246079444885
1761915580410111500,0.762111572265625,0.22820603847503662,0.604763388633728,-0.237014040350914
1761915580420165600,0.77216552734375,0.22364510595798492,0.45864903926849365,0.03469417244195938
1761915580430219500,0.782219482421875,0.22342902421951294,0.45205456018447876,0.24597561359405518
1761915580440273400,0.7922734375,0.2058311104774475,0.6003844141960144,0.3533223271369934
1761915580450327600,0.80232763671875,0.1562020629644394,0.7775344252586365,0.3826991021633148
1761915580460381400,0.81238134765625,0.08940200507640839,0.8565506935119629,0.37900182604789734
1761915580470436600,0.8224365234375,0.021638210862874985,0.8587898015975952,0.3359096646308899
1761915580480490500,0.832490478515625,-0.010621458292007446,0.8405575156211853,0.2475702315568924
1761915580490544600,0.842544677734375,-0.04532648250460625,0.7661930322647095,0.0995902270078659
1761915580500598500,0.8525986328125,-0.10261187702417374,0.6670272946357727,-0.13178734481334686
1761915580510652400,0.86265234375,-0.14789457619190216,0.7085055708885193,-0.3763166069984436
1761915580520706300,0.872706298828125,-0.15869103372097015,0.6355869174003601,-0.5573116540908813
1761915580530760400,0.882760498046875,-0.13694699108600616,0.4865974187850952,-0.6562003493309021
1761915580540814600,0.892814697265625,-0.10689747333526611,0.33159878849983215,-0.6761820316314697
1761915580550868500,0.902868408203125,-0.0837424173951149,0.1936963051557541,-0.6412286758422852
1761915580560923600,0.912923583984375,-0.10189186036586761,0.0918184146285057,-0.5774049162864685
1761915580570977500,0.9229775390625,-0.12519054114818573,0.07579532265663147,-0.5183579325675964
1761915580581031700,0.93303173828125,-0.1612635850906372,0.16200876235961914,-0.4746120572090149
1761915580591085300,0.943085205078125,-0.19552834331989288,0.3229914903640747,-0.45229044556617737
1761915580601139500,0.953139404296875,-0.21002207696437836,0.5509107112884521,-0.4605286717414856
1761915580611193300,0.963193359375,-0.17089654505252838,0.7819780707359314,-0.47614988684654236
1761915580621247500,0.97324755859375,-0.08482398092746735,1.0689617395401,-0.4585557281970978
1761915580631301600,0.983301513671875,0.0006003660964779556,1.1314735412597656,-0.3584973216056824
1761915580641355500,0.99335546875,0.05233706533908844,0.9461716413497925,-0.2110745757818222
1761915580651410700,1.00341064453125,0.06782909482717514,0.7422342300415039,-0.059366174042224884
1761915580661464600,1.013464599609375,0.07278364151716232,0.5933457016944885,0.08173342794179916
1761915580671518500,1.0235185546875,0.056051772087812424,0.4980739951133728,0.1931786835193634
1761915580681572400,1.033572265625,0.03480933606624603,0.43773341178894043,0.27564162015914917
1761915580691626500,1.04362646484375,0.010492797009646893,0.3470858931541443,0.3282243311405182
1761915580701680400,1.053680419921875,-0.03166184574365616,0.2439563125371933,0.34183281660079956
1761915580711734500,1.063734619140625,-0.09412261098623276,0.203048437833786,0.33103615045547485
1761915580721788400,1.073788330078125,-0.1612909883260727,0.2051696479320526,0.3043166399002075
1761915580731842600,1.083842529296875,-0.2129879742860794,0.17713987827301025,0.2855161428451538
1761915580741896700,1.093896728515625,-0.23390230536460876,0.11402082443237305,0.2617008090019226
1761915580751951400,1.103951416015625,-0.2364225536584854,0.060999076813459396,0.2273460030555725
1761915580762005500,1.114005615234375,-0.2389504313468933,0.01312369853258133,0.1652144491672516
1761915580772059400,1.124059326171875,-0.23265402019023895,0.004788695368915796,0.0865226462483406
1761915580782113500,1.134113525390625,-0.21142542362213135,0.03678923845291138,0.031076164916157722
1761915580792167400,1.14416748046875,-0.16936565935611725,0.045747362077236176,0.02587696723639965
1761915580802221600,1.1542216796875,-0.1385054737329483,0.010260205715894699,0.06496977061033249
1761915580812275500,1.164275390625,-0.1392822116613388,-0.017346937209367752,0.10142084956169128
1761915580822329600,1.17432958984375,-0.17681361734867096,-0.1023787409067154,0.12023874372243881
1761915580832383700,1.1843837890625,-0.1958015114068985,-0.2004648596048355,0.10789385437965393
1761915580842438400,1.1944384765625,-0.18292354047298431,-0.20705272257328033,0.05937957391142845
1761915580852492500,1.204492431640625,-0.14376576244831085,-0.1028452217578888,0.01640988141298294
1761915580862546400,1.21454638671875,-0.10402846336364746,-0.008860400877892971,0.024265941232442856
1761915580872600600,1.2246005859375,-0.08890197426080704,0.014205193147063255,0.08121182024478912
1761915580882654500,1.234654541015625,-0.08644627034664154,0.0058079794980585575,0.1436954289674759
1761915580892708600,1.24470849609375,-0.08417892456054688,-0.01584484800696373,0.18691183626651764
1761915580902762500,1.254762451171875,-0.07551220059394836,-0.037056393921375275,0.2049294412136078
1761915580912816600,1.264816650390625,-0.06247921660542488,-0.0422903448343277,0.17964650690555573
1761915580922870500,1.27487060546875,-0.04011159390211105,-0.026439476758241653,0.1435665339231491
1761915580932925400,1.284925537109375,-0.020529285073280334,-0.04727327823638916,0.1194632425904274
1761915580942979600,1.2949794921875,0.0019307499751448631,-0.07650573551654816,0.11414570361375809
1761915580953033500,1.305033447265625,0.025560162961483,-0.0980827808380127,0.11395248770713806
1761915580963087600,1.315087646484375,0.03542211651802063,-0.10613510757684708,0.10575075447559357
1761915580973141500,1.3251416015625,0.04321323707699776,-0.09991326928138733,0.07325582206249237
1761915580983195600,1.335195556640625,0.04021691530942917,-0.10954538732767105,0.02302061766386032
1761915580993249500,1.34524951171875,0.03529609739780426,-0.14762622117996216,-0.021037742495536804
1761915581003303000,1.355302978515625,0.009662904776632786,-0.2104632407426834,-0.059729743748903275
1761915581013356800,1.365356689453125,-0.02550632320344448,-0.26492631435394287,-0.08564706146717072
1761915581023412000,1.375411865234375,-0.04602917656302452,-0.2831979990005493,-0.10805144906044006
1761915581033465900,1.3854658203125,-0.0485757514834404,-0.27481916546821594,-0.12777163088321686
1761915581043520000,1.39552001953125,-0.04302945360541344,-0.23348771035671234,-0.1462097465991974
1761915581053574000,1.405573974609375,-0.03374577686190605,-0.1960412561893463,-0.16820865869522095
1761915581063628000,1.4156279296875,-0.017950300127267838,-0.15247701108455658,-0.17320102453231812
1761915581073682000,1.425681884765625,-0.004563015885651112,-0.1049252599477768,-0.16061341762542725
1761915581083736000,1.435736083984375,-0.0010987756540998816,-0.04746249318122864,-0.13097697496414185
1761915581093789700,1.445789794921875,-0.0050593214109539986,0.011818342842161655,-0.08263350278139114
1761915581103843800,1.45584375,-0.008138468489050865,0.0658847764134407,-0.0447084903717041
1761915581113899000,1.46589892578125,-0.0017949661705642939,0.09793762117624283,-0.02332385443150997
1761915581123953000,1.475952880859375,0.00951414741575718,0.10095098614692688,-0.007869530469179153
1761915581134007000,1.486007080078125,0.007819504477083683,0.07161206752061844,0.0022043129429221153
1761915581144061000,1.49606103515625,-0.007296331226825714,0.044886182993650436,0.011294214054942131
1761915581154115000,1.506114990234375,-0.025448260828852654,0.03341880440711975,0.022052008658647537
1761915581164169000,1.5161689453125,-0.05237974599003792,0.03305048868060112,0.023436319082975388
1761915581174222800,1.526222900390625,-0.07310564815998077,0.04239536449313164,0.004955901764333248
1761915581184276700,1.53627685546875,-0.07858722656965256,0.06362129002809525,-0.023990262299776077
1761915581194331000,1.546330810546875,-0.06444647908210754,0.07578667253255844,-0.06136896461248398
1761915581204386000,1.556385986328125,-0.04078509286046028,0.07573633641004562,-0.08917475491762161
1761915581214440000,1.56643994140625,-0.03262463957071304,0.058284688740968704,-0.10239899158477783
1761915581224494000,1.576494140625,-0.030828071758151054,0.056247103959321976,-0.0975794717669487
1761915581234548000,1.5865478515625,-0.02689223177731037,0.06221214681863785,-0.07707381248474121
1761915581244601900,1.596601806640625,-0.021917980164289474,0.0825405865907669,-0.05595628172159195
1761915581254655700,1.60665576171875,-0.013395429588854313,0.11551448702812195,-0.040677279233932495
1761915581264710000,1.6167099609375,0.0025377306155860424,0.13269348442554474,-0.03485001623630524
1761915581274763800,1.626763671875,0.003190296236425638,0.09916488826274872,-0.039006102830171585
1761915581284818000,1.63681787109375,0.00628249254077673,0.029395658522844315,-0.05799177661538124
1761915581294873000,1.646873046875,0.011248121038079262,-0.009523493237793446,-0.0956340879201889
1761915581304927000,1.656927001953125,0.01659894362092018,-0.005484277382493019,-0.1474754512310028
1761915581314980900,1.66698095703125,0.025246448814868927,0.03504779562354088,-0.18478062748908997
1761915581325034800,1.67703466796875,0.0272360946983099,0.07575660943984985,-0.20796984434127808
1761915581335089000,1.6870888671875,0.017380796372890472,0.0935034304857254,-0.20477356016635895
1761915581345142800,1.697142822265625,0.007165709976106882,0.0827258825302124,-0.17435918748378754
1761915581355197000,1.707197021484375,-0.0046424344182014465,0.03643898293375969,-0.1258048117160797
1761915581365250800,1.717250732421875,-0.013717688620090485,-0.0221718642860651,-0.06145778298377991
1761915581375305000,1.727304931640625,-0.022504352033138275,-0.03060293011367321,0.0036715995520353317
1761915581385358800,1.73735888671875,-0.036474764347076416,-0.004809416364878416,0.06039693206548691
1761915581395413800,1.747413818359375,-0.05187743157148361,0.02529478259384632,0.09999672323465347
1761915581405468000,1.757468017578125,-0.0653839185833931,0.043415192514657974,0.1294347643852234
1761915581415521800,1.767521728515625,-0.07686764746904373,0.056050337851047516,0.1309354305267334
1761915581425576000,1.777575927734375,-0.0866321325302124,0.06704866141080856,0.11529814451932907
1761915581435629800,1.7876298828125,-0.08697232604026794,0.07888653129339218,0.08391071110963821
1761915581445684000,1.79768408203125,-0.06969986110925674,0.08591540902853012,0.04617638513445854
1761915581455737900,1.80773779296875,-0.026137860491871834,0.0810132771730423,0.005754892714321613
1761915581465792000,1.8177919921875,0.015477225184440613,0.0870264321565628,-0.035307321697473526
1761915581475846000,1.827845947265625,0.02445744350552559,0.07972559332847595,-0.06717592477798462
1761915581485900800,1.83790087890625,0.013630096800625324,0.04080243036150932,-0.07296697050333023
1761915581495955000,1.847954833984375,-0.006193345878273249,-0.012849045917391777,-0.06409516930580139
1761915581506008800,1.8580087890625,-0.024737467989325523,-0.05045714229345322,-0.050512250512838364
1761915581516063000,1.86806298828125,-0.030435670167207718,-0.049873095005750656,-0.03579814359545708
1761915581526116900,1.878116943359375,-0.03087429143488407,-0.023503271862864494,-0.03624555468559265
1761915581536171000,1.8881708984375,-0.017513055354356766,0.01633634977042675,-0.0397949181497097
1761915581546225000,1.898224853515625,-0.0019229110330343246,0.04779068008065224,-0.045653074979782104
1761915581556279000,1.908279052734375,0.02065781131386757,0.07933545857667923,-0.05245756357908249
1761915581566333000,1.9183330078125,0.03167237713932991,0.08341888338327408,-0.04849237948656082
1761915581576387800,1.928387939453125,0.03844879940152168,0.057418931275606155,-0.044928498566150665
1761915581586442000,1.93844189453125,0.02771439403295517,0.01808776892721653,-0.038961153477430344
1761915581596496000,1.948495849609375,0.012983979657292366,-0.01315747294574976,-0.039533451199531555
1761915581606550000,1.958550048828125,0.00017950142500922084,-0.02449268475174904,-0.04062534496188164
1761915581616604000,1.96860400390625,-0.014011328108608723,-0.015315087512135506,-0.032386280596256256
1761915581626658000,1.978657958984375,-0.019544044509530067,0.001989867305383086,-0.020272094756364822
1761915581636712000,1.9887119140625,-0.0158722884953022,0.02330375835299492,-0.0007117399945855141
1761915581646765800,1.998765869140625,-0.006748564541339874,0.0438990481197834,0.018634792417287827
1761915581656819700,2.00881982421875,-0.003666969481855631,0.04804118350148201,0.029933718964457512
1761915581666875000,2.018875,-0.00863802619278431,0.024177400395274162,0.02745298482477665
1761915581676929000,2.028928955078125,-0.014106611721217632,-0.014120846055448055,0.009018119424581528
1761915581686983000,2.03898291015625,-0.019441455602645874,-0.03697316348552704,-0.02353290095925331
1761915581697037000,2.049037109375,-0.015515061095356941,-0.020359273999929428,-0.06306291371583939
1761915581707091000,2.059091064453125,-0.0084688700735569,0.008969585411250591,-0.09866590797901154
1761915581717145000,2.06914501953125,-0.0040717702358961105,0.021502520889043808,-0.12409952282905579
1761915581727198700,2.07919873046875,-0.0014466922730207443,0.02962862327694893,-0.14524981379508972
1761915581737252900,2.0892529296875,-0.004165722988545895,0.041656602174043655,-0.1545591950416565
1761915581747306800,2.099306640625,-0.003877835115417838,0.04134741052985191,-0.12934145331382751
1761915581757361000,2.10936083984375,-0.007001723162829876,0.0042469133622944355,-0.08876978605985641
1761915581767416000,2.119416015625,-0.006786806508898735,-0.04034372419118881,-0.036981161683797836
1761915581777470000,2.129469970703125,0.0012988225789740682,-0.06286053359508514,0.006019343622028828
1761915581787524000,2.139524169921875,0.007181212771683931,-0.046491410583257675,0.027028758078813553
1761915581797578000,2.149577880859375,0.007904719561338425,-0.009726951830089092,0.03974073380231857
1761915581807632000,2.1596318359375,-0.004080570302903652,0.012850262224674225,0.043424684554338455
1761915581817685800,2.169685791015625,-0.016863826662302017,0.011268493719398975,0.03567647188901901
1761915581827740000,2.179739990234375,-0.02344822697341442,0.00550594599917531,0.008939400315284729
1761915581837793800,2.189793701171875,-0.02229693904519081,0.019164450466632843,-0.031091593205928802
1761915581847848000,2.199847900390625,-0.009867965243756771,0.03341848775744438,-0.07238230854272842
1761915581857901800,2.20990185546875,-0.0005998525302857161,0.040486693382263184,-0.09407226741313934
1761915581867957000,2.21995703125,0.019665738567709923,0.023286134004592896,-0.08480074256658554
1761915581878011000,2.230010986328125,0.036023806780576706,-0.004126612097024918,-0.061566852033138275
1761915581888064800,2.240064697265625,0.0474703386425972,-0.004806250799447298,-0.03933105617761612
1761915581898119000,2.250118896484375,0.05536428466439247,0.028004955500364304,-0.036181021481752396
1761915581908172800,2.2601728515625,0.06955600529909134,0.0650591105222702,-0.04258938506245613
1761915581918227000,2.27022705078125,0.08137790858745575,0.09767293184995651,-0.051833633333444595
1761915581928280800,2.28028076171875,0.08518409729003906,0.1173238679766655,-0.06734973937273026
1761915581938335000,2.2903349609375,0.07884007692337036,0.11889525502920151,-0.07987906783819199
1761915581948388900,2.300388916015625,0.06956188380718231,0.11283336579799652,-0.08270707726478577
1761915581958443800,2.31044384765625,0.06399980932474136,0.1027916744351387,-0.07894887775182724
1761915581968498000,2.320497802734375,0.05122169479727745,0.08497139811515808,-0.06983394175767899
1761915581978551800,2.3305517578125,0.03724008798599243,0.03941252827644348,-0.05239378660917282
1761915581988606000,2.34060595703125,0.02210933528840542,-0.028012586757540703,-0.03624304383993149
1761915581998659800,2.350659912109375,0.010489443317055702,-0.09182015806436539,-0.012381571345031261
1761915582008710700,2.360710693359375,0.0018807745072990656,-0.12808974087238312,0.0051396312192082405
1761915582018764500,2.3707646484375,-0.0006270114099606872,-0.12230093777179718,0.01377780456095934
1761915582028818700,2.380818603515625,0.004466550424695015,-0.08259480446577072,0.019450072199106216
1761915582038872600,2.39087255859375,0.011719982139766216,-0.030443547293543816,0.019473129883408546
1761915582048927500,2.400927490234375,0.01478208415210247,0.0077954502776265144,0.026037020608782768
1761915582058981400,2.4109814453125,0.013080364093184471,0.01639581099152565,0.023918062448501587
1761915582069035500,2.421035400390625,0.008567903190851212,-0.004215458873659372,0.026976969093084335
1761915582079089700,2.431089599609375,0.0036713648587465286,-0.05718478932976723,0.01960034668445587
1761915582089143600,2.4411435546875,-0.004897356033325195,-0.10906556993722916,-0.004111906047910452
1761915582099197700,2.45119775390625,-0.0031913407146930695,-0.124986432492733,-0.03325970843434334
1761915582109251600,2.46125146484375,-0.004119186196476221,-0.11123466491699219,-0.0513838492333889
1761915582119305700,2.4713056640625,-0.005968944169580936,-0.1014832928776741,-0.04731045663356781
1761915582129359400,2.481359375,-0.010315222665667534,-0.083940789103508,-0.026147380471229553
1761915582139413500,2.49141357421875,-0.006054057739675045,-0.054724905639886856,0.0007243482396006584
1761915582149468400,2.501468505859375,0.0008033160120248795,-0.029725277796387672,0.030872128903865814
1761915582159522600,2.5115224609375,0.006796596106141806,-0.027789441868662834,0.05172240734100342
1761915582169576400,2.521576416015625,0.018855653703212738,-0.032969020307064056,0.05460581183433533
1761915582179630600,2.531630615234375,0.021883467212319374,-0.02511753886938095,0.04784422367811203
1761915582189684700,2.541684814453125,0.023151131346821785,-0.004173374269157648,0.02805214561522007
1761915582199738600,2.551738525390625,0.01650097779929638,0.011596917174756527,0.014904792420566082
1761915582209792500,2.56179248046875,0.017145996913313866,0.012197992764413357,-0.0045970045030117035
1761915582219846400,2.571846435546875,0.022203486412763596,0.003941000904887915,-0.017175620421767235
1761915582229900500,2.581900634765625,0.03149046003818512,-0.01322253979742527,-0.03897838667035103
1761915582239955500,2.59195556640625,0.04133710637688637,-0.024148164317011833,-0.053962040692567825
1761915582250009600,2.602009521484375,0.05020703002810478,-0.007393685169517994,-0.051916465163230896
1761915582260063500,2.6120634765625,0.053725216537714005,-0.007207687944173813,-0.024022724479436874
1761915582270117600,2.62211767578125,0.04382411390542984,-0.028022954240441322,0.016636554151773453
1761915582280171500,2.632171630859375,0.037259962409734726,-0.04148527979850769,0.055330194532871246
1761915582290225400,2.642225341796875,0.034491874277591705,-0.04913600906729698,0.0852753072977066
1761915582300279600,2.652279541015625,0.028155453503131866,-0.050188809633255005,0.09125449508428574
1761915582310333400,2.66233349609375,0.02649417333304882,-0.03744318708777428,0.07085627317428589
1761915582320387600,2.6723876953125,0.031426575034856796,-0.007450081408023834,0.03346244990825653
1761915582330441500,2.68244140625,0.03738699480891228,0.01814955472946167,-0.0021307002753019333
1761915582340496600,2.69249658203125,0.04762512445449829,0.01718941144645214,-0.019031140953302383
1761915582350550500,2.702550537109375,0.035976193845272064,0.005931430961936712,-0.011601719073951244
1761915582360604400,2.7126044921875,0.011389472521841526,-0.010916894301772118,0.0003113383427262306
1761915582370658600,2.722658447265625,-0.00838636327534914,-0.019008377566933632,0.019756410270929337
1761915582380712400,2.73271240234375,-0.023998288437724113,-0.014651897363364697,0.023383870720863342
1761915582390766600,2.7427666015625,-0.02127360925078392,-0.007329802494496107,0.019050907343626022
1761915582400820500,2.752820556640625,-0.00409746915102005,-0.012408084236085415,0.006383335217833519
1761915582410874600,2.76287451171875,0.02479702979326248,-0.0031749047338962555,-0.006587325129657984
1761915582420928500,2.772928466796875,0.04349164292216301,0.033169668167829514,-0.023157935589551926
1761915582430983400,2.7829833984375,0.035337306559085846,0.05708325654268265,-0.03106539323925972
1761915582441037300,2.793037353515625,0.014535089954733849,0.05180114135146141,-0.037414371967315674
1761915582451091500,2.803091552734375,-0.012391865253448486,0.03133475035429001,-0.037472695112228394
1761915582461145600,2.8131455078125,-0.028951819986104965,0.0003988328389823437,-0.024877332150936127
1761915582471199500,2.823199462890625,-0.029810156673192978,-0.03600152209401131,-0.0018447181209921837
1761915582481253600,2.833253662109375,-0.0106746144592762,-0.06053615361452103,0.02559937722980976
1761915582491307500,2.8433076171875,0.008778711780905724,-0.06854401528835297,0.04198154807090759
1761915582501361700,2.853361572265625,0.02355796843767166,-0.06358770281076431,0.032285671681165695
1761915582511415600,2.86341552734375,0.03991377353668213,-0.03306974843144417,0.012281869538128376
1761915582521470500,2.873470458984375,0.047843676060438156,-0.005960937589406967,-0.006425422616302967
1761915582531524400,2.8835244140625,0.04790119826793671,0.013736333698034286,-0.014050852507352829
1761915582541578500,2.89357861328125,0.03600750491023064,0.024880455806851387,-0.006941922940313816
1761915582551632600,2.903632568359375,0.03177414461970329,0.02424369379878044,0.00377517007291317
1761915582561686500,2.9136865234375,0.027570180594921112,0.017240621149539948,0.007941549643874168
1761915582571740700,2.92374072265625,0.025379464030265808,0.003962366841733456,0.0029718251898884773
1761915582581794600,2.933794677734375,0.02999936230480671,-0.00867949053645134,-0.004940223414450884
1761915582591848700,2.9438486328125,0.047424424439668655,-0.004471163731068373,-0.011468163691461086
1761915582601902600,2.953902587890625,0.055887699127197266,-0.00417829817160964,-0.009820924140512943
1761915582611957500,2.96395751953125,0.055707402527332306,0.008041616529226303,0.007608931511640549
1761915582622011400,2.974011474609375,0.049671370536088943,0.02993840165436268,0.029674606397747993
1761915582632065500,2.9840654296875,0.04393865168094635,0.04799916222691536,0.049916498363018036
1761915582642119400,2.994119384765625,0.03276931121945381,0.04995802789926529,0.04824013635516167
1761915582652173600,3.004173583984375,0.023638129234313965,0.030182458460330963,0.02767334133386612
1761915582662227700,3.014227783203125,0.017259344458580017,-0.005814544390887022,-0.0036453204229474068
1761915582672281600,3.024281494140625,0.015635348856449127,-0.03282645344734192,-0.03250812739133835
1761915582682335500,3.03433544921875,0.013011045753955841,-0.03719441592693329,-0.049090977758169174
1761915582692390400,3.044390380859375,0.004163758363574743,-0.038196299225091934,-0.04359128326177597
1761915582702444500,3.054444580078125,-0.0018642370123416185,-0.031374067068099976,-0.027099354192614555
1761915582712498400,3.06449853515625,0.00412334781140089,-0.004262289498001337,-0.005385270342230797
1761915582722552600,3.074552490234375,0.007997924461960793,0.039916008710861206,0.02290099486708641
1761915582732606500,3.0846064453125,0.009015251882374287,0.043886780738830566,0.05299524590373039
1761915582742660600,3.09466064453125,0.008170560002326965,0.023656653240323067,0.07830753177404404
1761915582752714800,3.10471484375,0.008213170804083347,0.011091591790318489,0.07808729261159897
1761915582762768400,3.114768310546875,0.011022476479411125,0.003536695148795843,0.061754386872053146
1761915582772822500,3.124822509765625,0.01038598082959652,-0.007109557744115591,0.029728274792432785
1761915582782877400,3.13487744140625,0.011941215954720974,-0.013685557059943676,-0.0035531818866729736
1761915582792931600,3.144931640625,0.005015399307012558,-0.01037498190999031,-0.028160789981484413
1761915582802985500,3.1549853515625,-0.00025913771241903305,-0.009546085260808468,-0.04606923833489418
1761915582813039600,3.16503955078125,0.004659720696508884,-0.020630959421396255,-0.05793788284063339
1761915582823093500,3.175093505859375,0.0060411980375647545,-0.024003563448786736,-0.06593926250934601
1761915582833147600,3.185147705078125,0.005953047424554825,-0.007031239103525877,-0.06303827464580536
1761915582843201500,3.195201416015625,0.008738594129681587,0.015359158627688885,-0.05052032694220543
1761915582853255400,3.20525537109375,0.009445130825042725,0.028872305527329445,-0.02314329892396927
1761915582863309600,3.2153095703125,0.014583451673388481,0.027682553976774216,0.010580950416624546
1761915582873364500,3.225364501953125,0.016003184020519257,0.012951543554663658,0.03857477009296417
1761915582883418600,3.235418701171875,0.015189865604043007,0.000711300817783922,0.04725728556513786
1761915582893472500,3.245472412109375,0.010316547006368637,-0.0013912648428231478,0.0334586463868618
1761915582903526700,3.255526611328125,0.005539299920201302,0.004496457986533642,0.0005046455189585686
1761915582913580500,3.26558056640625,-0.01216486282646656,-0.0018778175581246614,-0.030354734510183334
1761915582923634400,3.275634521484375,-0.01722174882888794,-0.011998867616057396,-0.04848480597138405
1761915582933688600,3.2856884765625,-0.015233698301017284,-0.03139014169573784,-0.043164342641830444
1761915582943742500,3.295742431640625,-0.015489471144974232,-0.06050189584493637,-0.02105414867401123
1761915582953797600,3.305797607421875,-0.018198970705270767,-0.0726323276758194,0.0029800813645124435
1761915582963851500,3.3158515625,-0.020535439252853394,-0.06182268634438515,0.01887463591992855
1761915582973905700,3.32590576171875,-0.02268514223396778,-0.033395037055015564,0.019628845155239105
1761915582983959600,3.33595947265625,-0.02021176740527153,-0.000673024682328105,0.010030370205640793
1761915582994013400,3.346013427734375,-0.021011514589190483,0.02408105693757534,-0.00769429886713624
1761915583004067600,3.356067626953125,-0.020653974264860153,0.04269295930862427,-0.01867235079407692
1761915583014121700,3.366121826171875,-0.01660170778632164,0.05075834318995476,-0.015508515760302544
1761915583024175900,3.37617578125,-0.011968683451414108,0.02340301312506199,-0.0018259771168231964
1761915583034229800,3.386229736328125,-0.010157734155654907,-0.004121554549783468,0.017565030604600906
1761915583044285000,3.396284912109375,-0.0213516503572464,-0.01989797316491604,0.027121275663375854
1761915583054338800,3.4063388671875,-0.03392789885401726,-0.017171695828437805,0.027382265776395798
1761915583064392700,3.416392822265625,-0.041468001902103424,-0.009344421327114105,0.019866419956088066
1761915583074446600,3.426446533203125,-0.03559626266360283,0.0045753889717161655,0.011252427473664284
1761915583084500700,3.436500732421875,-0.03330685943365097,0.012678952887654305,0.0008251508697867393
1761915583094554600,3.4465546875,-0.02994222193956375,0.00847408827394247,0.0023862961679697037
1761915583104608800,3.45660888671875,-0.036601535975933075,-0.0035409058909863234,0.00722394697368145
1761915583114663000,3.466662841796875,-0.04685843363404274,-0.019606424495577812,0.008901737630367279
1761915583124717800,3.4767177734375,-0.056700557470321655,-0.019624236971139908,0.005829663947224617
1761915583134771700,3.486771728515625,-0.06360959261655807,-0.01138947531580925,0.00277741439640522
1761915583144825600,3.49682568359375,-0.06572530418634415,0.004047261085361242,0.004829813726246357
1761915583154879700,3.506879638671875,-0.06267359107732773,0.016790486872196198,0.00761388149112463
1761915583164933600,3.51693359375,-0.05966980755329132,0.021112265065312386,0.01782044768333435
1761915583174987800,3.52698779296875,-0.056688133627176285,0.021946366876363754,0.03171468898653984
1761915583185041700,3.537041748046875,-0.05616933852434158,0.0229303278028965,0.04188298061490059
1761915583195095800,3.547095703125,-0.06233988329768181,0.0108955018222332,0.04796244204044342
1761915583205150000,3.55714990234375,-0.07163916528224945,-0.00040175049798563123,0.05423905327916145
1761915583215204600,3.56720458984375,-0.06940902769565582,-0.015253933146595955,0.04613558202981949
1761915583225258800,3.5772587890625,-0.06056402623653412,-0.015074807219207287,0.02872750535607338
1761915583235312600,3.587312744140625,-0.04740854352712631,-0.0069473725743591785,0.0036027105525135994
1761915583245366800,3.59736669921875,-0.03545915707945824,0.015110425651073456,-0.02426072023808956
1761915583255420700,3.607420654296875,-0.02495911344885826,0.03564233332872391,-0.035723499953746796
1761915583265474800,3.617474853515625,-0.02774832397699356,0.029356535524129868,-0.026948489248752594
1761915583275528700,3.62752880859375,-0.034270673990249634,0.0058874282985925674,-0.007735912688076496
1761915583285582800,3.637582763671875,-0.03946731612086296,-0.02345319278538227,0.008104545995593071
1761915583295637000,3.647636962890625,-0.042681749910116196,-0.04308361932635307,0.02530616894364357
1761915583305691600,3.657691650390625,-0.03606988117098808,-0.026652775704860687,0.02279466763138771
1761915583315745800,3.667745849609375,-0.023467805236577988,0.01078833919018507,0.024477519094944
1761915583325799700,3.677799560546875,-0.003032820066437125,0.053750596940517426,0.027196455746889114
1761915583335853800,3.687853759765625,0.012946146540343761,0.095168337225914,0.04869961366057396
1761915583345907700,3.69790771484375,0.019699839875102043,0.11637330055236816,0.0785767063498497
1761915583355961900,3.7079619140625,0.023552635684609413,0.11594639718532562,0.10536064952611923
1761915583366015700,3.718015625,0.02887117676436901,0.1135270968079567,0.11309103667736053
1761915583376070000,3.72806982421875,0.027017084881663322,0.126626119017601,0.0934547483921051
1761915583386124800,3.738124755859375,0.02447037398815155,0.12814173102378845,0.06722904741764069
1761915583396178700,3.7481787109375,0.02115686982870102,0.08902709931135178,0.057350847870111465
1761915583406232800,3.75823291015625,0.015697725117206573,0.020343637093901634,0.06312276422977448
1761915583416286700,3.76828662109375,0.0016639309469610453,-0.014722737483680248,0.09343220293521881
1761915583426340900,3.7783408203125,-0.001093048951588571,-0.03953670337796211,0.11391794681549072
1761915583436394800,3.788394775390625,-0.007131500169634819,-0.026078416034579277,0.12288694083690643
1761915583446449000,3.798448974609375,-0.005088279023766518,0.002967505482956767,0.11039742082357407
1761915583456502800,3.808502685546875,0.0068874238058924675,0.028668340295553207,0.08425316959619522
1761915583466557700,3.8185576171875,0.016589896753430367,0.03410693630576134,0.046234577894210815
1761915583476611800,3.82861181640625,0.025130387395620346,0.02147449553012848,0.005206451751291752
1761915583486665700,3.838665771484375,0.029800303280353546,0.01444966346025467,-0.03257395327091217
1761915583496720000,3.848719970703125,0.030315624549984932,0.011489826254546642,-0.054449424147605896
1761915583506773800,3.858773681640625,0.026694340631365776,0.00751924654468894,-0.056569453328847885
1761915583516828000,3.868827880859375,0.01320596318691969,-0.010741516016423702,-0.04397536441683769
1761915583526881800,3.8788818359375,0.010834304615855217,-0.03512824326753616,-0.026916425675153732
1761915583536935700,3.888935791015625,0.01317176129668951,-0.051920805126428604,-0.01399476733058691
1761915583546989600,3.898989501953125,0.023007910698652267,-0.037026308476924896,-0.000428798608481884
1761915583557044700,3.909044677734375,0.037680331617593765,0.0005160056171007454,0.0119602270424366
1761915583567099000,3.919098876953125,0.049095019698143005,0.03419877216219902,0.025542814284563065
1761915583577152800,3.92915283203125,0.05105537548661232,0.05439991131424904,0.03747350722551346
1761915583587207000,3.93920703125,0.038137443363666534,0.03441661596298218,0.04988623782992363
1761915583597260800,3.9492607421875,0.023690592497587204,-0.0012202052166685462,0.06281828135251999
1761915583607315000,3.95931494140625,0.014082708396017551,-0.022260775789618492,0.07100483775138855
1761915583617368600,3.96936865234375,0.012242197059094906,-0.028599364683032036,0.07548560947179794
1761915583627422700,3.979422607421875,0.015394776128232479,-0.014027630910277367,0.07773913443088531
1761915583637478000,3.989477783203125,0.02950447052717209,0.027445776388049126,0.0781649798154831
1761915583647531800,3.99953173828125,0.0505557656288147,0.07015038281679153,0.06797336041927338
1761915583657586000,4.0095859375,0.06147472560405731,0.08491521328687668,0.0540841743350029
1761915583667639800,4.019639892578125,0.05629301816225052,0.04843279719352722,0.03072456270456314
1761915583677694000,4.02969384765625,0.04002935811877251,0.0066224997863173485,0.014813240617513657
1761915583687747800,4.039747802734375,0.033531349152326584,-0.027730436995625496,0.010485734790563583
1761915583697801700,4.0498017578125,0.021921297535300255,-0.049564894288778305,0.008318720385432243
1761915583707855600,4.059855712890625,0.012577545829117298,-0.051442280411720276,-0.00218045711517334
1761915583717910800,4.069910888671875,0.003916680347174406,-0.041750770062208176,-0.019298192113637924
1761915583727965000,4.07996484375,0.0026163668371737003,-0.02062477357685566,-0.02655966579914093
1761915583738018800,4.090018798828125,-0.0000033847754821181297,-0.010542045347392559,-0.015885449945926666
1761915583748073000,4.100072998046875,-0.008563755080103874,-0.0127713643014431,0.00021771620959043503
1761915583758126800,4.110126953125,-0.008401834405958652,-0.03311125934123993,0.02506474405527115
1761915583768180700,4.1201806640625,0.0038261772133409977,-0.06485486775636673,0.04400903731584549
1761915583778234600,4.130234619140625,0.009583398699760437,-0.08964543044567108,0.05027385801076889
1761915583788288800,4.140288818359375,0.000021247717086225748,-0.09062736481428146,0.03304024785757065
1761915583798342700,4.1503427734375,-0.007434005383402109,-0.06928718835115433,-0.00023701507598161697
1761915583808397800,4.160397705078125,-0.014467881992459297,-0.03860378637909889,-0.03554653748869896
1761915583818452000,4.170451904296875,-0.021142829209566116,-0.04153672605752945,-0.05219821631908417
1761915583828505900,4.180505859375,-0.019710421562194824,-0.08002280443906784,-0.047071270644664764
1761915583838559700,4.190559814453125,-0.01686829701066017,-0.09597513824701309,-0.03754221275448799
1761915583848613600,4.200613525390625,-0.00024420488625764847,-0.08438272774219513,-0.03074672259390354
1761915583858667800,4.210667724609375,-0.0003712376346811652,-0.057810768485069275,-0.03879160061478615
1761915583868721700,4.2207216796875,-0.008758114650845528,-0.06115235760807991,-0.04917173832654953
1761915583878775800,4.23077587890625,-0.020969774574041367,-0.11874029040336609,-0.04647555202245712
1761915583888830700,4.240830810546875,-0.029860442504286766,-0.1959587037563324,-0.02434723824262619
1761915583898884900,4.250884765625,-0.022945277392864227,-0.24338559806346893,0.01759861409664154
1761915583908939000,4.26093896484375,-0.0175740085542202,-0.24908201396465302,0.05588960647583008
1761915583918992600,4.27099267578125,-0.013809630647301674,-0.20927999913692474,0.07791155576705933
1761915583929046800,4.281046875,-0.014513234607875347,-0.14531025290489197,0.06632597744464874
1761915583939100700,4.2911005859375,-0.009648172184824944,-0.08272065222263336,0.034744881093502045
1761915583949154800,4.30115478515625,-0.002475667279213667,-0.04996323212981224,0.0009337086230516434
1761915583959208700,4.311208740234375,0.008867534808814526,-0.05111345276236534,-0.004041076637804508
1761915583969263900,4.321263916015625,0.032597802579402924,-0.05548371002078056,0.01745639368891716
1761915583979317800,4.33131787109375,0.040854401886463165,-0.03794359788298607,0.06275143474340439
1761915583989372000,4.341371826171875,0.02940700575709343,-0.018678607419133186,0.10513723641633987
1761915583999425800,4.35142578125,0.01114704180508852,0.012712604366242886,0.12787984311580658
1761915584009482800,4.361482666015625,0.00030609071836806834,0.05356691777706146,0.1387965828180313
1761915584019536600,4.37153662109375,0.0035514188930392265,0.06558230519294739,0.1374223828315735
1761915584029590800,4.3815908203125,0.010955287143588066,0.05388830229640007,0.13258373737335205
1761915584039644700,4.391644775390625,0.01308528333902359,0.029718251898884773,0.12653304636478424
1761915584049699800,4.401699951171875,0.014559552073478699,-0.0006285561248660088,0.11192377656698227
1761915584059754000,4.41175390625,0.016159845516085625,-0.005006526596844196,0.0855100154876709
1761915584069807900,4.421807861328125,0.007817061617970467,0.013046479783952236,0.04956652969121933
1761915584079861800,4.43186181640625,-0.005461459513753653,0.025539368391036987,0.012045253068208694
1761915584089915600,4.44191552734375,-0.02032659202814102,0.01109328679740429,-0.011557674035429955
1761915584099969800,4.4519697265625,-0.025864101946353912,-0.02230088785290718,-0.021443860605359077
1761915584110023700,4.462023681640625,-0.029051098972558975,-0.056155551224946976,-0.02691822499036789
1761915584120077800,4.472077880859375,-0.028086502104997635,-0.07228818535804749,-0.03510691225528717
1761915584130133000,4.482133056640625,-0.031480707228183746,-0.06536953151226044,-0.03806944191455841
1761915584140187000,4.492186767578125,-0.03331083059310913,-0.035263292491436005,-0.03049594536423683
1761915584150241000,4.502240966796875,-0.041164789348840714,-0.0023947693407535553,-0.012838231399655342
1761915584160294700,4.512294677734375,-0.04306256026029587,0.0270099900662899,0.009753363206982613
1761915584170348800,4.522348876953125,-0.043816011399030685,0.055528827011585236,0.03863491490483284
1761915584180402700,4.532402587890625,-0.03914402797818184,0.045828260481357574,0.06419140845537186
1761915584190456800,4.542456787109375,-0.04047141224145889,0.009712020866572857,0.08320024609565735
1761915584200510700,4.5525107421875,-0.035796500742435455,-0.04360739141702652,0.096263587474823
1761915584210566000,4.56256591796875,-0.03888232260942459,-0.07951577007770538,0.09859828650951385
1761915584220620000,4.5726201171875,-0.047222547233104706,-0.09180226176977158,0.08389577269554138
1761915584230673700,4.582673583984375,-0.04767834395170212,-0.0782589390873909,0.0583835169672966
1761915584240727800,4.592727783203125,-0.039720818400382996,-0.05846286565065384,0.015397968702018261
1761915584250781700,4.60278173828125,-0.028601283207535744,-0.032471027225255966,-0.03545362502336502
1761915584260835800,4.6128359375,-0.012557070702314377,0.00521962670609355,-0.07332590967416763
1761915584270889700,4.6228896484375,0.01199562568217516,0.01144278235733509,-0.07503212988376617
1761915584280943900,4.63294384765625,0.03548923134803772,-0.014363248832523823,-0.05326158553361893
1761915584290997800,4.642997802734375,0.05223342776298523,-0.03275267034769058,-0.011948898434638977
1761915584301053000,4.653052978515625,0.0562548004090786,-0.011394385248422623,0.018610075116157532
1761915584311106800,4.66310693359375,0.06313366442918777,0.02225164882838726,0.021856166422367096
1761915584321160700,4.67316064453125,0.06191340461373329,0.0361538790166378,0.005836456082761288
1761915584331214800,4.68321484375,0.0494818389415741,-0.0005994982784613967,-0.010339047759771347
1761915584341268700,4.693268798828125,0.03458917886018753,-0.04868260771036148,-0.03284382447600365
1761915584351323000,4.703322998046875,0.02348584122955799,-0.0840667337179184,-0.060259006917476654
1761915584361376800,4.713376708984375,0.02149539440870285,-0.0848209410905838,-0.0745236948132515
1761915584371431000,4.723430908203125,0.02005336433649063,-0.06671089679002762,-0.08429213613271713
1761915584381482800,4.733482666015625,0.023554354906082153,-0.041243620216846466,-0.07993573695421219
1761915584391536600,4.74353662109375,0.028026796877384186,-0.023400187492370605,-0.07779859006404877
1761915584401591800,4.753591796875,0.03432490676641464,-0.009002870880067348,-0.06633314490318298
1761915584411646000,4.76364599609375,0.03337898850440979,0.009628253988921642,-0.04703361168503761
1761915584421699800,4.773699951171875,0.03681313246488571,0.03616798669099808,-0.015485807321965694
1761915584431754000,4.78375390625,0.041062746196985245,0.06258358806371689,0.01881706714630127
1761915584441808000,4.793807861328125,0.03166738152503967,0.07715081423521042,0.045268382877111435
1761915584451861800,4.80386181640625,0.024256229400634766,0.062212929129600525,0.051898155361413956
1761915584461915600,4.81391552734375,0.016297105699777603,0.02872341312468052,0.03431570157408714
1761915584471969800,4.8239697265625,0.01235229428857565,-0.01691454090178013,0.009711287915706635
1761915584482025000,4.83402490234375,0.013633008114993572,-0.06394249945878983,-0.013184173963963985
1761915584492078800,4.844078857421875,0.01088547520339489,-0.09485102444887161,-0.02573971450328827
1761915584502133000,4.854133056640625,0.006206034682691097,-0.10850505530834198,-0.0354330874979496
1761915584512187000,4.864186767578125,0.005311573855578899,-0.1038690134882927,-0.04740043729543686
1761915584522240800,4.87424072265625,0.006235957145690918,-0.09072577953338623,-0.053690820932388306
1761915584532294700,4.884294677734375,0.008067075163125992,-0.08258692175149918,-0.05752553045749664
1761915584542348800,4.894348876953125,0.0046869907528162,-0.08276934921741486,-0.05201571807265282
1761915584552402700,4.904402587890625,0.006405852735042572,-0.07111899554729462,-0.04049491882324219
1761915584562457900,4.914457763671875,0.003465989138931036,-0.052146103233098984,-0.02679801732301712
1761915584572512000,4.924511962890625,0.004777127876877785,-0.041420165449380875,-0.01269178930670023
1761915584582566000,4.93456591796875,-0.003907706588506699,-0.05265790596604347,-0.0033153314143419266
1761915584592619800,4.944619873046875,-0.008674937300384045,-0.09081168472766876,0.0003354344516992569
1761915584602673700,4.954673583984375,-0.0090051693841815,-0.12927864491939545,-0.008886558935046196
1761915584612727800,4.964727783203125,-0.005955454893410206,-0.1605653464794159,-0.02788715437054634
1761915584622781700,4.97478173828125,0.0014918086817488074,-0.17023316025733948,-0.042886875569820404
1761915584632835800,4.9848359375,0.007728227414190769,-0.14681944251060486,-0.046122513711452484
1761915584642891000,4.99489111328125,0.0022509037517011166,-0.12729154527187347,-0.029468439519405365
1761915584652945000,5.00494482421875,-0.009068259038031101,-0.10705070197582245,0.012146148830652237
1761915584662999000,5.0149990234375,-0.01895364560186863,-0.07276037335395813,0.06746186316013336
1761915584673052700,5.025052734375,-0.02977185882627964,-0.03321928530931473,0.10523458570241928
1761915584683106800,5.03510693359375,-0.0325402170419693,0.015616163611412048,0.11989768594503403
1761915584693160700,5.04516064453125,-0.027752796187996864,0.04564664512872696,0.11721690744161606
1761915584703214800,5.05521484375,-0.027395399287343025,0.05877070501446724,0.11398489028215408
1761915584713268700,5.065268798828125,-0.015734970569610596,0.05254305154085159,0.11264922469854355
1761915584723324000,5.075323974609375,-0.007963599637150764,0.021998193114995956,0.10706058144569397
1761915584733378000,5.0853779296875,-0.010669148527085781,-0.008274642750620842,0.08761560916900635
1761915584743431700,5.095431640625,-0.014567484147846699,-0.026936743408441544,0.05256121605634689
1761915584753485800,5.10548583984375,-0.026212947443127632,-0.056498933583498,0.01347909402102232
1761915584763539700,5.115539794921875,-0.041275255382061005,-0.09185425937175751,-0.015322727151215076
1761915584773593900,5.12559375,-0.044962551444768906,-0.11732643097639084,-0.03961934149265289
1761915584783647700,5.135647705078125,-0.03849053755402565,-0.10998915135860443,-0.04922935739159584
1761915584793702000,5.145701904296875,-0.025354459881782532,-0.07967472821474075,-0.04888781160116196
1761915584803756800,5.1557568359375,-0.022184498608112335,-0.05257440358400345,-0.03719120845198631
1761915584813811000,5.16581103515625,-0.02130085602402687,-0.03551582619547844,-0.015934621915221214
1761915584823864600,5.175864501953125,-0.018749812617897987,-0.028569234535098076,0.010152105242013931
1761915584833918700,5.185918701171875,-0.01325603574514389,-0.025033175945281982,0.027467750012874603
1761915584843972900,5.195972900390625,-0.01532637607306242,-0.02490401268005371,0.02762780338525772
1761915584854026800,5.20602685546875,-0.005111765582114458,-0.011946050450205803,0.016416925936937332
1761915584864081000,5.216080810546875,0.008303375914692879,0.006276096682995558,-0.005282243713736534
1761915584874134800,5.226134765625,0.030703440308570862,0.03440268337726593,-0.03040936589241028
1761915584884190000,5.23618994140625,0.04597214236855507,0.05919112265110016,-0.04155096784234047
1761915584894243800,5.246243896484375,0.05130601301789284,0.056537557393312454,-0.042184166610240936
1761915584904297700,5.256297607421875,0.04596584290266037,0.030480388551950455,-0.02812507376074791
1761915584914351600,5.2663515625,0.03410965949296951,-0.001129822456277907,-0.013980458490550518
1761915584924405800,5.27640576171875,0.021612243726849556,-0.019265683367848396,-0.007187799550592899
1761915584934460000,5.2864599609375,0.013070434331893921,-0.013756200671195984,-0.015011570416390896
1761915584944513800,5.296513671875,0.014396155253052711,0.0037098743487149477,-0.02728048712015152
1761915584954568000,5.30656787109375,0.013574938289821148,0.019441939890384674,-0.029281718656420708
1761915584964624000,5.316623779296875,0.010752519592642784,0.019377758726477623,-0.029919013381004333
1761915584974677800,5.326677734375,0.011563445441424847,0.027848506346344948,-0.01848263293504715
1761915584984732000,5.33673193359375,0.014995993115007877,0.03959650918841362,-0.008612691424787045
1761915584994785800,5.346785888671875,0.019681522622704506,0.05966648831963539,0.00256285909563303
1761915585004841000,5.356841064453125,0.02529306896030903,0.07343369722366333,0.010448213666677475
1761915585014890800,5.366890869140625,0.026338640600442886,0.08342370390892029,0.009054631926119328
1761915585024945000,5.37694482421875,0.02149355225265026,0.0959104672074318,0.008011206053197384
1761915585034998500,5.38699853515625,0.005124424584209919,0.07393515110015869,0.012540950439870358
1761915585045052700,5.397052734375,-0.01939236931502819,0.02519317716360092,0.01345308218151331
1761915585055106600,5.4071064453125,-0.040758442133665085,-0.01723402366042137,0.0034702345728874207
1761915585065160700,5.41716064453125,-0.051651570945978165,-0.03869590908288956,-0.015620368532836437
1761915585075214600,5.427214599609375,-0.058703627437353134,-0.04441208019852638,-0.03831133246421814
1761915585085269800,5.437269775390625,-0.055834606289863586,-0.033592455089092255,-0.04898794740438461
1761915585095324000,5.447323974609375,-0.03793257102370262,-0.031127966940402985,-0.04681480675935745
1761915585105377800,5.457377685546875,-0.028628814965486526,-0.0216580331325531,-0.03586149215698242
1761915585115431700,5.467431640625,-0.029267089441418648,0.00428171968087554,-0.01966194063425064
1761915585125485600,5.477485595703125,-0.031902819871902466,0.01495433785021305,-0.003636368550360203
1761915585135539700,5.487539794921875,-0.036298684775829315,0.02603190392255783,0.013952278532087803
1761915585145593600,5.497593505859375,-0.03543395549058914,0.013585089705884457,0.03315713256597519
1761915585155648800,5.507648681640625,-0.038562797009944916,0.0000622972147539258,0.03939974680542946
1761915585165702700,5.51770263671875,-0.039462946355342865,-0.001535066869109869,0.0386870875954628
1761915585175756800,5.5277568359375,-0.0397794283926487,-0.0037832774687558413,0.020912477746605873
1761915585185810700,5.537810791015625,-0.04273340851068497,-0.017622394487261772,-0.0037004565820097923
1761915585195864600,5.547864501953125,-0.0420578271150589,-0.034522343426942825,-0.031151248142123222
1761915585205918700,5.557918701171875,-0.04070201516151428,-0.060152605175971985,-0.0518336221575737
1761915585215972600,5.56797265625,-0.04336605966091156,-0.08073700219392776,-0.06278648227453232
1761915585226026800,5.57802685546875,-0.05149189755320549,-0.08959227800369263,-0.06872239708900452
1761915585236081700,5.58808154296875,-0.06821127980947495,-0.08011896908283234,-0.0684046521782875
1761915585246135800,5.5981357421875,-0.07455333322286606,-0.05113818868994713,-0.06418194621801376
1761915585256189700,5.608189697265625,-0.07036998867988586,-0.034687455743551254,-0.04997670650482178
1761915585266243600,5.61824365234375,-0.06681493669748306,-0.044020239263772964,-0.02912335842847824
1761915585276297700,5.628297607421875,-0.0740901455283165,-0.0627812072634697,-0.00777699239552021
1761915585286351600,5.6383515625,-0.08754709362983704,-0.07133422046899796,0.01039908267557621
1761915585296405800,5.64840576171875,-0.09254677593708038,-0.0700211226940155,0.017253264784812927
1761915585306459600,5.658459716796875,-0.09008441865444183,-0.049286287277936935,0.016043391078710556
1761915585316514800,5.668514892578125,-0.07487636059522629,-0.01703803986310959,-0.0022743353620171547
1761915585326568700,5.678568603515625,-0.05642731860280037,0.0016019565518945456,-0.020319916307926178
1761915585336622600,5.68862255859375,-0.03421087563037872,-0.006563796196132898,-0.025729253888130188
1761915585346676500,5.698676513671875,-0.018153876066207886,-0.01840820536017418,-0.024201931431889534
1761915585356730600,5.708730712890625,-0.017911255359649658,-0.021044762805104256,-0.026250138878822327
1761915585366784800,5.71878466796875,-0.022637566551566124,-0.01648915931582451,-0.02669169008731842
1761915585376838700,5.728838623046875,-0.027305174618959427,-0.007847558706998825,-0.0288475900888443
1761915585386893800,5.738893798828125,-0.024295002222061157,0.010552753694355488,-0.022312724962830544
1761915585396947700,5.74894775390625,-0.016843566671013832,0.020470120012760162,-0.009941354393959045
1761915585407001900,5.759001953125,-0.010545989498496056,0.009455285035073757,0.007398754358291626
1761915585417055500,5.769055419921875,-0.005832963157445192,-0.01347943302243948,0.016870398074388504
1761915585427109600,5.779109619140625,-0.007785859052091837,-0.02951459214091301,0.017011012881994247
1761915585437163500,5.78916357421875,-0.008952208794653416,-0.027174564078450203,0.010200975462794304
1761915585447217700,5.7992177734375,-0.0007062632357701659,-0.01118467841297388,-0.0023052282631397247
1761915585457271600,5.809271484375,0.010857973247766495,0.026341423392295837,-0.010799412615597248
1761915585467326700,5.81932666015625,0.027056651189923286,0.05552700534462929,-0.005226748529821634
1761915585477380900,5.829380859375,0.04002048075199127,0.0517309345304966,0.018472563475370407
1761915585487434800,5.839434814453125,0.04318378120660782,0.029894346371293068,0.040173597633838654
1761915585497488600,5.849488525390625,0.03790399059653282,0.03668323531746864,0.05966579169034958
1761915585507542500,5.85954248046875,0.03176833689212799,0.05202783644199371,0.06765500456094742
1761915585517596700,5.8695966796875,0.02736738510429859,0.054148733615875244,0.06395687907934189
1761915585527650600,5.879650634765625,0.02031373605132103,0.057943735271692276,0.03503762185573578
1761915585537704700,5.88970458984375,0.010682694613933563,0.06533074378967285,0.001742841675877571
1761915585547759900,5.899759765625,0.007238960824906826,0.06171604245901108,-0.018080931156873703
1761915585557813800,5.909813720703125,0.009550361894071102,0.055813029408454895,-0.030856743454933167
1761915585567867600,5.91986767578125,0.007471232209354639,0.04104873165488243,-0.031937986612319946
1761915585577921500,5.929921630859375,0.002958224853500724,0.041042398661375046,-0.03129196539521217
1761915585587975700,5.9399755859375,-0.007664059288799763,0.03391231596469879,-0.015820330008864403
1761915585598029600,5.950029541015625,-0.022829148918390274,0.011653823778033257,0.006548685021698475
1761915585608083700,5.960083740234375,-0.03271480277180672,-0.01732243411242962,0.02791602537035942
1761915585618137600,5.9701376953125,-0.0379873625934124,-0.022853977978229523,0.036797553300857544
1761915585628192800,5.98019287109375,-0.0283011756837368,0.0016508332919329405,0.03749237209558487
1761915585638246700,5.99024658203125,-0.014127061702311039,0.02854510210454464,0.033151835203170776
1761915585648300500,6.000300537109375,-0.0011963495053350925,0.03701554983854294,0.033804044127464294
1761915585658354700,6.010354736328125,0.014410307630896568,0.012018322944641113,0.02029435895383358
1761915585668408600,6.02040869140625,0.024732720106840134,-0.030858837068080902,-0.001001608557999134
1761915585678462700,6.030462646484375,0.028427165001630783,-0.04796544462442398,-0.028355300426483154
1761915585688516600,6.0405166015625,0.027002107352018356,-0.048839762806892395,-0.045751601457595825
1761915585698571800,6.05057177734375,0.013186704367399216,-0.03153882548213005,-0.05078277736902237
1761915585708626000,6.0606259765625,0.0029282080940902233,-0.004490165039896965,-0.03816951438784599
1761915585718679600,6.070679443359375,0.0005787984118796885,0.0010786771308630705,-0.019270289689302444
1761915585728733700,6.080733642578125,0.009246855042874813,0.007283576298505068,0.005490451119840145
1761915585738787600,6.09078759765625,0.026523197069764137,0.0071100229397416115,0.015793226659297943
1761915585748841700,6.100841796875,0.03763683885335922,0.012861119583249092,0.011331102810800076
1761915585758895600,6.1108955078125,0.03212592005729675,0.008768999949097633,-0.003181406296789646
1761915585768949800,6.12094970703125,0.019931839779019356,0.0026333429850637913,-0.019279416650533676
1761915585779004700,6.131004638671875,0.01318736094981432,-0.008618964813649654,-0.02384522184729576
1761915585789058600,6.14105859375,0.009678380563855171,-0.016127482056617737,-0.025022074580192566
1761915585799112700,6.15111279296875,0.016622811555862427,-0.008779220283031464,-0.011532480828464031
1761915585809166600,6.16116650390625,0.02686319872736931,0.0014068384189158678,-0.00007582828402519226
1761915585819220700,6.171220703125,0.03937423229217529,0.01706773228943348,0.004442101344466209
1761915585829274600,6.181274658203125,0.050360307097435,0.039720047265291214,-0.0006546564400196075
1761915585839328800,6.191328857421875,0.05448928847908974,0.05361873283982277,-0.011701359413564205
1761915585849382700,6.201382568359375,0.045343995094299316,0.0530642606317997,-0.02073000743985176
1761915585859437800,6.211437744140625,0.03798779845237732,0.06206420809030533,-0.019891439005732536
1761915585869491500,6.221491455078125,0.038008034229278564,0.059325411915779114,-0.008037975057959557
1761915585879545600,6.231545654296875,0.026205822825431824,0.034864455461502075,0.008634408004581928
1761915585889599700,6.241599853515625,0.011511564254760742,-0.0018466860055923462,0.013062977232038975
1761915585899653600,6.251653564453125,-0.004387032240629196,-0.021687325090169907,-0.005613202694803476
1761915585909707800,6.261707763671875,-0.008328244090080261,-0.025840258225798607,-0.03522169589996338
1761915585919761700,6.27176171875,-0.01026394497603178,-0.0023782546631991863,-0.08141122758388519
1761915585929816800,6.28181689453125,-0.005326977465301752,0.025653645396232605,-0.10391093790531158
1761915585939870700,6.29187060546875,0.0007960811490193009,0.0321301631629467,-0.09276005625724792
1761915585949924600,6.301924560546875,0.0001587867154739797,0.005689501762390137,-0.05928012728691101
1761915585959978500,6.311978515625,-0.003793500829488039,-0.04410665109753609,-0.019415106624364853
1761915585970032600,6.32203271484375,-0.01260323729366064,-0.07011055201292038,0.008181633427739143
1761915585980086800,6.332086669921875,-0.01977233774960041,-0.061081189662218094,0.02411690354347229
1761915585990140700,6.342140625,-0.02266213297843933,-0.045267872512340546,0.02682986482977867
1761915586000194800,6.35219482421875,-0.012401478365063667,-0.016806792467832565,0.031079594045877457
1761915586010253800,6.36225390625,0.009496097452938557,0.023993633687496185,0.04035245254635811
1761915586020307700,6.3723076171875,0.030643604695796967,0.05543636903166771,0.05965321511030197
1761915586030361900,6.38236181640625,0.04349921643733978,0.061668965965509415,0.07277300953865051
1761915586040415700,6.392415771484375,0.04844148829579353,0.0446929931640625,0.08374674618244171
1761915586050470000,6.402469970703125,0.05047720670700073,0.01995409093797207,0.07273511588573456
1761915586060523800,6.412523681640625,0.04929981753230095,-0.008485308848321438,0.053693756461143494
1761915586070578000,6.422577880859375,0.045611605048179626,-0.030559983104467392,0.020831149071455002
1761915586080631800,6.4326318359375,0.03599698096513748,-0.04827558249235153,-0.010336419567465782
1761915586090686700,6.442686767578125,0.019181517884135246,-0.06265266239643097,-0.02585519105195999
1761915586100740900,6.452740966796875,0.014399423263967037,-0.07072485238313675,-0.03360414877533913
1761915586110794800,6.462794677734375,0.009900545701384544,-0.06206771731376648,-0.028469841927289963
1761915586120849000,6.472848876953125,0.01882186159491539,-0.052598025649785995,-0.01586725562810898
1761915586130902800,6.48290283203125,0.029399137943983078,-0.0379522368311882,-0.004363997373729944
1761915586140957000,6.49295703125,0.03833850473165512,-0.016237467527389526,-0.0038276249542832375
1761915586151010800,6.5030107421875,0.04363659769296646,0.007473986595869064,0.0014741960912942886
1761915586161065700,6.513065673828125,0.040937937796115875,0.010514256544411182,0.0061112334951758385
1761915586171119900,6.523119873046875,0.03393196314573288,0.006742688361555338,0.01219895388931036
1761915586181173800,6.533173828125,0.012348638847470284,-0.011661352589726448,0.02800082042813301
1761915586191228000,6.543227783203125,-0.010473586618900299,-0.03810467943549156,0.03366642817854881
1761915586201281800,6.55328173828125,-0.020241061225533485,-0.05504457652568817,0.025526484474539757
1761915586211336000,6.5633359375,-0.012808444909751415,-0.048693470656871796,-0.0020398953929543495
1761915586221389800,6.573389892578125,-0.0011069546453654766,-0.04731481522321701,-0.038642529398202896
1761915586231444000,6.58344384765625,0.013196883723139763,-0.04230247810482979,-0.07862323522567749
1761915586241498600,6.59349853515625,0.020285924896597862,-0.02738412283360958,-0.09626813977956772
1761915586251552800,6.603552734375,0.012446110136806965,-0.02364051714539528,-0.08834576606750488
1761915586261607000,6.61360693359375,-0.002722549717873335,-0.03994545340538025,-0.0552491694688797
1761915586271660800,6.623660888671875,-0.0185390617698431,-0.040648795664310455,-0.017612311989068985
1761915586281715000,6.63371484375,-0.028145307675004005,-0.019403545185923576,0.021132860332727432
1761915586291768800,6.643768798828125,-0.020620014518499374,-0.00131216028239578,0.03843275457620621
1761915586301823000,6.653822998046875,-0.0017119096592068672,0.001648436300456524,0.04033023491501808
1761915586311877600,6.663877685546875,0.013025225140154362,0.000768794328905642,0.02822723239660263
1761915586321931800,6.673931884765625,0.020307835191488266,0.01152788382023573,0.006130966357886791
1761915586331985700,6.683985595703125,0.02045270800590515,0.020324304699897766,-0.005272688809782267
1761915586342039800,6.694039794921875,0.007426469121128321,0.012271495535969734,-0.012252520769834518
1761915586352094000,6.704093994140625,-0.005701583810150623,0.003537658601999283,-0.02092430740594864
1761915586362147800,6.71414794921875,-0.015257436782121658,-0.020606061443686485,-0.03503226488828659
1761915586372202000,6.724201904296875,-0.020595211535692215,-0.049418531358242035,-0.04225395619869232
1761915586382255900,6.734255859375,-0.016139741986989975,-0.07183436304330826,-0.044679563492536545
1761915586392310800,6.744310791015625,-0.0036199563182890415,-0.0541275329887867,-0.03450122848153114
1761915586402364700,6.75436474609375,0.020012712106108665,0.005878148600459099,-0.004089881666004658
1761915586412418800,6.764418701171875,0.03332052379846573,0.06561125814914703,0.03654809296131134
1761915586422472700,6.77447265625,0.04278209060430527,0.08273036032915115,0.07377489656209946
1761915586432526800,6.78452685546875,0.041697919368743896,0.06113665550947189,0.07986820489168167
1761915586442580700,6.794580810546875,0.029812850058078766,0.018859539180994034,0.06448639184236526
1761915586452635000,6.804634765625,0.009733414277434349,-0.023799775168299675,0.030110575258731842
1761915586462689000,6.81468896484375,-0.013313762843608856,-0.05127399414777756,-0.009153922088444233
1761915586472743700,6.82474365234375,-0.03668726235628128,-0.06436316668987274,-0.03695173189043999
1761915586482797800,6.8347978515625,-0.0465557761490345,-0.06487241387367249,-0.04409182071685791
1761915586492851700,6.844851806640625,-0.034315623342990875,-0.03413127362728119,-0.04010666906833649
1761915586502905900,6.85490576171875,-0.00842838641256094,0.00968500692397356,-0.0340571254491806
1761915586512959700,6.864959716796875,0.018602166324853897,0.04682039096951485,-0.0239296555519104
1761915586523014000,6.875013916015625,0.03216889500617981,0.060280364006757736,-0.009053006768226624
1761915586533067800,6.88506787109375,0.02490219660103321,0.05071854963898659,0.004924061708152294
1761915586543122700,6.895122802734375,0.004018398001790047,0.017176305875182152,0.008650021627545357
1761915586553176800,6.9051767578125,-0.014867940917611122,-0.011333100497722626,0.002877620980143547
1761915586563230700,6.915230712890625,-0.030095677822828293,-0.02353319711983204,-0.005789842456579208
1761915586573284900,6.925284912109375,-0.032510899007320404,-0.019055625423789024,-0.01620866172015667
1761915586583338800,6.9353388671875,-0.022015143185853958,0.0008146089967340231,-0.029967738315463066
1761915586593393000,6.945392822265625,-0.004593542777001858,0.019992563873529434,-0.031176282092928886
1761915586603446800,6.95544677734375,0.006471164524555206,0.016957921907305717,-0.02739749848842621
1761915586613501000,6.9655009765625,0.021398982033133507,-0.0024839520920068026,-0.013827893882989883
1761915586623555800,6.975555908203125,0.02590208314359188,-0.010100990533828735,-0.006116586737334728
1761915586633609700,6.985609619140625,0.021175239235162735,0.00682472949847579,-0.001133812591433525
1761915586643664000,6.995663818359375,-0.0001589123858138919,0.030170300975441933,0.0006226701661944389
1761915586653717800,7.0057177734375,-0.01869904063642025,0.0397196002304554,0.0055002495646476746
1761915586663772000,7.01577197265625,-0.026090413331985474,0.025808673352003098,0.015507464297115803
1761915586673825800,7.02582568359375,-0.017134735360741615,-0.014038607478141785,0.03019772842526436
1761915586683880000,7.0358798828125,0.0037021106109023094,-0.03724409267306328,0.03414349630475044
1761915586693934800,7.045934814453125,0.02599330246448517,-0.03976051136851311,0.024170756340026855
1761915586703988700,7.05598876953125,0.03508765995502472,-0.016186775639653206,0.0034140562638640404
1761915586714043000,7.06604296875,0.033735305070877075,0.007090315688401461,-0.011363024823367596
1761915586724096800,7.0760966796875,0.02361961081624031,0.002720958087593317,-0.020975209772586823
1761915586734151000,7.08615087890625,0.013891350477933884,-0.023179614916443825,-0.013109829276800156
1761915586744204800,7.096204833984375,0.0049707177095115185,-0.03377867117524147,-0.007265953812748194
1761915586754259000,7.106259033203125,0.0071190898306667805,-0.00940462201833725,-0.0033812010660767555
1761915586764312800,7.116312744140625,0.01981974020600319,0.023042429238557816,-0.00008991546928882599
1761915586774367700,7.12636767578125,0.036757707595825195,0.04815497621893883,0.0003500385209918022
1761915586784422000,7.136421875,0.05086576193571091,0.061340413987636566,-0.0012408439069986343
1761915586794475800,7.146475830078125,0.055070627480745316,0.05647987872362137,0.002719276584684849
1761915586804530000,7.156530029296875,0.04710078239440918,0.02721138671040535,0.020204242318868637
1761915586814583800,7.166583740234375,0.03432106971740723,-0.016940096393227577,0.043658968061208725
1761915586824638000,7.176637939453125,0.008118249475955963,-0.042525116354227066,0.05455350875854492
1761915586834691800,7.18669189453125,-0.010088982991874218,-0.037697337567806244,0.05218808352947235
1761915586844746000,7.19674609375,-0.01606147363781929,-0.024290475994348526,0.03838005289435387
1761915586854800600,7.206800537109375,-0.005254632793366909,-0.015103901736438274,0.018747761845588684
1761915586864854800,7.216854736328125,0.016599727794528008,-0.018937289714813232,-0.0030164122581481934
1761915586874909000,7.226908935546875,0.03784988820552826,-0.021900322288274765,-0.01684674061834812
1761915586884962800,7.236962890625,0.050380147993564606,-0.02224470116198063,-0.028499580919742584
1761915586895017000,7.247016845703125,0.046345725655555725,-0.032086409628391266,-0.01889968477189541
1761915586905070800,7.25707080078125,0.03348241001367569,-0.05445752292871475,-0.006397395394742489
1761915586915125000,7.267125,0.008026853203773499,-0.06739276647567749,0.0023276526480913162
1761915586925179600,7.2771796875,-0.021462760865688324,-0.07897355407476425,0.0066993702203035355
1761915586935233800,7.28723388671875,-0.033563368022441864,-0.07775728404521942,0.009266125038266182
1761915586945287700,7.29728759765625,-0.033109068870544434,-0.06182962283492088,0.009399402886629105
1761915586955341800,7.307341796875,-0.02020152285695076,-0.02949911542236805,0.010827122256159782
1761915586965396000,7.31739599609375,-0.00239153322763741,0.016346905380487442,0.011852310039103031
1761915586975449900,7.327449951171875,0.025155406445264816,0.055303361266851425,0.013116513378918171
1761915586985504000,7.33750390625,0.04391604661941528,0.0793658196926117,0.013987367041409016
1761915586995558000,7.347557861328125,0.04420766234397888,0.08397761732339859,0.007662891410291195
1761915587005612800,7.35761279296875,0.03763008117675781,0.0660628229379654,-0.001528613269329071
1761915587015663600,7.36766357421875,0.02691991627216339,0.046896591782569885,-0.0228743813931942
1761915587025717800,7.3777177734375,0.023077456280589104,0.034490134567022324,-0.04889100044965744
1761915587035771600,7.387771728515625,0.018563399091362953,0.025418343022465706,-0.0718383938074112
1761915587045825800,7.39782568359375,0.018832478672266006,0.010048145428299904,-0.07734248042106628
1761915587055879700,7.407879638671875,0.01657571643590927,-0.0002058242098428309,-0.06558249890804291
1761915587065933800,7.417933837890625,0.01562500186264515,-0.010718484409153461,-0.04180857539176941
1761915587075988500,7.427988525390625,0.013110445812344551,-0.026548581197857857,-0.020707815885543823
1761915587086042600,7.438042724609375,0.013162285089492798,-0.03552209585905075,-0.00989469513297081
1761915587096096800,7.4480966796875,0.016194559633731842,-0.03226398304104805,-0.0020415661856532097
1761915587106150700,7.458150634765625,0.024534422904253006,-0.020253656432032585,-0.0017828140407800674
1761915587116204800,7.468204833984375,0.02419327199459076,0.002991745015606284,0.004382138140499592
1761915587126258700,7.4782587890625,0.01801488921046257,0.022391628473997116,0.019033323973417282
1761915587136312800,7.488312744140625,0.005716676823794842,0.03842172771692276,0.038616079837083817
1761915587146366700,7.49836669921875,-0.003036852926015854,0.036622438579797745,0.05310799926519394
1761915587156421600,7.508421630859375,-0.0004533204482868314,0.01727137714624405,0.05417805165052414
1761915587166475500,7.5184755859375,0.005730690434575081,0.004499212838709354,0.046501561999320984
1761915587176529700,7.52852978515625,0.018465127795934677,0.011833291500806808,0.02440505102276802
1761915587186583800,7.538583740234375,0.023390788584947586,0.016108844429254532,0.0039810435846447945
1761915587196637700,7.5486376953125,0.01764368638396263,0.007725745439529419,-0.01256224699318409
1761915587206691800,7.55869189453125,0.004824860952794552,-0.006910559721291065,-0.021831758320331573
1761915587216745700,7.568745849609375,-0.0015353000489994884,-0.012296270579099655,-0.03157679736614227
1761915587226800600,7.578800537109375,0.0011926139704883099,-0.014701497741043568,-0.0424165278673172
1761915587236854500,7.5888544921875,0.013616261072456837,0.0009746667928993702,-0.04492628946900368
1761915587246908700,7.59890869140625,0.023053180426359177,0.024331357330083847,-0.0392175056040287
1761915587256962600,7.608962646484375,0.03679642081260681,0.04245869442820549,-0.022489923983812332
1761915587267016700,7.6190166015625,0.04159286618232727,0.05180133506655693,0.004516761749982834
1761915587277070800,7.62907080078125,0.03562206029891968,0.044839031994342804,0.027042044326663017
1761915587287124700,7.639124755859375,0.016147112473845482,0.0259895920753479,0.042732127010822296
1761915587297178600,7.6491787109375,0.0027841695118695498,0.00792723335325718,0.04707387834787369
1761915587307232500,7.659232421875,-0.01022522896528244,-0.010476693511009216,0.03989536687731743
1761915587317287700,7.66928759765625,-0.021741004660725594,-0.042845286428928375,0.0317213274538517
1761915587327341600,7.679341552734375,-0.029418306425213814,-0.09054560214281082,0.02380078285932541
1761915587337395700,7.689395751953125,-0.029960259795188904,-0.12553980946540833,0.01087619736790657
1761915587347449600,7.69944970703125,-0.02662842907011509,-0.12538519501686096,-0.007760539185255766
1761915587357503700,7.709503662109375,-0.01730496808886528,-0.08879069983959198,-0.02223961427807808
1761915587367558000,7.719557861328125,-0.0019505289383232594,-0.04617874324321747,-0.028855226933956146
1761915587377611500,7.729611572265625,0.01418290100991726,0.012881116941571236,-0.023899614810943604
1761915587387666700,7.739666748046875,0.01951637864112854,0.048021625727415085,-0.011974926106631756
1761915587397720600,7.749720458984375,0.015981297940015793,0.04731402173638344,0.005116974003612995
1761915587407774700,7.759774658203125,0.0052599371410906315,0.030987808480858803,0.01907297596335411
1761915587417828600,7.76982861328125,-0.003600932192057371,0.017988920211791992,0.02443418651819229
1761915587427882800,7.7798828125,-0.001772506395354867,0.017072290182113647,0.013571013696491718
1761915587437936600,7.7899365234375,0.004787125624716282,0.04186312481760979,0.0002932921051979065
1761915587447990500,7.799990478515625,0.024150313809514046,0.05139681696891785,-0.011771047487854958
1761915587458044700,7.810044677734375,0.034306544810533524,0.033096373081207275,-0.01467495784163475
1761915587468099600,7.820099609375,0.03130953758955002,-0.002607111120596528,-0.01100359857082367
1761915587478153700,7.83015380859375,0.015377710573375225,-0.017636926844716072,-0.010455787181854248
1761915587488207600,7.84020751953125,0.0031860610470175743,-0.016549978405237198,-0.015366502106189728
1761915587498261800,7.85026171875,-0.006462571676820517,-0.010607666335999966,-0.03065624088048935
1761915587508315600,7.860315673828125,-0.01071806438267231,-0.015218004584312439,-0.04573385417461395
1761915587518369800,7.870369873046875,-0.0052588507533073425,-0.011805163696408272,-0.05463546887040138
1761915587528423400,7.88042333984375,0.003933516796678305,-0.016216488555073738,-0.04792189598083496
1761915587538478600,7.890478515625,0.007942106574773788,-0.009591609239578247,-0.026593441143631935
1761915587548532700,7.90053271484375,0.008255179040133953,-0.0016798089491203427,0.0050348686054348946
1761915587558586600,7.910586669921875,-0.0005681400652974844,0.019392985850572586,0.038417328149080276
1761915587568640800,7.920640869140625,-0.012063917703926563,0.031540654599666595,0.05415535718202591
1761915587578694700,7.930694580078125,-0.0209271851927042,0.015254358761012554,0.05432180315256119
1761915587588748800,7.940748779296875,-0.01130139734596014,-0.009446104988455772,0.0346311554312706
1761915587598802700,7.950802734375,-0.009437717497348785,-0.030654454603791237,0.010315696708858013
1761915587608856600,7.960856689453125,-0.015866603702306747,-0.019599616527557373,-0.007585863582789898
1761915587618911700,7.970911865234375,-0.024758365005254745,-0.002179881790652871,0.0011535659432411194
1761915587628965600,7.980965576171875,-0.02655903622508049,-0.0033641313202679157,0.023391060531139374
1761915587639019800,7.991019775390625,-0.026578476652503014,-0.004540715832263231,0.04232906550168991
1761915587649073700,8.00107373046875,-0.009329312480986118,0.008251337334513664,0.04418264329433441
1761915587659127800,8.0111279296875,0.011067039333283901,0.019553793594241142,0.031379230320453644
1761915587669181700,8.021181640625,0.025867275893688202,0.03486356884241104,0.015187949873507023
1761915587679235600,8.031235595703125,0.016086816787719727,0.05103694647550583,0.008021649904549122
1761915587689290800,8.041290771484375,0.001094393664970994,0.04366019740700722,0.015421141870319843
1761915587699344600,8.0513447265625,-0.017450528219342232,0.014977686107158661,0.028159841895103455
1761915587709398800,8.061398681640625,-0.032235126942396164,-0.009547718800604343,0.03693046420812607
1761915587719452700,8.07145263671875,-0.032660700380802155,-0.030896950513124466,0.02875962108373642
1761915587729506800,8.0815068359375,-0.02922516129910946,-0.02570156566798687,0.003223598003387451
1761915587739560700,8.091560791015626,-0.02136324532330036,0.00165868503972888,-0.026540955528616905
1761915587749614600,8.101614501953126,-0.008331771939992905,0.030804583802819252,-0.038131192326545715
1761915587759668500,8.11166845703125,-0.004417990334331989,0.027392808347940445,-0.031703121960163116
1761915587769723600,8.1217236328125,-0.008606797084212303,-0.009862152859568596,-0.009281378239393234
1761915587779777800,8.13177783203125,-0.010651571676135063,-0.04001472890377045,0.012605277821421623
1761915587789831700,8.141831787109375,-0.008988514542579651,-0.059314899146556854,0.026417948305606842
1761915587799885800,8.1518857421875,-0.009198904037475586,-0.06350484490394592,0.020782165229320526
1761915587809939700,8.161939697265625,-0.013288101181387901,-0.04982501640915871,0.006343120709061623
1761915587819993900,8.171993896484375,-0.01328011229634285,-0.020207734778523445,-0.006488787941634655
1761915587830047500,8.182047607421875,-0.002000638982281089,0.0015348447486758232,-0.008278220891952515
1761915587840102700,8.1921025390625,0.0027017046231776476,0.024733642116189003,-0.004817177541553974
1761915587850156500,8.202156494140626,0.004751763306558132,0.04427124559879303,0.012275615707039833
1761915587860210700,8.212210693359374,0.006219164934009314,0.043820373713970184,0.02994941733777523
1761915587870264800,8.222264892578124,0.00990369077771902,0.0266945268958807,0.03490253910422325
1761915587880318700,8.232318603515624,0.005276448559015989,0.0018070199294015765,0.023983843624591827
1761915587890372900,8.242372802734375,0.00043949991231784225,-0.01617269776761532,-0.007744449190795422
1761915587900426800,8.2524267578125,0.004247021395713091,-0.027477016672492027,-0.03881288692355156
1761915587910480600,8.262480712890625,0.010752474889159203,-0.01874150149524212,-0.06361109763383865
1761915587920535600,8.27253564453125,0.013559713028371334,0.009668035432696342,-0.0741492286324501
1761915587930589700,8.282589599609375,0.024499943479895592,0.03772534057497978,-0.06805367022752762
1761915587940643600,8.2926435546875,0.053345970809459686,0.058985620737075806,-0.04542931914329529
1761915587950697700,8.30269775390625,0.07762608677148819,0.0573323592543602,-0.02398335002362728
1761915587960751600,8.312751708984376,0.07821118831634521,0.03532293066382408,-0.007355371490120888
1761915587970805800,8.3228056640625,0.06906548887491226,0.011101361364126205,-0.006680288352072239
1761915587980859600,8.332859619140624,0.05491584539413452,0.010503747500479221,-0.005597713403403759
1761915587990913500,8.34291357421875,0.03499188274145126,0.010769438929855824,-0.010669132694602013
1761915588000968700,8.35296875,0.016606219112873077,-0.004450527019798756,-0.007652570493519306
1761915588011026200,8.363026123046875,0.008050454780459404,-0.019255563616752625,0.00027208682149648666
1761915588021080000,8.373080078125,0.008405188098549843,-0.03133699297904968,0.012019290588796139
1761915588031134200,8.38313427734375,0.009809380397200584,-0.03650965169072151,0.014237330295145512
1761915588041188000,8.39318798828125,0.007952090352773666,-0.022405283525586128,0.016101542860269547
1761915588051242200,8.4032421875,0.00815716851502657,0.000825138355139643,0.011686353012919426
1761915588061295900,8.4132958984375,0.006994964554905891,0.027510277926921844,0.0025740815326571465
1761915588071351000,8.42335107421875,0.006182190030813217,0.03943349048495293,0.0011754678562283516
1761915588081405000,8.433405029296875,0.004073765128850937,0.0370909757912159,-0.001354801468551159
1761915588091459000,8.443458984375,0.0004963409155607224,0.018176672980189323,0.0034969449043273926
1761915588101513000,8.453512939453125,-0.0021668202243745327,-0.007998206652700901,0.008036302402615547
1761915588111567000,8.463567138671875,-0.011426127515733242,-0.01458707358688116,0.0005103657022118568
1761915588121621200,8.473621337890625,-0.021625500172376633,-0.00793103501200676,-0.019271595403552055
1761915588131675000,8.4836748046875,-0.027773113921284676,0.008394615724682808,-0.030957967042922974
1761915588141729000,8.49372900390625,-0.02359115146100521,0.028041552752256393,-0.03401793912053108
1761915588151784000,8.503783935546876,-0.01744268462061882,0.03510813042521477,-0.0258906502276659
1761915588161838000,8.513838134765624,-0.017124969512224197,0.03706342354416847,-0.009931124746799469
1761915588171892000,8.52389208984375,-0.019199354574084282,0.0212933961302042,0.005998373031616211
1761915588181946000,8.533946044921874,-0.01750132441520691,-0.0037792008370161057,0.01033053733408451
1761915588192000000,8.544,-0.012492111884057522,-0.026247933506965637,-0.007930210791528225
1761915588202054100,8.55405419921875,-0.014034082181751728,-0.030081553384661674,-0.04450367018580437
1761915588212108000,8.56410791015625,-0.012451797723770142,-0.01853998191654682,-0.08537506312131882
1761915588222162000,8.574161865234375,-0.009607541374862194,-0.00018147946684621274,-0.10729341208934784
1761915588232217000,8.584217041015625,-0.01132302638143301,0.008121347986161709,-0.0944434329867363
1761915588242271000,8.59427099609375,-0.013323592953383923,0.013079089112579823,-0.045991480350494385
1761915588252325000,8.6043251953125,-0.01791556552052498,0.001577872782945633,0.012405709363520145
1761915588262379000,8.61437890625,-0.02454151026904583,-0.030284719541668892,0.059195585548877716
1761915588272433200,8.62443310546875,-0.02775914967060089,-0.05085494741797447,0.08400449901819229
1761915588282487000,8.634487060546874,-0.027174053713679314,-0.049243468791246414,0.07774127274751663
1761915588292541000,8.644541015625,-0.03348073735833168,-0.03764019161462784,0.05438009276986122
1761915588302596000,8.65459619140625,-0.03876471519470215,-0.02033310756087303,0.024313271045684814
1761915588312650000,8.66464990234375,-0.03888728469610214,-0.007619771640747786,-0.006197493523359299
1761915588322704100,8.6747041015625,-0.0347956046462059,-0.00174084329046309,-0.03154705837368965
1761915588332758000,8.684758056640625,-0.026630286127328873,-0.0024302732199430466,-0.04623199999332428
1761915588342812200,8.694812255859375,-0.011149597354233265,-0.02357497438788414,-0.04258320480585098
1761915588352866000,8.704865966796875,-0.005815011914819479,-0.03555230423808098,-0.03768721967935562
1761915588362920000,8.714919921875,-0.009648633189499378,-0.01582334004342556,-0.024913102388381958
1761915588372973800,8.724973876953126,-0.022667352110147476,0.00593560142442584,-0.009284831583499908
1761915588383027200,8.735027099609376,-0.038184791803359985,0.02579745650291443,0.017091915011405945
1761915588393080800,8.745080810546876,-0.05293013155460358,0.033352162688970566,0.047917939722537994
1761915588403135000,8.755135009765626,-0.05880240350961685,0.03423047438263893,0.07812005281448364
1761915588413188900,8.76518896484375,-0.0499693863093853,0.026806052774190903,0.09899460524320602
1761915588423244000,8.775244140625,-0.0344892293214798,0.01340422872453928,0.09467975050210953
1761915588433298200,8.785298095703125,-0.026340708136558533,0.007395721971988678,0.06586188822984695
1761915588443352000,8.79535205078125,-0.026063738390803337,-0.0031466674990952015,0.012834888882935047
1761915588453406200,8.80540625,-0.026294095441699028,-0.015975406393408775,-0.03759683296084404
1761915588463460000,8.815460205078125,-0.02877696044743061,-0.007482320535928011,-0.062411632388830185
1761915588473514000,8.825513916015625,-0.02866724506020546,0.009970199316740036,-0.06185772642493248
1761915588483567900,8.83556787109375,-0.03004702925682068,0.025727324187755585,-0.03554995357990265
1761915588493623000,8.845623046875,-0.023912329226732254,0.02941201627254486,0.002887614071369171
1761915588503677200,8.85567724609375,-0.008373583666980267,0.005247557535767555,0.038949210196733475
1761915588513731000,8.86573095703125,-0.002345769666135311,-0.013837242498993874,0.05785398185253143
1761915588523785200,8.87578515625,-0.005129838362336159,-0.021196622401475906,0.06906535476446152
1761915588533839000,8.885839111328124,-0.011533308774232864,-0.039609216153621674,0.0752357691526413
1761915588543893000,8.89589306640625,-0.01180282048881054,-0.060500118881464005,0.06973367929458618
1761915588553947000,8.90594677734375,-0.017032980918884277,-0.05023612082004547,0.052067700773477554
1761915588564001000,8.9160009765625,-0.0184340700507164,-0.02133816108107567,0.0184524804353714
1761915588574056000,8.926055908203125,-0.014373980462551117,0.006519809365272522,-0.018797818571329117
1761915588584110000,8.936110107421875,-0.005301123019307852,0.018868621438741684,-0.045863524079322815
1761915588594164200,8.946164306640625,0.015914935618638992,0.014904567040503025,-0.05863344669342041
1761915588604218000,8.956218017578125,0.03925114870071411,0.018242573365569115,-0.050650350749492645
1761915588614272000,8.96627197265625,0.052219320088624954,0.022569408640265465,-0.03789178282022476
1761915588624326000,8.976325927734376,0.047478094696998596,0.029559407383203506,-0.007444662507623434
1761915588634380000,8.986380126953126,0.026520851999521255,0.04189342260360718,0.026068171486258507
1761915588644434000,8.996433837890624,0.006052061915397644,0.04965946450829506,0.07117919623851776
1761915588654489000,9.006489013671874,-0.012082818895578384,0.04249367490410805,0.10132928937673569
1761915588664543000,9.01654296875,-0.019009966403245926,0.025521349161863327,0.10390536487102509
1761915588674597000,9.02659716796875,-0.020084597170352936,0.012219772674143314,0.07609966397285461
1761915588684651300,9.0366513671875,-0.015736985951662064,-0.000257935345871374,0.040654320269823074
1761915588694705000,9.046704833984375,-0.003515048883855343,-0.00944578181952238,0.0033557871356606483
1761915588704759000,9.056759033203125,0.0046656494960188866,-0.02319728024303913,-0.022983409464359283
1761915588714813000,9.06681298828125,0.008857326582074165,-0.021601948887109756,-0.026841260492801666
1761915588724868000,9.0768681640625,0.003952049650251865,-0.01716778427362442,-0.018002228811383247
1761915588734922000,9.086921875,0.000647040200419724,-0.0129097830504179,-0.006531863007694483
1761915588744976100,9.09697607421875,-0.006667331792414188,-0.00909107644110918,-0.0013799779117107391
1761915588755030000,9.107030029296874,-0.009282469749450684,-0.015146813355386257,-0.0022166650742292404
1761915588765084000,9.117083984375,-0.008705629035830498,-0.01700703054666519,-0.008932624012231827
1761915588775138000,9.127137939453124,-0.00038140162359923124,-0.005812438670545816,-0.01057344488799572
1761915588785192000,9.13719189453125,0.01393069140613079,0.01619885489344597,-0.00023292284458875656
1761915588795246000,9.14724609375,0.02044612355530262,0.021725207567214966,0.021170388907194138
1761915588805301000,9.157301025390625,0.016692664474248886,0.01814751699566841,0.03844258561730385
1761915588815355100,9.167355224609375,0.0026447393465787172,0.013201004825532436,0.03979702293872833
1761915588825409000,9.177408935546875,-0.006828657351434231,-0.0021499881986528635,0.029344916343688965
1761915588835463200,9.187463134765625,-0.011976199224591255,-0.02369280718266964,0.010547563433647156
1761915588845516800,9.197516845703126,-0.009064831770956516,-0.04468171298503876,-0.01806144416332245
1761915588855571000,9.207571044921876,-0.0017129828920587897,-0.04745490476489067,-0.04449492692947388
1761915588865625000,9.217625,0.008834466338157654,-0.0331294946372509,-0.06124141812324524
1761915588875680000,9.227679931640624,0.020313844084739685,-0.007951715961098671,-0.05557094141840935
1761915588885734100,9.237734130859375,0.02835952118039131,0.01067816000431776,-0.031133510172367096
1761915588895788000,9.2477880859375,0.02976011112332344,0.011591797694563866,0.0025124764069914818
1761915588905842200,9.25784228515625,0.02252909727394581,-0.005201030056923628,0.035351116210222244
1761915588915896000,9.26789599609375,0.028219113126397133,-0.015219837427139282,0.05289724841713905
1761915588925950000,9.277949951171875,0.031541671603918076,-0.020049214363098145,0.04666198790073395
1761915588936003800,9.28800390625,0.03474889323115349,-0.02517838403582573,0.0173407644033432
1761915588946059000,9.29805908203125,0.03036906197667122,-0.011444728821516037,-0.01821696199476719
1761915588956113200,9.308113037109376,0.02389584667980671,0.0029156971722841263,-0.05559311434626579
1761915588966169000,9.318169189453124,0.015156417153775692,0.026907317340373993,-0.07300219684839249
1761915588976223000,9.328222900390625,0.015970854088664055,0.03013068623840809,-0.06801286339759827
1761915588986277000,9.338277099609375,0.012990511022508144,0.01667160354554653,-0.05322086438536644
1761915588996331000,9.3483310546875,0.010267837904393673,-0.0042918953113257885,-0.02361578680574894
1761915589006386000,9.358385986328125,0.008149293251335621,-0.024861084297299385,0.003388666547834873
1761915589016436000,9.36843603515625,0.001649986719712615,-0.020954392850399017,0.022714972496032715
1761915589026489900,9.37848974609375,0.0015735540073364973,0.019809281453490257,0.021817486733198166
1761915589036543700,9.388543701171875,0.0024379361420869827,0.08053120970726013,0.005598520860075951
1761915589046597600,9.39859765625,-0.004537415225058794,0.1038418561220169,-0.001958997920155525
1761915589056651800,9.40865185546875,-0.013415703549981117,0.0723380520939827,-0.008673258125782013
1761915589066705700,9.41870556640625,-0.01937772147357464,0.03918089717626572,-0.021451104432344437
1761915589076760800,9.4287607421875,-0.02005181834101677,0.03818289563059807,-0.04496302455663681
1761915589086815000,9.43881494140625,-0.014324423857033253,0.05702502653002739,-0.07557845115661621
1761915589096868900,9.448868896484376,-0.021174149587750435,0.058922745287418365,-0.09550929814577103
1761915589106922800,9.4589228515625,-0.029302649199962616,0.009414313361048698,-0.09844862669706345
1761915589116976600,9.4689765625,-0.03356385976076126,-0.03927873447537422,-0.07781453430652618
1761915589127030800,9.47903076171875,-0.03980977088212967,-0.06412895768880844,-0.050805822014808655
1761915589137084700,9.489084716796874,-0.04506228491663933,-0.05319095402956009,-0.022012120112776756
1761915589147139800,9.499139892578125,-0.044022854417562485,-0.015091770328581333,-0.002285020425915718
1761915589157194000,9.509194091796875,-0.03489299118518829,0.033368151634931564,0.0007401285693049431
1761915589167248000,9.519247802734375,-0.0298143420368433,0.0623534619808197,-0.016252171248197556
1761915589177301800,9.5293017578125,-0.023602502420544624,0.0602487251162529,-0.03636511415243149
1761915589187355600,9.539355712890625,-0.011529861018061638,0.04498055949807167,-0.056688226759433746
1761915589197409800,9.549409912109375,-0.009080320596694946,0.03571445122361183,-0.06802970916032791
1761915589207463700,9.559463623046875,-0.01698351837694645,0.03869878873229027,-0.05422920733690262
1761915589217517800,9.569517822265626,-0.022917337715625763,0.03693161532282829,-0.021914519369602203
1761915589227573000,9.579572998046874,-0.026539236307144165,0.025978831574320793,0.011726263910531998
1761915589237627000,9.589626953125,-0.018112583085894585,0.010640164837241173,0.03799518942832947
1761915589247681000,9.599680908203124,-0.014671246521174908,-0.012128531001508236,0.04816660284996033
1761915589257734700,9.609734619140625,-0.010851754806935787,-0.014288028702139854,0.03811310976743698
1761915589267788800,9.619788818359375,-0.006883911322802305,-0.010355604812502861,0.02324361726641655
1761915589277842700,9.6298427734375,-0.007486462593078613,-0.010259050875902176,0.0048616379499435425
1761915589287896800,9.639896728515625,-0.005183626897633076,-0.023607347160577774,-0.006867455784231424
1761915589297951700,9.64995166015625,-0.0044562239199876785,-0.05052497982978821,-0.01225093100219965
1761915589308006000,9.660005859375,-0.00738383736461401,-0.06276353448629379,-0.018734131008386612
1761915589318060000,9.67006005859375,-0.007747848518192768,-0.0475226528942585,-0.01866231858730316
1761915589328114000,9.680114013671876,-0.010428319685161114,-0.015516518615186214,-0.009140185080468655
1761915589338167800,9.690167724609376,-0.009240801446139812,0.011895077303051949,0.014397422783076763
1761915589348221700,9.7002216796875,-0.0006776737282052636,0.028112662956118584,0.04355078190565109
1761915589358275800,9.71027587890625,0.006414293777197599,0.029040077701210976,0.0628412738442421
1761915589368329700,9.720329833984374,0.0018477714620530605,-0.0009969169041141868,0.07664630562067032
1761915589378385000,9.730385009765625,0.010182591155171394,-0.027848562225699425,0.09563463926315308
1761915589388438800,9.740438720703125,0.009922401048243046,-0.07172360271215439,0.11978764086961746
1761915589398493000,9.750492919921875,0.0008767249528318644,-0.044608138501644135,0.12132354080677032
1761915589408546800,9.760546875,-0.019750522449612617,0.0004954244941473007,0.09130305051803589
1761915589418600700,9.7706005859375,-0.02606985718011856,0.01022690162062645,0.06509625166654587
1761915589428654800,9.78065478515625,-0.03462392836809158,0.012136921286582947,0.04207189753651619
1761915589438708700,9.790708740234376,-0.0386970192193985,0.004139862954616547,0.02111448347568512
1761915589448764000,9.800763916015624,-0.03545968234539032,-0.0001590114552527666,-0.001178305596113205
1761915589458817800,9.81081787109375,-0.026289675384759903,-0.008809048682451248,-0.01989017240703106
1761915589468872000,9.820871826171874,-0.02447313256561756,-0.014561476185917854,-0.03131193667650223
1761915589478925800,9.83092578125,-0.01517624594271183,-0.018672240898013115,-0.04442990571260452
1761915589488979700,9.840979736328125,-0.001823423313908279,-0.009052637033164501,-0.05289076641201973
1761915589499033900,9.851033935546875,0.010961189866065979,0.01403744239360094,-0.04699915647506714
1761915589509087700,9.861087646484375,0.009528142400085926,0.019988276064395905,-0.044087789952754974
1761915589519142000,9.871141845703125,-0.005936891306191683,0.005063564982265234,-0.03342978283762932
1761915589529196800,9.88119677734375,-0.019362686201930046,-0.034082770347595215,-0.015434805303812027
1761915589539251000,9.8912509765625,-0.01838275045156479,-0.08235889673233032,0.0055534010753035545
1761915589549304800,9.901304931640626,-0.010149321518838406,-0.11234263330698013,0.015374074690043926
1761915589559358700,9.911358642578126,-0.0004857904277741909,-0.10173627734184265,0.016719982028007507
1761915589569412600,9.92141259765625,-0.00931283738464117,-0.12169267237186432,0.01472154539078474
1761915589579466800,9.931466796875,-0.020375767722725868,-0.15461845695972443,0.008802568539977074
1761915589589521000,9.94152099609375,-0.019195720553398132,-0.16713717579841614,-0.004531079437583685
1761915589599575800,9.951575927734375,-0.020352447405457497,-0.1594245880842209,-0.01799088530242443
1761915589609630000,9.9616298828125,-0.023879004642367363,-0.17463549971580505,-0.03086940012872219
1761915589619683800,9.971683837890625,-0.022437095642089844,-0.26478105783462524,-0.044455233961343765
1761915589629737700,9.98173779296875,-0.022447481751441956,-0.3808043301105499,-0.0502510704100132
1761915589639791600,9.99179150390625,0.014751959592103958,-0.40151405334472656,0.004758431576192379
1761915589649845800,10.001845703125,0.047280073165893555,-0.18170389533042908,0.031009212136268616
1761915589659899600,10.011899658203125,0.05416741222143173,0.11865682899951935,0.03959126025438309
1761915589669954800,10.021954833984376,0.05956324562430382,0.28368091583251953,0.06293812394142151
1761915589680009000,10.032009033203124,0.049503397196531296,0.26716089248657227,0.0643889307975769
1761915589690062800,10.042062744140624,0.04353046044707298,0.17737321555614471,0.0370158925652504
1761915589700117000,10.052116943359374,0.031460460275411606,0.06101711094379425,0.03632153570652008
