time,seconds_elapsed,z,y,x
1761915602247842800,0.0668427734375,-0.9763031005859375,-0.1442413330078125,0.0475616455078125
1761915602257896700,0.076896728515625,-0.9914703369140625,-0.1394805908203125,0.0512237548828125
1761915602267950800,0.086950927734375,-0.997467041015625,-0.13653564453125,0.052764892578125
1761915602278005800,0.097005859375,-0.9976043701171875,-0.132904052734375,0.0542449951171875
1761915602288059600,0.1070595703125,-0.9958953857421875,-0.1306304931640625,0.05487060546875
1761915602298113800,0.11711376953125,-0.9887237548828125,-0.1313018798828125,0.05560302734375
1761915602308167700,0.127167724609375,-0.9827423095703125,-0.1346282958984375,0.056488037109375
1761915602318221800,0.137221923828125,-0.9766387939453125,-0.1359710693359375,0.055572509765625
1761915602328275700,0.147275634765625,-0.9763641357421875,-0.1324615478515625,0.053955078125
1761915602338329900,0.157329833984375,-0.98138427734375,-0.130523681640625,0.05181884765625
1761915602348383700,0.1673837890625,-0.988861083984375,-0.1287384033203125,0.0521087646484375
1761915602358438000,0.17743798828125,-0.9982452392578125,-0.1265716552734375,0.0543975830078125
1761915602368491800,0.18749169921875,-0.9990692138671875,-0.1280364990234375,0.052154541015625
1761915602378545700,0.197545654296875,-0.9940643310546875,-0.133819580078125,0.0530853271484375
1761915602388599600,0.207599609375,-0.988128662109375,-0.142364501953125,0.0498504638671875
1761915602398653700,0.21765380859375,-0.9811248779296875,-0.1459503173828125,0.0450897216796875
1761915602408708900,0.227708984375,-0.9723968505859375,-0.140899658203125,0.0419464111328125
1761915602418762800,0.2377626953125,-0.9697723388671875,-0.1353912353515625,0.038909912109375
1761915602428817000,0.24781689453125,-0.9755401611328125,-0.1340484619140625,0.041168212890625
1761915602438870800,0.257870849609375,-0.9833526611328125,-0.137176513671875,0.04345703125
1761915602448924700,0.267924560546875,-0.9871826171875,-0.1432952880859375,0.0448150634765625
1761915602458978600,0.277978515625,-0.984954833984375,-0.150115966796875,0.048492431640625
1761915602469032700,0.28803271484375,-0.9854888916015625,-0.156524658203125,0.05084228515625
1761915602479086600,0.298086669921875,-0.9862823486328125,-0.15655517578125,0.0500030517578125
1761915602489140700,0.308140625,-0.993988037109375,-0.1512298583984375,0.049530029296875
1761915602499195000,0.31819482421875,-0.9993896484375,-0.14544677734375,0.0501708984375
1761915602509248800,0.328248779296875,-0.9971923828125,-0.1416778564453125,0.0474853515625
1761915602519303000,0.338302978515625,-0.9925994873046875,-0.1367034912109375,0.0454254150390625
1761915602529356800,0.348356689453125,-0.9883575439453125,-0.13238525390625,0.04071044921875
1761915602539411700,0.35841162109375,-0.983612060546875,-0.126373291015625,0.0353851318359375
1761915602549465600,0.368465576171875,-0.98468017578125,-0.1239166259765625,0.0321044921875
1761915602559519700,0.378519775390625,-0.9905548095703125,-0.1244354248046875,0.0326385498046875
1761915602569573600,0.38857373046875,-0.9962615966796875,-0.1269989013671875,0.0281524658203125
1761915602579627800,0.398627685546875,-0.99798583984375,-0.128173828125,0.0215606689453125
1761915602589681700,0.408681640625,-1.0004730224609375,-0.1265411376953125,0.0169219970703125
1761915602599735800,0.41873583984375,-0.995635986328125,-0.1294708251953125,0.009979248046875
1761915602609790000,0.4287900390625,-0.9881134033203125,-0.131500244140625,0.0081024169921875
1761915602619843800,0.43884375,-0.9845428466796875,-0.1339111328125,0.0112152099609375
1761915602629897700,0.448897705078125,-0.9791107177734375,-0.142120361328125,0.010711669921875
1761915602639951600,0.45895166015625,-0.974395751953125,-0.1457672119140625,0.00555419921875
1761915602650005800,0.469005859375,-0.971160888671875,-0.141845703125,0.0032958984375
1761915602660059600,0.4790595703125,-0.9659881591796875,-0.13873291015625,-0.0019378662109375
1761915602670114800,0.48911474609375,-0.9584197998046875,-0.13677978515625,-0.0071563720703125
1761915602680168700,0.499168701171875,-0.953094482421875,-0.1408843994140625,-0.0098876953125
1761915602690222800,0.509222900390625,-0.95721435546875,-0.1448516845703125,-0.00933837890625
1761915602700276700,0.51927685546875,-0.97137451171875,-0.1464385986328125,-0.003265380859375
1761915602710330600,0.52933056640625,-0.984375,-0.144775390625,0.002471923828125
1761915602720384800,0.539384765625,-0.9860382080078125,-0.140533447265625,0.0048065185546875
1761915602730438700,0.549438720703125,-0.9747467041015625,-0.1320953369140625,0.0059051513671875
1761915602740492800,0.559492919921875,-0.9664154052734375,-0.1261749267578125,0.006561279296875
1761915602750546700,0.569546630859375,-0.9735260009765625,-0.1237030029296875,0.0125274658203125
1761915602760600800,0.579600830078125,-0.9818115234375,-0.123504638671875,0.0191192626953125
1761915602770654700,0.58965478515625,-1.0023193359375,-0.1234283447265625,0.02618408203125
1761915602780708900,0.599708984375,-1.0212249755859375,-0.113739013671875,0.0373077392578125
1761915602790762800,0.6097626953125,-1.026947021484375,-0.1070556640625,0.04644775390625
1761915602800817000,0.61981689453125,-1.0166168212890625,-0.10833740234375,0.0497894287109375
1761915602810871800,0.629871826171875,-1.0126953125,-0.11651611328125,0.05242919921875
1761915602820925700,0.63992578125,-1.0120086669921875,-0.1287689208984375,0.0555267333984375
1761915602830979800,0.649979736328125,-0.99835205078125,-0.1473388671875,0.049652099609375
1761915602841033700,0.66003369140625,-0.969512939453125,-0.16204833984375,0.039825439453125
1761915602851088000,0.670087890625,-0.9422607421875,-0.1667938232421875,0.026947021484375
1761915602861141800,0.680141845703125,-0.9468994140625,-0.1611328125,0.02532958984375
1761915602871196000,0.69019580078125,-0.9911041259765625,-0.1417236328125,0.040679931640625
1761915602881249800,0.700249755859375,-1.0655517578125,-0.1351470947265625,0.0659637451171875
1761915602891303700,0.7103037109375,-1.096923828125,-0.14892578125,0.082855224609375
1761915602901357600,0.720357666015625,-1.0811614990234375,-0.1793975830078125,0.07415771484375
1761915602911411700,0.73041162109375,-1.02191162109375,-0.200927734375,0.0545654296875
1761915602921465600,0.740465576171875,-0.9733123779296875,-0.22265625,0.0348663330078125
1761915602931520800,0.750520751953125,-0.961700439453125,-0.225616455078125,0.0191802978515625
1761915602941575000,0.760574951171875,-0.9605560302734375,-0.2110748291015625,0.0071868896484375
1761915602951628800,0.77062890625,-0.936920166015625,-0.2024078369140625,-0.008087158203125
1761915602961682700,0.7806826171875,-0.8966522216796875,-0.2083282470703125,-0.04107666015625
1761915602971736600,0.790736572265625,-0.8852386474609375,-0.2202606201171875,-0.08807373046875
1761915602981790700,0.800790771484375,-0.925201416015625,-0.208770751953125,-0.115814208984375
1761915602991844600,0.8108447265625,-0.985565185546875,-0.1690521240234375,-0.119140625
1761915603001898800,0.820898681640625,-1.0096282958984375,-0.1147308349609375,-0.11187744140625
1761915603011952600,0.83095263671875,-1.02081298828125,-0.1063995361328125,-0.116668701171875
1761915603022006300,0.84100634765625,-1.0149078369140625,-0.1371002197265625,-0.1175079345703125
1761915603032060200,0.85106005859375,-0.9882049560546875,-0.20037841796875,-0.138641357421875
1761915603042114300,0.8611142578125,-0.9506378173828125,-0.2693023681640625,-0.1602935791015625
1761915603052168200,0.871168212890625,-0.908843994140625,-0.29913330078125,-0.1608734130859375
1761915603062223000,0.88122314453125,-0.8813018798828125,-0.29498291015625,-0.1651458740234375
1761915603072277200,0.89127734375,-0.8410797119140625,-0.2988739013671875,-0.212615966796875
1761915603082331100,0.9013310546875,-0.812255859375,-0.3078460693359375,-0.2646331787109375
1761915603092385300,0.91138525390625,-0.8288116455078125,-0.29534912109375,-0.2784271240234375
1761915603102439200,0.921439208984375,-0.8654327392578125,-0.2766876220703125,-0.26422119140625
1761915603112493300,0.931493408203125,-0.90509033203125,-0.26416015625,-0.243621826171875
1761915603122547200,0.941547119140625,-0.9270172119140625,-0.2635498046875,-0.224273681640625
1761915603132601300,0.951601318359375,-0.9202423095703125,-0.281402587890625,-0.22705078125
1761915603142655200,0.9616552734375,-0.8683624267578125,-0.30267333984375,-0.245697021484375
1761915603152709000,0.971709228515625,-0.8295745849609375,-0.321624755859375,-0.256378173828125
1761915603162763300,0.98176318359375,-0.850830078125,-0.325164794921875,-0.2386627197265625
1761915603172817200,0.991817138671875,-0.909332275390625,-0.3204803466796875,-0.2121124267578125
1761915603182871300,1.001871337890625,-0.970367431640625,-0.3140106201171875,-0.1858978271484375
1761915603192926200,1.01192626953125,-0.97930908203125,-0.3199920654296875,-0.184356689453125
1761915603202980400,1.02198046875,-0.9585113525390625,-0.3336334228515625,-0.2057952880859375
1761915603213034200,1.0320341796875,-0.9495086669921875,-0.3357696533203125,-0.2210693359375
1761915603223088400,1.04208837890625,-0.9504852294921875,-0.3278350830078125,-0.222381591796875
1761915603233142000,1.05214208984375,-0.9189910888671875,-0.3148956298828125,-0.238189697265625
1761915603243196200,1.062196044921875,-0.90472412109375,-0.30322265625,-0.2491302490234375
1761915603253250300,1.072250244140625,-0.9144744873046875,-0.3007965087890625,-0.244903564453125
1761915603263304200,1.08230419921875,-0.8966064453125,-0.2952728271484375,-0.2275390625
1761915603273358300,1.0923583984375,-0.8502197265625,-0.28875732421875,-0.219146728515625
1761915603283412200,1.102412109375,-0.8131561279296875,-0.28961181640625,-0.2125396728515625
1761915603293466400,1.11246630859375,-0.8210601806640625,-0.29681396484375,-0.1917572021484375
1761915603303520300,1.122520263671875,-0.872222900390625,-0.2966766357421875,-0.1584930419921875
1761915603313574400,1.132574462890625,-0.94073486328125,-0.2827911376953125,-0.1261444091796875
1761915603323629000,1.142629150390625,-0.986663818359375,-0.2645721435546875,-0.10516357421875
1761915603333683200,1.15268310546875,-0.9953460693359375,-0.26324462890625,-0.1038055419921875
1761915603343737000,1.162737060546875,-0.9824371337890625,-0.2686614990234375,-0.1102294921875
1761915603353791200,1.172791259765625,-0.969451904296875,-0.272613525390625,-0.1123809814453125
1761915603363845400,1.182845458984375,-0.95269775390625,-0.2767181396484375,-0.1182403564453125
1761915603373899300,1.192899169921875,-0.9356536865234375,-0.258758544921875,-0.117523193359375
1761915603383953400,1.202953369140625,-0.9407806396484375,-0.2241973876953125,-0.1103668212890625
1761915603394007300,1.21300732421875,-0.956787109375,-0.2030487060546875,-0.0938873291015625
1761915603404061400,1.2230615234375,-0.9783477783203125,-0.196746826171875,-0.066558837890625
1761915603414115000,1.233114990234375,-1.008056640625,-0.198760986328125,-0.044219970703125
1761915603424169200,1.243169189453125,-1.008087158203125,-0.21197509765625,-0.038665771484375
1761915603434223000,1.25322314453125,-0.99505615234375,-0.222198486328125,-0.0449066162109375
1761915603444277200,1.26327734375,-0.966705322265625,-0.2230987548828125,-0.0485687255859375
1761915603454332400,1.27333251953125,-0.9380035400390625,-0.2295074462890625,-0.05731201171875
1761915603464386300,1.28338623046875,-0.9390869140625,-0.264923095703125,-0.077239990234375
1761915603474440400,1.2934404296875,-0.8767852783203125,-0.229766845703125,-0.0374908447265625
1761915603484494300,1.303494384765625,-0.864959716796875,-0.1764068603515625,-0.0267333984375
1761915603494548200,1.31354833984375,-0.9536895751953125,-0.151641845703125,-0.00299072265625
1761915603504602000,1.32360205078125,-1.031890869140625,-0.116363525390625,0.0288543701171875
1761915603514656300,1.33365625,-1.078704833984375,-0.0835113525390625,0.0466156005859375
1761915603524710100,1.343710205078125,-1.1078643798828125,-0.0807342529296875,0.044464111328125
1761915603534764300,1.353764404296875,-1.1183929443359375,-0.1120452880859375,0.03179931640625
1761915603544818200,1.363818115234375,-1.0928955078125,-0.148681640625,0.02752685546875
1761915603554872300,1.373872314453125,-1.045013427734375,-0.179534912109375,0.0238494873046875
1761915603564926200,1.38392626953125,-1.014617919921875,-0.21966552734375,0.0024871826171875
1761915603574980400,1.39398046875,-0.99566650390625,-0.2351226806640625,-0.00299072265625
1761915603585035300,1.40403515625,-0.9908905029296875,-0.219818115234375,0.001953125
1761915603595089200,1.414089111328125,-1.00592041015625,-0.173614501953125,0.018524169921875
1761915603605143300,1.424143310546875,-1.026458740234375,-0.1224365234375,0.0438079833984375
1761915603615197200,1.434197265625,-1.0636749267578125,-0.126617431640625,0.0828094482421875
1761915603625251300,1.444251220703125,-1.0217437744140625,-0.1411590576171875,0.01043701171875
1761915603635305200,1.45430517578125,-0.8981170654296875,-0.1479949951171875,0.0192718505859375
1761915603645359400,1.464359375,-0.8849334716796875,-0.2187652587890625,0.028289794921875
1761915603655413200,1.474413330078125,-0.93243408203125,-0.25018310546875,-0.0155181884765625
1761915603665467100,1.484467041015625,-0.9361419677734375,-0.2248992919921875,0.0330810546875
1761915603675521000,1.49452099609375,-0.959808349609375,-0.2094879150390625,0.056854248046875
1761915603685575200,1.5045751953125,-0.9839935302734375,-0.2031097412109375,0.0579376220703125
1761915603695629300,1.51462939453125,-0.988067626953125,-0.196136474609375,0.0613250732421875
1761915603705683200,1.52468310546875,-0.979766845703125,-0.189697265625,0.063323974609375
1761915603715738400,1.53473828125,-0.9889373779296875,-0.1853790283203125,0.0679473876953125
1761915603725792300,1.544792236328125,-0.9911651611328125,-0.1857452392578125,0.06988525390625
1761915603735846400,1.554846435546875,-1.0146636962890625,-0.17889404296875,0.0796356201171875
1761915603745900000,1.564900146484375,-1.050994873046875,-0.1747894287109375,0.0943756103515625
1761915603755954200,1.5749541015625,-1.060760498046875,-0.175079345703125,0.09967041015625
1761915603766008000,1.585008056640625,-1.03985595703125,-0.1785125732421875,0.0905609130859375
1761915603776062200,1.595062255859375,-0.9918060302734375,-0.1769866943359375,0.0667724609375
1761915603786116000,1.6051162109375,-0.913970947265625,-0.1948699951171875,0.0569915771484375
1761915603796170200,1.615170166015625,-0.9224395751953125,-0.2054443359375,0.0401458740234375
1761915603806224400,1.625224365234375,-0.947296142578125,-0.192779541015625,0.050689697265625
1761915603816278300,1.6352783203125,-0.9822998046875,-0.184356689453125,0.065643310546875
1761915603826332400,1.64533251953125,-1.00628662109375,-0.17376708984375,0.0632171630859375
1761915603836386300,1.65538623046875,-0.9892120361328125,-0.16326904296875,0.0535430908203125
1761915603846441200,1.665441162109375,-0.9668731689453125,-0.1592864990234375,0.0403900146484375
1761915603856495000,1.6754951171875,-0.9503631591796875,-0.1524810791015625,0.0291290283203125
1761915603866549200,1.68554931640625,-0.9358978271484375,-0.150054931640625,0.014434814453125
1761915603876603100,1.69560302734375,-0.9226531982421875,-0.145050048828125,-0.0042266845703125
1761915603886657300,1.7056572265625,-0.9182586669921875,-0.13372802734375,-0.0190582275390625
1761915603896711400,1.71571142578125,-0.9217376708984375,-0.117767333984375,-0.024322509765625
1761915603906765300,1.725765380859375,-0.93115234375,-0.107513427734375,-0.02606201171875
1761915603916819500,1.7358193359375,-0.9429473876953125,-0.1022186279296875,-0.027587890625
1761915603926873000,1.745873046875,-0.9548492431640625,-0.10064697265625,-0.0286712646484375
1761915603936927200,1.75592724609375,-0.9679412841796875,-0.0949554443359375,-0.0239410400390625
1761915603946981000,1.765981201171875,-0.977569580078125,-0.0909423828125,-0.0179595947265625
1761915603957035300,1.77603515625,-0.9812774658203125,-0.0926055908203125,-0.013031005859375
1761915603967090200,1.786090087890625,-0.9792938232421875,-0.093994140625,-0.0104827880859375
1761915603977144300,1.796144287109375,-0.9820556640625,-0.0911102294921875,-0.0101165771484375
1761915603987198500,1.806198486328125,-0.9870758056640625,-0.0825958251953125,-0.011260986328125
1761915603997252400,1.81625244140625,-0.9918212890625,-0.0691680908203125,-0.0121612548828125
1761915604007306200,1.82630615234375,-0.9977874755859375,-0.0628662109375,-0.01470947265625
1761915604017360100,1.836360107421875,-1.00360107421875,-0.067474365234375,-0.0109710693359375
1761915604027415300,1.846415283203125,-0.998931884765625,-0.083465576171875,-0.0019378662109375
1761915604037469200,1.85646923828125,-0.99029541015625,-0.0973358154296875,-0.0030517578125
1761915604047523300,1.8665234375,-0.98095703125,-0.1019134521484375,-0.00811767578125
1761915604057577200,1.8765771484375,-0.989044189453125,-0.1023712158203125,-0.009613037109375
1761915604067631400,1.88663134765625,-0.9956207275390625,-0.0924224853515625,-0.0102081298828125
1761915604077685200,1.896685302734375,-0.9842529296875,-0.0819549560546875,-0.0098419189453125
1761915604087739100,1.9067392578125,-0.9696807861328125,-0.0800933837890625,-0.01739501953125
1761915604097794300,1.916794189453125,-0.968902587890625,-0.08642578125,-0.0227203369140625
1761915604107848200,1.92684814453125,-0.9725799560546875,-0.0929107666015625,-0.017974853515625
1761915604117902300,1.93690234375,-0.9921417236328125,-0.1052093505859375,-0.010955810546875
1761915604127956200,1.946956298828125,-1.0161895751953125,-0.1096954345703125,-0.0053558349609375
1761915604138010400,1.95701025390625,-1.0166168212890625,-0.105621337890625,-0.0028533935546875
1761915604148064300,1.967064208984375,-1.0007781982421875,-0.103668212890625,-0.013702392578125
1761915604158118100,1.9771181640625,-0.98681640625,-0.103485107421875,-0.0211944580078125
1761915604168172300,1.98717236328125,-0.9792022705078125,-0.1050262451171875,-0.0263671875
1761915604178226200,1.99722607421875,-0.972625732421875,-0.10125732421875,-0.024078369140625
1761915604188280300,2.0072802734375,-0.9691314697265625,-0.0884246826171875,-0.0125885009765625
1761915604198334200,2.017334228515625,-0.987213134765625,-0.0744476318359375,-0.0011138916015625
1761915604208388400,2.027388427734375,-1.0071868896484375,-0.0737762451171875,0.00457763671875
1761915604218442200,2.037442138671875,-1.0341949462890625,-0.0858917236328125,0.004180908203125
1761915604228497200,2.0474970703125,-1.0251922607421875,-0.08795166015625,0.006683349609375
1761915604238551000,2.057551025390625,-1.00439453125,-0.0906982421875,0.002105712890625
1761915604248605200,2.067605224609375,-0.9915924072265625,-0.092041015625,-0.0063018798828125
1761915604258659000,2.0776591796875,-0.9810638427734375,-0.088714599609375,-0.0071258544921875
1761915604268713200,2.087713134765625,-0.9715728759765625,-0.0847015380859375,-0.010406494140625
1761915604278767400,2.097767333984375,-0.965728759765625,-0.0819244384765625,-0.0151519775390625
1761915604288821200,2.1078212890625,-0.970306396484375,-0.0807037353515625,-0.017822265625
1761915604298875400,2.11787548828125,-0.988494873046875,-0.07757568359375,-0.0151214599609375
1761915604308929300,2.12792919921875,-1.0030670166015625,-0.079345703125,-0.00628662109375
1761915604318983400,2.1379833984375,-1.0074615478515625,-0.084869384765625,0
1761915604329037300,2.148037353515625,-0.996246337890625,-0.0931396484375,0.002960205078125
1761915604339091200,2.15809130859375,-0.9743194580078125,-0.0980987548828125,-0.0057830810546875
1761915604349145000,2.16814501953125,-0.957000732421875,-0.0991363525390625,-0.0258026123046875
1761915604359200300,2.1782001953125,-0.9513397216796875,-0.0858612060546875,-0.0341949462890625
1761915604369254400,2.18825439453125,-0.9715118408203125,-0.07342529296875,-0.027069091796875
1761915604379308300,2.198308349609375,-0.999969482421875,-0.06915283203125,-0.0121307373046875
1761915604389362400,2.208362548828125,-1.0156707763671875,-0.0740966796875,-0.0032501220703125
1761915604399416300,2.218416259765625,-1.013916015625,-0.083404541015625,-0.0008697509765625
1761915604409470200,2.22847021484375,-1.003143310546875,-0.0905609130859375,-0.0017547607421875
1761915604419524000,2.238524169921875,-0.9988861083984375,-0.0987701416015625,-0.004119873046875
1761915604429578200,2.248578125,-0.9953155517578125,-0.1065826416015625,-0.0017242431640625
1761915604439632100,2.258632080078125,-0.9929656982421875,-0.1149749755859375,-0.001251220703125
1761915604449686300,2.268686279296875,-0.99285888671875,-0.1190338134765625,-0.011199951171875
1761915604459740200,2.278740234375,-0.9830780029296875,-0.1052093505859375,-0.014801025390625
1761915604469794300,2.288794189453125,-0.97894287109375,-0.0841064453125,-0.008758544921875
1761915604479849200,2.29884912109375,-0.981903076171875,-0.0704498291015625,-0.007537841796875
1761915604489903000,2.308903076171875,-0.9902191162109375,-0.0729827880859375,-0.0085906982421875
1761915604499957200,2.318957275390625,-1.004241943359375,-0.0835113525390625,-0.0077972412109375
1761915604510011100,2.32901123046875,-1.009368896484375,-0.0952606201171875,-0.0104522705078125
1761915604520065300,2.339065185546875,-1.0080718994140625,-0.098388671875,-0.0108642578125
1761915604530119200,2.349119140625,-1.00048828125,-0.095977783203125,-0.0058135986328125
1761915604540173300,2.35917333984375,-0.989501953125,-0.0943756103515625,-0.0031585693359375
1761915604550227200,2.369227294921875,-0.98114013671875,-0.095458984375,-0.00531005859375
1761915604560281300,2.37928125,-0.9737701416015625,-0.095001220703125,-0.0084991455078125
1761915604570335200,2.389335205078125,-0.97601318359375,-0.0923614501953125,-0.0070953369140625
1761915604580389400,2.399389404296875,-0.9868621826171875,-0.0929718017578125,-0.005279541015625
1761915604590443000,2.409443115234375,-1.0008697509765625,-0.0916595458984375,-0.001068115234375
1761915604600497200,2.4194970703125,-1.0134429931640625,-0.0910491943359375,0.004974365234375
1761915604610552300,2.42955224609375,-1.015777587890625,-0.09259033203125,0.0105743408203125
1761915604620606200,2.439606201171875,-1.010406494140625,-0.0982208251953125,0.0154876708984375
1761915604630660400,2.449660400390625,-1.0055999755859375,-0.10308837890625,0.01202392578125
1761915604640714200,2.45971435546875,-0.998382568359375,-0.1035308837890625,0.0046539306640625
1761915604650768400,2.469768310546875,-0.988922119140625,-0.0966339111328125,0.0021514892578125
1761915604660822300,2.479822265625,-0.9917755126953125,-0.08990478515625,0.0043182373046875
1761915604670876200,2.489876220703125,-1.0012054443359375,-0.088592529296875,0.0067596435546875
1761915604680930000,2.499929931640625,-1.0110321044921875,-0.088836669921875,0.0124664306640625
1761915604690984200,2.509984130859375,-1.008758544921875,-0.0917816162109375,0.012298583984375
1761915604701038000,2.5200380859375,-0.9957427978515625,-0.0935821533203125,0.00689697265625
1761915604711092200,2.53009228515625,-0.98663330078125,-0.0935211181640625,0.00152587890625
1761915604721146400,2.540146484375,-0.9839324951171875,-0.0975189208984375,-0.002471923828125
1761915604731201300,2.550201171875,-0.9884033203125,-0.0985260009765625,-0.003448486328125
1761915604741255200,2.560255126953125,-0.9956207275390625,-0.0992431640625,-0.006256103515625
1761915604751309000,2.57030908203125,-0.9979095458984375,-0.0922088623046875,-0.00726318359375
1761915604761363200,2.58036328125,-0.9907379150390625,-0.083587646484375,-0.0070037841796875
1761915604771417000,2.5904169921875,-0.9812774658203125,-0.0812530517578125,-0.0108489990234375
1761915604781471200,2.60047119140625,-0.9679718017578125,-0.0845794677734375,-0.0152587890625
1761915604791525000,2.610525146484375,-0.955596923828125,-0.089019775390625,-0.019561767578125
1761915604801579300,2.620579345703125,-0.9578399658203125,-0.0915679931640625,-0.0250701904296875
1761915604811633400,2.63063330078125,-0.9630279541015625,-0.0896759033203125,-0.0265350341796875
1761915604821687300,2.640687255859375,-0.979705810546875,-0.0907745361328125,-0.0194854736328125
1761915604831741400,2.650741455078125,-1.004852294921875,-0.095794677734375,-0.00762939453125
1761915604841795300,2.66079541015625,-1.019927978515625,-0.10211181640625,0.0046234130859375
1761915604851850200,2.670850341796875,-1.0193634033203125,-0.1082305908203125,0.0140380859375
1761915604861904100,2.680904052734375,-1.0066070556640625,-0.10955810546875,0.01898193359375
1761915604871958300,2.690958251953125,-0.988861083984375,-0.111907958984375,0.019012451171875
1761915604882012200,2.70101220703125,-0.9703216552734375,-0.1129302978515625,0.0151824951171875
1761915604892066300,2.71106640625,-0.960693359375,-0.1133270263671875,0.0086517333984375
1761915604902120400,2.721120361328125,-0.9682769775390625,-0.1181182861328125,0.0085296630859375
1761915604912174300,2.73117431640625,-0.9833526611328125,-0.119415283203125,0.0140380859375
1761915604922228200,2.741228271484375,-0.9963836669921875,-0.122161865234375,0.0142059326171875
1761915604932282000,2.7512822265625,-1.0043487548828125,-0.1244049072265625,0.014068603515625
1761915604942336300,2.761336181640625,-0.996185302734375,-0.124359130859375,0.02001953125
1761915604952390100,2.77139013671875,-0.979248046875,-0.1233367919921875,0.021942138671875
1761915604962444300,2.7814443359375,-0.9709930419921875,-0.1255340576171875,0.0167083740234375
1761915604972499200,2.791499267578125,-0.9788970947265625,-0.1301727294921875,0.01190185546875
1761915604982553300,2.80155322265625,-0.9830780029296875,-0.1337432861328125,0.008575439453125
1761915604992607200,2.811607177734375,-0.97467041015625,-0.1340484619140625,0.0096588134765625
1761915605002661000,2.8216611328125,-0.970977783203125,-0.1357574462890625,0.0076141357421875
1761915605012715300,2.83171533203125,-0.97265625,-0.132110595703125,0.0103912353515625
1761915605022769200,2.84176904296875,-0.9683990478515625,-0.1255950927734375,0.014434814453125
1761915605032823300,2.8518232421875,-0.9683837890625,-0.125457763671875,0.01275634765625
1761915605042877200,2.861877197265625,-0.9710845947265625,-0.1242523193359375,0.00775146484375
1761915605052931300,2.871931396484375,-0.973663330078125,-0.1229400634765625,0.005767822265625
1761915605062985200,2.881985107421875,-0.9763336181640625,-0.129241943359375,0.0020294189453125
1761915605073039400,2.892039306640625,-0.9782257080078125,-0.14007568359375,0.000244140625
1761915605083093200,2.90209326171875,-0.9865875244140625,-0.1488189697265625,0.0015411376953125
1761915605093147400,2.9121474609375,-0.9816131591796875,-0.149993896484375,0.0025634765625
1761915605103202300,2.922202392578125,-0.964630126953125,-0.145294189453125,0.0010223388671875
1761915605113256200,2.932256103515625,-0.9554901123046875,-0.140045166015625,-0.00579833984375
1761915605123310300,2.942310302734375,-0.9576263427734375,-0.12890625,-0.010498046875
1761915605133364200,2.9523642578125,-0.9665679931640625,-0.1138916015625,-0.0090789794921875
1761915605143418400,2.96241845703125,-0.978546142578125,-0.103759765625,-0.0070648193359375
1761915605153472300,2.97247216796875,-0.9878082275390625,-0.103668212890625,-0.00244140625
1761915605163526400,2.9825263671875,-0.99237060546875,-0.110137939453125,0.0001068115234375
1761915605173580300,2.992580322265625,-0.9894256591796875,-0.117919921875,0.00213623046875
1761915605183634200,3.00263427734375,-0.98712158203125,-0.12579345703125,0.00262451171875
1761915605193688300,3.012688232421875,-0.9956207275390625,-0.1322784423828125,0.0047607421875
1761915605203742200,3.0227421875,-0.9982452392578125,-0.134979248046875,0.0024261474609375
1761915605213796400,3.03279638671875,-0.995147705078125,-0.13165283203125,0.0016937255859375
1761915605223851300,3.042851318359375,-0.9906463623046875,-0.129669189453125,0.0035400390625
1761915605233905400,3.052905517578125,-0.984649658203125,-0.132537841796875,0.001678466796875
1761915605243959300,3.062959228515625,-0.984130859375,-0.1353607177734375,-0.00079345703125
1761915605254013200,3.07301318359375,-0.990020751953125,-0.1341705322265625,0.0016632080078125
1761915605264067000,3.083067138671875,-0.9962005615234375,-0.1310577392578125,0.003509521484375
1761915605274121200,3.093121337890625,-0.9974822998046875,-0.13067626953125,0.0039825439453125
1761915605284175400,3.10317529296875,-0.996490478515625,-0.134246826171875,0.0048675537109375
1761915605294229200,3.113229248046875,-0.996734619140625,-0.1396484375,0.0080108642578125
1761915605304283400,3.123283447265625,-0.99468994140625,-0.145660400390625,0.0088653564453125
1761915605314337300,3.133337158203125,-0.9940185546875,-0.1511383056640625,0.0078887939453125
1761915605324391400,3.143391357421875,-0.987274169921875,-0.1517486572265625,0.005462646484375
1761915605334445300,3.1534453125,-0.9763031005859375,-0.14813232421875,0.0001678466796875
1761915605344500200,3.163500244140625,-0.9732208251953125,-0.1421661376953125,-0.0069122314453125
1761915605354554000,3.17355419921875,-0.9741058349609375,-0.13665771484375,-0.0088958740234375
1761915605364608300,3.183608154296875,-0.9792633056640625,-0.1360931396484375,-0.0079193115234375
1761915605374662400,3.193662353515625,-0.9844818115234375,-0.137939453125,-0.0088958740234375
1761915605384716300,3.20371630859375,-0.982452392578125,-0.1393585205078125,-0.0083160400390625
1761915605394770400,3.2137705078125,-0.980926513671875,-0.1417388916015625,-0.0105133056640625
1761915605404824300,3.22382421875,-0.9836273193359375,-0.1402435302734375,-0.0186920166015625
1761915605414878500,3.23387841796875,-0.97430419921875,-0.1329803466796875,-0.0214080810546875
1761915605424932400,3.243932373046875,-0.964019775390625,-0.1304931640625,-0.01983642578125
1761915605434986200,3.253986328125,-0.963592529296875,-0.13031005859375,-0.0195159912109375
1761915605445040000,3.2640400390625,-0.9683380126953125,-0.1318817138671875,-0.0195465087890625
1761915605455094300,3.27409423828125,-0.9781951904296875,-0.1361236572265625,-0.0158843994140625
1761915605465149200,3.284149169921875,-0.98858642578125,-0.139495849609375,-0.009429931640625
1761915605475203300,3.294203369140625,-0.9941864013671875,-0.1405792236328125,-0.00360107421875
1761915605485257500,3.304257568359375,-0.99267578125,-0.137847900390625,-0.003021240234375
1761915605495311400,3.314311279296875,-0.988372802734375,-0.13470458984375,-0.0063018798828125
1761915605505365200,3.324365234375,-0.9881134033203125,-0.132080078125,-0.0063323974609375
1761915605515419100,3.334419189453125,-0.988525390625,-0.1321868896484375,-0.005126953125
1761915605525473300,3.344473388671875,-0.981842041015625,-0.13665771484375,-0.0056304931640625
1761915605535527200,3.354527099609375,-0.97735595703125,-0.1427764892578125,-0.005157470703125
1761915605545581300,3.364581298828125,-0.974151611328125,-0.147247314453125,-0.000396728515625
1761915605555635200,3.37463525390625,-0.9718017578125,-0.150543212890625,0.0016937255859375
1761915605565689300,3.384689453125,-0.9678497314453125,-0.150909423828125,-0.0001220703125
1761915605575743200,3.3947431640625,-0.972015380859375,-0.1527557373046875,0.002532958984375
1761915605585798100,3.404798095703125,-0.9816131591796875,-0.1554718017578125,0.005096435546875
1761915605595852300,3.414852294921875,-0.9911346435546875,-0.154022216796875,0.0094757080078125
1761915605605906200,3.42490625,-0.997344970703125,-0.1509552001953125,0.0136871337890625
1761915605615960300,3.434960205078125,-0.99700927734375,-0.1487274169921875,0.0157470703125
1761915605626014200,3.44501416015625,-0.9847259521484375,-0.14642333984375,0.0140838623046875
1761915605636068400,3.455068359375,-0.9697723388671875,-0.142913818359375,0.0088348388671875
1761915605646122200,3.465122314453125,-0.9588775634765625,-0.13885498046875,-0.0020904541015625
1761915605656176400,3.47517626953125,-0.9551544189453125,-0.1326141357421875,-0.0085906982421875
1761915605666230300,3.485230224609375,-0.962432861328125,-0.12945556640625,-0.009552001953125
1761915605676284400,3.495284423828125,-0.97442626953125,-0.1303558349609375,-0.010345458984375
1761915605686338300,3.50533837890625,-0.9808349609375,-0.1310577392578125,-0.009002685546875
1761915605696393200,3.515393310546875,-0.986846923828125,-0.134063720703125,-0.01123046875
1761915605706447400,3.525447265625,-0.991790771484375,-0.1343841552734375,-0.0165557861328125
1761915605716501200,3.535501220703125,-0.9869384765625,-0.1320648193359375,-0.0186004638671875
1761915605726555400,3.545555419921875,-0.98602294921875,-0.133697509765625,-0.0203094482421875
1761915605736609300,3.555609375,-0.983978271484375,-0.135040283203125,-0.0214080810546875
1761915605746663400,3.565663330078125,-0.9792327880859375,-0.1366424560546875,-0.0233154296875
1761915605756717300,3.57571728515625,-0.974609375,-0.1389923095703125,-0.024749755859375
1761915605766771200,3.585771240234375,-0.9736328125,-0.1412506103515625,-0.02288818359375
1761915605776825000,3.5958251953125,-0.9761199951171875,-0.141021728515625,-0.0209503173828125
1761915605786879200,3.605879150390625,-0.98199462890625,-0.1407318115234375,-0.0207672119140625
1761915605796933000,3.61593310546875,-0.994171142578125,-0.14117431640625,-0.018035888671875
1761915605806987300,3.6259873046875,-1.00372314453125,-0.1414031982421875,-0.0134429931640625
1761915605817042400,3.63604248046875,-1.0090179443359375,-0.14404296875,-0.00994873046875
1761915605827096300,3.646096435546875,-1.00408935546875,-0.143096923828125,-0.0091400146484375
1761915605837150200,3.656150146484375,-0.9951629638671875,-0.1405181884765625,-0.0081939697265625
1761915605847204000,3.6662041015625,-0.986358642578125,-0.1394195556640625,-0.008544921875
1761915605857258200,3.67625830078125,-0.9874420166015625,-0.1416473388671875,-0.0088653564453125
1761915605867312000,3.68631201171875,-0.9928436279296875,-0.1465606689453125,-0.0076751708984375
1761915605877366300,3.6963662109375,-0.9991607666015625,-0.1507568359375,-0.0093841552734375
1761915605887420200,3.706420166015625,-1.00201416015625,-0.1530609130859375,-0.00848388671875
1761915605897474300,3.716474365234375,-0.9957427978515625,-0.14935302734375,-0.0065155029296875
1761915605907528400,3.726528564453125,-0.9815521240234375,-0.1436920166015625,-0.0077667236328125
1761915605917582300,3.736582275390625,-0.9683074951171875,-0.1389923095703125,-0.01318359375
1761915605927637200,3.74663720703125,-0.96600341796875,-0.13702392578125,-0.0176544189453125
1761915605937691100,3.756691162109375,-0.9712066650390625,-0.139892578125,-0.018890380859375
1761915605947745300,3.766745361328125,-0.979522705078125,-0.1417388916015625,-0.017486572265625
1761915605957799200,3.776799072265625,-0.9820709228515625,-0.13848876953125,-0.0177001953125
1761915605967853300,3.786853271484375,-0.9851531982421875,-0.13494873046875,-0.01751708984375
1761915605977907200,3.7969072265625,-0.9857177734375,-0.133087158203125,-0.016571044921875
1761915605987961300,3.80696142578125,-0.97943115234375,-0.1334228515625,-0.020111083984375
1761915605998015200,3.81701513671875,-0.9687042236328125,-0.134185791015625,-0.024200439453125
1761915606008069400,3.8270693359375,-0.9605865478515625,-0.137542724609375,-0.023040771484375
1761915606018123300,3.837123291015625,-0.95611572265625,-0.1439056396484375,-0.0216064453125
1761915606028173000,3.847173095703125,-0.952392578125,-0.150634765625,-0.0216064453125
1761915606038227000,3.85722705078125,-0.9545135498046875,-0.15753173828125,-0.0200653076171875
1761915606048281900,3.86728173828125,-0.9620208740234375,-0.158294677734375,-0.0181121826171875
1761915606058335700,3.877335693359375,-0.9742279052734375,-0.15936279296875,-0.0126953125
1761915606068390000,3.887389892578125,-0.9875030517578125,-0.157318115234375,-0.006103515625
1761915606078443800,3.89744384765625,-0.99957275390625,-0.1507568359375,0.00140380859375
1761915606088498000,3.907497802734375,-1.00860595703125,-0.1392669677734375,0.0057830810546875
1761915606098551800,3.9175517578125,-1.0063018798828125,-0.1270294189453125,0.0067901611328125
1761915606108606000,3.92760595703125,-1.002044677734375,-0.121917724609375,0.00299072265625
1761915606118660000,3.93766015625,-1.0004425048828125,-0.1268310546875,-0.002227783203125
1761915606128713700,3.947713623046875,-0.99713134765625,-0.135589599609375,-0.002655029296875
1761915606138768000,3.957767822265625,-0.9929962158203125,-0.145721435546875,-0.0039215087890625
1761915606148821800,3.96782177734375,-0.9922943115234375,-0.1537933349609375,-0.0046844482421875
1761915606158877000,3.977876953125,-0.984619140625,-0.158233642578125,-0.0060272216796875
1761915606168930800,3.987930908203125,-0.971099853515625,-0.1573944091796875,-0.009613037109375
1761915606178985000,3.99798486328125,-0.963531494140625,-0.153656005859375,-0.0114288330078125
1761915606189038800,4.008038818359375,-0.9641876220703125,-0.1486053466796875,-0.0122833251953125
1761915606199093000,4.018093017578125,-0.964874267578125,-0.1459808349609375,-0.013397216796875
1761915606209147000,4.02814697265625,-0.9759368896484375,-0.14617919921875,-0.0113983154296875
1761915606219200800,4.03820068359375,-0.9835205078125,-0.148834228515625,-0.0082550048828125
1761915606229255000,4.0482548828125,-0.983306884765625,-0.1543426513671875,-0.0081939697265625
1761915606239308800,4.058308837890625,-0.97662353515625,-0.158599853515625,-0.0089111328125
1761915606249363000,4.068363037109375,-0.9714508056640625,-0.1639862060546875,-0.0108489990234375
1761915606259416800,4.078416748046875,-0.969146728515625,-0.1663970947265625,-0.011932373046875
1761915606269472000,4.088471923828125,-0.9677886962890625,-0.1651611328125,-0.012359619140625
1761915606279525600,4.098525634765625,-0.9770355224609375,-0.1639556884765625,-0.011993408203125
1761915606289579800,4.108579833984375,-0.9912109375,-0.161468505859375,-0.0083160400390625
1761915606299634000,4.118634033203125,-0.9964141845703125,-0.1576690673828125,-0.0061492919921875
1761915606309687800,4.128687744140625,-0.9903411865234375,-0.1541900634765625,-0.007659912109375
1761915606319742000,4.138741943359375,-0.98358154296875,-0.14996337890625,-0.010986328125
1761915606329795800,4.1487958984375,-0.9760894775390625,-0.14697265625,-0.0136871337890625
1761915606339850000,4.15885009765625,-0.9739990234375,-0.1474609375,-0.01068115234375
1761915606349904000,4.16890380859375,-0.979217529296875,-0.151397705078125,-0.0098419189453125
1761915606359958000,4.1789580078125,-0.9871063232421875,-0.1551971435546875,-0.0129241943359375
1761915606370012000,4.189011962890625,-0.98541259765625,-0.15380859375,-0.012908935546875
1761915606380066800,4.19906689453125,-0.9787750244140625,-0.1484527587890625,-0.0093994140625
1761915606390121000,4.209120849609375,-0.9766998291015625,-0.1443634033203125,-0.0116729736328125
1761915606400174800,4.2191748046875,-0.9744415283203125,-0.14239501953125,-0.013763427734375
1761915606410229000,4.22922900390625,-0.98162841796875,-0.1434173583984375,-0.0127410888671875
1761915606420283000,4.239282958984375,-0.9863433837890625,-0.1462554931640625,-0.0124053955078125
1761915606430337000,4.2493369140625,-0.982147216796875,-0.147918701171875,-0.0146484375
1761915606440391000,4.259390869140625,-0.9756622314453125,-0.14794921875,-0.0181884765625
1761915606450445000,4.269445068359375,-0.9711761474609375,-0.146209716796875,-0.0191650390625
1761915606460498700,4.279498779296875,-0.96917724609375,-0.146392822265625,-0.0179443359375
1761915606470552800,4.289552734375,-0.9729766845703125,-0.1498870849609375,-0.0161590576171875
1761915606480606700,4.299606689453125,-0.9730072021484375,-0.155517578125,-0.0148468017578125
1761915606490662000,4.309661865234375,-0.97705078125,-0.1640625,-0.01531982421875
1761915606500716000,4.319716064453125,-0.9862060546875,-0.164794921875,-0.014068603515625
1761915606510770000,4.32977001953125,-0.9903106689453125,-0.1590728759765625,-0.0143280029296875
1761915606520824000,4.339823974609375,-0.9867706298828125,-0.15325927734375,-0.0170440673828125
1761915606530878000,4.3498779296875,-0.9825897216796875,-0.1474456787109375,-0.018157958984375
1761915606540931800,4.359931884765625,-0.9802093505859375,-0.1429901123046875,-0.0204925537109375
1761915606550985700,4.36998583984375,-0.9777984619140625,-0.13720703125,-0.0199432373046875
1761915606561040000,4.380039794921875,-0.9795684814453125,-0.13262939453125,-0.0165863037109375
1761915606571093800,4.39009375,-0.9957427978515625,-0.137237548828125,-0.013031005859375
1761915606581148000,4.40014794921875,-1.0053558349609375,-0.14556884765625,-0.0074920654296875
1761915606591201800,4.410201904296875,-1.0047149658203125,-0.1503143310546875,-0.004669189453125
1761915606601257000,4.420257080078125,-1.0038299560546875,-0.1499481201171875,-0.0078887939453125
1761915606611310800,4.430310791015625,-0.991485595703125,-0.142120361328125,-0.0090179443359375
1761915606621364700,4.44036474609375,-0.9780426025390625,-0.1363677978515625,-0.0119781494140625
1761915606631419000,4.4504189453125,-0.97052001953125,-0.135528564453125,-0.0186614990234375
1761915606641472800,4.46047265625,-0.964599609375,-0.1391754150390625,-0.0203704833984375
1761915606651527000,4.47052685546875,-0.9584808349609375,-0.144439697265625,-0.020782470703125
1761915606661580800,4.480580810546875,-0.958984375,-0.15350341796875,-0.0200042724609375
1761915606671635000,4.490635009765625,-0.96844482421875,-0.1588897705078125,-0.0184326171875
1761915606681688800,4.500688720703125,-0.9771575927734375,-0.156982421875,-0.0146484375
1761915606691743000,4.510742919921875,-0.976409912109375,-0.1537017822265625,-0.0102996826171875
1761915606701796900,4.520796875,-0.9702911376953125,-0.152191162109375,-0.0137176513671875
1761915606711851800,4.530851806640625,-0.97222900390625,-0.152191162109375,-0.0194091796875
1761915606721906000,4.540906005859375,-0.9768524169921875,-0.1501007080078125,-0.0180511474609375
1761915606731959800,4.550959716796875,-0.98602294921875,-0.1473541259765625,-0.0164794921875
1761915606742014000,4.561013916015625,-0.998291015625,-0.14788818359375,-0.0155792236328125
1761915606752067800,4.57106787109375,-1.001251220703125,-0.143096923828125,-0.0141143798828125
1761915606762122000,4.5811220703125,-0.9972076416015625,-0.14007568359375,-0.0155181884765625
1761915606772176000,4.59117578125,-0.9972686767578125,-0.13726806640625,-0.0187835693359375
1761915606782230000,4.60122998046875,-0.995269775390625,-0.1372833251953125,-0.0207977294921875
1761915606792283600,4.61128369140625,-0.9886016845703125,-0.140289306640625,-0.0225067138671875
1761915606802337800,4.621337890625,-0.9764556884765625,-0.1434173583984375,-0.0235443115234375
1761915606812391700,4.6313916015625,-0.9676513671875,-0.146240234375,-0.0244140625
1761915606822446800,4.64144677734375,-0.96435546875,-0.1498870849609375,-0.0254974365234375
1761915606832501000,4.6515009765625,-0.96844482421875,-0.149658203125,-0.0240631103515625
1761915606842555000,4.661554931640625,-0.9755706787109375,-0.1469573974609375,-0.02593994140625
1761915606852609000,4.671609130859375,-0.977996826171875,-0.1403045654296875,-0.025848388671875
1761915606862663000,4.681662841796875,-0.97662353515625,-0.1334381103515625,-0.0239715576171875
1761915606872716800,4.691716796875,-0.9823150634765625,-0.1289215087890625,-0.025115966796875
1761915606882770700,4.701770751953125,-0.9860687255859375,-0.130584716796875,-0.026275634765625
1761915606892824800,4.711824951171875,-0.988983154296875,-0.13238525390625,-0.0241851806640625
1761915606902878700,4.721878662109375,-0.990386962890625,-0.1350555419921875,-0.0216827392578125
1761915606912932900,4.731932861328125,-0.988372802734375,-0.1393890380859375,-0.019805908203125
1761915606922987000,4.741987060546875,-0.9831390380859375,-0.1410369873046875,-0.0207672119140625
1761915606933042000,4.7520419921875,-0.9758148193359375,-0.1439056396484375,-0.02191162109375
1761915606943095800,4.762095703125,-0.966644287109375,-0.1470947265625,-0.022308349609375
1761915606953149700,4.772149658203125,-0.970184326171875,-0.15093994140625,-0.0204315185546875
1761915606963203800,4.782203857421875,-0.974517822265625,-0.154815673828125,-0.016021728515625
1761915606973257700,4.7922578125,-0.975677490234375,-0.1543426513671875,-0.01141357421875
1761915606983312000,4.802311767578125,-0.979522705078125,-0.15252685546875,-0.012115478515625
1761915606993365800,4.81236572265625,-0.983673095703125,-0.150421142578125,-0.0110626220703125
1761915607003420000,4.822419921875,-0.987701416015625,-0.149505615234375,-0.0087432861328125
1761915607013473800,4.832473876953125,-0.9896697998046875,-0.1518096923828125,-0.0113525390625
1761915607023528000,4.84252783203125,-0.989990234375,-0.1541900634765625,-0.009552001953125
1761915607033586700,4.852586669921875,-0.9961090087890625,-0.1592559814453125,-0.0064849853515625
1761915607043640600,4.862640625,-1.001861572265625,-0.1631011962890625,-0.0062103271484375
1761915607053694700,4.87269482421875,-1.002410888671875,-0.16204833984375,-0.0057830810546875
1761915607063748600,4.88274853515625,-1.0010223388671875,-0.1564483642578125,-0.0081329345703125
1761915607073802800,4.892802734375,-0.995697021484375,-0.1499176025390625,-0.0113067626953125
1761915607083856600,4.902856689453125,-0.985687255859375,-0.1474761962890625,-0.0144500732421875
1761915607093910800,4.912910888671875,-0.970306396484375,-0.147552490234375,-0.0163116455078125
1761915607103964700,4.922964599609375,-0.9644622802734375,-0.151397705078125,-0.0193023681640625
1761915607114018600,4.9330185546875,-0.962371826171875,-0.156951904296875,-0.02276611328125
1761915607124072400,4.943072509765625,-0.9645233154296875,-0.1561126708984375,-0.0256500244140625
1761915607134126600,4.953126708984375,-0.9722900390625,-0.1527862548828125,-0.02813720703125
1761915607144181800,4.963181640625,-0.9789581298828125,-0.1475677490234375,-0.02667236328125
1761915607154235600,4.973235595703125,-0.9810333251953125,-0.1431427001953125,-0.0253448486328125
1761915607164289800,4.983289794921875,-0.9782257080078125,-0.141571044921875,-0.0244903564453125
1761915607174343700,4.99334375,-0.97296142578125,-0.143463134765625,-0.0233154296875
1761915607184397800,5.003397705078125,-0.9678955078125,-0.1467742919921875,-0.02490234375
1761915607194451500,5.013451416015625,-0.9615478515625,-0.1478271484375,-0.025543212890625
1761915607204505600,5.023505615234375,-0.9637908935546875,-0.1467437744140625,-0.0269775390625
1761915607214559500,5.0335595703125,-0.9752349853515625,-0.1454315185546875,-0.0246429443359375
1761915607224613600,5.043613525390625,-0.983551025390625,-0.14434814453125,-0.02056884765625
1761915607234667500,5.05366748046875,-0.9835052490234375,-0.146270751953125,-0.0162811279296875
1761915607244719600,5.0637197265625,-0.986083984375,-0.1522674560546875,-0.0122528076171875
1761915607254773500,5.0737734375,-0.98779296875,-0.1587982177734375,-0.009002685546875
1761915607264827600,5.08382763671875,-0.9851837158203125,-0.1598968505859375,-0.0088348388671875
1761915607274882600,5.093882568359375,-0.9782562255859375,-0.15484619140625,-0.0084991455078125
1761915607284936700,5.103936767578125,-0.980926513671875,-0.1504669189453125,-0.011688232421875
1761915607294990600,5.113990478515625,-0.9835968017578125,-0.1501922607421875,-0.0152130126953125
1761915607305044700,5.124044677734375,-0.9837799072265625,-0.1532440185546875,-0.0135345458984375
1761915607315099000,5.134098876953125,-0.987548828125,-0.1600799560546875,-0.0116729736328125
1761915607325152500,5.144152587890625,-0.9867706298828125,-0.164398193359375,-0.010040283203125
1761915607335206700,5.15420654296875,-0.979766845703125,-0.1641845703125,-0.012176513671875
1761915607345260500,5.164260498046875,-0.9753265380859375,-0.15765380859375,-0.0159759521484375
1761915607355314700,5.174314697265625,-0.977386474609375,-0.1549072265625,-0.0184783935546875
1761915607365368600,5.18436865234375,-0.9828338623046875,-0.1552734375,-0.01995849609375
1761915607375422700,5.194422607421875,-0.986572265625,-0.159942626953125,-0.0203857421875
1761915607385477600,5.2044775390625,-0.981231689453125,-0.1611785888671875,-0.02044677734375
1761915607395531800,5.21453173828125,-0.967498779296875,-0.157562255859375,-0.020965576171875
1761915607405585700,5.224585693359375,-0.958984375,-0.152984619140625,-0.0199432373046875
1761915607415639600,5.2346396484375,-0.9654998779296875,-0.15252685546875,-0.0189971923828125
1761915607425693700,5.244693603515625,-0.978363037109375,-0.1556396484375,-0.015228271484375
1761915607435747600,5.25474755859375,-0.9952850341796875,-0.1587982177734375,-0.011810302734375
1761915607445801700,5.2648017578125,-0.9967498779296875,-0.1591644287109375,-0.0112152099609375
1761915607455855600,5.274855712890625,-0.9891815185546875,-0.158111572265625,-0.009368896484375
1761915607465909800,5.28490966796875,-0.982757568359375,-0.160247802734375,-0.011199951171875
1761915607475963600,5.294963623046875,-0.9727935791015625,-0.1594696044921875,-0.015411376953125
1761915607486018600,5.3050185546875,-0.9680328369140625,-0.1540374755859375,-0.0181427001953125
1761915607496072700,5.31507275390625,-0.972198486328125,-0.1535491943359375,-0.0208740234375
1761915607506126600,5.325126708984375,-0.98126220703125,-0.1512603759765625,-0.0182647705078125
1761915607516180700,5.3351806640625,-0.9867401123046875,-0.1499786376953125,-0.017303466796875
1761915607526234600,5.345234619140625,-0.98516845703125,-0.149200439453125,-0.0181732177734375
1761915607536288800,5.355288818359375,-0.9819793701171875,-0.146392822265625,-0.01849365234375
1761915607546342700,5.3653427734375,-0.9833984375,-0.1456756591796875,-0.0198822021484375
1761915607556396800,5.375396728515625,-0.98779296875,-0.145263671875,-0.01995849609375
1761915607566450700,5.38545068359375,-0.9897918701171875,-0.143890380859375,-0.01666259765625
1761915607576504800,5.3955048828125,-0.9891510009765625,-0.1464385986328125,-0.016632080078125
1761915607586558500,5.405558349609375,-0.98846435546875,-0.1481475830078125,-0.01617431640625
1761915607596613600,5.415613525390625,-0.9819488525390625,-0.15130615234375,-0.016082763671875
1761915607606667800,5.425667724609375,-0.97528076171875,-0.154571533203125,-0.0177154541015625
1761915607616721700,5.4357216796875,-0.9749298095703125,-0.1584320068359375,-0.0182647705078125
1761915607626775800,5.44577587890625,-0.980072021484375,-0.1583404541015625,-0.0193023681640625
1761915607636829700,5.45582958984375,-0.9828033447265625,-0.1524810791015625,-0.017822265625
1761915607646883800,5.4658837890625,-0.9822540283203125,-0.1485595703125,-0.018463134765625
1761915607656937500,5.4759375,-0.9822235107421875,-0.14959716796875,-0.0188140869140625
1761915607666991600,5.48599169921875,-0.9809417724609375,-0.1514129638671875,-0.01861572265625
1761915607677045500,5.49604541015625,-0.97882080078125,-0.1519012451171875,-0.0184326171875
1761915607687099600,5.506099609375,-0.9756317138671875,-0.151885986328125,-0.014801025390625
1761915607697154800,5.51615478515625,-0.9713287353515625,-0.1531829833984375,-0.0172119140625
1761915607707208700,5.526208740234375,-0.9750518798828125,-0.158843994140625,-0.020782470703125
1761915607717262800,5.536262939453125,-0.981353759765625,-0.1607666015625,-0.0209197998046875
1761915607727316700,5.546316650390625,-0.98138427734375,-0.1562347412109375,-0.0204620361328125
1761915607737370600,5.55637060546875,-0.9825439453125,-0.1550140380859375,-0.0208282470703125
1761915607747424500,5.566424560546875,-0.989349365234375,-0.15533447265625,-0.0191802978515625
1761915607757478700,5.576478759765625,-0.9959716796875,-0.152587890625,-0.0154571533203125
1761915607767532500,5.586532470703125,-1.0017852783203125,-0.149993896484375,-0.0149078369140625
1761915607777586700,5.596586669921875,-1.00445556640625,-0.1478118896484375,-0.0177459716796875
1761915607787640600,5.606640625,-0.99432373046875,-0.145904541015625,-0.0194244384765625
1761915607797694700,5.61669482421875,-0.9823760986328125,-0.1450958251953125,-0.0235137939453125
1761915607807749600,5.62674951171875,-0.972198486328125,-0.145233154296875,-0.02850341796875
1761915607817803500,5.636803466796875,-0.965240478515625,-0.146240234375,-0.0298614501953125
1761915607827857700,5.646857666015625,-0.968017578125,-0.1479949951171875,-0.0289459228515625
1761915607837911600,5.65691162109375,-0.976837158203125,-0.1495208740234375,-0.0271148681640625
1761915607847965700,5.666965576171875,-0.984588623046875,-0.1501617431640625,-0.0251922607421875
1761915607858019600,5.67701953125,-0.9840850830078125,-0.1525421142578125,-0.0269622802734375
1761915607868073700,5.68707373046875,-0.975372314453125,-0.1548919677734375,-0.0297393798828125
1761915607878127600,5.697127685546875,-0.966064453125,-0.1537017822265625,-0.0304718017578125
1761915607888181800,5.707181640625,-0.9699554443359375,-0.1523590087890625,-0.0296173095703125
1761915607898235600,5.717235595703125,-0.9781951904296875,-0.151092529296875,-0.025146484375
1761915607908290600,5.72729052734375,-0.982421875,-0.1474456787109375,-0.0236968994140625
1761915607918344700,5.7373447265625,-0.9806060791015625,-0.1454315185546875,-0.02691650390625
1761915607928398600,5.747398681640625,-0.97576904296875,-0.1455230712890625,-0.0302276611328125
1761915607938452700,5.75745263671875,-0.970855712890625,-0.14892578125,-0.03106689453125
1761915607948506600,5.767506591796875,-0.970611572265625,-0.1527252197265625,-0.027435302734375
1761915607958560800,5.777560791015625,-0.9742279052734375,-0.1587982177734375,-0.0277557373046875
1761915607968614700,5.78761474609375,-0.979034423828125,-0.16290283203125,-0.026519775390625
1761915607978668800,5.797668701171875,-0.9816436767578125,-0.1622772216796875,-0.027008056640625
1761915607988722700,5.80772265625,-0.9849395751953125,-0.1574859619140625,-0.028839111328125
1761915607998776600,5.817776611328125,-0.9888916015625,-0.147735595703125,-0.028594970703125
1761915608008831700,5.827831787109375,-0.99298095703125,-0.1420135498046875,-0.0277252197265625
1761915608018885600,5.8378857421875,-0.992645263671875,-0.142578125,-0.025665283203125
1761915608028939800,5.847939697265625,-0.9903411865234375,-0.1490631103515625,-0.0263519287109375
1761915608038994400,5.857994384765625,-0.9860687255859375,-0.1532440185546875,-0.0247344970703125
1761915608049048000,5.868048095703125,-0.9797210693359375,-0.1541595458984375,-0.0232086181640625
1761915608059102200,5.878102294921875,-0.9791259765625,-0.1543121337890625,-0.0253448486328125
1761915608069156000,5.888156005859375,-0.979095458984375,-0.1490936279296875,-0.028961181640625
1761915608079210200,5.898210205078125,-0.9773101806640625,-0.1412811279296875,-0.0276336669921875
1761915608089264400,5.908264404296875,-0.9799041748046875,-0.1378326416015625,-0.0261383056640625
1761915608099318300,5.918318359375,-0.9834442138671875,-0.13970947265625,-0.0254669189453125
1761915608109373400,5.92837353515625,-0.9840240478515625,-0.1468963623046875,-0.0242919921875
1761915608119427300,5.93842724609375,-0.98236083984375,-0.152923583984375,-0.02227783203125
1761915608129481200,5.948481201171875,-0.977294921875,-0.157470703125,-0.02392578125
1761915608139535000,5.95853515625,-0.9721527099609375,-0.156982421875,-0.02618408203125
1761915608149589200,5.96858935546875,-0.9708251953125,-0.156005859375,-0.02728271484375
1761915608159643100,5.97864306640625,-0.973114013671875,-0.153076171875,-0.0301666259765625
1761915608169697300,5.988697265625,-0.97796630859375,-0.1475982666015625,-0.02935791015625
1761915608179751400,5.99875146484375,-0.9818115234375,-0.1432342529296875,-0.02593994140625
1761915608189805300,6.008805419921875,-0.9873504638671875,-0.14337158203125,-0.0265960693359375
1761915608199860200,6.018860107421875,-0.980804443359375,-0.1461944580078125,-0.0269927978515625
1761915608209914000,6.0289140625,-0.970550537109375,-0.1504669189453125,-0.0267486572265625
1761915608219968300,6.03896826171875,-0.9645843505859375,-0.154632568359375,-0.0288543701171875
1761915608230022100,6.049022216796875,-0.9664154052734375,-0.1590423583984375,-0.0283660888671875
1761915608240076300,6.059076171875,-0.967498779296875,-0.1607208251953125,-0.029754638671875
1761915608250130200,6.069130126953125,-0.9736785888671875,-0.159393310546875,-0.03057861328125
1761915608260184300,6.079184326171875,-0.9814453125,-0.156463623046875,-0.0293731689453125
1761915608270238500,6.089238525390625,-0.9842071533203125,-0.1537017822265625,-0.0306549072265625
1761915608280292400,6.099292236328125,-0.98193359375,-0.1533203125,-0.0363311767578125
1761915608290346500,6.109346435546875,-0.9728240966796875,-0.147491455078125,-0.041107177734375
1761915608300400400,6.119400390625,-0.970367431640625,-0.138763427734375,-0.0421295166015625
1761915608310455300,6.129455322265625,-0.9720458984375,-0.133270263671875,-0.0426177978515625
1761915608320509200,6.13950927734375,-0.9739990234375,-0.135223388671875,-0.0456390380859375
1761915608330563300,6.149563232421875,-0.977752685546875,-0.138671875,-0.04302978515625
1761915608340617200,6.1596171875,-0.988006591796875,-0.14581298828125,-0.039276123046875
1761915608350671400,6.16967138671875,-0.9970245361328125,-0.1473236083984375,-0.0369110107421875
1761915608360725200,6.179725341796875,-1.002349853515625,-0.1471405029296875,-0.03155517578125
1761915608370779400,6.189779296875,-1.0100860595703125,-0.1460723876953125,-0.02752685546875
1761915608380833300,6.199833251953125,-1.0130767822265625,-0.1404571533203125,-0.0228271484375
1761915608390887200,6.20988720703125,-1.0083770751953125,-0.1392974853515625,-0.0198211669921875
1761915608400942300,6.2199423828125,-1.0007781982421875,-0.141937255859375,-0.0209808349609375
1761915608410996200,6.229996337890625,-0.9901123046875,-0.145904541015625,-0.0227508544921875
1761915608421050400,6.24005029296875,-0.9835357666015625,-0.151275634765625,-0.0206298828125
1761915608431104300,6.250104248046875,-0.9817047119140625,-0.1576995849609375,-0.02044677734375
1761915608441158400,6.260158447265625,-0.9849700927734375,-0.164276123046875,-0.01904296875
1761915608451212300,6.27021240234375,-0.98236083984375,-0.168975830078125,-0.0177764892578125
1761915608461266200,6.28026611328125,-0.9768829345703125,-0.16900634765625,-0.0214080810546875
1761915608471320300,6.2903203125,-0.97100830078125,-0.16650390625,-0.0262908935546875
1761915608481374200,6.300374267578125,-0.97027587890625,-0.1610565185546875,-0.0278778076171875
1761915608491428400,6.310428466796875,-0.977935791015625,-0.1568450927734375,-0.0275421142578125
1761915608501483300,6.320483154296875,-0.9871673583984375,-0.1518402099609375,-0.025115966796875
1761915608511537400,6.330537353515625,-0.98284912109375,-0.1515655517578125,-0.02197265625
1761915608521591300,6.34059130859375,-0.97918701171875,-0.1571044921875,-0.02325439453125
1761915608531645200,6.350645263671875,-0.9747772216796875,-0.1588592529296875,-0.0253143310546875
1761915608541699000,6.360698974609375,-0.9737548828125,-0.1568145751953125,-0.02886962890625
1761915608551753200,6.370753173828125,-0.9735565185546875,-0.154205322265625,-0.0306549072265625
1761915608561807400,6.380807373046875,-0.97332763671875,-0.1531219482421875,-0.0298614501953125
1761915608571861200,6.390861328125,-0.974639892578125,-0.152984619140625,-0.0284423828125
1761915608581915400,6.400915283203125,-0.9868927001953125,-0.1555633544921875,-0.021209716796875
1761915608591969300,6.41096923828125,-0.997344970703125,-0.1607513427734375,-0.014404296875
1761915608602024200,6.421024169921875,-0.9936065673828125,-0.1684417724609375,-0.0107269287109375
1761915608612078000,6.431078125,-0.98046875,-0.1767578125,-0.0120391845703125
1761915608622132200,6.44113232421875,-0.9684600830078125,-0.1808319091796875,-0.0123748779296875
1761915608632186000,6.45118603515625,-0.9637298583984375,-0.181243896484375,-0.013153076171875
1761915608642240300,6.461240234375,-0.9665374755859375,-0.17913818359375,-0.0120391845703125
1761915608652294400,6.47129443359375,-0.9728546142578125,-0.175018310546875,-0.0072784423828125
1761915608662348300,6.481348388671875,-0.97576904296875,-0.174896240234375,-0.0046234130859375
1761915608672402400,6.49140234375,-0.9774017333984375,-0.1778717041015625,-0.00238037109375
1761915608682456300,6.501456298828125,-0.97857666015625,-0.1824798583984375,-0.00079345703125
1761915608692511200,6.51151123046875,-0.9722900390625,-0.1804046630859375,0.000762939453125
1761915608702565000,6.521565185546875,-0.9703521728515625,-0.17742919921875,0.0000457763671875
1761915608712619300,6.531619384765625,-0.98150634765625,-0.1786956787109375,0.0016937255859375
1761915608722673200,6.541673095703125,-0.9904937744140625,-0.17822265625,0.00274658203125
1761915608732727300,6.551727294921875,-0.996002197265625,-0.17742919921875,0.0018157958984375
1761915608742781400,6.561781494140625,-0.998077392578125,-0.1777496337890625,0.00238037109375
1761915608752835300,6.57183544921875,-0.9943389892578125,-0.1787109375,0.0025177001953125
1761915608762889500,6.581889404296875,-0.976470947265625,-0.1796722412109375,-0.0064544677734375
1761915608772943400,6.591943359375,-0.961181640625,-0.1785736083984375,-0.013702392578125
1761915608782997200,6.601997314453125,-0.95147705078125,-0.1716766357421875,-0.0140533447265625
1761915608793052200,6.61205224609375,-0.949859619140625,-0.170013427734375,-0.0142669677734375
1761915608803106300,6.622106201171875,-0.9632415771484375,-0.1729278564453125,-0.0153045654296875
1761915608813160200,6.63216015625,-0.9784393310546875,-0.1767730712890625,-0.0142669677734375
1761915608823214300,6.64221435546875,-0.9854888916015625,-0.1758575439453125,-0.0146942138671875
1761915608833268200,6.652268310546875,-0.984405517578125,-0.1723480224609375,-0.012847900390625
1761915608843322400,6.662322265625,-0.9795684814453125,-0.1675872802734375,-0.0127716064453125
1761915608853376500,6.67237646484375,-0.9718170166015625,-0.1632843017578125,-0.015106201171875
1761915608863430100,6.68243017578125,-0.96600341796875,-0.162933349609375,-0.0168304443359375
1761915608873484300,6.692484375,-0.96051025390625,-0.1633758544921875,-0.0203704833984375
1761915608883538200,6.7025380859375,-0.952911376953125,-0.1635589599609375,-0.0230865478515625
1761915608893593300,6.71259326171875,-0.9564361572265625,-0.1641082763671875,-0.025115966796875
1761915608903647200,6.722647216796875,-0.978179931640625,-0.1671142578125,-0.027191162109375
1761915608913701400,6.732701416015625,-0.9919281005859375,-0.161773681640625,-0.021881103515625
1761915608923755300,6.74275537109375,-0.9998779296875,-0.1573028564453125,-0.01959228515625
1761915608933809400,6.752809326171875,-1.0029754638671875,-0.1578521728515625,-0.015625
1761915608943863300,6.76286328125,-1.0020599365234375,-0.1602630615234375,-0.0137481689453125
1761915608953917200,6.772917236328125,-0.9990997314453125,-0.1619110107421875,-0.0151519775390625
1761915608963971300,6.782971435546875,-0.9952545166015625,-0.1616973876953125,-0.01141357421875
1761915608974025200,6.793025146484375,-0.9877777099609375,-0.164093017578125,-0.010772705078125
1761915608984080400,6.803080322265625,-0.982208251953125,-0.1673126220703125,-0.0150299072265625
1761915608994134300,6.81313427734375,-0.9734344482421875,-0.1712188720703125,-0.0147247314453125
1761915609004188400,6.8231884765625,-0.9658355712890625,-0.1739044189453125,-0.011810302734375
1761915609014242000,6.833241943359375,-0.969940185546875,-0.176605224609375,-0.0131988525390625
1761915609024296200,6.843296142578125,-0.9719085693359375,-0.1745758056640625,-0.0143280029296875
1761915609034347500,6.853347412109375,-0.9656829833984375,-0.1664276123046875,-0.0184783935546875
1761915609044401400,6.8634013671875,-0.9683837890625,-0.1620025634765625,-0.021697998046875
1761915609054455600,6.87345556640625,-0.9757080078125,-0.1589202880859375,-0.0221405029296875
1761915609064509400,6.883509521484375,-0.9754180908203125,-0.1561279296875,-0.018951416015625
1761915609074563600,6.8935634765625,-0.9759063720703125,-0.1578216552734375,-0.01806640625
1761915609084618500,6.903618408203125,-0.981201171875,-0.1629486083984375,-0.0175933837890625
1761915609094672400,6.91367236328125,-0.98785400390625,-0.1675262451171875,-0.016326904296875
1761915609104726500,6.9237265625,-0.993621826171875,-0.1673583984375,-0.0147857666015625
1761915609114780400,6.933780517578125,-0.9933013916015625,-0.164642333984375,-0.015625
1761915609124834600,6.94383447265625,-0.9955902099609375,-0.1625823974609375,-0.0128173828125
1761915609134888400,6.953888427734375,-0.9940032958984375,-0.1625823974609375,-0.0082550048828125
1761915609144942600,6.963942626953125,-0.9894256591796875,-0.16448974609375,-0.0047760009765625
1761915609154996500,6.97399658203125,-0.9879913330078125,-0.171112060546875,-0.0064697265625
1761915609165050600,6.984050537109375,-0.9807891845703125,-0.173919677734375,-0.0076904296875
1761915609175105500,6.99410546875,-0.973388671875,-0.1725616455078125,-0.0100860595703125
1761915609185159400,7.004159423828125,-0.9720458984375,-0.169647216796875,-0.0159759521484375
1761915609195213600,7.014213623046875,-0.98504638671875,-0.16650390625,-0.0163421630859375
1761915609205267500,7.024267333984375,-0.9940185546875,-0.16357421875,-0.010772705078125
1761915609215321600,7.034321533203125,-0.98675537109375,-0.1595001220703125,-0.0100555419921875
1761915609225375500,7.04437548828125,-0.9774627685546875,-0.1610565185546875,-0.0176239013671875
1761915609235429600,7.0544296875,-0.9677581787109375,-0.1620941162109375,-0.0225372314453125
1761915609245483500,7.0644833984375,-0.95721435546875,-0.1613311767578125,-0.02294921875
1761915609255537400,7.074537353515625,-0.9582061767578125,-0.1605987548828125,-0.0239105224609375
1761915609265591300,7.08459130859375,-0.970428466796875,-0.1627044677734375,-0.023468017578125
1761915609275646500,7.094646484375,-0.980499267578125,-0.1613311767578125,-0.0198822021484375
1761915609285700600,7.10470068359375,-0.98455810546875,-0.1595611572265625,-0.0178680419921875
1761915609295754500,7.11475439453125,-0.9773406982421875,-0.1597900390625,-0.017425537109375
1761915609305808600,7.12480859375,-0.963348388671875,-0.1580810546875,-0.0205230712890625
1761915609315862500,7.134862548828125,-0.953857421875,-0.156829833984375,-0.024169921875
1761915609325916400,7.14491650390625,-0.9542083740234375,-0.1550750732421875,-0.022796630859375
1761915609335970300,7.15497021484375,-0.95745849609375,-0.15325927734375,-0.02154541015625
1761915609346024400,7.1650244140625,-0.95904541015625,-0.1555633544921875,-0.0218353271484375
1761915609356078300,7.175078369140625,-0.9585723876953125,-0.1616363525390625,-0.0218048095703125
1761915609366133500,7.185133544921875,-0.954010009765625,-0.1640777587890625,-0.019073486328125
1761915609376187600,7.195187744140625,-0.948333740234375,-0.1638946533203125,-0.0165252685546875
1761915609386241500,7.205241455078125,-0.9456329345703125,-0.16595458984375,-0.0171661376953125
1761915609396295400,7.21529541015625,-0.953765869140625,-0.1674957275390625,-0.0167083740234375
1761915609406349300,7.225349365234375,-0.9678192138671875,-0.166961669921875,-0.014190673828125
1761915609416403500,7.235403564453125,-0.97467041015625,-0.1655120849609375,-0.0141143798828125
1761915609426457300,7.245457275390625,-0.9762420654296875,-0.16192626953125,-0.017822265625
1761915609436511500,7.255511474609375,-0.97705078125,-0.1591796875,-0.01995849609375
1761915609446565400,7.2655654296875,-0.976776123046875,-0.1561431884765625,-0.0181884765625
1761915609456620500,7.27562060546875,-0.9799041748046875,-0.1574554443359375,-0.01641845703125
1761915609466674700,7.2856748046875,-0.98504638671875,-0.1622161865234375,-0.017120361328125
1761915609476728300,7.295728271484375,-0.9798431396484375,-0.1627197265625,-0.0184478759765625
1761915609486782500,7.305782470703125,-0.973876953125,-0.16015625,-0.0228424072265625
1761915609496836400,7.31583642578125,-0.982086181640625,-0.1584320068359375,-0.023468017578125
1761915609506890500,7.325890380859375,-0.9940185546875,-0.1573486328125,-0.0233154296875
1761915609516944400,7.3359443359375,-1.0028228759765625,-0.15765380859375,-0.0219879150390625
1761915609526998500,7.34599853515625,-1.00958251953125,-0.157745361328125,-0.0220794677734375
1761915609537052400,7.356052490234375,-1.010406494140625,-0.1560516357421875,-0.02276611328125
1761915609547107600,7.366107666015625,-1.0052947998046875,-0.1528472900390625,-0.0195465087890625
1761915609557161500,7.376161376953125,-0.9912109375,-0.1519775390625,-0.0225372314453125
1761915609567215400,7.38621533203125,-0.9812469482421875,-0.157745361328125,-0.0284271240234375
1761915609577269500,7.39626953125,-0.97705078125,-0.16064453125,-0.0301971435546875
1761915609587323400,7.406323486328125,-0.97601318359375,-0.163970947265625,-0.029571533203125
1761915609597377500,7.41637744140625,-0.984832763671875,-0.169158935546875,-0.0270843505859375
1761915609607431400,7.426431396484375,-0.9921722412109375,-0.1700439453125,-0.0242767333984375
1761915609617485600,7.436485595703125,-0.99163818359375,-0.166961669921875,-0.0224609375
1761915609627540500,7.44654052734375,-0.986083984375,-0.1606597900390625,-0.02313232421875
1761915609637594400,7.456594482421875,-0.978302001953125,-0.1564483642578125,-0.02490234375
1761915609647648500,7.4666484375,-0.9746856689453125,-0.152191162109375,-0.023834228515625
1761915609657702400,7.476702392578125,-0.9837493896484375,-0.15325927734375,-0.017242431640625
1761915609667756500,7.486756591796875,-0.9986724853515625,-0.1567840576171875,-0.013702392578125
1761915609677810400,7.496810546875,-1.0068511962890625,-0.157501220703125,-0.0115203857421875
1761915609687864600,7.506864501953125,-0.9965972900390625,-0.154876708984375,-0.0095977783203125
1761915609697918500,7.51691845703125,-0.98486328125,-0.1545257568359375,-0.017730712890625
1761915609707972600,7.52697265625,-0.9754791259765625,-0.1533203125,-0.024169921875
1761915609718027500,7.537027587890625,-0.966339111328125,-0.147216796875,-0.0226898193359375
1761915609728081400,7.547081298828125,-0.970703125,-0.1449432373046875,-0.0185089111328125
1761915609738135600,7.557135498046875,-0.986083984375,-0.1457366943359375,-0.019073486328125
1761915609748189400,7.567189453125,-0.9958038330078125,-0.1473846435546875,-0.019927978515625
1761915609758243600,7.57724365234375,-0.9928741455078125,-0.1483612060546875,-0.018096923828125
1761915609768297500,7.58729736328125,-0.9805450439453125,-0.150360107421875,-0.016387939453125
1761915609778351600,7.5973515625,-0.969940185546875,-0.1531524658203125,-0.0175628662109375
1761915609788405500,7.607405517578125,-0.967010498046875,-0.1532440185546875,-0.0192108154296875
1761915609798460400,7.61746044921875,-0.9736175537109375,-0.150848388671875,-0.0157318115234375
1761915609808514600,7.6275146484375,-0.980438232421875,-0.1512603759765625,-0.01416015625
1761915609818568400,7.637568359375,-0.9787750244140625,-0.1558837890625,-0.0160675048828125
1761915609828622600,7.64762255859375,-0.966888427734375,-0.1623382568359375,-0.01751708984375
1761915609838676500,7.657676513671875,-0.95428466796875,-0.17034912109375,-0.01800537109375
1761915609848730600,7.667730712890625,-0.9451141357421875,-0.178619384765625,-0.0205230712890625
1761915609858784500,7.677784423828125,-0.9453125,-0.1851959228515625,-0.020294189453125
1761915609868838700,7.687838623046875,-0.951934814453125,-0.186248779296875,-0.016998291015625
1761915609878892500,7.697892578125,-0.9686737060546875,-0.1849365234375,-0.014312744140625
1761915609888947500,7.707947509765625,-0.9849853515625,-0.1809844970703125,-0.014434814453125
1761915609899001600,7.718001708984375,-0.988250732421875,-0.1708831787109375,-0.0133209228515625
1761915609909055500,7.728055419921875,-0.9877166748046875,-0.161224365234375,-0.0129241943359375
1761915609919109600,7.738109619140625,-0.98846435546875,-0.1595001220703125,-0.0171661376953125
1761915609929163500,7.74816357421875,-0.9921722412109375,-0.1508331298828125,-0.012420654296875
1761915609939217700,7.7582177734375,-0.9993133544921875,-0.146697998046875,-0.0140228271484375
1761915609949271600,7.768271484375,-1.0045013427734375,-0.14874267578125,-0.02105712890625
1761915609959325400,7.778325439453125,-1.0064239501953125,-0.148345947265625,-0.0215606689453125
1761915609969379300,7.78837939453125,-1.0037841796875,-0.1458282470703125,-0.020294189453125
1761915609979434500,7.7984345703125,-1.000213623046875,-0.148895263671875,-0.0202789306640625
1761915609989488600,7.808488525390625,-0.9998779296875,-0.1553497314453125,-0.02032470703125
1761915609999542500,7.81854248046875,-0.995391845703125,-0.160369873046875,-0.0166015625
1761915610009596700,7.8285966796875,-0.99615478515625,-0.1636810302734375,-0.0117034912109375
1761915610019650600,7.838650634765625,-1.001495361328125,-0.1661529541015625,-0.0146026611328125
1761915610029704400,7.848704345703125,-1.001007080078125,-0.160125732421875,-0.0198974609375
1761915610039758000,7.858758056640625,-0.9912872314453125,-0.14990234375,-0.0204925537109375
1761915610049812000,7.86881201171875,-0.978424072265625,-0.1468353271484375,-0.02239990234375
1761915610059867000,7.878866943359375,-0.9622039794921875,-0.1486358642578125,-0.02630615234375
1761915610069921000,7.888921142578125,-0.947296142578125,-0.15447998046875,-0.030303955078125
1761915610079975000,7.898974853515625,-0.939788818359375,-0.1597900390625,-0.0322265625
1761915610090029000,7.909029052734375,-0.946746826171875,-0.166748046875,-0.0288543701171875
1761915610100083000,7.9190830078125,-0.963714599609375,-0.1735382080078125,-0.0235443115234375
1761915610110137000,7.92913720703125,-0.9735260009765625,-0.1749725341796875,-0.0171966552734375
1761915610120191000,7.93919091796875,-0.9736785888671875,-0.1728668212890625,-0.0137481689453125
1761915610130244900,7.949244873046875,-0.9661407470703125,-0.167724609375,-0.0147247314453125
1761915610140299000,7.959299072265625,-0.9623870849609375,-0.1609039306640625,-0.0186614990234375
1761915610150354000,7.96935400390625,-0.961456298828125,-0.1560211181640625,-0.0205535888671875
1761915610160408000,7.979407958984375,-0.973052978515625,-0.1548309326171875,-0.0200042724609375
1761915610170462000,7.9894619140625,-0.9830474853515625,-0.155975341796875,-0.0196533203125
1761915610180516000,7.99951611328125,-0.979644775390625,-0.15460205078125,-0.0205230712890625
1761915610190570000,8.009570068359375,-0.9693603515625,-0.1548614501953125,-0.0216064453125
1761915610200623900,8.019623779296875,-0.960479736328125,-0.1598968505859375,-0.0252685546875
1761915610210678000,8.029677978515625,-0.959716796875,-0.1648406982421875,-0.029296875
1761915610220732000,8.03973193359375,-0.96771240234375,-0.164459228515625,-0.029022216796875
1761915610230786000,8.0497861328125,-0.97845458984375,-0.1618194580078125,-0.0251312255859375
1761915610240841000,8.059841064453124,-0.979736328125,-0.156707763671875,-0.0252838134765625
1761915610250895000,8.06989501953125,-0.979278564453125,-0.1500701904296875,-0.0287322998046875
1761915610260949000,8.079948974609374,-0.9780120849609375,-0.145660400390625,-0.029754638671875
1761915610271003000,8.0900029296875,-0.976348876953125,-0.1454010009765625,-0.029510498046875
1761915610281056800,8.100056884765625,-0.97955322265625,-0.1491546630859375,-0.0293121337890625
1761915610291111000,8.11011083984375,-0.9811553955078125,-0.1533660888671875,-0.0303802490234375
1761915610301165000,8.1201650390625,-0.9791412353515625,-0.15673828125,-0.0268402099609375
1761915610311219000,8.130218994140625,-0.9779815673828125,-0.1592559814453125,-0.0254974365234375
1761915610321273000,8.140273193359375,-0.9752349853515625,-0.1624298095703125,-0.026214599609375
1761915610331328000,8.150327880859376,-0.9721832275390625,-0.1632843017578125,-0.02716064453125
1761915610341382100,8.160382080078126,-0.974822998046875,-0.1620941162109375,-0.0265350341796875
1761915610351435800,8.170435791015626,-0.9855804443359375,-0.1601715087890625,-0.0214996337890625
1761915610361490000,8.180489990234374,-0.9969024658203125,-0.1572723388671875,-0.01611328125
1761915610371543800,8.190543701171874,-1.0042266845703125,-0.1562652587890625,-0.012908935546875
1761915610381598000,8.200597900390624,-1.0056610107421875,-0.153106689453125,-0.00946044921875
1761915610391652000,8.210652099609375,-1.0000762939453125,-0.1510162353515625,-0.0074462890625
1761915610401706000,8.2207060546875,-0.993743896484375,-0.1522216796875,-0.0087738037109375
1761915610411761200,8.23076123046875,-0.9900054931640625,-0.15509033203125,-0.010040283203125
1761915610421815000,8.24081494140625,-0.9890289306640625,-0.1569366455078125,-0.0101470947265625
1761915610431869000,8.250868896484375,-0.99212646484375,-0.1582489013671875,-0.009368896484375
1761915610441922800,8.2609228515625,-0.992431640625,-0.156585693359375,-0.009124755859375
1761915610451977000,8.27097705078125,-0.983428955078125,-0.1514129638671875,-0.0114593505859375
1761915610462030800,8.28103076171875,-0.972320556640625,-0.1501617431640625,-0.016571044921875
1761915610472085000,8.2910849609375,-0.970184326171875,-0.1503143310546875,-0.0209503173828125
1761915610482139000,8.301138916015624,-0.9716339111328125,-0.152435302734375,-0.022125244140625
1761915610492193000,8.311193115234374,-0.9790496826171875,-0.155609130859375,-0.020904541015625
1761915610502248000,8.321248046875,-0.9807586669921875,-0.15582275390625,-0.0158843994140625
1761915610512301800,8.3313017578125,-0.9698486328125,-0.1549224853515625,-0.01702880859375
1761915610522356000,8.34135595703125,-0.9665985107421875,-0.160614013671875,-0.02154541015625
1761915610532409900,8.351409912109375,-0.966552734375,-0.1630096435546875,-0.0229034423828125
1761915610542464000,8.361464111328125,-0.9631500244140625,-0.16119384765625,-0.0218658447265625
1761915610552518000,8.371517822265625,-0.967681884765625,-0.1610870361328125,-0.023712158203125
1761915610562572000,8.381572021484375,-0.9773101806640625,-0.1569061279296875,-0.02691650390625
1761915610572626000,8.3916259765625,-0.983978271484375,-0.1485137939453125,-0.0262451171875
1761915610582680000,8.40168017578125,-0.9868316650390625,-0.1418304443359375,-0.02679443359375
1761915610592735000,8.41173486328125,-0.98919677734375,-0.138153076171875,-0.0289764404296875
1761915610602788900,8.421788818359374,-0.995208740234375,-0.13482666015625,-0.0288543701171875
1761915610612843000,8.431843017578124,-1.00335693359375,-0.1331939697265625,-0.0266265869140625
1761915610622897000,8.44189697265625,-0.9996185302734375,-0.1362457275390625,-0.0244293212890625
1761915610632951000,8.451950927734375,-0.9944915771484375,-0.1425018310546875,-0.027984619140625
1761915610643005000,8.4620048828125,-0.9906463623046875,-0.1472320556640625,-0.0317230224609375
1761915610653059000,8.47205908203125,-0.9823150634765625,-0.1454620361328125,-0.032318115234375
1761915610663113000,8.482113037109375,-0.9752960205078125,-0.1378326416015625,-0.031829833984375
1761915610673168000,8.49216796875,-0.97393798828125,-0.13330078125,-0.032135009765625
1761915610683222000,8.502221923828126,-0.978607177734375,-0.1356048583984375,-0.031646728515625
1761915610693276000,8.51227587890625,-0.98553466796875,-0.1407012939453125,-0.0303497314453125
1761915610703330000,8.522330078125,-0.9842529296875,-0.143341064453125,-0.0283050537109375
1761915610713384000,8.532384033203124,-0.9839324951171875,-0.1431121826171875,-0.025909423828125
1761915610723438000,8.54243798828125,-0.985015869140625,-0.139892578125,-0.0241546630859375
1761915610733492000,8.552491943359374,-0.9882354736328125,-0.1361846923828125,-0.022735595703125
1761915610743546000,8.562546142578125,-0.9856414794921875,-0.137939453125,-0.023223876953125
1761915610753600000,8.57260009765625,-0.9805755615234375,-0.145782470703125,-0.0282440185546875
1761915610763655000,8.582655029296875,-0.968505859375,-0.14984130859375,-0.0269927978515625
1761915610773709000,8.592708984375,-0.9580841064453125,-0.1562652587890625,-0.024017333984375
1761915610783763000,8.602762939453125,-0.9635467529296875,-0.1636199951171875,-0.0249176025390625
1761915610793817000,8.612817138671875,-0.9700775146484375,-0.1656036376953125,-0.0241851806640625
1761915610803871000,8.62287109375,-0.9753875732421875,-0.1617431640625,-0.023193359375
1761915610813925000,8.632925048828126,-0.98040771484375,-0.1541290283203125,-0.023895263671875
1761915610823979000,8.64297900390625,-0.98480224609375,-0.149505615234375,-0.0255584716796875
1761915610834033000,8.653032958984374,-0.9875030517578125,-0.144989013671875,-0.0226593017578125
1761915610844086800,8.663086669921874,-0.990325927734375,-0.140228271484375,-0.01922607421875
1761915610854142000,8.673141845703125,-0.999603271484375,-0.13812255859375,-0.0167388916015625
1761915610864196000,8.683196044921875,-1.005340576171875,-0.137176513671875,-0.0160675048828125
1761915610874250000,8.69325,-0.9964752197265625,-0.1373443603515625,-0.015960693359375
1761915610884304100,8.70330419921875,-0.9861907958984375,-0.140472412109375,-0.019744873046875
1761915610894358000,8.71335791015625,-0.9757537841796875,-0.143310546875,-0.0244140625
1761915610904412000,8.723411865234375,-0.9730377197265625,-0.1437530517578125,-0.0250091552734375
1761915610914465800,8.7334658203125,-0.9802398681640625,-0.1435546875,-0.0250091552734375
1761915610924520000,8.74352001953125,-0.9871673583984375,-0.141693115234375,-0.02313232421875
1761915610934573800,8.75357373046875,-0.9910430908203125,-0.141693115234375,-0.0209503173828125
1761915610944629000,8.76362890625,-0.987823486328125,-0.1438140869140625,-0.0233612060546875
1761915610954683100,8.77368310546875,-0.9773406982421875,-0.142852783203125,-0.0230560302734375
1761915610964737000,8.783737060546875,-0.9673919677734375,-0.1457061767578125,-0.023162841796875
1761915610974791200,8.793791259765625,-0.9648590087890625,-0.1532440185546875,-0.0238189697265625
1761915610984844800,8.8038447265625,-0.96337890625,-0.15911865234375,-0.021148681640625
1761915610994899000,8.81389892578125,-0.965423583984375,-0.1622772216796875,-0.0177764892578125
1761915611004952800,8.823952880859375,-0.96881103515625,-0.1627960205078125,-0.0156402587890625
1761915611015007000,8.834007080078125,-0.9757537841796875,-0.159271240234375,-0.0180511474609375
1761915611025060900,8.844060791015625,-0.9888458251953125,-0.1512298583984375,-0.0196533203125
1761915611035115300,8.854115234375,-0.999176025390625,-0.1405029296875,-0.0174102783203125
1761915611045169400,8.86416943359375,-0.996490478515625,-0.133392333984375,-0.0170440673828125
1761915611055223300,8.874223388671876,-0.9924774169921875,-0.1351470947265625,-0.0211181640625
1761915611065277400,8.88427734375,-0.98626708984375,-0.13720703125,-0.0226593017578125
1761915611075331300,8.894331298828124,-0.976531982421875,-0.1397247314453125,-0.022918701171875
1761915611085385200,8.90438525390625,-0.9705047607421875,-0.14459228515625,-0.025360107421875
1761915611095439000,8.914439208984374,-0.973785400390625,-0.14752197265625,-0.0273284912109375
1761915611105493200,8.9244931640625,-0.98883056640625,-0.145477294921875,-0.0292510986328125
1761915611115548400,8.93454833984375,-1.0013580322265625,-0.13958740234375,-0.026458740234375
1761915611125602300,8.944602294921875,-1.0045013427734375,-0.130950927734375,-0.0250396728515625
1761915611135656400,8.954656494140625,-1.00006103515625,-0.123809814453125,-0.02410888671875
1761915611145710300,8.96471044921875,-0.992279052734375,-0.1225738525390625,-0.0234527587890625
1761915611155764200,8.97476416015625,-0.9887847900390625,-0.1323089599609375,-0.0258026123046875
1761915611165818000,8.984818115234376,-0.983917236328125,-0.1442413330078125,-0.026824951171875
1761915611175872300,8.994872314453126,-0.9738006591796875,-0.1494140625,-0.022125244140625
1761915611185926100,9.004926025390626,-0.9737548828125,-0.15020751953125,-0.0208282470703125
1761915611195980300,9.014980224609374,-0.983123779296875,-0.15240478515625,-0.0194854736328125
1761915611206035500,9.025035400390625,-0.9834747314453125,-0.149139404296875,-0.0184478759765625
1761915611216089300,9.03508935546875,-0.9727935791015625,-0.14892578125,-0.0171356201171875
1761915611226143500,9.0451435546875,-0.9613189697265625,-0.1503143310546875,-0.01824951171875
1761915611236197000,9.055197021484375,-0.9554290771484375,-0.152099609375,-0.0187225341796875
1761915611246251300,9.065251220703125,-0.954803466796875,-0.1527099609375,-0.017120361328125
1761915611256305200,9.07530517578125,-0.95892333984375,-0.1568145751953125,-0.01531982421875
1761915611266359300,9.085359375,-0.9640960693359375,-0.156402587890625,-0.0124969482421875
1761915611276413200,9.0954130859375,-0.966033935546875,-0.15655517578125,-0.009124755859375
1761915611286467300,9.10546728515625,-0.97113037109375,-0.1587677001953125,-0.0093536376953125
1761915611296522500,9.1155224609375,-0.980926513671875,-0.155487060546875,-0.011505126953125
1761915611306576100,9.125576171875,-0.989837646484375,-0.1459503173828125,-0.011810302734375
1761915611316630300,9.13563037109375,-1.0013885498046875,-0.13519287109375,-0.009765625
1761915611326684200,9.14568408203125,-1.00946044921875,-0.1265716552734375,-0.008514404296875
1761915611336738300,9.15573828125,-1.00897216796875,-0.12615966796875,-0.0103302001953125
1761915611346792200,9.165792236328125,-0.99798583984375,-0.1318511962890625,-0.01605224609375
1761915611356846300,9.175846435546875,-0.9841766357421875,-0.1378021240234375,-0.019134521484375
1761915611366900200,9.185900146484375,-0.978302001953125,-0.1435089111328125,-0.0198211669921875
1761915611376954400,9.195954345703125,-0.9812469482421875,-0.1500091552734375,-0.02117919921875
1761915611387009300,9.20600927734375,-0.9868011474609375,-0.150482177734375,-0.0230255126953125
1761915611397063200,9.216063232421876,-0.989044189453125,-0.14593505859375,-0.0218963623046875
1761915611407117300,9.226117431640626,-0.9882049560546875,-0.14141845703125,-0.0218048095703125
1761915611417171200,9.236171142578126,-0.9850616455078125,-0.141326904296875,-0.02227783203125
1761915611427225300,9.246225341796874,-0.9813995361328125,-0.145599365234375,-0.0230560302734375
1761915611437279200,9.256279296875,-0.97607421875,-0.1480865478515625,-0.022369384765625
1761915611447333400,9.26633349609375,-0.977569580078125,-0.15130615234375,-0.02032470703125
1761915611457387300,9.27638720703125,-0.9857025146484375,-0.1539459228515625,-0.0172271728515625
1761915611467441400,9.28644140625,-0.9954681396484375,-0.1537628173828125,-0.0159454345703125
1761915611477496300,9.296496337890625,-0.9902191162109375,-0.1485595703125,-0.0149078369140625
1761915611487550200,9.30655029296875,-0.9790802001953125,-0.143707275390625,-0.0157470703125
1761915611497604400,9.316604248046875,-0.9745635986328125,-0.1447906494140625,-0.021026611328125
1761915611507658200,9.326658203125,-0.97406005859375,-0.14495849609375,-0.02496337890625
1761915611517712400,9.33671240234375,-0.9769134521484375,-0.1414947509765625,-0.0218505859375
1761915611527766300,9.346766357421876,-0.9865264892578125,-0.1399688720703125,-0.020751953125
1761915611537820400,9.3568203125,-0.98968505859375,-0.1399078369140625,-0.0186614990234375
1761915611547874300,9.366874267578124,-0.9858551025390625,-0.1393280029296875,-0.0175018310546875
1761915611557928400,9.376928466796874,-0.9846649169921875,-0.1417236328125,-0.0176239013671875
1761915611567983400,9.3869833984375,-0.9801177978515625,-0.1446990966796875,-0.017822265625
1761915611578037200,9.397037353515625,-0.977447509765625,-0.1497955322265625,-0.019866943359375
1761915611588091400,9.40709130859375,-0.9744720458984375,-0.1490478515625,-0.0235748291015625
1761915611598145300,9.417145263671875,-0.9677886962890625,-0.1399383544921875,-0.0232391357421875
1761915611608199400,9.427199462890625,-0.96868896484375,-0.129486083984375,-0.026153564453125
1761915611618253300,9.43725341796875,-0.9760894775390625,-0.1278839111328125,-0.02630615234375
1761915611628307500,9.447307373046876,-0.98809814453125,-0.1340179443359375,-0.0229034423828125
1761915611638361000,9.457361083984376,-0.99566650390625,-0.14239501953125,-0.019866943359375
1761915611648415200,9.467415283203126,-0.9966888427734375,-0.147216796875,-0.015472412109375
1761915611658470400,9.477470458984374,-0.9913330078125,-0.1490325927734375,-0.0130767822265625
1761915611668524300,9.487524169921874,-0.98846435546875,-0.1498565673828125,-0.015167236328125
1761915611678578400,9.497578369140625,-0.98052978515625,-0.14892578125,-0.01763916015625
1761915611688632300,9.50763232421875,-0.9679412841796875,-0.1481170654296875,-0.0203704833984375
1761915611698686500,9.5176865234375,-0.958526611328125,-0.149932861328125,-0.022125244140625
1761915611708740400,9.527740234375,-0.95916748046875,-0.1539459228515625,-0.02166748046875
1761915611718794200,9.537794189453125,-0.9662628173828125,-0.1570892333984375,-0.019500732421875
1761915611728848100,9.54784814453125,-0.9743194580078125,-0.1583404541015625,-0.018157958984375
1761915611738902300,9.55790234375,-0.982879638671875,-0.1572113037109375,-0.017242431640625
1761915611748957400,9.56795751953125,-0.9845733642578125,-0.1553802490234375,-0.019866943359375
1761915611759011300,9.57801123046875,-0.98541259765625,-0.149566650390625,-0.025238037109375
1761915611769065500,9.5880654296875,-0.9883880615234375,-0.1412506103515625,-0.0226898193359375
1761915611779119400,9.598119384765624,-0.993011474609375,-0.13885498046875,-0.0199737548828125
1761915611789173200,9.60817333984375,-0.9993896484375,-0.1410675048828125,-0.0179901123046875
1761915611799227100,9.61822705078125,-0.9964752197265625,-0.14306640625,-0.0152587890625
1761915611809281300,9.62828125,-0.99169921875,-0.1460418701171875,-0.015106201171875
1761915611819335200,9.638335205078125,-0.9811859130859375,-0.1476593017578125,-0.017822265625
1761915611829389300,9.648389404296875,-0.97845458984375,-0.14776611328125,-0.0208892822265625
1761915611839445200,9.6584453125,-0.9810028076171875,-0.1438751220703125,-0.0247802734375
1761915611849499100,9.6684990234375,-0.981109619140625,-0.138031005859375,-0.0260009765625
1761915611859553300,9.67855322265625,-0.9815826416015625,-0.1345977783203125,-0.0258636474609375
1761915611869607200,9.688607177734376,-0.9841156005859375,-0.135894775390625,-0.0271453857421875
1761915611879662300,9.698662353515624,-0.9824371337890625,-0.13873291015625,-0.025970458984375
1761915611889716500,9.708716552734375,-0.9774627685546875,-0.14404296875,-0.02410888671875
1761915611899770400,9.718770263671875,-0.977294921875,-0.15032958984375,-0.02337646484375
1761915611909824300,9.72882421875,-0.9797515869140625,-0.1554107666015625,-0.021240234375
1761915611919878100,9.738878173828125,-0.9744873046875,-0.1538238525390625,-0.0179443359375
1761915611929932300,9.748932373046875,-0.9705352783203125,-0.1542205810546875,-0.0198822021484375
1761915611939986200,9.758986083984375,-0.972442626953125,-0.1526947021484375,-0.0225830078125
1761915611950040300,9.769040283203125,-0.973388671875,-0.14959716796875,-0.0208587646484375
1761915611960095200,9.77909521484375,-0.9799346923828125,-0.149078369140625,-0.0182342529296875
1761915611970149400,9.7891494140625,-0.9836578369140625,-0.1501922607421875,-0.0162811279296875
1761915611980203300,9.799203369140624,-0.9871673583984375,-0.1505889892578125,-0.01556396484375
1761915611990257200,9.809257080078124,-0.9881591796875,-0.1495513916015625,-0.01416015625
1761915612000311300,9.819311279296874,-0.98980712890625,-0.14837646484375,-0.013397216796875
1761915612010365200,9.829365234375,-0.9891510009765625,-0.148345947265625,-0.0146484375
1761915612020419300,9.83941943359375,-0.982330322265625,-0.1460113525390625,-0.0201263427734375
1761915612030473200,9.84947314453125,-0.983184814453125,-0.142181396484375,-0.02374267578125
1761915612040528400,9.8595283203125,-0.9781341552734375,-0.1418914794921875,-0.025970458984375
1761915612050582500,9.86958251953125,-0.978668212890625,-0.1457061767578125,-0.027587890625
1761915612060636200,9.87963623046875,-0.9793701171875,-0.148406982421875,-0.0236968994140625
1761915612070690300,9.889690185546876,-0.978302001953125,-0.1518096923828125,-0.0202789306640625
1761915612080744200,9.899744140625,-0.9779815673828125,-0.15167236328125,-0.0212554931640625
1761915612090798300,9.90979833984375,-0.9867401123046875,-0.1496734619140625,-0.0197296142578125
1761915612100852200,9.919852294921874,-0.996734619140625,-0.1495513916015625,-0.0170440673828125
1761915612110906400,9.92990625,-0.99847412109375,-0.14898681640625,-0.0223541259765625
1761915612120960500,9.93996044921875,-0.99029541015625,-0.1414337158203125,-0.0239410400390625
1761915612131015400,9.950015380859375,-0.9875640869140625,-0.1363525390625,-0.0222625732421875
1761915612141069300,9.9600693359375,-0.9862518310546875,-0.138824462890625,-0.0194549560546875
1761915612151123200,9.970123291015625,-0.9836578369140625,-0.146087646484375,-0.021209716796875
1761915612161177300,9.98017724609375,-0.984588623046875,-0.15838623046875,-0.0184478759765625
1761915612171231200,9.990231201171875,-0.9852752685546875,-0.165435791015625,-0.0138702392578125
1761915612181285400,10.000285400390625,-0.99041748046875,-0.1697540283203125,-0.0138702392578125
1761915612191339300,10.01033935546875,-0.9937896728515625,-0.16815185546875,-0.0153961181640625
1761915612201393400,10.020393310546876,-0.9816131591796875,-0.160064697265625,-0.0107421875
1761915612211448300,10.0304482421875,-0.9393157958984375,-0.167633056640625,-0.02667236328125
1761915612221502200,10.040502197265624,-0.91455078125,-0.16973876953125,-0.041290283203125
1761915612231556400,10.050556396484374,-0.9224853515625,-0.16705322265625,-0.0266876220703125
1761915612241610200,10.0606103515625,-0.9470977783203125,-0.1672515869140625,-0.0284881591796875
1761915612251664400,10.070664306640625,-0.98529052734375,-0.15966796875,-0.0334625244140625
1761915612261718300,10.08071826171875,-1.0011444091796875,-0.14874267578125,-0.0345611572265625
1761915612271772400,10.0907724609375,-1.0028228759765625,-0.14556884765625,-0.03948974609375
1761915612281826300,10.100826416015625,-0.9710540771484375,-0.1245880126953125,-0.0387115478515625
