time,seconds_elapsed,z,y,x
1761915602298113800,0.11711376953125,0.01927988789975643,-0.03043805994093418,-0.09517145901918411
1761915602308167700,0.127167724609375,0.026633726432919502,-0.017614806070923805,-0.11839696019887924
1761915602318221800,0.137221923828125,0.032608527690172195,0.010980885475873947,-0.12779951095581055
1761915602328275700,0.147275634765625,0.03424477204680443,0.03599362447857857,-0.11450560390949249
1761915602338329900,0.157329833984375,0.032122232019901276,0.0529923141002655,-0.07854440808296204
1761915602348383700,0.1673837890625,0.02406090497970581,0.04130550101399422,-0.04148617014288902
1761915602358438000,0.17743798828125,0.014600025489926338,0.009787523187696934,0.001413893885910511
1761915602368491800,0.18749169921875,0.0071278903633356094,-0.021482251584529877,0.03590996935963631
1761915602378545700,0.197545654296875,0.015940289944410324,-0.035719241946935654,0.04972005635499954
1761915602388599600,0.207599609375,0.03341167792677879,-0.04312603175640106,0.057629697024822235
1761915602398653700,0.21765380859375,0.04336870089173317,-0.02788529172539711,0.04369470477104187
1761915602408708900,0.227708984375,0.03977511078119278,0.00783614069223404,0.029589589685201645
1761915602418762800,0.2377626953125,0.02592960186302662,0.035725560039281845,0.010082732886075974
1761915602428817000,0.24781689453125,0.012481116689741611,0.037444036453962326,0.0005350513383746147
1761915602438870800,0.257870849609375,0.001106489566154778,0.02308187633752823,-0.01565403863787651
1761915602448924700,0.267924560546875,-0.003970037680119276,0.012591099366545677,-0.02906988561153412
1761915602458978600,0.277978515625,0.010816365480422974,0.013941588811576366,-0.033016156405210495
1761915602469032700,0.28803271484375,0.036218710243701935,0.02183300070464611,-0.02842259779572487
1761915602479086600,0.298086669921875,0.06001458689570427,0.028672264888882637,-0.010117627680301666
1761915602489140700,0.308140625,0.06776625663042068,0.010567162185907364,0.0034685973078012466
1761915602499195000,0.31819482421875,0.0728456974029541,-0.01652437448501587,0.004194309003651142
1761915602509248800,0.328248779296875,0.07231087982654572,-0.03769896924495697,-0.012079981155693531
1761915602519303000,0.338302978515625,0.0670119896531105,-0.05230667069554329,-0.025853585451841354
1761915602529356800,0.348356689453125,0.05619855597615242,-0.05697493255138397,-0.036710456013679504
1761915602539411700,0.35841162109375,0.04655817896127701,-0.053980205208063126,-0.03575917333364487
1761915602549465600,0.368465576171875,0.040335845202207565,-0.061094243079423904,-0.0069140661507844925
1761915602559519700,0.378519775390625,0.046357251703739166,-0.0654253363609314,0.03499583154916763
1761915602569573600,0.38857373046875,0.051617804914712906,-0.06987141817808151,0.09871159493923187
1761915602579627800,0.398627685546875,0.046732768416404724,-0.08901315927505493,0.16709837317466736
1761915602589681700,0.408681640625,0.034567829221487045,-0.10904832929372787,0.22045321762561798
1761915602599735800,0.41873583984375,0.02448989450931549,-0.11900988221168518,0.2513000965118408
1761915602609790000,0.4287900390625,0.016762511804699898,-0.12784117460250854,0.250412255525589
1761915602619843800,0.43884375,0.01863790862262249,-0.13737715780735016,0.2244722843170166
1761915602629897700,0.448897705078125,0.03391854092478752,-0.12785296142101288,0.18618988990783691
1761915602639951600,0.45895166015625,0.053556691855192184,-0.10094118863344193,0.1503211110830307
1761915602650005800,0.469005859375,0.05594969913363457,-0.08507213741540909,0.1280132234096527
1761915602660059600,0.4790595703125,0.050093408674001694,-0.07434013485908508,0.1174950823187828
1761915602670114800,0.48911474609375,0.04608983173966408,-0.03691314160823822,0.09167298674583435
1761915602680168700,0.499168701171875,0.04945873096585274,0.006531270686537027,0.050718098878860474
1761915602690222800,0.509222900390625,0.05002576857805252,0.024081174284219742,-0.00738928047940135
1761915602700276700,0.51927685546875,0.053108908236026764,0.003350595710799098,-0.06418385356664658
1761915602710330600,0.52933056640625,0.05367041006684303,-0.03132462874054909,-0.10761956870555878
1761915602720384800,0.539384765625,0.048454608768224716,-0.04722636193037033,-0.1207476258277893
1761915602730438700,0.549438720703125,0.037885747849941254,-0.022101765498518944,-0.1043001115322113
1761915602740492800,0.559492919921875,0.025120684877038002,0.017763890326023102,-0.06813625246286392
1761915602750546700,0.569546630859375,0.014313321560621262,0.05302651599049568,-0.025016510859131813
1761915602760600800,0.579600830078125,0.002027094829827547,0.05793791636824608,0.023090297356247902
1761915602770654700,0.58965478515625,-0.03319413214921951,0.003952337894588709,0.06440345197916031
1761915602780708900,0.599708984375,-0.0829627513885498,-0.07898382097482681,0.11349562555551529
1761915602790762800,0.6097626953125,-0.14271162450313568,-0.15762484073638916,0.16241520643234253
1761915602800817000,0.61981689453125,-0.19270528852939606,-0.20217207074165344,0.21961989998817444
1761915602810871800,0.629871826171875,-0.2308027595281601,-0.2752911448478699,0.27503493428230286
1761915602820925700,0.63992578125,-0.2578636705875397,-0.34643056988716125,0.3182865381240845
1761915602830979800,0.649979736328125,-0.26266586780548096,-0.3821069002151489,0.33321303129196167
1761915602841033700,0.66003369140625,-0.23758341372013092,-0.3303483724594116,0.3327754735946655
1761915602851088000,0.670087890625,-0.22538679838180542,-0.2606761157512665,0.325861394405365
1761915602861141800,0.680141845703125,-0.2608502507209778,-0.23736681044101715,0.34352773427963257
1761915602871196000,0.69019580078125,-0.35223230719566345,-0.38888490200042725,0.41248250007629395
1761915602881249800,0.700249755859375,-0.44871729612350464,-0.7144230604171753,0.49974414706230164
1761915602891303700,0.7103037109375,-0.5079830884933472,-1.0942233800888062,0.5563263893127441
1761915602901357600,0.720357666015625,-0.5145280957221985,-1.3673603534698486,0.5373095273971558
1761915602911411700,0.73041162109375,-0.4807111918926239,-1.4541099071502686,0.46338918805122375
1761915602921465600,0.740465576171875,-0.4345540702342987,-1.4427286386489868,0.37314051389694214
1761915602931520800,0.750520751953125,-0.4071381092071533,-1.45523202419281,0.3117806315422058
1761915602941575000,0.760574951171875,-0.40206611156463623,-1.524491786956787,0.2761792242527008
1761915602951628800,0.77062890625,-0.4071979224681854,-1.542261004447937,0.21984155476093292
1761915602961682700,0.7806826171875,-0.3939223289489746,-1.392088770866394,0.12862002849578857
1761915602971736600,0.790736572265625,-0.3793156147003174,-1.1663089990615845,0.07738573104143143
1761915602981790700,0.800790771484375,-0.3928889334201813,-1.0382863283157349,0.1118512898683548
1761915602991844600,0.8108447265625,-0.4778725802898407,-1.02194082736969,0.24596726894378662
1761915603001898800,0.820898681640625,-0.6157177686691284,-1.0543403625488281,0.4411338269710541
1761915603011952600,0.83095263671875,-0.7486701607704163,-1.1317185163497925,0.6538733243942261
1761915603022006300,0.84100634765625,-0.8096922636032104,-1.2230137586593628,0.808251142501831
1761915603032060200,0.85106005859375,-0.7568764090538025,-1.2191309928894043,0.8415551781654358
1761915603042114300,0.8611142578125,-0.6437296271324158,-1.1368012428283691,0.7601943016052246
1761915603052168200,0.871168212890625,-0.5552573204040527,-1.048086404800415,0.6157988905906677
1761915603062223000,0.88122314453125,-0.4983607530593872,-0.9282479286193848,0.46833300590515137
1761915603072277200,0.89127734375,-0.4451858103275299,-0.6631187200546265,0.35009950399398804
1761915603082331100,0.9013310546875,-0.4017680287361145,-0.357822984457016,0.2994629740715027
1761915603092385300,0.91138525390625,-0.37070706486701965,-0.12278889119625092,0.3102613389492035
1761915603102439200,0.921439208984375,-0.3552823066711426,0.02838464453816414,0.35765761137008667
1761915603112493300,0.931493408203125,-0.34079116582870483,0.0720837190747261,0.38310012221336365
1761915603122547200,0.941547119140625,-0.32787108421325684,0.0684431791305542,0.3648761212825775
1761915603132601300,0.951601318359375,-0.3021271228790283,0.10550645738840103,0.2936764657497406
1761915603142655200,0.9616552734375,-0.2576392889022827,0.26711025834083557,0.1863718330860138
1761915603152709000,0.971709228515625,-0.21367475390434265,0.44635826349258423,0.08874870836734772
1761915603162763300,0.98176318359375,-0.1640978753566742,0.5318036675453186,0.04853711277246475
1761915603172817200,0.991817138671875,-0.11868629604578018,0.45615527033805847,0.05611630156636238
1761915603182871300,1.001871337890625,-0.062386803328990936,0.2888089120388031,0.06307700276374817
1761915603192926200,1.01192626953125,0.00535293435677886,0.18225789070129395,0.0018668118864297867
1761915603202980400,1.02198046875,0.06647061556577682,0.1477116346359253,-0.09583285450935364
1761915603213034200,1.0320341796875,0.1092044860124588,0.10234667360782623,-0.1758018136024475
1761915603223088400,1.04208837890625,0.13429173827171326,0.07717633992433548,-0.25373178720474243
1761915603233142000,1.05214208984375,0.15152926743030548,0.12866456806659698,-0.33233878016471863
1761915603243196200,1.062196044921875,0.15616130828857422,0.17106449604034424,-0.40935152769088745
1761915603253250300,1.072250244140625,0.155331090092659,0.1976550966501236,-0.4737471640110016
1761915603263304200,1.08230419921875,0.15351907908916473,0.2872723340988159,-0.5055466294288635
1761915603273358300,1.0923583984375,0.14892597496509552,0.47730112075805664,-0.4937189817428589
1761915603283412200,1.102412109375,0.1652117371559143,0.7180636525154114,-0.4276142716407776
1761915603293466400,1.11246630859375,0.21680355072021484,0.9113205671310425,-0.3145327568054199
1761915603303520300,1.122520263671875,0.28176233172416687,0.9834703803062439,-0.17722710967063904
1761915603313574400,1.132574462890625,0.33672958612442017,0.9359226226806641,-0.05099717155098915
1761915603323629000,1.142629150390625,0.36568692326545715,0.8275474309921265,0.007539109326899052
1761915603333683200,1.15268310546875,0.395475834608078,0.7524031400680542,-0.026130318641662598
1761915603343737000,1.162737060546875,0.4117719829082489,0.7166568636894226,-0.14717473089694977
1761915603353791200,1.172791259765625,0.4308284521102905,0.6954590082168579,-0.31965160369873047
1761915603363845400,1.182845458984375,0.449439138174057,0.7311043739318848,-0.5021447539329529
1761915603373899300,1.192899169921875,0.417599081993103,0.809485137462616,-0.6242177486419678
1761915603383953400,1.202953369140625,0.364402174949646,0.8475342392921448,-0.6655406355857849
1761915603394007300,1.21300732421875,0.3204304575920105,0.8624160885810852,-0.625454843044281
1761915603404061400,1.2230615234375,0.3126170039176941,0.8135414719581604,-0.5217816829681396
1761915603414115000,1.233114990234375,0.33342960476875305,0.7531103491783142,-0.388527512550354
1761915603424169200,1.243169189453125,0.3775760233402252,0.7382387518882751,-0.2582818865776062
1761915603434223000,1.25322314453125,0.4225846529006958,0.7645140886306763,-0.1630571037530899
1761915603444277200,1.26327734375,0.4591301381587982,0.8267164826393127,-0.10183501243591309
1761915603454332400,1.27333251953125,0.55169278383255,0.8097926378250122,-0.03819699212908745
1761915603464386300,1.28338623046875,0.6230791211128235,0.9228379130363464,0.016995422542095184
1761915603474440400,1.2934404296875,0.5840771794319153,1.2549389600753784,-0.029202643781900406
1761915603484494300,1.303494384765625,0.4775709807872772,1.4387344121932983,-0.05102298781275749
1761915603494548200,1.31354833984375,0.36207690834999084,1.3517154455184937,-0.008229008875787258
1761915603504602000,1.32360205078125,0.22656698524951935,1.1287676095962524,0.0425281748175621
1761915603514656300,1.33365625,0.06803710013628006,0.8072903752326965,0.07373563200235367
1761915603524710100,1.343710205078125,-0.07441218942403793,0.44126495718955994,0.04724330082535744
1761915603534764300,1.353764404296875,-0.16204556822776794,0.14189912378787994,-0.03671588748693466
1761915603544818200,1.363818115234375,-0.2165716588497162,-0.03201381862163544,-0.16185063123703003
1761915603554872300,1.373872314453125,-0.22043000161647797,-0.08521409332752228,-0.2982358932495117
1761915603564926200,1.38392626953125,-0.17434559762477875,-0.09864814579486847,-0.4106023907661438
1761915603574980400,1.39398046875,-0.11010681837797165,-0.08645346015691757,-0.46073412895202637
1761915603585035300,1.40403515625,-0.07216236740350723,-0.06711651384830475,-0.41801223158836365
1761915603595089200,1.414089111328125,-0.10753561556339264,-0.09943751245737076,-0.29901909828186035
1761915603605143300,1.424143310546875,-0.2062574028968811,-0.23196068406105042,-0.15308424830436707
1761915603615197200,1.434197265625,-0.2514945864677429,-0.39937788248062134,-0.030815182253718376
1761915603625251300,1.444251220703125,-0.29240739345550537,-0.3738810420036316,0.0295722596347332
1761915603635305200,1.45430517578125,-0.35117828845977783,-0.05175280198454857,0.02301742136478424
1761915603645359400,1.464359375,-0.27294233441352844,0.19759471714496613,-0.02867879532277584
1761915603655413200,1.474413330078125,-0.21411895751953125,0.3503519594669342,-0.04755682498216629
1761915603665467100,1.484467041015625,-0.20102712512016296,0.4081508219242096,-0.01986740529537201
1761915603675521000,1.49452099609375,-0.17840325832366943,0.3990200161933899,-0.02626838907599449
1761915603685575200,1.5045751953125,-0.17791616916656494,0.36338508129119873,-0.07863546162843704
1761915603695629300,1.51462939453125,-0.206236332654953,0.3177920877933502,-0.14675210416316986
1761915603705683200,1.52468310546875,-0.23531751334667206,0.2631099224090576,-0.22658514976501465
1761915603715738400,1.53473828125,-0.24951903522014618,0.15825414657592773,-0.30744990706443787
1761915603725792300,1.544792236328125,-0.26988768577575684,0.09688214957714081,-0.38733887672424316
1761915603735846400,1.554846435546875,-0.3068757951259613,-0.04077838361263275,-0.4176085293292999
1761915603745900000,1.564900146484375,-0.3302953839302063,-0.23623071610927582,-0.38002973794937134
1761915603755954200,1.5749541015625,-0.323927104473114,-0.42820021510124207,-0.3283328115940094
1761915603766008000,1.585008056640625,-0.3287506103515625,-0.6052343845367432,-0.31951481103897095
1761915603776062200,1.595062255859375,-0.3575267195701599,-0.5221733450889587,-0.36125215888023376
1761915603786116000,1.6051162109375,-0.2969486117362976,-0.37631016969680786,-0.3952793776988983
1761915603796170200,1.615170166015625,-0.20433834195137024,-0.31682413816452026,-0.4511960744857788
1761915603806224400,1.625224365234375,-0.15518704056739807,-0.32584720849990845,-0.49442797899246216
1761915603816278300,1.6352783203125,-0.12573835253715515,-0.4501804709434509,-0.502034604549408
1761915603826332400,1.64533251953125,-0.08901255577802658,-0.5750731229782104,-0.49004000425338745
1761915603836386300,1.65538623046875,-0.06014670059084892,-0.6171897053718567,-0.4757073223590851
1761915603846441200,1.665441162109375,-0.03730796277523041,-0.6018709540367126,-0.46271002292633057
1761915603856495000,1.6754951171875,-0.01919342204928398,-0.5605648159980774,-0.45859187841415405
1761915603866549200,1.68554931640625,0.0023544812574982643,-0.46243053674697876,-0.4624508023262024
1761915603876603100,1.69560302734375,0.03190481662750244,-0.3129492402076721,-0.4651225507259369
1761915603886657300,1.7056572265625,0.050754670053720474,-0.16151204705238342,-0.457568496465683
1761915603896711400,1.71571142578125,0.06640350818634033,-0.03458986058831215,-0.4213477373123169
1761915603906765300,1.725765380859375,0.07660900801420212,0.04909784719347954,-0.3687590956687927
1761915603916819500,1.7358193359375,0.09344492852687836,0.09484469145536423,-0.3164723515510559
1761915603926873000,1.745873046875,0.11963792145252228,0.09642288088798523,-0.2673700451850891
1761915603936927200,1.75592724609375,0.1401195377111435,0.06715501099824905,-0.2312503308057785
1761915603946981000,1.765981201171875,0.15062198042869568,0.023531096056103706,-0.19909904897212982
1761915603957035300,1.77603515625,0.15653793513774872,0.0037001336459070444,-0.16788548231124878
1761915603967090200,1.786090087890625,0.16861110925674438,0.006379805970937014,-0.13400979340076447
1761915603977144300,1.796144287109375,0.18165451288223267,0.013047630898654461,-0.0896945521235466
1761915603987198500,1.806198486328125,0.18794117867946625,0.010287264361977577,-0.030036814510822296
1761915603997252400,1.81625244140625,0.17762377858161926,0.00007184295100159943,0.030272621661424637
1761915604007306200,1.82630615234375,0.15196289122104645,-0.029689781367778778,0.0716317743062973
1761915604017360100,1.836360107421875,0.1290692239999771,-0.0537608340382576,0.06890658289194107
1761915604027415300,1.846415283203125,0.1358078271150589,-0.04172121360898018,0.030080094933509827
1761915604037469200,1.85646923828125,0.17553211748600006,0.010169013403356075,-0.01586669683456421
1761915604047523300,1.8665234375,0.21513067185878754,0.07459540665149689,-0.024451397359371185
1761915604057577200,1.8765771484375,0.23885634541511536,0.09066392481327057,0.021778687834739685
1761915604067631400,1.88663134765625,0.23573832213878632,0.08034896850585938,0.10040213167667389
1761915604077685200,1.896685302734375,0.20613008737564087,0.08043038845062256,0.17306286096572876
1761915604087739100,1.9067392578125,0.1696479767560959,0.08160324394702911,0.18810147047042847
1761915604097794300,1.916794189453125,0.1438812017440796,0.09021225571632385,0.13810114562511444
1761915604107848200,1.92684814453125,0.13195742666721344,0.10664236545562744,0.056196972727775574
1761915604117902300,1.93690234375,0.14528846740722656,0.08830104023218155,-0.01803605630993843
1761915604127956200,1.946956298828125,0.16689470410346985,0.046202316880226135,-0.055857736617326736
1761915604138010400,1.95701025390625,0.19968795776367188,0.03333985060453415,-0.048512425273656845
1761915604148064300,1.967064208984375,0.22600851953029633,0.04813690856099129,-0.010760786011815071
1761915604158118100,1.9771181640625,0.23506629467010498,0.07009553909301758,0.03145783394575119
1761915604168172300,1.98717236328125,0.24774561822414398,0.10533741861581802,0.05943673849105835
1761915604178226200,1.99722607421875,0.24571257829666138,0.15027299523353577,0.06091935187578201
1761915604188280300,2.0072802734375,0.22671359777450562,0.17914432287216187,0.051361002027988434
1761915604198334200,2.017334228515625,0.1868772655725479,0.15863856673240662,0.0427686981856823
1761915604208388400,2.027388427734375,0.16121317446231842,0.08198880404233932,0.040402211248874664
1761915604218442200,2.037442138671875,0.15330037474632263,-0.0012387627502903342,0.03580036014318466
1761915604228497200,2.0474970703125,0.14712877571582794,-0.053419142961502075,0.027958950027823448
1761915604238551000,2.057551025390625,0.14853620529174805,-0.07232865691184998,0.026274733245372772
1761915604248605200,2.067605224609375,0.1423371583223343,-0.07271002233028412,0.026895783841609955
1761915604258659000,2.0776591796875,0.1340792328119278,-0.046561501920223236,0.023572959005832672
1761915604268713200,2.087713134765625,0.12590652704238892,-0.004171169362962246,0.019920431077480316
1761915604278767400,2.097767333984375,0.11902038007974625,0.04838312044739723,0.018770480528473854
1761915604288821200,2.1078212890625,0.09983336925506592,0.053876955062150955,0.018044767901301384
1761915604298875400,2.11787548828125,0.07578820735216141,0.006017205771058798,0.020301643759012222
1761915604308929300,2.12792919921875,0.050749704241752625,-0.056441113352775574,0.002283228561282158
1761915604318983400,2.1379833984375,0.03765436261892319,-0.09942691773176193,-0.020394477993249893
1761915604329037300,2.148037353515625,0.04495834559202194,-0.1032853052020073,-0.03849837929010391
1761915604339091200,2.15809130859375,0.06693374365568161,-0.04994611442089081,-0.04052027314901352
1761915604349145000,2.16814501953125,0.09114134311676025,0.05305030941963196,-0.016355816274881363
1761915604359200300,2.1782001953125,0.07982972264289856,0.13991348445415497,0.023740198463201523
1761915604369254400,2.18825439453125,0.0489698089659214,0.1517978459596634,0.06125188618898392
1761915604379308300,2.198308349609375,0.012053980492055416,0.09990017116069794,0.08894552290439606
1761915604389362400,2.208362548828125,-0.014161644503474236,0.03364737704396248,0.09548598527908325
1761915604399416300,2.218416259765625,-0.02074325643479824,-0.012347151525318623,0.06664039194583893
1761915604409470200,2.22847021484375,-0.028786003589630127,-0.043084293603897095,0.01786832883954048
1761915604419524000,2.238524169921875,-0.02669244259595871,-0.06429696083068848,-0.03590342402458191
1761915604429578200,2.248578125,-0.01402751449495554,-0.07158070802688599,-0.0870150700211525
1761915604439632100,2.258632080078125,0.012048177421092987,-0.08349994570016861,-0.12116885185241699
1761915604449686300,2.268686279296875,0.03433430567383766,-0.06955163925886154,-0.1396687626838684
1761915604459740200,2.278740234375,0.029025988653302193,-0.03868633881211281,-0.14573723077774048
1761915604469794300,2.288794189453125,-0.005273928865790367,-0.015255313366651535,-0.13828729093074799
1761915604479849200,2.29884912109375,-0.04513679817318916,-0.004476048517972231,-0.1213131844997406
1761915604489903000,2.308903076171875,-0.07107438892126083,-0.00698474608361721,-0.10329929739236832
1761915604499957200,2.318957275390625,-0.0728767141699791,-0.023896275088191032,-0.08553142845630646
1761915604510011100,2.32901123046875,-0.06283100694417953,-0.029404757544398308,-0.06643230468034744
1761915604520065300,2.339065185546875,-0.04726845771074295,-0.023734817281365395,-0.05280245095491409
1761915604530119200,2.349119140625,-0.028475860133767128,-0.006840521935373545,-0.025913313031196594
1761915604540173300,2.35917333984375,-0.019690530374646187,0.01595120318233967,-0.006079941522330046
1761915604550227200,2.369227294921875,-0.008598730899393559,0.05395211651921272,0.011613834649324417
1761915604560281300,2.37928125,-0.0081418352201581,0.09449315816164017,0.022853851318359375
1761915604570335200,2.389335205078125,-0.00919591449201107,0.12112503498792648,0.0326436311006546
1761915604580389400,2.399389404296875,-0.005855249240994453,0.13355566561222076,0.04912881553173065
1761915604590443000,2.409443115234375,-0.007330107502639294,0.10611072182655334,0.08186385780572891
1761915604600497200,2.4194970703125,-0.012509460560977459,0.05842936038970947,0.10395826399326324
1761915604610552300,2.42955224609375,-0.015612841583788395,0.019440947100520134,0.10406053066253662
1761915604620606200,2.439606201171875,-0.006732487119734287,-0.01003252062946558,0.07542230933904648
1761915604630660400,2.449660400390625,0.01018684171140194,-0.04002663865685463,0.035331614315509796
1761915604640714200,2.45971435546875,0.0168767087161541,-0.0392691008746624,-0.011402759701013565
1761915604650768400,2.469768310546875,0.009711208753287792,-0.026981810107827187,-0.049070779234170914
1761915604660822300,2.479822265625,0.00015081878518685699,-0.03144454210996628,-0.05974317342042923
1761915604670876200,2.489876220703125,-0.006899101193994284,-0.05806976184248924,-0.04643136262893677
1761915604680930000,2.499929931640625,-0.008639361709356308,-0.09678751975297928,-0.022059164941310883
1761915604690984200,2.509984130859375,-0.008126436732709408,-0.11718706786632538,0.00035346485674381256
1761915604701038000,2.5200380859375,-0.006329128984361887,-0.11016084998846054,0.024982880800962448
1761915604711092200,2.53009228515625,0.0013317200355231762,-0.0866648480296135,0.04118688404560089
1761915604721146400,2.540146484375,0.017630750313401222,-0.059767916798591614,0.06325902044773102
1761915604731201300,2.550201171875,0.041601333767175674,-0.022096440196037292,0.08397388458251953
1761915604741255200,2.560255126953125,0.057048726826906204,-0.008840224705636501,0.12111668288707733
1761915604751309000,2.57030908203125,0.05166221782565117,-0.005055873189121485,0.16447320580482483
1761915604761363200,2.58036328125,0.035109348595142365,-0.0008141212165355682,0.1907730996608734
1761915604771417000,2.5904169921875,0.011290300637483597,0.019192876294255257,0.1925254464149475
1761915604781471200,2.60047119140625,-0.004919199738651514,0.07687094807624817,0.16558785736560822
1761915604791525000,2.610525146484375,-0.010950461030006409,0.1544078141450882,0.13369117677211761
1761915604801579300,2.620579345703125,-0.013376537710428238,0.22495275735855103,0.11802521347999573
1761915604811633400,2.63063330078125,-0.017622945830225945,0.2792021632194519,0.12982222437858582
1761915604821687300,2.640687255859375,-0.02684708498418331,0.2758012115955353,0.16189372539520264
1761915604831741400,2.650741455078125,-0.030189085751771927,0.21614854037761688,0.19346600770950317
1761915604841795300,2.66079541015625,-0.025047097355127335,0.13972249627113342,0.21234427392482758
1761915604851850200,2.670850341796875,-0.026131004095077515,0.06613881886005402,0.20748241245746613
1761915604861904100,2.680904052734375,-0.023901138454675674,0.025124002248048782,0.182964026927948
1761915604871958300,2.690958251953125,-0.02471526712179184,0.01572943478822708,0.14050470292568207
1761915604882012200,2.70101220703125,-0.02485465817153454,0.05181054025888443,0.09832273423671722
1761915604892066300,2.71106640625,-0.02594682015478611,0.0987149253487587,0.07110869139432907
1761915604902120400,2.721120361328125,-0.027370646595954895,0.10783486068248749,0.06897730380296707
1761915604912174300,2.73117431640625,-0.025075534358620644,0.09554410725831985,0.08287154883146286
1761915604922228200,2.741228271484375,-0.02409416250884533,0.03767581656575203,0.11834639310836792
1761915604932282000,2.7512822265625,-0.021885335445404053,-0.028070442378520966,0.14494125545024872
1761915604942336300,2.761336181640625,-0.023048829287290573,-0.060172189027071,0.14489926397800446
1761915604952390100,2.77139013671875,-0.015035108663141727,-0.04355273395776749,0.12245254218578339
1761915604962444300,2.7814443359375,-0.005186632741242647,-0.017830925062298775,0.10202467441558838
1761915604972499200,2.791499267578125,0.00549157802015543,-0.022286394611001015,0.09922568500041962
1761915604982553300,2.80155322265625,0.013735925778746605,-0.02238519676029682,0.10042303800582886
1761915604992607200,2.811607177734375,0.020456945523619652,-0.011265167966485023,0.10323508083820343
1761915605002661000,2.8216611328125,0.026481710374355316,-0.02386724203824997,0.08845014870166779
1761915605012715300,2.83171533203125,0.018593160435557365,-0.038710907101631165,0.06322549283504486
1761915605022769200,2.84176904296875,0.003053294727578759,-0.04878251627087593,0.031706467270851135
1761915605032823300,2.8518232421875,-0.005355902947485447,-0.05447875335812569,0.00429321825504303
1761915605042877200,2.861877197265625,-0.009727008640766144,-0.05924927815794945,-0.007763739209622145
1761915605052931300,2.871931396484375,-0.01705922558903694,-0.07256454974412918,-0.010152062401175499
1761915605062985200,2.881985107421875,-0.01667965017259121,-0.09199470281600952,-0.0028214650228619576
1761915605073039400,2.892039306640625,0.0015611399430781603,-0.12176112085580826,0.0038087405264377594
1761915605083093200,2.90209326171875,0.031761109828948975,-0.1550253927707672,0.007966835051774979
1761915605093147400,2.9121474609375,0.057291239500045776,-0.15373855829238892,0.0051465462893247604
1761915605103202300,2.922202392578125,0.08472621440887451,-0.09926299750804901,0.004410811699926853
1761915605113256200,2.932256103515625,0.11030054837465286,-0.03583129122853279,0.017626747488975525
1761915605123310300,2.942310302734375,0.10818266868591309,0.015634974464774132,0.04068686440587044
1761915605133364200,2.9523642578125,0.08665474504232407,0.04160905256867409,0.06386621296405792
1761915605143418400,2.96241845703125,0.0480351597070694,0.028978461399674416,0.0776146799325943
1761915605153472300,2.97247216796875,0.01922694593667984,0.005090706050395966,0.06401151418685913
1761915605163526400,2.9825263671875,-0.0024925752077251673,-0.018116746097803116,0.03341663256287575
1761915605173580300,2.992580322265625,-0.009016521275043488,-0.011211968027055264,-0.0037286076694726944
1761915605183634200,3.00263427734375,0.0004719917487818748,-0.013069734908640385,-0.02719752863049507
1761915605193688300,3.012688232421875,0.017970824614167213,-0.029429001733660698,-0.03223542869091034
1761915605203742200,3.0227421875,0.017339712008833885,-0.04705639183521271,-0.023921331390738487
1761915605213796400,3.03279638671875,0.00819468218833208,-0.05316009372472763,-0.018570508807897568
1761915605223851300,3.042851318359375,-0.001718948595225811,-0.03880388289690018,-0.020340856164693832
1761915605233905400,3.052905517578125,-0.007847415283322334,-0.009490469470620155,-0.010027498006820679
1761915605243959300,3.062959228515625,-0.010818484239280224,0.020158585160970688,0.01752355694770813
1761915605254013200,3.07301318359375,-0.014025462791323662,0.02770198881626129,0.06296613812446594
1761915605264067000,3.083067138671875,-0.019640037789940834,0.025956232100725174,0.11153120547533035
1761915605274121200,3.093121337890625,-0.027096623554825783,0.01992390677332878,0.14972999691963196
1761915605284175400,3.10317529296875,-0.032163605093955994,0.012093283236026764,0.15739332139492035
1761915605294229200,3.113229248046875,-0.029267681762576103,-0.0076109133660793304,0.14246736466884613
1761915605304283400,3.123283447265625,-0.022582292556762695,-0.02994810789823532,0.11822856962680817
1761915605314337300,3.133337158203125,-0.013477745465934277,-0.05002461373806,0.08324156701564789
1761915605324391400,3.143391357421875,-0.0031728753820061684,-0.05099257454276085,0.04732563719153404
1761915605334445300,3.1534453125,0.0029771621339023113,-0.0408904068171978,0.015564510598778725
1761915605344500200,3.163500244140625,-0.0007337203714996576,-0.033577464520931244,-0.009992244653403759
1761915605354554000,3.17355419921875,-0.012227124534547329,-0.039363715797662735,-0.039422038942575455
1761915605364608300,3.183608154296875,-0.017547283321619034,-0.05744866281747818,-0.06994740664958954
1761915605374662400,3.193662353515625,-0.01765141263604164,-0.07541248947381973,-0.08728139847517014
1761915605384716300,3.20371630859375,-0.010823909193277359,-0.07632273435592651,-0.08271816372871399
1761915605394770400,3.2137705078125,0.004217891022562981,-0.07978297770023346,-0.05126836523413658
1761915605404824300,3.22382421875,0.01489540096372366,-0.07157959789037704,-0.013517716899514198
1761915605414878500,3.23387841796875,0.0134825948625803,-0.041478678584098816,0.03100208193063736
1761915605424932400,3.243932373046875,0.00911180954426527,-0.003636969719082117,0.06406917423009872
1761915605434986200,3.253986328125,0.008840433321893215,0.032078951597213745,0.07501156628131866
1761915605445040000,3.2640400390625,-0.004295809660106897,0.04588659480214119,0.07437913864850998
1761915605455094300,3.27409423828125,-0.007037800271064043,0.03566005825996399,0.0631864070892334
1761915605465149200,3.284149169921875,0.00517341960221529,0.008966770954430103,0.03971119970083237
1761915605475203300,3.294203369140625,0.01468303520232439,-0.015951361507177353,0.0059321969747543335
1761915605485257500,3.304257568359375,0.019203167408704758,-0.019974995404481888,-0.023014429956674576
1761915605495311400,3.314311279296875,0.008548125624656677,-0.015631645917892456,-0.0305011086165905
1761915605505365200,3.324365234375,-0.004814065061509609,-0.03218364343047142,-0.024371720850467682
1761915605515419100,3.334419189453125,-0.017078187316656113,-0.0395297072827816,-0.008059326559305191
1761915605525473300,3.344473388671875,-0.02360028401017189,-0.03224765881896019,0.010611421428620815
1761915605535527200,3.354527099609375,-0.02203967235982418,-0.024623295292258263,0.025910217314958572
1761915605545581300,3.364581298828125,-0.012426715344190598,-0.004994309972971678,0.04689575359225273
1761915605555635200,3.37463525390625,0.00008428253931924701,0.01742497831583023,0.06721274554729462
1761915605565689300,3.384689453125,0.011733069084584713,0.05719105526804924,0.08121010661125183
1761915605575743200,3.3947431640625,0.018894575536251068,0.06633022427558899,0.08557716012001038
1761915605585798100,3.404798095703125,0.031413186341524124,0.053264617919921875,0.07221825420856476
1761915605595852300,3.414852294921875,0.03898055851459503,0.023136543110013008,0.047032736241817474
1761915605605906200,3.42490625,0.03890151157975197,-0.024541100487113,0.014483775943517685
1761915605615960300,3.434960205078125,0.03679175674915314,-0.07508976012468338,-0.02694728597998619
1761915605626014200,3.44501416015625,0.038307949900627136,-0.08822812885046005,-0.06527099758386612
1761915605636068400,3.455068359375,0.04777229204773903,-0.06174725294113159,-0.08779947459697723
1761915605646122200,3.465122314453125,0.05467934161424637,-0.010431043803691864,-0.09362896531820297
1761915605656176400,3.47517626953125,0.04969283938407898,0.031074322760105133,-0.06796914339065552
1761915605666230300,3.485230224609375,0.05117788165807724,0.05007433891296387,-0.02430787868797779
1761915605676284400,3.495284423828125,0.04757808893918991,0.0494663380086422,0.009802954271435738
1761915605686338300,3.50533837890625,0.044445205479860306,0.04665245860815048,0.025782745331525803
1761915605696393200,3.515393310546875,0.04686681926250458,0.03130359575152397,0.023133963346481323
1761915605706447400,3.525447265625,0.04269629716873169,0.017399080097675323,0.017839236184954643
1761915605716501200,3.535501220703125,0.029298467561602592,0.008525695651769638,0.008470501750707626
1761915605726555400,3.545555419921875,0.017015762627124786,-0.008552344515919685,0.003182021901011467
1761915605736609300,3.555609375,0.009869969449937344,-0.024668730795383453,-0.010699438862502575
1761915605746663400,3.565663330078125,0.001326338155195117,-0.02616189420223236,-0.02194652333855629
1761915605756717300,3.57571728515625,-0.004416768904775381,-0.018841663375496864,-0.026171360164880753
1761915605766771200,3.585771240234375,-0.0042363787069916725,-0.010317839682102203,-0.036072973161935806
1761915605776825000,3.5958251953125,0.00017488142475485802,0.01212009135633707,-0.03591291606426239
1761915605786879200,3.605879150390625,0.0022777782287448645,0.02659725584089756,-0.030290111899375916
1761915605796933000,3.61593310546875,0.006131638772785664,0.018214156851172447,-0.013342021033167839
1761915605806987300,3.6259873046875,0.009220428764820099,-0.009598230011761189,0.009272988885641098
1761915605817042400,3.63604248046875,0.01070061419159174,-0.042940471321344376,0.022784801200032234
1761915605827096300,3.646096435546875,0.0064166393131017685,-0.05830886587500572,0.02124907821416855
1761915605837150200,3.656150146484375,-0.004445595666766167,-0.059595972299575806,0.014308080077171326
1761915605847204000,3.6662041015625,-0.016438603401184082,-0.0544193759560585,0.0018019229173660278
1761915605857258200,3.67625830078125,-0.021152665838599205,-0.048007018864154816,-0.011874208226799965
1761915605867312000,3.68631201171875,-0.01532786525785923,-0.0591411218047142,-0.01487193163484335
1761915605877366300,3.6963662109375,-0.00416682381182909,-0.08067651093006134,-0.009269439615309238
1761915605887420200,3.706420166015625,0.0069662644527852535,-0.10597984492778778,-0.0019773459061980247
1761915605897474300,3.716474365234375,0.01575576141476631,-0.11703569442033768,0.0072542354464530945
1761915605907528400,3.726528564453125,0.011727387085556984,-0.09536967426538467,0.012217151001095772
1761915605917582300,3.736582275390625,0.0035552114713937044,-0.061386141926050186,0.017657455056905746
1761915605927637200,3.74663720703125,-0.006843226496130228,-0.033257219940423965,0.019550392404198647
1761915605937691100,3.756691162109375,-0.0034442339092493057,-0.019296396523714066,0.01831681653857231
1761915605947745300,3.766745361328125,0.006448494270443916,-0.016776595264673233,0.010813357308506966
1761915605957799200,3.776799072265625,0.01299534272402525,-0.0016221432015299797,0.005404742434620857
1761915605967853300,3.786853271484375,0.00703428266569972,-0.0031201064120978117,0.011281638406217098
1761915605977907200,3.7969072265625,0.003527698339894414,-0.014210041612386703,0.029781822115182877
1761915605987961300,3.80696142578125,-0.0037795952521264553,-0.018866190686821938,0.050049059092998505
1761915605998015200,3.81701513671875,-0.013605860061943531,0.0024023449514061213,0.060574404895305634
1761915606008069400,3.8270693359375,-0.019731374457478523,0.023367781192064285,0.06080741435289383
1761915606018123300,3.837123291015625,-0.01881498098373413,0.05539202690124512,0.0561082661151886
1761915606028173000,3.847173095703125,-0.0033717527985572815,0.0979849323630333,0.05495002120733261
1761915606038227000,3.85722705078125,0.016718335449695587,0.13763540983200073,0.06703358143568039
1761915606048281900,3.86728173828125,0.03773120790719986,0.16892223060131073,0.1007193773984909
1761915606058335700,3.877335693359375,0.06191723793745041,0.17783503234386444,0.12769533693790436
1761915606068390000,3.887389892578125,0.07548028975725174,0.15809668600559235,0.1454867422580719
1761915606078443800,3.89744384765625,0.07370343059301376,0.11182718724012375,0.14915551245212555
1761915606088498000,3.907497802734375,0.048541292548179626,0.06523223966360092,0.1402014195919037
1761915606098551800,3.9175517578125,0.01667737029492855,0.035944391041994095,0.1258472502231598
1761915606108606000,3.92760595703125,-0.02217717282474041,0.0067537822760641575,0.10476920753717422
1761915606118660000,3.93766015625,-0.04241160303354263,-0.01611717790365219,0.07693357765674591
1761915606128713700,3.947713623046875,-0.04699087515473366,-0.03835020586848259,0.04291648417711258
1761915606138768000,3.957767822265625,-0.04259426146745682,-0.061614248901605606,0.0002790074795484543
1761915606148821800,3.96782177734375,-0.03699873760342598,-0.0848146304488182,-0.036717988550662994
1761915606158877000,3.977876953125,-0.031429000198841095,-0.09507738798856735,-0.06932733207941055
1761915606168930800,3.987930908203125,-0.024693239480257034,-0.0745251253247261,-0.07913173735141754
1761915606178985000,3.99798486328125,-0.028322862461209297,-0.05222781375050545,-0.06597039103507996
1761915606189038800,4.008038818359375,-0.034654151648283005,-0.0255166944116354,-0.02676205337047577
1761915606199093000,4.018093017578125,-0.04365483671426773,0.0005154394311830401,0.024326695129275322
1761915606209147000,4.02814697265625,-0.048505671322345734,0.00048761937068775296,0.07344652712345123
1761915606219200800,4.03820068359375,-0.049174390733242035,-0.011837489902973175,0.11355879157781601
1761915606229255000,4.0482548828125,-0.046430494636297226,-0.012365085072815418,0.120930515229702
1761915606239308800,4.058308837890625,-0.03706255927681923,-0.0004897835897281766,0.10224178433418274
1761915606249363000,4.068363037109375,-0.028131909668445587,0.008464506827294827,0.0699443444609642
1761915606259416800,4.078416748046875,-0.019135750830173492,0.013150339014828205,0.023915868252515793
1761915606269472000,4.088471923828125,-0.008772647939622402,0.01741212233901024,-0.021391134709119797
1761915606279525600,4.098525634765625,-0.0064082941971719265,0.0007921335636638105,-0.058504682034254074
1761915606289579800,4.108579833984375,-0.004252245649695396,-0.0404319204390049,-0.08075819909572601
1761915606299634000,4.118634033203125,-0.006179575342684984,-0.07393582165241241,-0.0963483452796936
1761915606309687800,4.128687744140625,-0.014914215542376041,-0.08534927666187286,-0.10271468013525009
1761915606319742000,4.138741943359375,-0.0226935762912035,-0.07747004926204681,-0.1051354929804802
1761915606329795800,4.1487958984375,-0.03111661598086357,-0.05607479810714722,-0.09792227298021317
1761915606339850000,4.15885009765625,-0.03412758558988571,-0.03809366747736931,-0.08853596448898315
1761915606349904000,4.16890380859375,-0.022667352110147476,-0.03815276920795441,-0.06780532747507095
1761915606359958000,4.1789580078125,-0.0069099604152143,-0.04522399604320526,-0.04743747040629387
1761915606370012000,4.189011962890625,-0.0006446808110922575,-0.04045889899134636,-0.02592782862484455
1761915606380066800,4.19906689453125,-0.0005394859472289681,-0.03494242578744888,-0.007194621488451958
1761915606390121000,4.209120849609375,-0.012161619029939175,-0.01923701912164688,0.007822337560355663
1761915606400174800,4.2191748046875,-0.023970874026417732,-0.010528480634093285,0.013226690702140331
1761915606410229000,4.22922900390625,-0.03193303197622299,-0.019110452383756638,0.01206911075860262
1761915606420283000,4.239282958984375,-0.02848796918988228,-0.020851362496614456,0.01093194168061018
1761915606430337000,4.2493369140625,-0.022231843322515488,-0.010812206193804741,0.005772093310952187
1761915606440391000,4.259390869140625,-0.021429166197776794,0.003331576008349657,0.009050445631146431
1761915606450445000,4.269445068359375,-0.02857661060988903,0.013290339149534702,0.017788082361221313
1761915606460498700,4.279498779296875,-0.035816412419080734,0.015134844928979874,0.020729009062051773
1761915606470552800,4.289552734375,-0.03405056893825531,0.010948307812213898,0.018327295780181885
1761915606480606700,4.299606689453125,-0.023449059575796127,0.014714283868670464,0.004877534694969654
1761915606490662000,4.309661865234375,-0.007028153166174889,0.01152277085930109,-0.013860944658517838
1761915606500716000,4.319716064453125,0.008955074474215508,-0.006910831201821566,-0.030391717329621315
1761915606510770000,4.32977001953125,0.015404232777655125,-0.025775671005249023,-0.05312005802989006
1761915606520824000,4.339823974609375,0.009878173470497131,-0.02918664738535881,-0.07935965061187744
1761915606530878000,4.3498779296875,0.00488527026027441,-0.021958177909255028,-0.108027882874012
1761915606540931800,4.359931884765625,-0.004679206293076277,-0.010890080593526363,-0.12772808969020844
1761915606550985700,4.36998583984375,-0.0214668158441782,0.0076738144271075726,-0.12875224649906158
1761915606561040000,4.380039794921875,-0.03662286326289177,0.007967560552060604,-0.11295276880264282
1761915606571093800,4.39009375,-0.03786282613873482,-0.021635130047798157,-0.08103340119123459
1761915606581148000,4.40014794921875,-0.02205749973654747,-0.04724355414509773,-0.044298555701971054
1761915606591201800,4.410201904296875,-0.0048447162844240665,-0.07770425826311111,-0.0129627026617527
1761915606601257000,4.420257080078125,0.006367192137986422,-0.09566834568977356,0.015176789835095406
1761915606611310800,4.430310791015625,0.0038188376929610968,-0.08856143802404404,0.023754265159368515
1761915606621364700,4.44036474609375,-0.009890848770737648,-0.0643455758690834,0.023745473474264145
1761915606631419000,4.4504189453125,-0.02561952918767929,-0.040663011372089386,0.01541145145893097
1761915606641472800,4.46047265625,-0.033476922661066055,-0.014583741314709187,0.01120738498866558
1761915606651527000,4.47052685546875,-0.03600027412176132,0.009380561299622059,0.011883199214935303
1761915606661580800,4.480580810546875,-0.025318069383502007,0.02319810725748539,0.010432841256260872
1761915606671635000,4.490635009765625,-0.014773334376513958,0.019053567200899124,0.012562111020088196
1761915606681688800,4.500688720703125,-0.007668552920222282,0.005762261804193258,0.01711079105734825
1761915606691743000,4.510742919921875,-0.0015588003443554044,0.0031599043868482113,0.021915022283792496
1761915606701796900,4.520796875,0.006582749076187611,0.028872191905975342,0.025957968086004257
1761915606711851800,4.530851806640625,0.011971660889685154,0.047303080558776855,0.031950123608112335
1761915606721906000,4.540906005859375,0.015363196842372417,0.053138066083192825,0.029496019706130028
1761915606731959800,4.550959716796875,0.01978624053299427,0.03916469216346741,0.017079098150134087
1761915606742014000,4.561013916015625,0.02151915803551674,0.005557198543101549,0.00039386190474033356
1761915606752067800,4.57106787109375,0.011889906600117683,-0.02025390975177288,-0.01532386988401413
1761915606762122000,4.5811220703125,0.007082635071128607,-0.03844170272350311,-0.02933928743004799
1761915606772176000,4.59117578125,-0.004250288009643555,-0.06102843955159187,-0.03536965325474739
1761915606782230000,4.60122998046875,-0.012278120964765549,-0.08286582678556442,-0.03229503333568573
1761915606792283600,4.61128369140625,-0.01780683733522892,-0.08755224943161011,-0.025418173521757126
1761915606802337800,4.621337890625,-0.013950048945844173,-0.06947097927331924,-0.020398646593093872
1761915606812391700,4.6313916015625,-0.008374075405299664,-0.04110977053642273,-0.010918642394244671
1761915606822446800,4.64144677734375,0.0013872083509340882,-0.010291934944689274,-0.0028825541958212852
1761915606832501000,4.6515009765625,0.011281108483672142,0.013043325394392014,0.005629081279039383
1761915606842555000,4.661554931640625,0.01854461431503296,0.023652827367186546,0.015289966017007828
1761915606852609000,4.671609130859375,0.011850656010210514,0.03443038463592529,0.028813108801841736
1761915606862663000,4.681662841796875,-0.009064213372766972,0.03388923034071922,0.03600097820162773
1761915606872716800,4.691716796875,-0.03403938189148903,0.019068492576479912,0.035909269005060196
1761915606882770700,4.701770751953125,-0.060126375406980515,0.008886696770787239,0.031574975699186325
1761915606892824800,4.711824951171875,-0.06648290902376175,-0.006866162177175283,0.03236980736255646
1761915606902878700,4.721878662109375,-0.06312946230173111,-0.017242902889847755,0.03273572772741318
1761915606912932900,4.731932861328125,-0.05527022108435631,-0.02578582800924778,0.031524062156677246
1761915606922987000,4.741987060546875,-0.0543074868619442,-0.026421790942549706,0.023145491257309914
1761915606933042000,4.7520419921875,-0.05312167853116989,-0.008576261810958385,0.010831224732100964
1761915606943095800,4.762095703125,-0.0523163378238678,0.017980514094233513,0.0004728604108095169
1761915606953149700,4.772149658203125,-0.04578767716884613,0.024564513936638832,-0.0005174549296498299
1761915606963203800,4.782203857421875,-0.035591233521699905,0.032708194106817245,0.007315433584153652
1761915606973257700,4.7922578125,-0.02475365810096264,0.043375689536333084,0.027091171592473984
1761915606983312000,4.802311767578125,-0.01964598149061203,0.05145811662077904,0.047437988221645355
1761915606993365800,4.81236572265625,-0.020603377372026443,0.06176551431417465,0.059730689972639084
1761915607003420000,4.822419921875,-0.021746404469013214,0.0626869723200798,0.061372797936201096
1761915607013473800,4.832473876953125,-0.02383078821003437,0.05869234353303909,0.057509779930114746
1761915607023528000,4.84252783203125,-0.021571362391114235,0.047510795295238495,0.04897994175553322
1761915607033586700,4.852586669921875,-0.005441735032945871,0.020086778327822685,0.03851994499564171
1761915607043640600,4.862640625,0.008104434236884117,-0.001552470144815743,0.029794365167617798
1761915607053694700,4.87269482421875,0.014128560200333595,-0.02554800733923912,0.02566244639456272
1761915607063748600,4.88274853515625,0.015387969091534615,-0.051575079560279846,0.024298639968037605
1761915607073802800,4.892802734375,0.0037752133794128895,-0.07546920329332352,0.01830190047621727
1761915607083856600,4.902856689453125,-0.007000468671321869,-0.07062624394893646,0.009618129581212997
1761915607093910800,4.912910888671875,-0.010935303755104542,-0.052724577486515045,-0.001867157407104969
1761915607103964700,4.922964599609375,-0.005932289641350508,-0.025472451001405716,-0.011734968051314354
1761915607114018600,4.9330185546875,0.004559771157801151,0.010883107781410217,-0.009647803381085396
1761915607124072400,4.943072509765625,0.018619664013385773,0.029686622321605682,0.010903277434408665
1761915607134126600,4.953126708984375,0.016194159165024757,0.02705141343176365,0.0382804311811924
1761915607144181800,4.963181640625,0.0100726168602705,0.010678033344447613,0.06169254705309868
1761915607154235600,4.973235595703125,-0.0008044190471991897,-0.011060935445129871,0.0639503225684166
1761915607164289800,4.983289794921875,-0.01140353363007307,-0.02371840737760067,0.055334463715553284
1761915607174343700,4.99334375,-0.019289419054985046,-0.022143680602312088,0.03592002019286156
1761915607184397800,5.003397705078125,-0.01997438445687294,-0.0056701647117733955,0.014822190627455711
1761915607194451500,5.013451416015625,-0.018155083060264587,0.02915816381573677,-0.007483302615582943
1761915607204505600,5.023505615234375,-0.019002767279744148,0.050126828253269196,-0.010005049407482147
1761915607214559500,5.0335595703125,-0.028208602219820023,0.04188472405076027,-0.003323427401483059
1761915607224613600,5.043613525390625,-0.041102830320596695,0.021840441972017288,-0.001962551847100258
1761915607234667500,5.05366748046875,-0.04473528638482094,0.005597605369985104,0.0007121339440345764
1761915607244719600,5.0637197265625,-0.039838798344135284,-0.01012383308261633,0.0005677910521626472
1761915607254773500,5.0737734375,-0.02821512147784233,-0.031015299260616302,-0.007785108406096697
1761915607264827600,5.08382763671875,-0.01966903731226921,-0.02334699220955372,-0.014570576138794422
1761915607274882600,5.093882568359375,-0.02070622146129608,-0.013365901075303555,-0.013387609273195267
1761915607284936700,5.103936767578125,-0.02882193773984909,-0.008962630294263363,-0.003484112210571766
1761915607294990600,5.113990478515625,-0.034961801022291183,-0.01436291541904211,0.0019351290538907051
1761915607305044700,5.124044677734375,-0.042792294174432755,-0.025142060592770576,0.0015036975964903831
1761915607315099000,5.134098876953125,-0.03726060688495636,-0.050777897238731384,-0.0005354238674044609
1761915607325152500,5.144152587890625,-0.025961611419916153,-0.05431137979030609,-0.011270626448094845
1761915607335206700,5.15420654296875,-0.01586543209850788,-0.0400291346013546,-0.024679969996213913
1761915607345260500,5.164260498046875,-0.01609712839126587,-0.012683265842497349,-0.020254861563444138
1761915607355314700,5.174314697265625,-0.02392151765525341,0.0008167415508069098,-0.0038780122995376587
1761915607365368600,5.18436865234375,-0.028592169284820557,-0.0032714770641177893,0.019477907568216324
1761915607375422700,5.194422607421875,-0.02270720899105072,-0.014674965292215347,0.03791334480047226
1761915607385477600,5.2044775390625,-0.01585542783141136,-0.0026398738846182823,0.03905637562274933
1761915607395531800,5.21453173828125,-0.012257123365998268,0.03694688528776169,0.02631358429789543
1761915607405585700,5.224585693359375,-0.010344441048800945,0.07709137350320816,0.010138076730072498
1761915607415639600,5.2346396484375,-0.013858052901923656,0.08936908841133118,-0.000448375940322876
1761915607425693700,5.244693603515625,-0.008879006840288639,0.06195370852947235,0.003536512143909931
1761915607435747600,5.25474755859375,-0.004473288077861071,0.009895430877804756,0.008383392356336117
1761915607445801700,5.2648017578125,-0.0018053333042189479,-0.024523796513676643,0.00039896927773952484
1761915607455855600,5.274855712890625,0.0017193604726344347,-0.04801261052489281,-0.014689967967569828
1761915607465909800,5.28490966796875,0.007573787122964859,-0.05279085412621498,-0.025897350162267685
1761915607475963600,5.294963623046875,0.009146159514784813,-0.03715892136096954,-0.03878508508205414
1761915607486018600,5.3050185546875,0.007961053401231766,-0.017560454085469246,-0.042804326862096786
1761915607496072700,5.31507275390625,0.0050877733156085014,-0.013565500266849995,-0.04383572190999985
1761915607506126600,5.325126708984375,0.0038486046250909567,-0.015623857267200947,-0.04361361637711525
1761915607516180700,5.3351806640625,0.002527231350541115,-0.01699923723936081,-0.042450353503227234
1761915607526234600,5.345234619140625,0.0050130258314311504,-0.009881407022476196,-0.03565103933215141
1761915607536288800,5.355288818359375,0.004397640936076641,0.0012281573144719005,-0.015659648925065994
1761915607546342700,5.3653427734375,0.003628786187618971,0.004980817437171936,0.00868164375424385
1761915607556396800,5.375396728515625,-0.005376528948545456,-0.0034411544911563396,0.03255170211195946
1761915607566450700,5.38545068359375,-0.009525468572974205,-0.012792845256626606,0.046791624277830124
1761915607576504800,5.3955048828125,-0.014628791250288486,-0.035388339310884476,0.04484488070011139
1761915607586558500,5.405558349609375,-0.02058441750705242,-0.05432154983282089,0.02541685663163662
1761915607596613600,5.415613525390625,-0.026508886367082596,-0.054286662489175797,-0.010972576215863228
1761915607606667800,5.425667724609375,-0.021344218403100967,-0.040260590612888336,-0.049756988883018494
1761915607616721700,5.4357216796875,-0.011931750923395157,-0.02577131986618042,-0.07986778020858765
1761915607626775800,5.44577587890625,-0.003466893918812275,-0.025844557210803032,-0.0774988979101181
1761915607636829700,5.45582958984375,-0.0072474610060453415,-0.027422405779361725,-0.06426195055246353
1761915607646883800,5.4658837890625,-0.013020928017795086,-0.02528521977365017,-0.03283318504691124
1761915607656937500,5.4759375,-0.017174823209643364,-0.026082847267389297,-0.0009379805997014046
1761915607666991600,5.48599169921875,-0.015225657261908054,-0.027076739817857742,0.024353794753551483
1761915607677045500,5.49604541015625,-0.015780607238411903,-0.025135699659585953,0.03216530382633209
1761915607687099600,5.506099609375,-0.016215767711400986,-0.006274660117924213,0.03294241428375244
1761915607697154800,5.51615478515625,-0.012424543499946594,0.022438082844018936,0.030977874994277954
1761915607707208700,5.526208740234375,0.006049272138625383,0.034464918076992035,0.04693899676203728
1761915607717262800,5.536262939453125,0.01901433989405632,0.03944050148129463,0.05548987165093422
1761915607727316700,5.546316650390625,0.015628930181264877,0.04653969034552574,0.05790029838681221
1761915607737370600,5.55637060546875,0.018053550273180008,0.032370924949645996,0.045483797788619995
1761915607747424500,5.566424560546875,0.020036008208990097,0.011081350967288017,0.021830931305885315
1761915607757478700,5.576478759765625,0.0201725997030735,-0.015357903204858303,-0.006262509152293205
1761915607767532500,5.586532470703125,0.01642952673137188,-0.05514180287718773,-0.032088249921798706
1761915607777586700,5.596586669921875,0.003133868332952261,-0.09425627440214157,-0.05120205134153366
1761915607787640600,5.606640625,-0.008644227869808674,-0.09984731674194336,-0.05925172194838524
1761915607797694700,5.61669482421875,-0.01756817102432251,-0.09109274297952652,-0.06124792620539665
1761915607807749600,5.62674951171875,-0.02382819913327694,-0.0668068379163742,-0.048752106726169586
1761915607817803500,5.636803466796875,-0.018586991354823112,-0.03219673037528992,-0.031041918322443962
1761915607827857700,5.646857666015625,-0.008395073935389519,-0.005755268502980471,-0.010423990897834301
1761915607837911600,5.65691162109375,-0.005765432957559824,-0.0041736108250916,0.01739465817809105
1761915607847965700,5.666965576171875,-0.0016607026336714625,-0.015015073120594025,0.03466099500656128
1761915607858019600,5.67701953125,-0.00024820223916321993,-0.021689707413315773,0.042011477053165436
1761915607868073700,5.68707373046875,0.0073737651109695435,-0.013261603191494942,0.03564758598804474
1761915607878127600,5.697127685546875,0.012902706861495972,-0.0006421266589313745,0.01836724765598774
1761915607888181800,5.707181640625,0.007383838761597872,-0.0009012522641569376,0.0006625531241297722
1761915607898235600,5.717235595703125,0.004166739992797375,-0.01958812028169632,-0.007032917346805334
1761915607908290600,5.72729052734375,-0.0035694767720997334,-0.03716764599084854,-0.007333321962505579
1761915607918344700,5.7373447265625,-0.012146242894232273,-0.040391478687524796,-0.0027009928598999977
1761915607928398600,5.747398681640625,-0.02232697419822216,-0.02742641232907772,0.0030676797032356262
1761915607938452700,5.75745263671875,-0.026115527376532555,-0.009141659364104271,0.007007047533988953
1761915607948506600,5.767506591796875,-0.017287680879235268,0.002705945400521159,0.005314076319336891
1761915607958560800,5.777560791015625,-0.004494356922805309,0.005969978403300047,0.0038919681683182716
1761915607968614700,5.78761474609375,0.011967706494033337,0.010656077414751053,-0.0033949725329875946
1761915607978668800,5.797668701171875,0.02127620205283165,0.014436574652791023,-0.014260067604482174
1761915607988722700,5.80772265625,0.020664473995566368,0.02157997153699398,-0.026192359626293182
1761915607998776600,5.817776611328125,0.007696278393268585,0.014490348286926746,-0.028106847777962685
1761915608008831700,5.827831787109375,-0.006567079573869705,-0.0076525043696165085,-0.015872817486524582
1761915608018885600,5.8378857421875,-0.015893271192908287,-0.028526870533823967,-0.005926770158112049
1761915608028939800,5.847939697265625,-0.015814974904060364,-0.04019977152347565,-0.007673005107790232
1761915608038994400,5.857994384765625,-0.006110936403274536,-0.03367672488093376,-0.004829196259379387
1761915608049048000,5.868048095703125,0.00818943977355957,-0.022939123213291168,-0.0012331297621130943
1761915608059102200,5.878102294921875,0.01967664621770382,-0.007750786375254393,0.01145726814866066
1761915608069156000,5.888156005859375,0.020198890939354897,0.013967292383313179,0.0266902856528759
1761915608079210200,5.898210205078125,0.00890045240521431,0.024185117334127426,0.03223248943686485
1761915608089264400,5.908264404296875,-0.010083625093102455,0.015358603559434414,0.04262494295835495
1761915608099318300,5.918318359375,-0.019948940724134445,0.003822091966867447,0.03878767788410187
1761915608109373400,5.92837353515625,-0.02244911715388298,-0.01625947467982769,0.02327769249677658
1761915608119427300,5.93842724609375,-0.016721399500966072,-0.028684109449386597,0.0037273988127708435
1761915608129481200,5.948481201171875,-0.007642950862646103,-0.035528700798749924,-0.012501372024416924
1761915608139535000,5.95853515625,0.004863146226853132,-0.029434524476528168,-0.030272813513875008
1761915608149589200,5.96858935546875,0.013787132687866688,-0.019811458885669708,-0.04013689607381821
1761915608159643100,5.97864306640625,0.017770105972886086,-0.01498380582779646,-0.04085960611701012
1761915608169697300,5.988697265625,0.012628073804080486,-0.008781570009887218,-0.03162935748696327
1761915608179751400,5.99875146484375,0.0006074347766116261,-0.02347351796925068,-0.0023488570004701614
1761915608189805300,6.008805419921875,-0.008082992397248745,-0.04822813346982002,0.030256489291787148
1761915608199860200,6.018860107421875,-0.008719728328287601,-0.04888448119163513,0.05939996615052223
1761915608209914000,6.0289140625,-0.006808111444115639,-0.029292671009898186,0.06945206969976425
1761915608219968300,6.03896826171875,0.002325578825548291,-0.0076817614026367664,0.06485672295093536
1761915608230022100,6.049022216796875,0.0155487060546875,0.00960614811629057,0.04463561251759529
1761915608240076300,6.059076171875,0.0230114609003067,0.017160911113023758,0.01348450593650341
1761915608250130200,6.069130126953125,0.0332406647503376,0.00516869593411684,-0.0110336197540164
1761915608260184300,6.079184326171875,0.02808498777449131,-0.015172830782830715,-0.026961462572216988
1761915608270238500,6.089238525390625,0.026734765619039536,-0.038729555904865265,-0.023448754101991653
1761915608280292400,6.099292236328125,0.03018363192677498,-0.04355446621775627,-0.01662723906338215
1761915608290346500,6.109346435546875,0.026776384562253952,-0.01438219752162695,-0.006670478731393814
1761915608300400400,6.119400390625,0.011147940531373024,0.001724460395053029,0.0025170911103487015
1761915608310455300,6.129455322265625,-0.009353339672088623,0.01802620105445385,0.01617111824452877
1761915608320509200,6.13950927734375,-0.026876095682382584,0.04148456081748009,0.016214415431022644
1761915608330563300,6.149563232421875,-0.03661128133535385,0.055796388536691666,0.016054626554250717
1761915608340617200,6.1596171875,-0.03882131725549698,0.04019809514284134,0.0159696564078331
1761915608350671400,6.16967138671875,-0.03494082763791084,0.029111091047525406,0.013565088622272015
1761915608360725200,6.179725341796875,-0.0327051617205143,0.012904614210128784,0.005316773429512978
1761915608370779400,6.189779296875,-0.03820858150720596,-0.011735218577086926,-0.008810763247311115
1761915608380833300,6.199833251953125,-0.055096499621868134,-0.031097060069441795,-0.021129870787262917
1761915608390887200,6.20988720703125,-0.06978277117013931,-0.038977086544036865,-0.028083916753530502
1761915608400942300,6.2199423828125,-0.08210183680057526,-0.034123919904232025,-0.02748013474047184
1761915608410996200,6.229996337890625,-0.08922845125198364,-0.01267375610768795,-0.015287118963897228
1761915608421050400,6.24005029296875,-0.08719395846128464,0.017358381301164627,0.01633356139063835
1761915608431104300,6.250104248046875,-0.08491243422031403,0.030237959697842598,0.05909833312034607
1761915608441158400,6.260158447265625,-0.07429531961679459,0.02518078312277794,0.09655117988586426
1761915608451212300,6.27021240234375,-0.0644802376627922,0.02958112396299839,0.11930069327354431
1761915608461266200,6.28026611328125,-0.05178678035736084,0.04133041203022003,0.11891759186983109
1761915608471320300,6.2903203125,-0.04739842191338539,0.07215090841054916,0.10721512138843536
1761915608481374200,6.300374267578125,-0.04109225422143936,0.09648659080266953,0.09616172313690186
1761915608491428400,6.310428466796875,-0.045567695051431656,0.0865870863199234,0.10075967013835907
1761915608501483300,6.320483154296875,-0.05335506051778793,0.0782664492726326,0.10834342986345291
1761915608511537400,6.330537353515625,-0.06121644377708435,0.06836481392383575,0.1146354153752327
1761915608521591300,6.34059130859375,-0.05758291110396385,0.06865838170051575,0.11600912362337112
1761915608531645200,6.350645263671875,-0.04934895038604736,0.08557984232902527,0.10186347365379333
1761915608541699000,6.360698974609375,-0.04693448916077614,0.10245971381664276,0.0929984524846077
1761915608551753200,6.370753173828125,-0.04994891956448555,0.11042975634336472,0.08942821621894836
1761915608561807400,6.380807373046875,-0.05577489361166954,0.11859350651502609,0.08415421098470688
1761915608571861200,6.390861328125,-0.0675567165017128,0.1027117446064949,0.08076933026313782
1761915608581915400,6.400915283203125,-0.07899239659309387,0.04935235530138016,0.07476495206356049
1761915608591969300,6.41096923828125,-0.08095887303352356,-0.013895856216549873,0.0616731196641922
1761915608602024200,6.421024169921875,-0.07519058883190155,-0.04710261523723602,0.03134182095527649
1761915608612078000,6.431078125,-0.06345457583665848,-0.04396434500813484,0.000020118430256843567
1761915608622132200,6.44113232421875,-0.04740441218018532,-0.020501308143138885,-0.023052487522363663
1761915608632186000,6.45118603515625,-0.03706735372543335,0.004913503769785166,-0.03475574776530266
1761915608642240300,6.461240234375,-0.03272789716720581,0.01474593672901392,-0.028584325686097145
1761915608652294400,6.47129443359375,-0.0366523303091526,0.010269428603351116,-0.004673933610320091
1761915608662348300,6.481348388671875,-0.041450612246990204,0.012305653654038906,0.014176171272993088
1761915608672402400,6.49140234375,-0.035741329193115234,0.014944580383598804,0.03935050219297409
1761915608682456300,6.501456298828125,-0.022082291543483734,0.023310774937272072,0.05816740170121193
1761915608692511200,6.51151123046875,-0.007513736374676228,0.06303980946540833,0.07040649652481079
1761915608702565000,6.521565185546875,0.006064466200768948,0.08800148218870163,0.06862259656190872
1761915608712619300,6.531619384765625,0.01627502590417862,0.08603447675704956,0.05890898406505585
1761915608722673200,6.541673095703125,0.018113762140274048,0.060786522924900055,0.04739532247185707
1761915608732727300,6.551727294921875,0.018027741461992264,0.02364102192223072,0.0356111004948616
1761915608742781400,6.561781494140625,0.01754004880785942,-0.02692360058426857,0.02805778570473194
1761915608752835300,6.57183544921875,0.020746495574712753,-0.057475652545690536,0.015543060377240181
1761915608762889500,6.581889404296875,0.02275131456553936,-0.05023447051644325,0.005922086536884308
1761915608772943400,6.591943359375,0.023017898201942444,-0.02188485860824585,-0.006507419515401125
1761915608782997200,6.601997314453125,0.021982308477163315,0.025793608278036118,-0.016339870169758797
1761915608793052200,6.61205224609375,0.017996620386838913,0.05090322345495224,-0.0184035524725914
1761915608803106300,6.622106201171875,0.022399256005883217,0.03987109661102295,-0.016036130487918854
1761915608813160200,6.63216015625,0.03622426092624664,0.006511007435619831,-0.021950211375951767
1761915608823214300,6.64221435546875,0.042560454457998276,-0.02722272090613842,-0.03197035565972328
1761915608833268200,6.652268310546875,0.04234766587615013,-0.04695035144686699,-0.04889128357172012
1761915608843322400,6.662322265625,0.03962687775492668,-0.05728526785969734,-0.05971928685903549
1761915608853376500,6.67237646484375,0.02939554676413536,-0.05989915877580643,-0.0689905509352684
1761915608863430100,6.68243017578125,0.017950966954231262,-0.056563474237918854,-0.07591232657432556
1761915608873484300,6.692484375,0.010305033065378666,-0.02755073271691799,-0.087758868932724
1761915608883538200,6.7025380859375,0.008046796545386314,0.03339044749736786,-0.09627776592969894
1761915608893593300,6.71259326171875,0.014568611979484558,0.06221304088830948,-0.08520887047052383
1761915608903647200,6.722647216796875,0.02140447497367859,0.06106178089976311,-0.06152109429240227
1761915608913701400,6.732701416015625,0.014600098133087158,0.052502382546663284,-0.027822252362966537
1761915608923755300,6.74275537109375,0.007035220507532358,0.031412579119205475,-0.00028322264552116394
1761915608933809400,6.752809326171875,0.00179252156522125,0.010211688466370106,0.013854701071977615
1761915608943863300,6.76286328125,0.0019214337226003408,-0.0006637523183599114,0.019135883077979088
1761915608953917200,6.772917236328125,0.003682848531752825,-0.011851691640913486,0.0169246606528759
1761915608963971300,6.782971435546875,-0.007600442506372929,-0.029413536190986633,0.011360425502061844
1761915608974025200,6.793025146484375,-0.011711031198501587,-0.05681293457746506,0.0011051259934902191
1761915608984080400,6.803080322265625,-0.01612766459584236,-0.07479184865951538,-0.028232406824827194
1761915608994134300,6.81313427734375,-0.013331345282495022,-0.05861128494143486,-0.06706395745277405
1761915609004188400,6.8231884765625,0.004676917567849159,-0.04237956181168556,-0.09548386931419373
1761915609014242000,6.833241943359375,0.024635978043079376,-0.031130101531744003,-0.10594982653856277
1761915609024296200,6.843296142578125,0.030632440000772476,-0.01658785715699196,-0.09369346499443054
1761915609034347500,6.853347412109375,0.02861669287085533,0.011248833499848843,-0.0689428448677063
1761915609044401400,6.8634013671875,0.019684799015522003,0.020909370854496956,-0.034613147377967834
1761915609054455600,6.87345556640625,0.005405995063483715,0.02917981706559658,-0.008164498023688793
1761915609064509400,6.883509521484375,-0.008833660744130611,0.047272272408008575,0.009019017219543457
1761915609074563600,6.8935634765625,-0.013053971342742443,0.05828630551695824,0.02264481410384178
1761915609084618500,6.903618408203125,-0.012918258085846901,0.06634829193353653,0.02499568648636341
1761915609094672400,6.91367236328125,-0.008664923720061779,0.06199242174625397,0.026884930208325386
1761915609104726500,6.9237265625,-0.002427902538329363,0.04593410715460777,0.02755378931760788
1761915609114780400,6.933780517578125,0.00043153329170309007,0.017362387850880623,0.0336843878030777
1761915609124834600,6.94383447265625,-0.00659883813932538,-0.01806517504155636,0.03827158361673355
1761915609134888400,6.953888427734375,-0.014310820028185844,-0.048488859087228775,0.03068503551185131
1761915609144942600,6.963942626953125,-0.014350716024637222,-0.07337650656700134,0.0024959398433566093
1761915609154996500,6.97399658203125,-0.008488299325108528,-0.0815952867269516,-0.03032698854804039
1761915609165050600,6.984050537109375,0.004599826410412788,-0.0697271078824997,-0.0568644143640995
1761915609175105500,6.99410546875,0.017750516533851624,-0.0423402301967144,-0.07118450105190277
1761915609185159400,7.004159423828125,0.020306386053562164,-0.021284202113747597,-0.05387921631336212
1761915609195213600,7.014213623046875,0.01613987237215042,-0.030959200114011765,-0.017553696408867836
1761915609205267500,7.024267333984375,0.018748750910162926,-0.050326332449913025,0.02751726284623146
1761915609215321600,7.034321533203125,0.019771670922636986,-0.05711286887526512,0.06662552058696747
1761915609225375500,7.04437548828125,0.019601866602897644,-0.05238315835595131,0.08838078379631042
1761915609235429600,7.0544296875,0.016441762447357178,-0.03169146180152893,0.0790296196937561
1761915609245483500,7.0644833984375,0.016633672639727592,0.01177933532744646,0.058996934443712234
1761915609255537400,7.074537353515625,0.02034745179116726,0.02600194700062275,0.0465538464486599
1761915609265591300,7.08459130859375,0.020156189799308777,0.0016418392769992352,0.03681983798742294
1761915609275646500,7.094646484375,0.013794963248074055,-0.0328490287065506,0.03769361972808838
1761915609285700600,7.10470068359375,0.008711203932762146,-0.07139894366264343,0.027273274958133698
1761915609295754500,7.11475439453125,0.007214508019387722,-0.08595631271600723,0.017695218324661255
1761915609305808600,7.12480859375,0.011556768789887428,-0.06978914141654968,-0.0032445844262838364
1761915609315862500,7.134862548828125,0.013247078284621239,-0.045547716319561005,-0.02300843596458435
1761915609325916400,7.14491650390625,0.009434026665985584,-0.03274692967534065,-0.032521236687898636
1761915609335970300,7.15497021484375,0.002032569143921137,-0.031983137130737305,-0.025485962629318237
1761915609346024400,7.1650244140625,0.004003727342933416,-0.03360649198293686,-0.01693049818277359
1761915609356078300,7.175078369140625,0.011556452140212059,-0.034414228051900864,-0.013539495877921581
1761915609366133500,7.185133544921875,0.020386720076203346,-0.026113947853446007,-0.008838962763547897
1761915609376187600,7.195187744140625,0.02775861695408821,-0.006253689527511597,-0.018755242228507996
1761915609386241500,7.205241455078125,0.03599442169070244,0.01104721613228321,-0.027095479890704155
1761915609396295400,7.21529541015625,0.04630431905388832,0.01465313695371151,-0.03686928004026413
1761915609406349300,7.225349365234375,0.04819321632385254,0.005847473628818989,-0.04528232291340828
1761915609416403500,7.235403564453125,0.0510377399623394,-0.0011063066776841879,-0.04361278563737869
1761915609426457300,7.245457275390625,0.04856901615858078,0.0038691184017807245,-0.038511887192726135
1761915609436511500,7.255511474609375,0.03617945685982704,0.010477752424776554,-0.03320447355508804
1761915609446565400,7.2655654296875,0.029588663950562477,0.020804159343242645,-0.03437812998890877
1761915609456620500,7.27562060546875,0.023273244500160217,0.027258597314357758,-0.04035266488790512
1761915609466674700,7.2856748046875,0.027135394513607025,0.030757436528801918,-0.044496990740299225
1761915609476728300,7.295728271484375,0.029648352414369583,0.06573166698217392,-0.0516933836042881
1761915609486782500,7.305782470703125,0.035283878445625305,0.10074150562286377,-0.05091779679059982
1761915609496836400,7.31583642578125,0.03301646560430527,0.11196193099021912,-0.04577416926622391
1761915609506890500,7.325890380859375,0.028818603605031967,0.09975096583366394,-0.04709682986140251
1761915609516944400,7.3359443359375,0.027068907395005226,0.06821301579475403,-0.04636046290397644
1761915609526998500,7.34599853515625,0.021987559273838997,0.03451976552605629,-0.044630445539951324
1761915609537052400,7.356052490234375,0.008974023163318634,-0.010842653922736645,-0.039584554731845856
1761915609547107600,7.366107666015625,-0.008068013936281204,-0.04298430308699608,-0.04109669104218483
1761915609557161500,7.376161376953125,-0.024818498641252518,-0.03811817616224289,-0.043612848967313766
1761915609567215400,7.38621533203125,-0.02641400322318077,-0.026797836646437645,-0.0477498397231102
1761915609577269500,7.39626953125,-0.022870134562253952,0.0007179443491622806,-0.04930086433887482
1761915609587323400,7.406323486328125,-0.01176080945879221,0.020004168152809143,-0.03587287291884422
1761915609597377500,7.41637744140625,0.005205923225730658,0.02203669212758541,-0.01376703754067421
1761915609607431400,7.426431396484375,0.01776481233537197,0.016065454110503197,0.019880779087543488
1761915609617485600,7.436485595703125,0.018269214779138565,0.005281516350805759,0.04893692955374718
1761915609627540500,7.44654052734375,0.014135127887129784,0.010831769555807114,0.06472281366586685
1761915609637594400,7.456594482421875,0.00445773359388113,0.026282899081707,0.06138294190168381
1761915609647648500,7.4666484375,-0.0015449810307472944,0.04439890757203102,0.037435997277498245
1761915609657702400,7.476702392578125,-0.0038973509799689054,0.035571061074733734,0.010417960584163666
1761915609667756500,7.486756591796875,-0.008924434892833233,-0.00669115362688899,-0.006921746768057346
1761915609677810400,7.496810546875,-0.013015050441026688,-0.04762846603989601,-0.02262507565319538
1761915609687864600,7.506864501953125,-0.015164672397077084,-0.0639820471405983,-0.025780361145734787
1761915609697918500,7.51691845703125,-0.013583820313215256,-0.06707930564880371,-0.02524746209383011
1761915609707972600,7.52697265625,-0.012086952105164528,-0.03616614267230034,-0.022403039038181305
1761915609718027500,7.537027587890625,-0.015615108422935009,0.0007298219134099782,-0.009652890264987946
1761915609728081400,7.547081298828125,-0.01717216521501541,0.006883942522108555,0.009997979737818241
1761915609738135600,7.557135498046875,-0.019194569438695908,-0.002514353021979332,0.028330646455287933
1761915609748189400,7.567189453125,-0.026092370972037315,-0.027994638308882713,0.04389612376689911
1761915609758243600,7.57724365234375,-0.02610675059258938,-0.0387016125023365,0.04659097641706467
1761915609768297500,7.58729736328125,-0.016345759853720665,-0.029503053054213524,0.03953540325164795
1761915609778351600,7.5973515625,-0.007490215357393026,-0.0027414807118475437,0.02787422016263008
1761915609788405500,7.607405517578125,-0.013041061349213123,0.015318061225116253,0.019802868366241455
1761915609798460400,7.61746044921875,-0.024523280560970306,-0.0014254990965127945,0.01923561654984951
1761915609808514600,7.6275146484375,-0.035728953778743744,-0.028396721929311752,0.01789781078696251
1761915609818568400,7.637568359375,-0.04605216532945633,-0.04993503913283348,0.007278189994394779
1761915609828622600,7.64762255859375,-0.0493849478662014,-0.05216168239712715,-0.005952260922640562
1761915609838676500,7.657676513671875,-0.0364406518638134,-0.03169742226600647,-0.02088380604982376
1761915609848730600,7.667730712890625,-0.01773124933242798,-0.000647602544631809,-0.03932206705212593
1761915609858784500,7.677784423828125,0.006846798118203878,0.042887091636657715,-0.06342713534832001
1761915609868838700,7.687838623046875,0.03236769884824753,0.07892127335071564,-0.07106125354766846
1761915609878892500,7.697892578125,0.057263728231191635,0.07841446995735168,-0.05531265214085579
1761915609888947500,7.707947509765625,0.07333294302225113,0.0645253136754036,-0.029528018087148666
1761915609899001600,7.718001708984375,0.07546506822109222,0.06160515919327736,-0.008337512612342834
1761915609909055500,7.728055419921875,0.0672646090388298,0.061511293053627014,0.008312106132507324
1761915609919109600,7.738109619140625,0.05932040512561798,0.05973603203892708,0.0006214287132024765
1761915609929163500,7.74816357421875,0.04536404460668564,0.05729653313755989,-0.007366463541984558
1761915609939217700,7.7582177734375,0.0337476022541523,0.04882927983999252,-0.00794783141463995
1761915609949271600,7.768271484375,0.02913122996687889,0.03212234750390053,0.0015780972316861153
1761915609959325400,7.778325439453125,0.024583615362644196,0.016052836552262306,0.018928326666355133
1761915609969379300,7.78837939453125,0.018788112327456474,0.005338667891919613,0.032894521951675415
1761915609979434500,7.7984345703125,0.016636811196804047,-0.010816599242389202,0.05024661496281624
1761915609989488600,7.808488525390625,0.023788655176758766,-0.02589324302971363,0.06552721560001373
1761915609999542500,7.81854248046875,0.042080577462911606,-0.03064778447151184,0.07599370181560516
1761915610009596700,7.8285966796875,0.06271383166313171,-0.035522568970918655,0.08986108005046844
1761915610019650600,7.838650634765625,0.0714239627122879,-0.0585237592458725,0.11026781797409058
1761915610029704400,7.848704345703125,0.06243763864040375,-0.08366750925779343,0.11493553221225739
1761915610039758000,7.858758056640625,0.030849620699882507,-0.09584881365299225,0.10896551609039307
1761915610049812000,7.86881201171875,-0.0037624305114150047,-0.09995904564857483,0.08443373441696167
1761915610059867000,7.878866943359375,-0.0320875458419323,-0.08626534044742584,0.046298861503601074
1761915610069921000,7.888921142578125,-0.054727908223867416,-0.041714638471603394,0.00820599589496851
1761915610079975000,7.898974853515625,-0.05259604752063751,0.004160971846431494,-0.019831497222185135
1761915610090029000,7.909029052734375,-0.04178774729371071,0.02390831895172596,-0.027447432279586792
1761915610100083000,7.9190830078125,-0.02319195866584778,0.011466560885310173,-0.016677342355251312
1761915610110137000,7.92913720703125,-0.005215172655880451,-0.008617237210273743,-0.009320378303527832
1761915610120191000,7.93919091796875,0.010617319494485855,-0.019986804574728012,-0.01990058459341526
1761915610130244900,7.949244873046875,0.016332032158970833,-0.004969256930053234,-0.03967895358800888
1761915610140299000,7.959299072265625,0.012587361969053745,0.023151326924562454,-0.059917379170656204
1761915610150354000,7.96935400390625,-0.002347759436815977,0.03835621476173401,-0.060795366764068604
1761915610160408000,7.979407958984375,-0.005684966687113047,0.019076794385910034,-0.0427364706993103
1761915610170462000,7.9894619140625,-0.010056533850729465,-0.004502652678638697,-0.016754858195781708
1761915610180516000,7.99951611328125,-0.010918332263827324,-0.01672709546983242,-0.0027647409588098526
1761915610190570000,8.009570068359375,-0.014649204909801483,-0.012012092396616936,-0.00901804119348526
1761915610200623900,8.019623779296875,-0.009630744345486164,0.008500905707478523,-0.027695056051015854
1761915610210678000,8.029677978515625,-0.004095172975212336,0.029065079987049103,-0.05404365435242653
1761915610220732000,8.03973193359375,0.0016186388675123453,0.02911621332168579,-0.07184875011444092
1761915610230786000,8.0497861328125,0.008192854933440685,0.015465600416064262,-0.07345117628574371
1761915610240841000,8.059841064453124,0.0112533587962389,0.0039548855274915695,-0.06774988770484924
1761915610250895000,8.06989501953125,0.001089316327124834,-0.013566636480391026,-0.06124144420027733
1761915610260949000,8.079948974609374,-0.02157844603061676,-0.020525742322206497,-0.062249451875686646
1761915610271003000,8.0900029296875,-0.03481793776154518,-0.028111618012189865,-0.06167657673358917
1761915610281056800,8.100056884765625,-0.04082389920949936,-0.04305301606655121,-0.06021369993686676
1761915610291111000,8.11011083984375,-0.04216913878917694,-0.04629236459732056,-0.054109714925289154
1761915610301165000,8.1201650390625,-0.041291892528533936,-0.038100481033325195,-0.041243720799684525
1761915610311219000,8.130218994140625,-0.027173474431037903,-0.022661106660962105,-0.023523587733507156
1761915610321273000,8.140273193359375,-0.015566087327897549,-0.0036024609580636024,-0.00970950536429882
1761915610331328000,8.150327880859376,-0.00591399846598506,0.030471395701169968,-0.0014865007251501083
1761915610341382100,8.160382080078126,-0.008015232160687447,0.0485561229288578,-0.009337499737739563
1761915610351435800,8.170435791015626,-0.010365675203502178,0.04416727274656296,-0.015663830563426018
1761915610361490000,8.180489990234374,-0.01492074690759182,0.02167288213968277,-0.03115250915288925
1761915610371543800,8.190543701171874,-0.01655060611665249,-0.005174668040126562,-0.04351041093468666
1761915610381598000,8.200597900390624,-0.02126466855406761,-0.028658421710133553,-0.050634901970624924
1761915610391652000,8.210652099609375,-0.024142729118466377,-0.03618278354406357,-0.04802248626947403
1761915610401706000,8.2207060546875,-0.02332327514886856,-0.033993400633335114,-0.03971369192004204
1761915610411761200,8.23076123046875,-0.0158538855612278,-0.0274781733751297,-0.029865048825740814
1761915610421815000,8.24081494140625,-0.0028171795420348644,-0.026799067854881287,-0.02172669768333435
1761915610431869000,8.250868896484375,0.00590928690508008,-0.04093099758028984,-0.01292265485972166
1761915610441922800,8.2609228515625,0.01522582396864891,-0.05230562388896942,-0.015455055050551891
1761915610451977000,8.27097705078125,0.012394695542752743,-0.039850398898124695,-0.024677343666553497
1761915610462030800,8.28103076171875,0.006138663273304701,-0.018748309463262558,-0.03166654333472252
1761915610472085000,8.2910849609375,0.00685665151104331,-0.008216306567192078,-0.03358162194490433
1761915610482139000,8.301138916015624,0.007567715831100941,-0.009005934000015259,-0.028102701529860497
1761915610492193000,8.311193115234374,0.004904123488813639,-0.027341021224856377,-0.02081882581114769
1761915610502248000,8.321248046875,0.005798945669084787,-0.03926932066679001,-0.01631222292780876
1761915610512301800,8.3313017578125,0.010730555281043053,-0.028530899435281754,-0.016064370051026344
1761915610522356000,8.34135595703125,0.021588528528809547,-0.023423222824931145,-0.01652722805738449
1761915610532409900,8.351409912109375,0.03348822891712189,-0.012201976031064987,-0.03352924436330795
1761915610542464000,8.361464111328125,0.04462237283587456,0.014123105444014072,-0.05811234936118126
1761915610552518000,8.371517822265625,0.057027410715818405,0.035368986427783966,-0.06536804884672165
1761915610562572000,8.381572021484375,0.0715179368853569,0.04028758034110069,-0.06308705359697342
1761915610572626000,8.3916259765625,0.0685771256685257,0.0406472310423851,-0.05159313976764679
1761915610582680000,8.40168017578125,0.05669357255101204,0.03440345078706741,-0.041447293013334274
1761915610592735000,8.41173486328125,0.04419295862317085,0.026597723364830017,-0.0350533127784729
1761915610602788900,8.421788818359374,0.025849370285868645,0.0019962408114224672,-0.032313715666532516
1761915610612843000,8.431843017578124,0.009989363141357899,-0.02526932582259178,-0.028461989015340805
1761915610622897000,8.44189697265625,0.008822632022202015,-0.03340848162770271,-0.029244691133499146
1761915610632951000,8.451950927734375,0.01523402240127325,-0.03592726215720177,-0.02731568180024624
1761915610643005000,8.4620048828125,0.027265384793281555,-0.02746986225247383,-0.015454495325684547
1761915610653059000,8.47205908203125,0.030868738889694214,-0.008516649715602398,-0.004659285303205252
1761915610663113000,8.482113037109375,0.019854437559843063,0.016644364222884178,0.005094808526337147
1761915610673168000,8.49216796875,0.005999626591801643,0.029125845059752464,0.0075806258246302605
1761915610683222000,8.502221923828126,-0.007434423081576824,0.016390342265367508,0.0040114568546414375
1761915610693276000,8.51227587890625,-0.0172182098031044,0.005360654089599848,-0.0045260656625032425
1761915610703330000,8.522330078125,-0.00954191479831934,-0.0021254916209727526,-0.017580082640051842
1761915610713384000,8.532384033203124,-0.008454248309135437,0.005321207456290722,-0.024471983313560486
1761915610723438000,8.54243798828125,-0.010347755625844002,0.0053904494270682335,-0.02004101686179638
1761915610733492000,8.552491943359374,-0.02281685546040535,-0.00014771010319236666,-0.0008810190483927727
1761915610743546000,8.562546142578125,-0.027657948434352875,-0.014577781781554222,0.027350619435310364
1761915610753600000,8.57260009765625,-0.03302045166492462,-0.018842624500393867,0.04171875864267349
1761915610763655000,8.582655029296875,-0.03391261026263237,0.000742528005503118,0.03796929493546486
1761915610773709000,8.592708984375,-0.023873494938015938,0.022505387663841248,0.027630645781755447
1761915610783763000,8.602762939453125,-0.002500295639038086,0.03315456584095955,0.010826366022229195
1761915610793817000,8.612817138671875,0.01781386137008667,0.04364371672272682,-0.009218091145157814
1761915610803871000,8.62287109375,0.02810005471110344,0.04963929206132889,-0.02399091236293316
1761915610813925000,8.632925048828126,0.029465576633810997,0.043060872703790665,-0.028789151459932327
1761915610823979000,8.64297900390625,0.019778594374656677,0.03630070388317108,-0.02688445895910263
1761915610834033000,8.653032958984374,0.0067930021323263645,0.03792215883731842,-0.03048117086291313
1761915610844086800,8.663086669921874,0.004615601617842913,0.02852519601583481,-0.022680772468447685
1761915610854142000,8.673141845703125,0.004126226529479027,-0.001424281275831163,-0.009921097196638584
1761915610864196000,8.683196044921875,0.0013062055222690105,-0.021945800632238388,-0.001719093881547451
1761915610874250000,8.69325,-0.005557825788855553,-0.018254926428198814,0.005301265977323055
1761915610884304100,8.70330419921875,-0.00010793306864798069,0.0023824411910027266,0.01708388701081276
1761915610894358000,8.71335791015625,0.01053016446530819,0.023818735033273697,0.02854679524898529
1761915610904412000,8.723411865234375,0.015737177804112434,0.0336439348757267,0.031145241111516953
1761915610914465800,8.7334658203125,0.009637479670345783,0.027074409648776054,0.023678041994571686
1761915610924520000,8.74352001953125,-0.0025962828658521175,0.008499394170939922,0.009851709939539433
1761915610934573800,8.75357373046875,-0.005708497948944569,-0.020129220560193062,0.0008466048166155815
1761915610944629000,8.76362890625,-0.01525113731622696,-0.03752898424863815,-0.001430930569767952
1761915610954683100,8.77368310546875,-0.027270469814538956,-0.027510272338986397,-0.001403873786330223
1761915610964737000,8.783737060546875,-0.02868567407131195,-0.005526143591850996,0.011795817874372005
1761915610974791200,8.793791259765625,-0.0173473097383976,0.010257180780172348,0.02078089863061905
1761915610984844800,8.8038447265625,0.0018434278899803758,0.03422003984451294,0.014228989370167255
1761915610994899000,8.81389892578125,0.024909580126404762,0.05141885206103325,0.0004928233101963997
1761915611004952800,8.823952880859375,0.045499544590711594,0.06811501085758209,-0.018341317772865295
1761915611015007000,8.834007080078125,0.05389684438705444,0.06877898424863815,-0.02813396230340004
1761915611025060900,8.844060791015625,0.04448975995182991,0.03847780078649521,-0.026769358664751053
1761915611035115300,8.854115234375,0.025236336514353752,0.008213666267693043,-0.02311057597398758
1761915611045169400,8.86416943359375,0.005389395635575056,-0.01451960951089859,-0.005090030841529369
1761915611055223300,8.874223388671876,-0.007167695090174675,-0.03294314444065094,-0.0032282304018735886
1761915611065277400,8.88427734375,-0.015439207665622234,-0.02607911266386509,-0.0066445330157876015
1761915611075331300,8.894331298828124,-0.011683616787195206,-0.0003963870694860816,-0.009509295225143433
1761915611085385200,8.90438525390625,-0.0018317853100597858,0.03605189919471741,-0.014112036675214767
1761915611095439000,8.914439208984374,0.019639242440462112,0.059609223157167435,-0.002384488470852375
1761915611105493200,8.9244931640625,0.029939817264676094,0.056119948625564575,0.011808829382061958
1761915611115548400,8.93454833984375,0.026129694655537605,0.03056243434548378,0.02742215059697628
1761915611125602300,8.944602294921875,0.0028539327904582024,0.0014157334808260202,0.032683759927749634
1761915611135656400,8.954656494140625,-0.028310537338256836,-0.02092345617711544,0.033156637102365494
1761915611145710300,8.96471044921875,-0.059463661164045334,-0.036723457276821136,0.028973877429962158
1761915611155764200,8.97476416015625,-0.07073260843753815,-0.05610664561390877,0.01974985934793949
1761915611165818000,8.984818115234376,-0.06249438226222992,-0.04958376660943031,-0.002878221683204174
1761915611175872300,8.994872314453126,-0.04136717692017555,-0.012824579142034054,-0.02311822958290577
1761915611185926100,9.004926025390626,-0.026354938745498657,-0.002401233185082674,-0.023395199328660965
1761915611195980300,9.014980224609374,-0.016589805483818054,-0.014049509540200233,-0.006680159829556942
1761915611206035500,9.025035400390625,-0.019906772300601006,-0.023494942113757133,0.018501093611121178
1761915611216089300,9.03508935546875,-0.02539787068963051,-0.024689162150025368,0.03566659241914749
1761915611226143500,9.0451435546875,-0.029998214915394783,-0.015282345935702324,0.03663172200322151
1761915611236197000,9.055197021484375,-0.029898563399910927,0.00615968881174922,0.02753695845603943
1761915611246251300,9.065251220703125,-0.027644995599985123,0.01351294293999672,0.01280088722705841
1761915611256305200,9.07530517578125,-0.018370022997260094,0.010033128783106804,-0.003996058367192745
1761915611266359300,9.085359375,-0.0036067881155759096,0.015987688675522804,-0.030087048187851906
1761915611276413200,9.0954130859375,0.016139967367053032,0.03580707684159279,-0.0496247261762619
1761915611286467300,9.10546728515625,0.036673739552497864,0.05092424154281616,-0.0642143189907074
1761915611296522500,9.1155224609375,0.04999171197414398,0.0532270222902298,-0.06657056510448456
1761915611306576100,9.125576171875,0.04993072524666786,0.04946477338671684,-0.06038164347410202
1761915611316630300,9.13563037109375,0.03291092440485954,0.02468617632985115,-0.03785133734345436
1761915611326684200,9.14568408203125,0.012618704698979855,-0.009670997969806194,-0.011030109599232674
1761915611336738300,9.15573828125,-0.00445456150919199,-0.03870714455842972,0.010322550311684608
1761915611346792200,9.165792236328125,-0.012245372869074345,-0.03883897140622139,0.013782529160380363
1761915611356846300,9.175846435546875,-0.011277110315859318,-0.02004471980035305,0.008664017543196678
1761915611366900200,9.185900146484375,-0.000059343932662159204,0.0006903866888023913,-0.009280362166464329
1761915611376954400,9.195954345703125,0.012867441400885582,0.011631699278950691,-0.018425067886710167
1761915611387009300,9.20600927734375,0.02243165113031864,0.002467761980369687,-0.0188735444098711
1761915611397063200,9.216063232421876,0.014073234051465988,0.0002356458717258647,-0.013398789800703526
1761915611407117300,9.226117431640626,0.003124979790300131,-0.011782933957874775,-0.00794942956417799
1761915611417171200,9.236171142578126,-0.008943269960582256,-0.018760118633508682,-0.0025580674409866333
1761915611427225300,9.246225341796874,-0.01844462938606739,-0.01729404926300049,-0.007415939122438431
1761915611437279200,9.256279296875,-0.021118998527526855,-0.0036608863156288862,-0.016811996698379517
1761915611447333400,9.26633349609375,-0.010425874963402748,0.0043578920885920525,-0.017835982143878937
1761915611457387300,9.27638720703125,0.006763034500181675,-0.011594979092478752,-0.007319378200918436
1761915611467441400,9.28644140625,0.021766752004623413,-0.02103189006447792,0.005029434338212013
1761915611477496300,9.296496337890625,0.02021949365735054,-0.010265054181218147,0.020333942025899887
1761915611487550200,9.30655029296875,0.026987917721271515,0.0061304303817451,0.03720826283097267
1761915611497604400,9.316604248046875,0.03100254200398922,0.02974541112780571,0.052398085594177246
1761915611507658200,9.326658203125,0.025021616369485855,0.040137067437171936,0.05387960374355316
1761915611517712400,9.33671240234375,0.016837891191244125,0.029108084738254547,0.045667655766010284
1761915611527766300,9.346766357421876,0.006192970089614391,-0.0035601130221039057,0.026235638186335564
1761915611537820400,9.3568203125,-0.0014300006441771984,-0.024147387593984604,0.003944198600947857
1761915611547874300,9.366874267578124,-0.005018610041588545,-0.04176819324493408,-0.012762344442307949
1761915611557928400,9.376928466796874,-0.00302093755453825,-0.04943382740020752,-0.028083709999918938
1761915611567983400,9.3869833984375,0.007125705946236849,-0.049895353615283966,-0.040038637816905975
1761915611578037200,9.397037353515625,0.022540772333741188,-0.04337640479207039,-0.04878489300608635
1761915611588091400,9.40709130859375,0.029486829414963722,-0.01998692937195301,-0.051466699689626694
1761915611598145300,9.417145263671875,0.020235110074281693,0.021875016391277313,-0.035029008984565735
1761915611608199400,9.427199462890625,0.0027195001021027565,0.05337701365351677,-0.00038740597665309906
1761915611618253300,9.43725341796875,-0.015106609091162682,0.061522047966718674,0.04314776510000229
1761915611628307500,9.447307373046876,-0.02123880386352539,0.042696695774793625,0.07974599301815033
1761915611638361000,9.457361083984376,-0.010959312319755554,0.017798904329538345,0.09236958622932434
1761915611648415200,9.467415283203126,-0.0025383972097188234,0.0000771654158597812,0.0709574967622757
1761915611658470400,9.477470458984374,0.003784435335546732,-0.028152769431471825,0.03628697618842125
1761915611668524300,9.487524169921874,-0.0010244345758110285,-0.05251296982169151,-0.0028305985033512115
1761915611678578400,9.497578369140625,-0.013643267564475536,-0.06119958311319351,-0.04273577779531479
1761915611688632300,9.50763232421875,-0.024133192375302315,-0.04703209549188614,-0.07044810056686401
1761915611698686500,9.5176865234375,-0.015211835503578186,-0.02028224803507328,-0.07208000868558884
1761915611708740400,9.527740234375,-0.004957866854965687,0.009250078350305557,-0.05483736842870712
1761915611718794200,9.537794189453125,0.008432279340922832,0.03099978342652321,-0.025904931128025055
1761915611728848100,9.54784814453125,0.02806403860449791,0.04275311157107353,0.008353174664080143
1761915611738902300,9.55790234375,0.04650331661105156,0.03613369166851044,0.03091297671198845
1761915611748957400,9.56795751953125,0.04573845863342285,0.04284006357192993,0.039250534027814865
1761915611759011300,9.57801123046875,0.033928852528333664,0.047511644661426544,0.033536024391651154
1761915611769065500,9.5880654296875,0.014660879969596863,0.039823099970817566,0.0313306599855423
1761915611779119400,9.598119384765624,0.005660910625010729,0.008356953039765358,0.02776600420475006
1761915611789173200,9.60817333984375,0.0003050274681299925,-0.02340497076511383,0.01999330148100853
1761915611799227100,9.61822705078125,0.0021708260755985975,-0.045841749757528305,0.005386584438383579
1761915611809281300,9.62828125,0.010002916678786278,-0.04720182716846466,-0.01497967354953289
1761915611819335200,9.638335205078125,0.01612776145339012,-0.03031345270574093,-0.029290001839399338
1761915611829389300,9.648389404296875,0.027388138696551323,-0.007897892966866493,-0.031257811933755875
1761915611839445200,9.6584453125,0.029168710112571716,0.008771744556725025,-0.013346828520298004
1761915611849499100,9.6684990234375,0.017108585685491562,0.019500289112329483,0.02296830341219902
1761915611859553300,9.67855322265625,0.00500134751200676,0.015055051073431969,0.056152764707803726
1761915611869607200,9.688607177734376,-0.006187125109136105,0.006380336359143257,0.07331711053848267
1761915611879662300,9.698662353515624,-0.016254128888249397,0.005222570151090622,0.06279929727315903
1761915611889716500,9.708716552734375,-0.01999853365123272,0.0019407571526244283,0.036303505301475525
1761915611899770400,9.718770263671875,-0.017222223803400993,-0.012146852910518646,0.0033341478556394577
1761915611909824300,9.72882421875,-0.013526023365557194,-0.023075133562088013,-0.019988220185041428
1761915611919878100,9.738878173828125,-0.00819072313606739,-0.009781038388609886,-0.031414762139320374
1761915611929932300,9.748932373046875,-0.005152854602783918,-0.0025380391161888838,-0.023368820548057556
1761915611939986200,9.758986083984375,0.0019376218551769853,0.01052010990679264,-0.004938163328915834
1761915611950040300,9.769040283203125,0.003993581980466843,0.019392963498830795,0.015730364248156548
1761915611960095200,9.77909521484375,-0.00017345306696370244,0.016133712604641914,0.030825231224298477
1761915611970149400,9.7891494140625,0.003763764165341854,0.008895508013665676,0.03488468751311302
1761915611980203300,9.799203369140624,0.008691411465406418,-0.004197923466563225,0.02381153032183647
1761915611990257200,9.809257080078124,0.007847721688449383,-0.018834391608834267,0.007505526766180992
1761915612000311300,9.819311279296874,0.004045000299811363,-0.02965858206152916,0.00015923380851745605
1761915612010365200,9.829365234375,0.007810177747160196,-0.02106110006570816,0.021516188979148865
1761915612020419300,9.83941943359375,0.010221442207694054,-0.01766883209347725,0.05363164097070694
1761915612030473200,9.84947314453125,0.0021025286987423897,-0.0069189821369946,0.08056392520666122
1761915612040528400,9.8595283203125,0.0012127222726121545,0.010883291251957417,0.08678489923477173
1761915612050582500,9.86958251953125,0.004702528938651085,0.015961939468979836,0.06477707624435425
1761915612060636200,9.87963623046875,0.013257641345262527,0.009526549838483334,0.03742041438817978
1761915612070690300,9.889690185546876,0.020345645025372505,0.0030193824786692858,-0.008497808128595352
1761915612080744200,9.899744140625,0.01906798593699932,0.0049651917070150375,-0.05361068993806839
1761915612090798300,9.90979833984375,0.013733142986893654,-0.01262152474373579,-0.08948027342557907
1761915612100852200,9.919852294921874,0.01642601750791073,-0.045846227556467056,-0.09025651961565018
1761915612110906400,9.92990625,0.018740836530923843,-0.06699758768081665,-0.08033838123083115
1761915612120960500,9.93996044921875,0.007309078238904476,-0.06784864515066147,-0.060987576842308044
1761915612131015400,9.950015380859375,-0.010529840365052223,-0.06885851174592972,-0.029392100870609283
1761915612141069300,9.9600693359375,-0.019983364269137383,-0.06221044063568115,0.009330665692687035
1761915612151123200,9.970123291015625,-0.015500997193157673,-0.059221308678388596,0.06121676787734032
1761915612161177300,9.98017724609375,0.0065103331580758095,-0.058900728821754456,0.09666542708873749
1761915612171231200,9.990231201171875,0.030775990337133408,-0.06987748295068741,0.11582793295383453
1761915612181285400,10.000285400390625,0.043587904423475266,-0.10441164672374725,0.11673996597528458
1761915612191339300,10.01033935546875,0.046304862946271896,-0.13969454169273376,0.09783951193094254
1761915612201393400,10.020393310546876,0.05121704563498497,-0.17612342536449432,0.11761292815208435
1761915612211448300,10.0304482421875,0.06956969201564789,-0.06882866472005844,0.12600374221801758
1761915612221502200,10.040502197265624,0.05769186466932297,0.050083257257938385,0.10022248327732086
1761915612231556400,10.050556396484374,0.05763460695743561,0.12874184548854828,0.07322867214679718
1761915612241610200,10.0606103515625,0.0684598907828331,0.1370738297700882,0.03136249631643295
1761915612251664400,10.070664306640625,0.061764173209667206,0.10507780313491821,-0.026016108691692352
1761915612261718300,10.08071826171875,0.05486635863780975,0.034461624920368195,-0.07915190607309341
1761915612271772400,10.0907724609375,0.04322115331888199,-0.038172632455825806,-0.08772169053554535
1761915612281826300,10.100826416015625,0.019712021574378014,-0.009561905637383461,-0.06512714922428131
