time,seconds_elapsed,z,y,x
1761915646546524200,0.065524169921875,-0.98712158203125,-0.14520263671875,0.0313720703125
1761915646556579000,0.0755791015625,-0.9927520751953125,-0.15020751953125,0.031982421875
1761915646566633000,0.085633056640625,-0.9881744384765625,-0.1510467529296875,0.0301666259765625
1761915646576687000,0.09568701171875,-0.978179931640625,-0.148101806640625,0.0285491943359375
1761915646586741000,0.105740966796875,-0.9659576416015625,-0.1464691162109375,0.0278778076171875
1761915646596795100,0.115795166015625,-0.9760284423828125,-0.141845703125,0.021942138671875
1761915646606849000,0.12584912109375,-0.9834747314453125,-0.13128662109375,0.02923583984375
1761915646616903200,0.135903076171875,-0.9940643310546875,-0.13055419921875,0.038543701171875
1761915646626957000,0.14595703125,-1.0112457275390625,-0.137786865234375,0.044708251953125
1761915646637011000,0.156010986328125,-1.01123046875,-0.1450347900390625,0.0506439208984375
1761915646647064800,0.16606494140625,-1.006439208984375,-0.1548919677734375,0.0500335693359375
1761915646657119000,0.176118896484375,-0.9927215576171875,-0.158599853515625,0.05194091796875
1761915646667172900,0.1861728515625,-0.9788818359375,-0.1656494140625,0.053131103515625
1761915646677227000,0.19622705078125,-0.9823150634765625,-0.1706085205078125,0.0558929443359375
1761915646687281000,0.206281005859375,-0.9917755126953125,-0.1697235107421875,0.0605316162109375
1761915646697335000,0.2163349609375,-0.994049072265625,-0.169403076171875,0.0630340576171875
1761915646707389000,0.226388916015625,-0.9937744140625,-0.1750640869140625,0.0572967529296875
1761915646717443800,0.23644384765625,-0.983154296875,-0.1755828857421875,0.0499114990234375
1761915646727498000,0.246498046875,-0.9710693359375,-0.174163818359375,0.0412445068359375
1761915646737552000,0.2565517578125,-0.9648895263671875,-0.1768646240234375,0.0360107421875
1761915646747606000,0.26660595703125,-0.964202880859375,-0.173828125,0.0356903076171875
1761915646757660000,0.276659912109375,-0.9700164794921875,-0.1756134033203125,0.0352783203125
1761915646767714000,0.286714111328125,-0.96966552734375,-0.17437744140625,0.037841796875
1761915646777768000,0.296767822265625,-0.9611968994140625,-0.17431640625,0.0372467041015625
1761915646787822000,0.306822021484375,-0.956146240234375,-0.1730804443359375,0.0343170166015625
1761915646797876000,0.3168759765625,-0.9595184326171875,-0.171661376953125,0.0328369140625
1761915646807930000,0.32693017578125,-0.96942138671875,-0.1677703857421875,0.0316314697265625
1761915646817984000,0.33698388671875,-0.97332763671875,-0.1640167236328125,0.0306854248046875
1761915646828038000,0.347037841796875,-0.9746551513671875,-0.1650390625,0.03179931640625
1761915646838092000,0.357092041015625,-0.9786834716796875,-0.1668701171875,0.031646728515625
1761915646848146000,0.36714599609375,-0.98492431640625,-0.16534423828125,0.0338134765625
1761915646858200000,0.377199951171875,-0.986328125,-0.1608734130859375,0.0371246337890625
1761915646868254000,0.38725390625,-0.982208251953125,-0.156280517578125,0.0368194580078125
1761915646878308000,0.39730810546875,-0.97418212890625,-0.1525421142578125,0.0259246826171875
1761915646888363000,0.407363037109375,-0.9579925537109375,-0.1485595703125,0.015838623046875
1761915646898417000,0.4174169921875,-0.954498291015625,-0.144927978515625,0.0065765380859375
1761915646908471000,0.427470947265625,-0.957550048828125,-0.142242431640625,0.00396728515625
1761915646918525000,0.43752490234375,-0.954345703125,-0.144805908203125,0.000823974609375
1761915646928579000,0.4475791015625,-0.9464569091796875,-0.1500244140625,-0.0129852294921875
1761915646938633000,0.457633056640625,-0.9373931884765625,-0.1480712890625,-0.02398681640625
1761915646948687000,0.46768701171875,-0.936187744140625,-0.14630126953125,-0.0341949462890625
1761915646958741000,0.477740966796875,-0.9416351318359375,-0.144989013671875,-0.0392913818359375
1761915646968795100,0.487795166015625,-0.9496612548828125,-0.1507110595703125,-0.041900634765625
1761915646978849000,0.49784912109375,-0.96112060546875,-0.151763916015625,-0.0464019775390625
1761915646988903200,0.507903076171875,-0.9784393310546875,-0.1476898193359375,-0.0489501953125
1761915646998956800,0.517956787109375,-1.0037078857421875,-0.13568115234375,-0.04974365234375
1761915647009011000,0.528010986328125,-1.029327392578125,-0.12176513671875,-0.0479278564453125
1761915647019064800,0.53806494140625,-1.048431396484375,-0.1070556640625,-0.044677734375
1761915647029119000,0.548118896484375,-1.0579071044921875,-0.100189208984375,-0.0394287109375
1761915647039172900,0.5581728515625,-1.0571136474609375,-0.1042633056640625,-0.0372467041015625
1761915647049228000,0.56822802734375,-1.04296875,-0.1114501953125,-0.031280517578125
1761915647059282200,0.5782822265625,-1.028656005859375,-0.1166229248046875,-0.0264129638671875
1761915647069333000,0.5883330078125,-1.02069091796875,-0.1204376220703125,-0.019989013671875
1761915647079387000,0.598386962890625,-1.013763427734375,-0.125946044921875,-0.0131072998046875
1761915647089441000,0.60844091796875,-1.0000152587890625,-0.133575439453125,-0.00811767578125
1761915647099495000,0.618494873046875,-0.9814910888671875,-0.138763427734375,0.001556396484375
1761915647109549000,0.628549072265625,-0.97381591796875,-0.146514892578125,0.0149383544921875
1761915647119603000,0.63860302734375,-0.9757080078125,-0.154205322265625,0.0275115966796875
1761915647129657000,0.648656982421875,-0.9781341552734375,-0.1573638916015625,0.03729248046875
1761915647139711000,0.6587109375,-0.9740753173828125,-0.1523590087890625,0.043243408203125
1761915647149765000,0.66876513671875,-0.9723663330078125,-0.149322509765625,0.0455474853515625
1761915647159819000,0.678819091796875,-0.974090576171875,-0.149566650390625,0.047119140625
1761915647169873000,0.688872802734375,-0.977813720703125,-0.1534881591796875,0.0518646240234375
1761915647179927000,0.698927001953125,-0.985015869140625,-0.1635894775390625,0.0543670654296875
1761915647189981000,0.70898095703125,-0.982940673828125,-0.17193603515625,0.0537872314453125
1761915647200035000,0.71903515625,-0.9776763916015625,-0.176422119140625,0.0503692626953125
1761915647210089000,0.7290888671875,-0.977325439453125,-0.177337646484375,0.046844482421875
1761915647220144000,0.73914404296875,-0.98223876953125,-0.172271728515625,0.047119140625
1761915647230198000,0.749197998046875,-0.984954833984375,-0.1635894775390625,0.04461669921875
1761915647240252000,0.759251953125,-0.9809417724609375,-0.151519775390625,0.038299560546875
1761915647250305800,0.769305908203125,-0.9727783203125,-0.1414031982421875,0.0313262939453125
1761915647260360000,0.77935986328125,-0.97125244140625,-0.13836669921875,0.025390625
1761915647270414000,0.7894140625,-0.9765167236328125,-0.1409149169921875,0.0228729248046875
1761915647280468000,0.799468017578125,-0.9772491455078125,-0.1478729248046875,0.02374267578125
1761915647290522000,0.809522216796875,-0.9768218994140625,-0.158172607421875,0.0273895263671875
1761915647300576000,0.819575927734375,-0.9781341552734375,-0.16900634765625,0.0312347412109375
1761915647310630100,0.829630126953125,-0.9814605712890625,-0.1786346435546875,0.0319366455078125
1761915647320684000,0.83968408203125,-0.9738616943359375,-0.1826171875,0.0261383056640625
1761915647330738200,0.84973828125,-0.9571685791015625,-0.1800689697265625,0.0215911865234375
1761915647340792000,0.8597919921875,-0.95001220703125,-0.177276611328125,0.02264404296875
1761915647350846000,0.869845947265625,-0.9633026123046875,-0.1788787841796875,0.0282440185546875
1761915647360899800,0.87989990234375,-0.9838714599609375,-0.1790771484375,0.0365142822265625
1761915647370954000,0.8899541015625,-1.0001220703125,-0.179779052734375,0.0357513427734375
1761915647381009200,0.900009033203125,-1.0028839111328125,-0.183074951171875,0.02874755859375
1761915647391063000,0.91006298828125,-0.9879913330078125,-0.18212890625,0.0281524658203125
1761915647401117200,0.9201171875,-0.9769439697265625,-0.184417724609375,0.031005859375
1761915647411171000,0.930171142578125,-0.9803314208984375,-0.184844970703125,0.0352630615234375
1761915647421225000,0.940224853515625,-0.9846649169921875,-0.1827545166015625,0.0392608642578125
1761915647431278800,0.95027880859375,-0.9864044189453125,-0.1764984130859375,0.0359039306640625
1761915647441333000,0.9603330078125,-0.9610443115234375,-0.167510986328125,0.0442352294921875
1761915647451387000,0.970386962890625,-0.93359375,-0.1940155029296875,0.052215576171875
1761915647461441000,0.98044091796875,-0.9604644775390625,-0.207244873046875,0.020477294921875
1761915647471495000,0.990494873046875,-0.9636688232421875,-0.18865966796875,0.028564453125
1761915647481549000,1.000549072265625,-0.9864959716796875,-0.176361083984375,0.0431365966796875
1761915647491603000,1.01060302734375,-0.9879150390625,-0.1673736572265625,0.0411376953125
1761915647501657000,1.020656982421875,-0.9721221923828125,-0.162872314453125,0.029144287109375
1761915647511711000,1.0307109375,-0.957977294921875,-0.1590728759765625,0.017364501953125
1761915647521765000,1.04076513671875,-0.9479217529296875,-0.1569366455078125,0.0128021240234375
1761915647531819000,1.050819091796875,-0.9463348388671875,-0.158538818359375,0.01043701171875
1761915647541874000,1.0608740234375,-0.9545440673828125,-0.16253662109375,0.008941650390625
1761915647551928000,1.070927978515625,-0.96185302734375,-0.1654510498046875,0.0078582763671875
1761915647561982000,1.08098193359375,-0.964324951171875,-0.1711273193359375,0.0045623779296875
1761915647572036000,1.0910361328125,-0.9587554931640625,-0.1748046875,0.000335693359375
1761915647582090000,1.101090087890625,-0.9515838623046875,-0.177490234375,-0.001708984375
1761915647592144100,1.11114404296875,-0.9541015625,-0.1792755126953125,-0.007537841796875
1761915647602197800,1.12119775390625,-0.9630279541015625,-0.1796722412109375,-0.0115509033203125
1761915647612252000,1.131251953125,-0.96917724609375,-0.170989990234375,-0.0113372802734375
1761915647622306000,1.14130615234375,-0.97198486328125,-0.1612548828125,-0.013885498046875
1761915647632360000,1.15135986328125,-0.9756622314453125,-0.1557159423828125,-0.0164337158203125
1761915647642414000,1.1614140625,-0.9759063720703125,-0.1520233154296875,-0.01849365234375
1761915647652468000,1.171468017578125,-0.978485107421875,-0.152374267578125,-0.0162353515625
1761915647662522000,1.181522216796875,-0.99151611328125,-0.1591949462890625,-0.01324462890625
1761915647672576000,1.191575927734375,-1.0047149658203125,-0.163482666015625,-0.0092926025390625
1761915647682630100,1.201630126953125,-1.0086822509765625,-0.1643829345703125,-0.004364013671875
1761915647692684000,1.21168408203125,-1.0018768310546875,-0.162750244140625,-0.0022735595703125
1761915647702738000,1.221738037109375,-0.994384765625,-0.1620941162109375,0.00048828125
1761915647712793000,1.23179296875,-0.9958648681640625,-0.1622161865234375,0.0037994384765625
1761915647722847000,1.241846923828125,-1.0015106201171875,-0.1671600341796875,0.0091552734375
1761915647732901000,1.251901123046875,-1.0023193359375,-0.1672821044921875,0.013580322265625
1761915647742955000,1.261955078125,-0.9990692138671875,-0.1681976318359375,0.01531982421875
1761915647753009200,1.272009033203125,-0.9944305419921875,-0.1664276123046875,0.0149688720703125
1761915647763063000,1.28206298828125,-0.990234375,-0.163482666015625,0.0152587890625
1761915647773117200,1.2921171875,-0.9832763671875,-0.1645965576171875,0.01300048828125
1761915647783170800,1.3021708984375,-0.977294921875,-0.1680755615234375,0.0132293701171875
1761915647793225000,1.312224853515625,-0.9801177978515625,-0.17523193359375,0.01422119140625
1761915647803278800,1.32227880859375,-0.9808502197265625,-0.1779937744140625,0.012786865234375
1761915647813333000,1.3323330078125,-0.9742279052734375,-0.1752471923828125,0.008148193359375
1761915647823387000,1.342386962890625,-0.9771881103515625,-0.169219970703125,0.0058135986328125
1761915647833441000,1.35244091796875,-0.9885406494140625,-0.1610260009765625,0.0100555419921875
1761915647843495000,1.362494873046875,-0.996185302734375,-0.156524658203125,0.0129547119140625
1761915647853549000,1.372549072265625,-1.002227783203125,-0.1566162109375,0.01007080078125
1761915647863603000,1.38260302734375,-1.0038299560546875,-0.1565704345703125,0.0084381103515625
1761915647873657900,1.392657958984375,-0.994964599609375,-0.1541595458984375,0.0079498291015625
1761915647883712000,1.4027119140625,-0.9832763671875,-0.1540679931640625,0.0072479248046875
1761915647893766000,1.412765869140625,-0.9539947509765625,-0.1482086181640625,0.0084991455078125
1761915647903820000,1.422820068359375,-0.85748291015625,-0.1702728271484375,0.0354156494140625
1761915647913874000,1.4328740234375,-0.9346771240234375,-0.2170257568359375,0.0121002197265625
1761915647923928000,1.442927978515625,-0.9294891357421875,-0.1975860595703125,0.0097198486328125
1761915647933982000,1.45298193359375,-0.9794921875,-0.18035888671875,0.001220703125
1761915647944036000,1.4630361328125,-0.98876953125,-0.1605072021484375,0.020965576171875
1761915647954090000,1.473090087890625,-0.9800567626953125,-0.1594085693359375,0.028717041015625
1761915647964143900,1.483143798828125,-0.970001220703125,-0.170989990234375,0.0196533203125
1761915647974198000,1.493197998046875,-0.9669342041015625,-0.1760711669921875,0.023651123046875
1761915647984252000,1.503251953125,-0.9756622314453125,-0.1764068603515625,0.0262298583984375
1761915647994306000,1.51330615234375,-0.9850921630859375,-0.1720428466796875,0.0267333984375
1761915648004360000,1.52335986328125,-0.9900360107421875,-0.1661529541015625,0.02587890625
1761915648014414000,1.5334140625,-0.989227294921875,-0.1602630615234375,0.0247650146484375
1761915648024468000,1.543468017578125,-0.985809326171875,-0.15789794921875,0.026458740234375
1761915648034523100,1.553523193359375,-0.979339599609375,-0.159820556640625,0.025390625
1761915648044576800,1.56357666015625,-0.971099853515625,-0.169952392578125,0.0230712890625
1761915648054631000,1.573630859375,-0.9721221923828125,-0.1792449951171875,0.0210113525390625
1761915648064685000,1.58368505859375,-0.97601318359375,-0.1798095703125,0.021453857421875
1761915648074739000,1.593739013671875,-0.9821624755859375,-0.175872802734375,0.022674560546875
1761915648084793000,1.60379296875,-0.9889984130859375,-0.171875,0.02081298828125
1761915648094847000,1.613846923828125,-0.9935302734375,-0.1641693115234375,0.01776123046875
1761915648104901000,1.623901123046875,-0.988800048828125,-0.157318115234375,0.0144195556640625
1761915648114955300,1.633955322265625,-0.9826507568359375,-0.1540069580078125,0.0113525390625
1761915648125009200,1.644009033203125,-0.9766998291015625,-0.1579742431640625,0.0121307373046875
1761915648135063300,1.654063232421875,-0.9798431396484375,-0.1662750244140625,0.0151519775390625
1761915648145117000,1.664116943359375,-0.9837646484375,-0.17425537109375,0.0183868408203125
1761915648155171000,1.674171142578125,-0.982452392578125,-0.17755126953125,0.017578125
1761915648165225000,1.684224853515625,-0.9742584228515625,-0.17987060546875,0.014862060546875
1761915648175279000,1.694279052734375,-0.9667816162109375,-0.177032470703125,0.011993408203125
1761915648185334000,1.704333984375,-0.9643402099609375,-0.17156982421875,0.0106201171875
1761915648195388200,1.71438818359375,-0.964752197265625,-0.1675567626953125,0.010040283203125
1761915648205442300,1.7244423828125,-0.96856689453125,-0.1621246337890625,0.0113525390625
1761915648215496000,1.734495849609375,-0.9774322509765625,-0.1583099365234375,0.0133056640625
1761915648225550000,1.744550048828125,-0.9841461181640625,-0.158935546875,0.0124359130859375
1761915648235604000,1.75460400390625,-0.98785400390625,-0.1612701416015625,0.0073089599609375
1761915648245658000,1.764658203125,-0.9845733642578125,-0.1569366455078125,-0.003692626953125
1761915648255712000,1.7747119140625,-0.9742431640625,-0.147186279296875,-0.013824462890625
1761915648265766100,1.78476611328125,-0.970428466796875,-0.139495849609375,-0.024810791015625
1761915648275820000,1.794820068359375,-0.9771575927734375,-0.1383056640625,-0.029998779296875
1761915648285874200,1.804874267578125,-0.9831390380859375,-0.1415252685546875,-0.0317535400390625
1761915648295928000,1.814927978515625,-0.9825592041015625,-0.1466064453125,-0.0355224609375
1761915648305982200,1.824982177734375,-0.973602294921875,-0.1479034423828125,-0.0373687744140625
1761915648316036000,1.8350361328125,-0.9728851318359375,-0.1493072509765625,-0.033416748046875
1761915648326090000,1.845090087890625,-0.9832000732421875,-0.1504058837890625,-0.028289794921875
1761915648336144000,1.855143798828125,-0.995513916015625,-0.149017333984375,-0.0191192626953125
1761915648346198000,1.865197998046875,-1.00347900390625,-0.1503753662109375,-0.008209228515625
1761915648356253200,1.875253173828125,-1.0011749267578125,-0.154541015625,0.0007476806640625
1761915648366307000,1.88530712890625,-0.9918060302734375,-0.1578216552734375,0.007476806640625
1761915648376361200,1.895361328125,-0.986572265625,-0.1635284423828125,0.0137939453125
1761915648386415000,1.9054150390625,-0.9864501953125,-0.163818359375,0.0260467529296875
1761915648396469000,1.915468994140625,-0.9928131103515625,-0.1668548583984375,0.0380706787109375
1761915648406523000,1.92552294921875,-0.9982452392578125,-0.172271728515625,0.0461883544921875
1761915648416577000,1.935576904296875,-0.9941558837890625,-0.1767120361328125,0.0539398193359375
1761915648426631000,1.945630859375,-0.9869842529296875,-0.1794586181640625,0.05584716796875
1761915648436685000,1.95568505859375,-0.976470947265625,-0.1823883056640625,0.059783935546875
1761915648446739200,1.9657392578125,-0.9846954345703125,-0.192138671875,0.0595245361328125
1761915648456793000,1.97579296875,-1.0019073486328125,-0.19903564453125,0.058258056640625
1761915648466847200,1.98584716796875,-0.987884521484375,-0.2015533447265625,0.0612030029296875
1761915648476901000,1.995901123046875,-0.9744873046875,-0.20391845703125,0.052947998046875
1761915648486955300,2.005955322265625,-0.8671875,-0.1984710693359375,0.0726470947265625
1761915648497009200,2.016009033203125,-0.7751007080078125,-0.275238037109375,0.0923919677734375
1761915648507063000,2.02606298828125,-0.853271484375,-0.29248046875,0.0746612548828125
1761915648517117000,2.036116943359375,-0.9368743896484375,-0.205810546875,0.0341949462890625
1761915648527172000,2.046172119140625,-1.026885986328125,-0.1291351318359375,0.0342254638671875
1761915648537226000,2.05622607421875,-1.08294677734375,-0.106109619140625,0.0763702392578125
1761915648547280100,2.066280029296875,-1.1213836669921875,-0.1295623779296875,0.082244873046875
1761915648557334300,2.076334228515625,-1.0913238525390625,-0.14849853515625,0.064666748046875
1761915648567388200,2.08638818359375,-1.0394134521484375,-0.1576385498046875,0.04888916015625
1761915648577442000,2.096442138671875,-1.003814697265625,-0.1616973876953125,0.0338134765625
1761915648587496000,2.106495849609375,-0.9828948974609375,-0.1628265380859375,0.0243377685546875
1761915648597550000,2.116550048828125,-0.9749908447265625,-0.1671295166015625,0.01763916015625
1761915648607604000,2.12660400390625,-0.9685211181640625,-0.171630859375,0.012725830078125
1761915648617658000,2.136658203125,-0.9566650390625,-0.17352294921875,0.008758544921875
1761915648627712000,2.1467119140625,-0.9489288330078125,-0.17376708984375,0.002471923828125
1761915648637766100,2.15676611328125,-0.94793701171875,-0.1749114990234375,-0.0009918212890625
1761915648647820000,2.166820068359375,-0.9510040283203125,-0.1757659912109375,-0.0001678466796875
1761915648657874200,2.176874267578125,-0.952239990234375,-0.1735076904296875,0.00079345703125
1761915648667928000,2.186927978515625,-0.950042724609375,-0.170867919921875,0.0006256103515625
1761915648677982200,2.196982177734375,-0.95208740234375,-0.1706390380859375,0.00140380859375
1761915648688037000,2.207037109375,-0.9639892578125,-0.170013427734375,0.0082244873046875
1761915648698091000,2.217091064453125,-0.97735595703125,-0.166778564453125,0.01409912109375
1761915648708145200,2.227145263671875,-0.9819183349609375,-0.1641387939453125,0.0163726806640625
1761915648718199000,2.237198974609375,-0.9779510498046875,-0.1600494384765625,0.014251708984375
1761915648728253200,2.247253173828125,-0.973175048828125,-0.1558685302734375,0.0100860595703125
1761915648738307000,2.25730712890625,-0.9683685302734375,-0.151885986328125,0.0070953369140625
1761915648748361200,2.267361328125,-0.971038818359375,-0.151031494140625,0.0051422119140625
1761915648758415000,2.2774150390625,-0.9809722900390625,-0.151153564453125,0.0099334716796875
1761915648768469000,2.287468994140625,-0.98992919921875,-0.15435791015625,0.0158233642578125
1761915648778523000,2.29752294921875,-0.99249267578125,-0.1599884033203125,0.015716552734375
1761915648788577000,2.307576904296875,-0.98846435546875,-0.1636199951171875,0.0134429931640625
1761915648798631200,2.317631103515625,-0.984893798828125,-0.1633453369140625,0.0103759765625
1761915648808685000,2.32768505859375,-0.9846649169921875,-0.1622772216796875,0.0104217529296875
1761915648818739200,2.3377392578125,-0.98773193359375,-0.16241455078125,0.01043701171875
1761915648828793000,2.34779296875,-0.9929656982421875,-0.1656951904296875,0.0121002197265625
1761915648838847200,2.35784716796875,-0.9966278076171875,-0.17047119140625,0.010833740234375
1761915648848902000,2.36790185546875,-0.9961395263671875,-0.169891357421875,0.0105743408203125
1761915648858956000,2.3779560546875,-0.9910888671875,-0.1658782958984375,0.0133514404296875
1761915648869010000,2.388010009765625,-0.9851837158203125,-0.1644134521484375,0.013458251953125
1761915648879064000,2.39806396484375,-0.9799346923828125,-0.1678009033203125,0.0125274658203125
1761915648889118200,2.4081181640625,-0.98052978515625,-0.17431640625,0.012298583984375
1761915648899172000,2.418172119140625,-0.9833526611328125,-0.1819000244140625,0.013824462890625
1761915648909226200,2.428226318359375,-0.9815673828125,-0.1881866455078125,0.0155792236328125
1761915648919280000,2.438280029296875,-0.974822998046875,-0.1890869140625,0.0155792236328125
1761915648929334300,2.448334228515625,-0.9699249267578125,-0.1867828369140625,0.00970458984375
1761915648939388200,2.45838818359375,-0.97100830078125,-0.1795501708984375,0.0087432861328125
1761915648949442000,2.468442138671875,-0.9771270751953125,-0.173065185546875,0.0125732421875
1761915648959496000,2.478495849609375,-0.9925689697265625,-0.172698974609375,0.0158538818359375
1761915648969550000,2.488550048828125,-0.995330810546875,-0.1785125732421875,0.0135955810546875
1761915648979604000,2.49860400390625,-0.990753173828125,-0.1800384521484375,0.0110931396484375
1761915648989658000,2.508658203125,-0.991241455078125,-0.17633056640625,0.0153961181640625
1761915648999712000,2.5187119140625,-0.9869232177734375,-0.1725311279296875,0.019775390625
1761915649009767200,2.52876708984375,-0.9822845458984375,-0.1751861572265625,0.011474609375
1761915649019821000,2.538821044921875,-0.9713897705078125,-0.1662139892578125,0.0103607177734375
1761915649029875000,2.548875,-0.966644287109375,-0.1604156494140625,0.0078277587890625
1761915649039929000,2.55892919921875,-0.965484619140625,-0.1575469970703125,0.0072174072265625
1761915649049983000,2.56898291015625,-0.971649169921875,-0.1608123779296875,0.0079498291015625
1761915649060037000,2.579037109375,-0.9826202392578125,-0.1652984619140625,0.0092010498046875
1761915649070094300,2.58909423828125,-0.9956817626953125,-0.1688995361328125,0.0091705322265625
1761915649080148500,2.5991484375,-0.9923553466796875,-0.166046142578125,0.0064697265625
1761915649090202600,2.60920263671875,-0.9784698486328125,-0.162139892578125,0.00201416015625
1761915649100256500,2.619256591796875,-0.9675140380859375,-0.160369873046875,-0.0021820068359375
1761915649110310700,2.629310546875,-0.9619903564453125,-0.166900634765625,-0.0038604736328125
1761915649120364500,2.639364501953125,-0.956573486328125,-0.1751251220703125,-0.00665283203125
1761915649130418400,2.64941845703125,-0.9593505859375,-0.1796417236328125,-0.00799560546875
1761915649140472300,2.659472412109375,-0.9676361083984375,-0.178863525390625,-0.007965087890625
1761915649150526500,2.6695263671875,-0.96710205078125,-0.17584228515625,-0.0098876953125
1761915649160580400,2.679580322265625,-0.961090087890625,-0.1766357421875,-0.0131072998046875
1761915649170635500,2.689635498046875,-0.957855224609375,-0.1795806884765625,-0.011932373046875
1761915649180689400,2.699689453125,-0.9638214111328125,-0.18365478515625,-0.00811767578125
1761915649190743600,2.70974365234375,-0.9776611328125,-0.1865386962890625,-0.0056304931640625
1761915649200797400,2.71979736328125,-0.97930908203125,-0.1830902099609375,-0.0063934326171875
1761915649210851300,2.729851318359375,-0.9742889404296875,-0.17657470703125,-0.0113525390625
1761915649220905500,2.739905517578125,-0.972625732421875,-0.171722412109375,-0.0140838623046875
1761915649230959400,2.74995947265625,-0.972259521484375,-0.169281005859375,-0.014251708984375
1761915649241013500,2.760013427734375,-0.9748992919921875,-0.1694183349609375,-0.013916015625
1761915649251067400,2.7700673828125,-0.973876953125,-0.1696624755859375,-0.0127716064453125
1761915649261121500,2.78012158203125,-0.9763641357421875,-0.17083740234375,-0.01226806640625
1761915649271175400,2.790175537109375,-0.9839019775390625,-0.174591064453125,-0.0159759521484375
1761915649281229600,2.8002294921875,-0.9865264892578125,-0.1738433837890625,-0.016937255859375
1761915649291283500,2.810283447265625,-0.986663818359375,-0.1704254150390625,-0.015716552734375
1761915649301337600,2.820337646484375,-0.9859619140625,-0.166107177734375,-0.01324462890625
1761915649311391200,2.83039111328125,-0.9850921630859375,-0.164703369140625,-0.0142822265625
1761915649321446400,2.8404462890625,-0.982940673828125,-0.1669769287109375,-0.018890380859375
1761915649331500500,2.85050048828125,-0.9761962890625,-0.169158935546875,-0.022613525390625
1761915649341554400,2.860554443359375,-0.9692230224609375,-0.1719818115234375,-0.0239410400390625
1761915649351608600,2.870608642578125,-0.9593048095703125,-0.1722412109375,-0.0242156982421875
1761915649361662500,2.880662353515625,-0.9503173828125,-0.1712646484375,-0.0274505615234375
1761915649371716600,2.890716552734375,-0.9511566162109375,-0.169708251953125,-0.0304718017578125
1761915649381770500,2.9007705078125,-0.960479736328125,-0.1654510498046875,-0.0309906005859375
1761915649391824400,2.910824462890625,-0.9715423583984375,-0.1598663330078125,-0.0293426513671875
1761915649401878300,2.920878173828125,-0.981689453125,-0.158050537109375,-0.028289794921875
1761915649411932400,2.930932373046875,-0.9861297607421875,-0.15838623046875,-0.0293426513671875
1761915649421986300,2.940986328125,-0.9850311279296875,-0.158111572265625,-0.0322113037109375
1761915649432040400,2.95104052734375,-0.989410400390625,-0.1558990478515625,-0.034515380859375
1761915649442094600,2.961094482421875,-0.9945220947265625,-0.1501312255859375,-0.0281982421875
1761915649452148500,2.9711484375,-1.0058441162109375,-0.147125244140625,-0.022064208984375
1761915649462202600,2.98120263671875,-1.0102081298828125,-0.1472625732421875,-0.0150909423828125
1761915649472257300,2.99125732421875,-1.0072021484375,-0.151275634765625,-0.015960693359375
1761915649482311400,3.0013115234375,-0.99517822265625,-0.156494140625,-0.01739501953125
1761915649492365300,3.011365234375,-0.9818267822265625,-0.1641998291015625,-0.0152587890625
1761915649502419500,3.02141943359375,-0.9680938720703125,-0.173004150390625,-0.013580322265625
1761915649512473300,3.031473388671875,-0.9560394287109375,-0.178466796875,-0.011383056640625
1761915649522527500,3.041527587890625,-0.9479522705078125,-0.1793365478515625,-0.007171630859375
1761915649532581600,3.05158154296875,-0.9484710693359375,-0.1776580810546875,-0.0023651123046875
1761915649542635500,3.061635498046875,-0.953643798828125,-0.17620849609375,-0.00103759765625
1761915649552689700,3.071689697265625,-0.9597320556640625,-0.174560546875,-0.00274658203125
1761915649562743600,3.08174365234375,-0.958831787109375,-0.1705169677734375,-0.0003662109375
1761915649572797400,3.09179736328125,-0.9560699462890625,-0.1710357666015625,-0.0011749267578125
1761915649582851300,3.101851318359375,-0.9512786865234375,-0.170745849609375,-0.0016326904296875
1761915649592905500,3.111905517578125,-0.9517669677734375,-0.171661376953125,-0.0010833740234375
1761915649602959400,3.12195947265625,-0.9579010009765625,-0.1747589111328125,0.0007781982421875
1761915649613013500,3.132013427734375,-0.9608154296875,-0.17340087890625,0.00177001953125
1761915649623068700,3.142068603515625,-0.9597015380859375,-0.17303466796875,-0.0057830810546875
1761915649633122600,3.15212255859375,-0.96142578125,-0.1688079833984375,-0.011444091796875
1761915649643176400,3.162176513671875,-0.97052001953125,-0.166473388671875,-0.013519287109375
1761915649653230300,3.172230224609375,-0.9784088134765625,-0.163299560546875,-0.0158843994140625
1761915649663284500,3.182284423828125,-0.9787139892578125,-0.157012939453125,-0.0188446044921875
1761915649673338400,3.19233837890625,-0.9794769287109375,-0.1532135009765625,-0.024749755859375
1761915649683392500,3.202392578125,-0.977142333984375,-0.14715576171875,-0.0289154052734375
1761915649693446400,3.2124462890625,-0.9821929931640625,-0.14312744140625,-0.030487060546875
1761915649703500500,3.22250048828125,-0.9891357421875,-0.1403045654296875,-0.0283660888671875
1761915649713554400,3.232554443359375,-0.99859619140625,-0.1376953125,-0.0253448486328125
1761915649723608600,3.242608642578125,-1.0045013427734375,-0.1375732421875,-0.024200439453125
1761915649733662500,3.252662353515625,-1.003631591796875,-0.1380615234375,-0.0225372314453125
1761915649743716400,3.26271630859375,-1.0007476806640625,-0.137481689453125,-0.0223541259765625
1761915649753770200,3.272770263671875,-0.99639892578125,-0.14154052734375,-0.0224456787109375
1761915649763824400,3.282824462890625,-0.987457275390625,-0.14306640625,-0.02435302734375
1761915649773879600,3.292879638671875,-0.9798126220703125,-0.1421966552734375,-0.024017333984375
1761915649783933400,3.302933349609375,-0.981201171875,-0.1409454345703125,-0.0201568603515625
1761915649793987600,3.312987548828125,-0.98455810546875,-0.1403350830078125,-0.020416259765625
1761915649804041500,3.32304150390625,-0.982940673828125,-0.143096923828125,-0.0218505859375
1761915649814095600,3.333095703125,-0.984344482421875,-0.144439697265625,-0.0218658447265625
1761915649824149200,3.343149169921875,-0.987335205078125,-0.1461334228515625,-0.0160675048828125
1761915649834203400,3.353203369140625,-0.9911956787109375,-0.14605712890625,-0.011688232421875
1761915649844257300,3.36325732421875,-0.9957427978515625,-0.14410400390625,-0.00885009765625
1761915649854311400,3.3733115234375,-1.00048828125,-0.1401519775390625,-0.005828857421875
1761915649864365300,3.383365234375,-1.001678466796875,-0.1400146484375,-0.003662109375
1761915649874419500,3.39341943359375,-0.9994659423828125,-0.141876220703125,-0.0023956298828125
1761915649884473600,3.4034736328125,-0.996063232421875,-0.14739990234375,-0.000640869140625
1761915649894527500,3.413527587890625,-0.990997314453125,-0.1540374755859375,0.00286865234375
1761915649904581600,3.42358154296875,-0.98370361328125,-0.1586456298828125,0.0064239501953125
1761915649914635500,3.433635498046875,-0.9813385009765625,-0.161712646484375,0.0111846923828125
1761915649924690400,3.4436904296875,-0.983306884765625,-0.1629791259765625,0.013397216796875
1761915649934744300,3.453744384765625,-0.9832611083984375,-0.1615753173828125,0.0132904052734375
1761915649944798500,3.463798583984375,-0.982666015625,-0.1613311767578125,0.0086517333984375
1761915649954852400,3.473852294921875,-0.9807281494140625,-0.1608428955078125,0.004638671875
1761915649964906500,3.483906494140625,-0.9800872802734375,-0.1598663330078125,0.005462646484375
1761915649974960600,3.493960693359375,-0.9814605712890625,-0.1586456298828125,0.009124755859375
1761915649985014500,3.5040146484375,-0.984161376953125,-0.162872314453125,0.01031494140625
1761915649995068700,3.514068603515625,-0.9902801513671875,-0.1669769287109375,0.00909423828125
1761915650005122300,3.524122314453125,-0.9919891357421875,-0.16693115234375,0.0075836181640625
1761915650015176400,3.534176513671875,-0.9911651611328125,-0.1693572998046875,-0.001190185546875
1761915650025230300,3.544230224609375,-0.98175048828125,-0.1701507568359375,-0.0098724365234375
1761915650035284500,3.554284423828125,-0.96429443359375,-0.1684722900390625,-0.0134735107421875
1761915650045338400,3.56433837890625,-0.9574432373046875,-0.1639862060546875,-0.015594482421875
1761915650055392500,3.574392578125,-0.9635772705078125,-0.1541748046875,-0.015289306640625
1761915650065447700,3.58444775390625,-0.9801483154296875,-0.1439666748046875,-0.0138397216796875
1761915650075501600,3.59450146484375,-1.0013427734375,-0.13250732421875,-0.004730224609375
1761915650085555500,3.604555419921875,-1.021209716796875,-0.125885009765625,0.0036163330078125
1761915650095609600,3.614609619140625,-1.0129852294921875,-0.130523681640625,0.0085296630859375
1761915650105663500,3.62466357421875,-1.0102996826171875,-0.1480712890625,-0.0032196044921875
1761915650115717600,3.634717529296875,-0.9991455078125,-0.152923583984375,-0.0040283203125
1761915650125771500,3.644771484375,-0.9822845458984375,-0.1574554443359375,-0.0001068115234375
1761915650135825700,3.65482568359375,-0.9742584228515625,-0.165191650390625,-0.001556396484375
1761915650145879600,3.664879638671875,-0.9661712646484375,-0.1717681884765625,-0.001495361328125
1761915650155933700,3.67493359375,-0.96112060546875,-0.1804046630859375,0.0003509521484375
1761915650165987800,3.68498779296875,-0.958953857421875,-0.1833953857421875,0.00445556640625
1761915650176041700,3.695041748046875,-0.9610443115234375,-0.1846160888671875,0.0101776123046875
1761915650186095600,3.705095703125,-0.9703216552734375,-0.18438720703125,0.016326904296875
1761915650196149500,3.7151494140625,-0.9795989990234375,-0.1793060302734375,0.0210723876953125
1761915650206203600,3.72520361328125,-0.979522705078125,-0.1738128662109375,0.023193359375
1761915650216258600,3.735258544921875,-0.9732666015625,-0.1699066162109375,0.0206146240234375
1761915650226312700,3.745312744140625,-0.9661102294921875,-0.16937255859375,0.0153045654296875
1761915650236366600,3.75536669921875,-0.963958740234375,-0.172210693359375,0.0135650634765625
1761915650246420700,3.765420654296875,-0.9629669189453125,-0.1748504638671875,0.0130615234375
1761915650256474600,3.775474609375,-0.9626617431640625,-0.1762542724609375,0.0145111083984375
1761915650266528500,3.785528564453125,-0.9642791748046875,-0.171112060546875,0.01556396484375
1761915650276582700,3.795582763671875,-0.9722900390625,-0.15875244140625,0.0157470703125
1761915650286636500,3.805636474609375,-0.9886322021484375,-0.14898681640625,0.014007568359375
1761915650296690700,3.815690673828125,-1.00390625,-0.140625,0.0113372802734375
1761915650306744600,3.82574462890625,-1.00390625,-0.1350250244140625,0.010284423828125
1761915650316798700,3.835798828125,-0.9921875,-0.133575439453125,0.0075531005859375
1761915650326852600,3.8458525390625,-0.9734039306640625,-0.13525390625,0.0019989013671875
1761915650336906800,3.85590673828125,-0.9610443115234375,-0.1360626220703125,0.000640869140625
1761915650346961700,3.865961669921875,-0.9515533447265625,-0.1388702392578125,0.0006866455078125
1761915650357015600,3.876015625,-0.9435577392578125,-0.1475372314453125,-0.0006561279296875
1761915650367069700,3.886069580078125,-0.9369964599609375,-0.1608734130859375,-0.0001220703125
1761915650377123600,3.89612353515625,-0.9383697509765625,-0.1705169677734375,0.000152587890625
1761915650387177700,3.906177734375,-0.938568115234375,-0.1759796142578125,0.0048828125
1761915650397231600,3.916231689453125,-0.944366455078125,-0.1808624267578125,0.0091705322265625
1761915650407285800,3.92628564453125,-0.95556640625,-0.1843109130859375,0.0150146484375
1761915650417339600,3.936339599609375,-0.97119140625,-0.1876373291015625,0.0185089111328125
1761915650427393800,3.946393798828125,-0.988189697265625,-0.1851806640625,0.019287109375
1761915650437447400,3.956447509765625,-0.993377685546875,-0.1784210205078125,0.0243988037109375
1761915650447501600,3.96650146484375,-0.9918365478515625,-0.1753997802734375,0.0238037109375
1761915650457555500,3.976555419921875,-0.98834228515625,-0.1778717041015625,0.02105712890625
1761915650467609600,3.986609619140625,-0.984222412109375,-0.1772003173828125,0.019317626953125
1761915650477663500,3.99666357421875,-0.9815826416015625,-0.178009033203125,0.01611328125
1761915650487718700,4.00671875,-0.982391357421875,-0.1785430908203125,0.0111236572265625
1761915650497772800,4.016772705078125,-0.9862518310546875,-0.17706298828125,0.0075836181640625
1761915650507826700,4.02682666015625,-0.9888458251953125,-0.1758270263671875,0.006134033203125
1761915650517880600,4.036880615234375,-0.991302490234375,-0.1710205078125,0.0017852783203125
1761915650527934500,4.0469345703125,-0.98883056640625,-0.163848876953125,-0.000091552734375
1761915650537988600,4.056988525390625,-0.980194091796875,-0.159515380859375,-0.002960205078125
1761915650548042500,4.06704248046875,-0.9774932861328125,-0.15869140625,-0.0081024169921875
1761915650558096600,4.0770966796875,-0.9791107177734375,-0.1547393798828125,-0.00982666015625
1761915650568150500,4.087150634765625,-0.9792938232421875,-0.15301513671875,-0.008544921875
1761915650578204700,4.09720458984375,-0.981719970703125,-0.1541748046875,-0.00738525390625
1761915650588258600,4.107258544921875,-0.9854888916015625,-0.1539764404296875,-0.00347900390625
1761915650598312700,4.117312744140625,-0.9830474853515625,-0.1534271240234375,-0.0008392333984375
1761915650608366800,4.127366943359375,-0.9835662841796875,-0.1587066650390625,-0.0054473876953125
1761915650618421500,4.13742138671875,-0.982269287109375,-0.162750244140625,-0.00286865234375
1761915650628475600,4.1474755859375,-0.97607421875,-0.1610260009765625,0.003265380859375
1761915650638529500,4.157529541015625,-0.9730377197265625,-0.1597900390625,0.003875732421875
1761915650648583700,4.167583740234375,-0.9881744384765625,-0.155853271484375,0.0025634765625
1761915650658637600,4.177637451171875,-1.0008544921875,-0.1512451171875,0.0075225830078125
1761915650668691700,4.187691650390625,-1.00030517578125,-0.147430419921875,0.009613037109375
1761915650678745600,4.19774560546875,-0.9935455322265625,-0.1489105224609375,0.0113677978515625
1761915650688799700,4.2077998046875,-0.984954833984375,-0.15216064453125,0.010009765625
1761915650698853600,4.217853515625,-0.98028564453125,-0.156707763671875,0.00897216796875
1761915650708907500,4.227907470703125,-0.9854583740234375,-0.1594390869140625,0.0098876953125
1761915650718961700,4.237961669921875,-0.99285888671875,-0.158447265625,0.0092315673828125
1761915650729015600,4.248015625,-0.99249267578125,-0.154327392578125,0.0037841796875
1761915650739069700,4.258069580078125,-0.9869384765625,-0.146575927734375,0.000946044921875
1761915650749123600,4.26812353515625,-0.97796630859375,-0.139984130859375,-0.0007171630859375
1761915650759178800,4.2781787109375,-0.9721832275390625,-0.138702392578125,-0.0011138916015625
1761915650769232400,4.288232421875,-0.969970703125,-0.140716552734375,-0.0036163330078125
1761915650779286500,4.29828662109375,-0.968719482421875,-0.1459503173828125,-0.0073394775390625
1761915650789340700,4.308340576171875,-0.9629364013671875,-0.1480865478515625,-0.0090789794921875
1761915650799394600,4.31839453125,-0.95941162109375,-0.1423492431640625,-0.0078125
1761915650809448700,4.32844873046875,-0.96728515625,-0.137298583984375,-0.0064849853515625
1761915650819502600,4.338502685546875,-0.9793853759765625,-0.135711669921875,-0.005584716796875
1761915650829556700,4.348556640625,-0.98583984375,-0.136810302734375,-0.0018310546875
1761915650839610600,4.358610595703125,-0.9897308349609375,-0.1429901123046875,-0.000152587890625
1761915650849664800,4.368664794921875,-0.9906005859375,-0.152252197265625,0.0016021728515625
1761915650859718700,4.37871875,-0.98681640625,-0.1598052978515625,0.0003814697265625
1761915650869772800,4.388772705078125,-0.983184814453125,-0.164337158203125,-0.00128173828125
1761915650879826400,4.398826416015625,-0.981109619140625,-0.16278076171875,-0.00274658203125
1761915650889880600,4.408880615234375,-0.9760284423828125,-0.1584625244140625,-0.00537109375
1761915650899935700,4.418935791015625,-0.9762115478515625,-0.1568603515625,-0.006927490234375
1761915650909989600,4.42898974609375,-0.9861297607421875,-0.1536102294921875,-0.0044403076171875
1761915650920043800,4.439043701171875,-0.9966583251953125,-0.1516876220703125,0.0003509521484375
1761915650930097700,4.44909765625,-1.004302978515625,-0.1526641845703125,0.0055084228515625
1761915650940151800,4.45915185546875,-1.010528564453125,-0.15301513671875,0.0091552734375
1761915650950205400,4.469205322265625,-1.0102996826171875,-0.15093994140625,0.011871337890625
1761915650960259600,4.479259521484375,-1.0051116943359375,-0.1473541259765625,0.012054443359375
1761915650970313500,4.4893134765625,-1.0010833740234375,-0.146026611328125,0.0130157470703125
1761915650980367600,4.49936767578125,-0.9957275390625,-0.147064208984375,0.015838623046875
1761915650990421500,4.50942138671875,-0.9894256591796875,-0.1476287841796875,0.0164794921875
1761915651000475600,4.5194755859375,-0.9874267578125,-0.15057373046875,0.015625
1761915651010529500,4.529529541015625,-0.9948272705078125,-0.1512603759765625,0.0193023681640625
1761915651020583700,4.539583740234375,-1.0010223388671875,-0.1524658203125,0.023834228515625
1761915651030638600,4.549638671875,-0.99810791015625,-0.1525115966796875,0.0267791748046875
1761915651040692500,4.5596923828125,-0.992523193359375,-0.152618408203125,0.025146484375
1761915651050746600,4.56974658203125,-0.9883880615234375,-0.153717041015625,0.019683837890625
1761915651060800500,4.579800537109375,-0.9850311279296875,-0.15478515625,0.01568603515625
1761915651070854700,4.589854736328125,-0.98480224609375,-0.155120849609375,0.0114288330078125
1761915651080909600,4.59990966796875,-0.9820709228515625,-0.1578369140625,0.0089569091796875
1761915651090963700,4.609963623046875,-0.9851531982421875,-0.1610107421875,0.0101470947265625
1761915651101017600,4.620017578125,-0.988250732421875,-0.1620941162109375,0.0120697021484375
1761915651111071500,4.630071533203125,-0.991729736328125,-0.1619110107421875,0.008148193359375
1761915651121125600,4.640125732421875,-0.9899444580078125,-0.15753173828125,0.0020904541015625
1761915651131179500,4.650179443359375,-0.9839019775390625,-0.1505584716796875,-0.0009918212890625
1761915651141233700,4.660233642578125,-0.981201171875,-0.14813232421875,-0.0020599365234375
1761915651151288600,4.67028857421875,-0.980255126953125,-0.1477813720703125,-0.0025177001953125
1761915651161342700,4.6803427734375,-0.9773101806640625,-0.1456756591796875,-0.0040130615234375
1761915651171396600,4.690396728515625,-0.975921630859375,-0.1426239013671875,-0.0060577392578125
1761915651181450500,4.700450439453125,-0.9746246337890625,-0.1421051025390625,-0.0093536376953125
1761915651191504400,4.71050439453125,-0.9713134765625,-0.141876220703125,-0.00958251953125
1761915651201558500,4.72055859375,-0.9704742431640625,-0.1478118896484375,-0.0116729736328125
1761915651211612400,4.7306123046875,-0.9687957763671875,-0.1539459228515625,-0.012115478515625
1761915651221666600,4.74066650390625,-0.962310791015625,-0.156951904296875,-0.0110321044921875
1761915651231720700,4.750720703125,-0.9542236328125,-0.1555023193359375,-0.00885009765625
1761915651241774600,4.760774658203125,-0.9444427490234375,-0.148162841796875,-0.0090179443359375
1761915651251828700,4.770828857421875,-0.951019287109375,-0.1411895751953125,-0.00848388671875
1761915651261882600,4.780882568359375,-0.9729156494140625,-0.156890869140625,-0.0059814453125
1761915651271936800,4.790936767578125,-0.9849700927734375,-0.1591644287109375,-0.001708984375
1761915651281991400,4.800991455078125,-0.9865875244140625,-0.160980224609375,0.0047607421875
1761915651292045600,4.811045654296875,-0.98577880859375,-0.1580047607421875,0.005218505859375
1761915651302099500,4.821099365234375,-0.975372314453125,-0.1551513671875,0.00543212890625
1761915651312153600,4.831153564453125,-0.9680328369140625,-0.1566162109375,0.002716064453125
1761915651322207700,4.841207763671875,-0.966644287109375,-0.156341552734375,0.0019073486328125
1761915651332261600,4.85126171875,-0.968841552734375,-0.1554718017578125,0.0005340576171875
1761915651342315800,4.861315673828125,-0.9717254638671875,-0.1576385498046875,-0.0005340576171875
1761915651352369700,4.87136962890625,-0.9713592529296875,-0.1581268310546875,-0.002838134765625
1761915651362423600,4.881423583984375,-0.970947265625,-0.1610107421875,-0.0032958984375
1761915651372477400,4.8914775390625,-0.971466064453125,-0.1631622314453125,-0.003631591796875
1761915651382531600,4.901531494140625,-0.9761810302734375,-0.1648101806640625,-0.002716064453125
1761915651392585500,4.91158544921875,-0.9788970947265625,-0.1595306396484375,-0.0009002685546875
1761915651402639600,4.9216396484375,-0.97540283203125,-0.1517333984375,-0.001007080078125
1761915651412694800,4.93169482421875,-0.9739990234375,-0.1474456787109375,-0.0040130615234375
1761915651422748700,4.941748779296875,-0.976470947265625,-0.1493682861328125,-0.0028076171875
1761915651432802600,4.951802490234375,-0.97808837890625,-0.1514129638671875,0.00054931640625
1761915651442856400,4.9618564453125,-0.97540283203125,-0.155029296875,0.00006103515625
1761915651452910600,4.97191064453125,-0.969085693359375,-0.1575164794921875,-0.00048828125
1761915651462964500,4.981964599609375,-0.967498779296875,-0.1597442626953125,-0.0010833740234375
1761915651473018600,4.9920185546875,-0.966827392578125,-0.1622467041015625,0.0013885498046875
1761915651483072500,5.002072509765625,-0.9664764404296875,-0.165618896484375,0.004913330078125
1761915651493126700,5.012126708984375,-0.9765472412109375,-0.1695556640625,0.0093994140625
1761915651503180500,5.0221806640625,-0.9896240234375,-0.1603851318359375,0.01873779296875
1761915651513234700,5.032234619140625,-1.006378173828125,-0.1590423583984375,0.01409912109375
1761915651523288600,5.04228857421875,-0.9786529541015625,-0.149566650390625,0.0194549560546875
1761915651533342700,5.0523427734375,-0.9802093505859375,-0.14617919921875,0.00701904296875
1761915651543397600,5.062397705078125,-0.9736785888671875,-0.13970947265625,0.0062408447265625
1761915651553451500,5.072451416015625,-0.9660797119140625,-0.137115478515625,0.005645751953125
1761915651563505700,5.082505615234375,-0.9766387939453125,-0.1583404541015625,-0.0006103515625
1761915651573559600,5.0925595703125,-0.992034912109375,-0.1562347412109375,-0.000152587890625
1761915651583613700,5.10261376953125,-0.9975433349609375,-0.1533203125,0.0037384033203125
1761915651593667600,5.11266748046875,-0.9946441650390625,-0.1490631103515625,0.003082275390625
1761915651603721700,5.1227216796875,-0.9811248779296875,-0.1451263427734375,-0.000244140625
1761915651613775600,5.132775634765625,-0.9693603515625,-0.14556884765625,-0.003997802734375
1761915651623829500,5.14282958984375,-0.964019775390625,-0.1475830078125,-0.005279541015625
1761915651633883400,5.15288330078125,-0.96221923828125,-0.151092529296875,-0.0047454833984375
1761915651643937500,5.1629375,-0.9694366455078125,-0.1525726318359375,-0.0021209716796875
1761915651653991400,5.172991455078125,-0.9696044921875,-0.1509246826171875,-0.0031890869140625
1761915651664046600,5.183046630859375,-0.9704437255859375,-0.14849853515625,-0.0038299560546875
1761915651674100700,5.193100830078125,-0.97076416015625,-0.1450653076171875,-0.0037384033203125
1761915651684154600,5.203154541015625,-0.9774627685546875,-0.1468353271484375,-0.003753662109375
1761915651694208500,5.21320849609375,-0.9833221435546875,-0.147247314453125,-0.004425048828125
1761915651704262400,5.223262451171875,-0.9903717041015625,-0.1432952880859375,-0.000762939453125
1761915651714316500,5.233316650390625,-0.9999542236328125,-0.137054443359375,0.0035400390625
1761915651724370400,5.243370361328125,-1.0027008056640625,-0.1325836181640625,0.0020294189453125
1761915651734424600,5.253424560546875,-1.00128173828125,-0.1304779052734375,-0.0006561279296875
1761915651744478500,5.263478515625,-0.998443603515625,-0.1313323974609375,-0.0023040771484375
1761915651754532600,5.27353271484375,-0.9953155517578125,-0.1337738037109375,-0.0010223388671875
1761915651764586800,5.283586669921875,-0.9893951416015625,-0.134674072265625,0.0027008056640625
1761915651774640600,5.293640625,-0.9925079345703125,-0.13671875,0.00311279296875
1761915651784695600,5.303695556640625,-0.997344970703125,-0.1383819580078125,0.0063323974609375
1761915651794749400,5.31374951171875,-0.9937286376953125,-0.1417388916015625,0.0089263916015625
1761915651804803600,5.323803466796875,-0.983184814453125,-0.1466064453125,0.0067291259765625
1761915651814857500,5.333857421875,-0.97052001953125,-0.148712158203125,0.0011138916015625
1761915651824911600,5.34391162109375,-0.9635467529296875,-0.149017333984375,-0.001861572265625
1761915651834965500,5.353965576171875,-0.963043212890625,-0.1474151611328125,-0.0025177001953125
1761915651845019600,5.36401953125,-0.9681243896484375,-0.1470489501953125,-0.001495361328125
1761915651855073800,5.37407373046875,-0.9753875732421875,-0.1489105224609375,-0.000274658203125
1761915651865127700,5.384127685546875,-0.98529052734375,-0.1475677490234375,0.0014801025390625
1761915651875181600,5.394181640625,-0.998382568359375,-0.1464996337890625,0.0073089599609375
1761915651885235500,5.4042353515625,-1.0083160400390625,-0.1444854736328125,0.0109710693359375
1761915651895289600,5.41428955078125,-1.0065460205078125,-0.1409912109375,0.0114898681640625
1761915651905344500,5.424344482421875,-0.993377685546875,-0.1414642333984375,0.0102691650390625
1761915651915398700,5.434398681640625,-0.980743408203125,-0.1446533203125,0.00689697265625
1761915651925452500,5.44445263671875,-0.973876953125,-0.1502685546875,0.005279541015625
1761915651935506700,5.454506591796875,-0.973388671875,-0.15460205078125,0.001800537109375
1761915651945560600,5.464560546875,-0.9745330810546875,-0.15576171875,-0.0003662109375
1761915651955614500,5.474614501953125,-0.97210693359375,-0.1514434814453125,0.0006561279296875
1761915651965668600,5.484668701171875,-0.9695587158203125,-0.1467132568359375,-0.00152587890625
1761915651975722500,5.494722412109375,-0.969390869140625,-0.1414337158203125,-0.002105712890625
1761915651985776600,5.504776611328125,-0.9727020263671875,-0.138641357421875,-0.0043182373046875
1761915651995830500,5.51483056640625,-0.981170654296875,-0.135101318359375,-0.003509521484375
1761915652005884700,5.524884765625,-0.9883880615234375,-0.135345458984375,-0.0034027099609375
1761915652015939600,5.534939697265625,-0.9906158447265625,-0.1367034912109375,-0.00286865234375
1761915652025993500,5.544993408203125,-0.981414794921875,-0.1355438232421875,-0.002960205078125
1761915652036047600,5.555047607421875,-0.9754486083984375,-0.1353607177734375,-0.005584716796875
1761915652046101500,5.5651015625,-0.9748992919921875,-0.1351776123046875,-0.0078125
1761915652056155600,5.57515576171875,-0.9787445068359375,-0.1337432861328125,-0.005889892578125
1761915652066209500,5.58520947265625,-0.9835357666015625,-0.136260986328125,-0.0037689208984375
1761915652076258800,5.5952587890625,-0.9916229248046875,-0.1412200927734375,-0.0026092529296875
1761915652086313000,5.60531298828125,-0.99481201171875,-0.1428680419921875,-0.0016021728515625
1761915652096366800,5.615366943359375,-0.9871826171875,-0.1427001953125,-0.0015106201171875
1761915652106421000,5.6254208984375,-0.9762420654296875,-0.144683837890625,-0.0039215087890625
1761915652116475100,5.63547509765625,-0.9700469970703125,-0.1460418701171875,-0.0041656494140625
1761915652126529000,5.645529052734375,-0.96881103515625,-0.14849853515625,-0.0023193359375
1761915652136584000,5.655583984375,-0.97442626953125,-0.1520538330078125,-0.0012054443359375
1761915652146637800,5.665637939453125,-0.983673095703125,-0.151580810546875,0.0053558349609375
1761915652156692000,5.67569189453125,-0.994293212890625,-0.149200439453125,0.007720947265625
1761915652166745900,5.685745849609375,-1.0016021728515625,-0.1434783935546875,0.00787353515625
1761915652176800000,5.695800048828125,-1.00146484375,-0.1370849609375,0.0060577392578125
1761915652186854000,5.70585400390625,-0.994598388671875,-0.13226318359375,0.0062713623046875
1761915652196908000,5.715907958984375,-0.9890594482421875,-0.133392333984375,0.00323486328125
1761915652206962200,5.725962158203125,-0.9871978759765625,-0.1392669677734375,0
1761915652217016000,5.73601611328125,-0.987640380859375,-0.1447906494140625,-0.0037841796875
1761915652227070200,5.7460703125,-0.9901885986328125,-0.1491851806640625,-0.004241943359375
1761915652237123800,5.756123779296875,-0.989410400390625,-0.148834228515625,-0.0029296875
1761915652247178000,5.766177978515625,-0.9874420166015625,-0.145355224609375,-0.00048828125
1761915652257233000,5.77623291015625,-0.9840087890625,-0.1402130126953125,-0.0002593994140625
1761915652267287000,5.786287109375,-0.9827728271484375,-0.137908935546875,-0.001953125
1761915652277341000,5.7963408203125,-0.9780426025390625,-0.1371002197265625,-0.0027008056640625
1761915652287395000,5.80639501953125,-0.970245361328125,-0.1405487060546875,-0.00640869140625
1761915652297449200,5.81644921875,-0.9732818603515625,-0.1455230712890625,-0.0089263916015625
1761915652307503000,5.826503173828125,-0.9813079833984375,-0.14776611328125,-0.0052032470703125
1761915652317557000,5.836556884765625,-0.9832611083984375,-0.147613525390625,-0.00286865234375
1761915652327611000,5.84661083984375,-0.975494384765625,-0.14678955078125,-0.00152587890625
1761915652337665000,5.8566650390625,-0.973419189453125,-0.146942138671875,-0.0021820068359375
1761915652347719000,5.866718994140625,-0.9832000732421875,-0.1448974609375,-0.00201416015625
1761915652357773000,5.87677294921875,-0.9977569580078125,-0.1398773193359375,0.003936767578125
1761915652367828000,5.886827880859375,-1.0042572021484375,-0.1350860595703125,0.005615234375
1761915652377882000,5.896882080078125,-0.999359130859375,-0.1316375732421875,0.005035400390625
1761915652387936000,5.90693603515625,-0.9886474609375,-0.1302947998046875,0.00201416015625
1761915652397990000,5.916989990234375,-0.97882080078125,-0.1344451904296875,-0.002532958984375
1761915652408044000,5.9270439453125,-0.9723358154296875,-0.1396331787109375,-0.0062103271484375
1761915652418098000,5.937097900390625,-0.9661712646484375,-0.144622802734375,-0.0078277587890625
1761915652428152000,5.947152099609375,-0.9653778076171875,-0.146331787109375,-0.0078125
1761915652438206000,5.9572060546875,-0.974212646484375,-0.14923095703125,-0.006317138671875
1761915652448260000,5.967260009765625,-0.98358154296875,-0.1493377685546875,-0.002105712890625
1761915652458314000,5.97731396484375,-0.9916229248046875,-0.1482696533203125,-0.0018463134765625
1761915652468368100,5.9873681640625,-0.995941162109375,-0.1457672119140625,-0.001190185546875
1761915652478422000,5.997422119140625,-0.9978790283203125,-0.1428375244140625,-0.0008697509765625
1761915652488477000,6.007476806640625,-0.9952545166015625,-0.1402130126953125,-0.0023651123046875
1761915652498531000,6.017531005859375,-0.988677978515625,-0.1387939453125,-0.00164794921875
1761915652508585000,6.0275849609375,-0.9829559326171875,-0.143402099609375,-0.00274658203125
1761915652518639000,6.03763916015625,-0.9786529541015625,-0.1450347900390625,-0.002532958984375
1761915652528693000,6.04769287109375,-0.9774169921875,-0.146728515625,0.001190185546875
1761915652538747100,6.0577470703125,-0.984527587890625,-0.149810791015625,0.0034332275390625
1761915652548801000,6.067801025390625,-0.991455078125,-0.1527862548828125,0.004608154296875
1761915652558855200,6.077855224609375,-0.9908294677734375,-0.1522369384765625,0.0059967041015625
1761915652568909000,6.087908935546875,-0.9842681884765625,-0.1492767333984375,0.0090789794921875
1761915652578961000,6.0979609375,-0.981353759765625,-0.1479339599609375,0.0089874267578125
1761915652589015000,6.10801513671875,-0.9850616455078125,-0.151123046875,0.009765625
1761915652599069000,6.11806884765625,-0.9873199462890625,-0.149810791015625,0.012451171875
1761915652609123000,6.128123046875,-0.9908599853515625,-0.149383544921875,0.0116424560546875
1761915652619177200,6.13817724609375,-0.9954376220703125,-0.1474151611328125,0.012786865234375
1761915652629231000,6.148231201171875,-0.9960479736328125,-0.1401519775390625,0.015289306640625
1761915652639286000,6.1582861328125,-0.995147705078125,-0.1376800537109375,0.012786865234375
1761915652649340000,6.16833984375,-0.9934539794921875,-0.1358489990234375,0.01318359375
1761915652659394000,6.17839404296875,-0.9903717041015625,-0.135528564453125,0.0167083740234375
1761915652669448000,6.188447998046875,-0.9840087890625,-0.1412506103515625,0.014129638671875
1761915652679502000,6.198502197265625,-0.9729461669921875,-0.152496337890625,0.0072784423828125
1761915652689556000,6.208555908203125,-0.9616546630859375,-0.1618804931640625,0.0014495849609375
1761915652699610000,6.218610107421875,-0.9583740234375,-0.1683502197265625,-0.002471923828125
1761915652709664000,6.2286640625,-0.9577484130859375,-0.1666107177734375,0.0000762939453125
1761915652719718000,6.2387177734375,-0.9642333984375,-0.1623687744140625,0.0047149658203125
1761915652729772000,6.24877197265625,-0.9712677001953125,-0.157440185546875,0.0099945068359375
1761915652739826000,6.258825927734375,-0.9777069091796875,-0.1555328369140625,0.01123046875
1761915652749881000,6.268881103515625,-0.9844970703125,-0.1549224853515625,0.0117034912109375
1761915652759935000,6.27893505859375,-0.988433837890625,-0.157989501953125,0.0143280029296875
1761915652769989000,6.288989013671875,-0.988067626953125,-0.1612091064453125,0.0152435302734375
1761915652780043000,6.29904296875,-0.9820404052734375,-0.16217041015625,0.0130462646484375
1761915652790097000,6.309096923828125,-0.972900390625,-0.1616668701171875,0.008087158203125
1761915652800151000,6.319151123046875,-0.9647979736328125,-0.158660888671875,0.0019683837890625
1761915652810205000,6.329204833984375,-0.96392822265625,-0.157440185546875,-0.000274658203125
1761915652820259000,6.339259033203125,-0.96905517578125,-0.15777587890625,0.001190185546875
1761915652830313000,6.34931298828125,-0.972320556640625,-0.1593170166015625,0.003326416015625
1761915652840367000,6.3593671875,-0.978118896484375,-0.15936279296875,0.0075225830078125
1761915652850421000,6.3694208984375,-0.981414794921875,-0.157318115234375,0.008941650390625
1761915652860476000,6.379475830078125,-0.977783203125,-0.1531829833984375,0.010162353515625
1761915652870529800,6.38952978515625,-0.975860595703125,-0.1495208740234375,0.0063934326171875
1761915652880584000,6.399583984375,-0.9754180908203125,-0.14971923828125,0.0034332275390625
1761915652890638000,6.40963818359375,-0.9744720458984375,-0.1537933349609375,0.0052337646484375
1761915652900692000,6.41969189453125,-0.97442626953125,-0.1558837890625,0.0095672607421875
1761915652910746000,6.42974609375,-0.97857666015625,-0.1571044921875,0.012115478515625
1761915652920800000,6.439800048828125,-0.982177734375,-0.1555633544921875,0.0117340087890625
1761915652930854100,6.449854248046875,-0.9826507568359375,-0.1494598388671875,0.0111846923828125
1761915652940908000,6.459907958984375,-0.9843902587890625,-0.143524169921875,0.00848388671875
1761915652950962200,6.469962158203125,-0.97869873046875,-0.1406707763671875,0.0073394775390625
1761915652961016000,6.48001611328125,-0.974853515625,-0.1416473388671875,0.007110595703125
1761915652971070000,6.490070068359375,-0.979217529296875,-0.14794921875,0.0086822509765625
1761915652981124900,6.500124755859375,-0.9854278564453125,-0.1542816162109375,0.0132598876953125
1761915652991179000,6.510178955078125,-0.9901580810546875,-0.1569366455078125,0.016937255859375
1761915653001233200,6.520233154296875,-0.9932098388671875,-0.1602630615234375,0.0161895751953125
1761915653011287000,6.530287109375,-0.987640380859375,-0.15985107421875,0.0133514404296875
1761915653021341200,6.540341064453125,-0.978973388671875,-0.156951904296875,0.0093231201171875
1761915653031395000,6.55039501953125,-0.974151611328125,-0.154571533203125,0.0072174072265625
1761915653041449000,6.560448974609375,-0.9747161865234375,-0.155670166015625,0.0099334716796875
1761915653051502800,6.5705029296875,-0.977142333984375,-0.15618896484375,0.01324462890625
1761915653061557000,6.580556884765625,-0.97454833984375,-0.1583404541015625,0.014923095703125
1761915653071611000,6.59061083984375,-0.9721527099609375,-0.1631011962890625,0.0138092041015625
1761915653081664000,6.6006640625,-0.9649810791015625,-0.161956787109375,0.0133209228515625
1761915653091719200,6.61071923828125,-0.9599456787109375,-0.1602630615234375,0.010284423828125
1761915653101773000,6.62077294921875,-0.9637298583984375,-0.16162109375,0.0094757080078125
1761915653111827200,6.6308271484375,-0.97296142578125,-0.1629791259765625,0.0093994140625
1761915653121881000,6.640881103515625,-0.98126220703125,-0.161895751953125,0.01171875
1761915653131935200,6.650935302734375,-0.9827423095703125,-0.158233642578125,0.015380859375
1761915653141989000,6.660989013671875,-0.9798583984375,-0.1555938720703125,0.0136871337890625
1761915653152043000,6.67104296875,-0.9739837646484375,-0.1520233154296875,0.0086517333984375
1761915653162099200,6.68109912109375,-0.9695892333984375,-0.151123046875,0.0059051513671875
1761915653172153000,6.691153076171875,-0.9661407470703125,-0.1523895263671875,0.0039520263671875
1761915653182207200,6.701207275390625,-0.9682464599609375,-0.154632568359375,0.006103515625
1761915653192260900,6.7112607421875,-0.9762115478515625,-0.1515655517578125,0.0096435546875
1761915653202315000,6.72131494140625,-0.986053466796875,-0.145355224609375,0.0130767822265625
1761915653212369000,6.731368896484375,-0.9960479736328125,-0.1415252685546875,0.017242431640625
1761915653222423000,6.741423095703125,-0.994964599609375,-0.1409454345703125,0.0173492431640625
1761915653232477200,6.751477294921875,-0.9899139404296875,-0.1456451416015625,0.015960693359375
1761915653242531000,6.761531005859375,-0.9767303466796875,-0.1524505615234375,0.0142364501953125
1761915653252586200,6.771586181640625,-0.965301513671875,-0.1605377197265625,0.01202392578125
1761915653262639900,6.781639892578125,-0.96002197265625,-0.1653594970703125,0.0103912353515625
1761915653272694000,6.791694091796875,-0.965240478515625,-0.1681365966796875,0.0093994140625
1761915653282748000,6.801747802734375,-0.97503662109375,-0.165924072265625,0.011810302734375
1761915653292802000,6.811802001953125,-0.9795684814453125,-0.1653289794921875,0.0162353515625
1761915653302856000,6.82185595703125,-0.9804840087890625,-0.168182373046875,0.018707275390625
1761915653312910000,6.83191015625,-0.9786834716796875,-0.1662445068359375,0.0203857421875
1761915653322964200,6.841964111328125,-0.972808837890625,-0.1645355224609375,0.020233154296875
1761915653333018000,6.85201806640625,-0.9736480712890625,-0.1623687744140625,0.0212554931640625
1761915653343072300,6.862072265625,-0.97979736328125,-0.16290283203125,0.019378662109375
1761915653353126100,6.872126220703125,-0.9844207763671875,-0.165802001953125,0.02105712890625
1761915653363181000,6.88218115234375,-0.9876251220703125,-0.1703948974609375,0.0214691162109375
1761915653373235000,6.89223486328125,-0.9868621826171875,-0.1728363037109375,0.0218353271484375
1761915653383289000,6.9022890625,-0.9835662841796875,-0.1707916259765625,0.02325439453125
1761915653393343000,6.912343017578125,-0.9819793701171875,-0.16851806640625,0.0215606689453125
1761915653403397000,6.922397216796875,-0.98406982421875,-0.1652374267578125,0.018280029296875
1761915653413451300,6.932451171875,-0.9897003173828125,-0.1597900390625,0.017364501953125
1761915653423505200,6.942505126953125,-0.9974212646484375,-0.157012939453125,0.0179595947265625
1761915653433559300,6.952559326171875,-0.997711181640625,-0.1555633544921875,0.0167083740234375
1761915653443613000,6.962613037109375,-0.9888916015625,-0.1566009521484375,0.01519775390625
1761915653453667000,6.9726669921875,-0.973052978515625,-0.1610870361328125,0.0110321044921875
1761915653463721000,6.982720947265625,-0.9718017578125,-0.1642913818359375,0.01123046875
1761915653473776000,6.992776123046875,-0.9724578857421875,-0.1593780517578125,0.019287109375
1761915653483830000,7.002830078125,-0.980133056640625,-0.162689208984375,0.0157470703125
1761915653493884200,7.01288427734375,-0.9900970458984375,-0.165435791015625,0.0140533447265625
1761915653503938300,7.022938232421875,-0.9954376220703125,-0.15325927734375,0.022186279296875
1761915653513992200,7.0329921875,-0.99371337890625,-0.158721923828125,0.020538330078125
1761915653524046000,7.043046142578125,-0.98321533203125,-0.1648406982421875,0.0092926025390625
1761915653534100000,7.053099853515625,-0.9727325439453125,-0.158111572265625,0.0151519775390625
1761915653544154000,7.063154052734375,-0.976165771484375,-0.154388427734375,0.013580322265625
1761915653554208000,7.0732080078125,-0.9741668701171875,-0.14764404296875,0.01165771484375
1761915653564262100,7.08326220703125,-0.971099853515625,-0.1442413330078125,0.0079803466796875
1761915653574316000,7.09331591796875,-0.9748687744140625,-0.1462554931640625,0.0070343017578125
1761915653584371200,7.10337109375,-0.979888916015625,-0.15118408203125,0.009552001953125
1761915653594425000,7.113425048828125,-0.982330322265625,-0.156707763671875,0.0106964111328125
1761915653604479000,7.12347900390625,-0.975189208984375,-0.161865234375,0.012603759765625
1761915653614533000,7.133533203125,-0.9648895263671875,-0.1638336181640625,0.013031005859375
1761915653624587000,7.1435869140625,-0.9617919921875,-0.165740966796875,0.01666259765625
1761915653634641200,7.15364111328125,-0.9680328369140625,-0.1681976318359375,0.0214996337890625
1761915653644695000,7.163695068359375,-0.9788665771484375,-0.16851806640625,0.0252532958984375
1761915653654749200,7.173749267578125,-0.982666015625,-0.1667327880859375,0.029388427734375
1761915653664803000,7.183802978515625,-0.9806976318359375,-0.1606292724609375,0.0305938720703125
1761915653674857200,7.193857177734375,-0.9841766357421875,-0.157257080078125,0.0322113037109375
1761915653684911900,7.203911865234375,-0.9850921630859375,-0.1553802490234375,0.0333251953125
1761915653694966000,7.213966064453125,-0.982818603515625,-0.1585235595703125,0.0326690673828125
1761915653705020200,7.224020263671875,-0.9761505126953125,-0.16265869140625,0.0287933349609375
1761915653715074000,7.234073974609375,-0.969879150390625,-0.1655731201171875,0.025054931640625
1761915653725128200,7.244128173828125,-0.964752197265625,-0.16717529296875,0.0220184326171875
1761915653735182000,7.25418212890625,-0.9616546630859375,-0.1678009033203125,0.0190887451171875
1761915653745236200,7.264236328125,-0.9593505859375,-0.1678009033203125,0.0186767578125
1761915653755290000,7.2742900390625,-0.961090087890625,-0.1695404052734375,0.0198516845703125
1761915653765344300,7.28434423828125,-0.9649505615234375,-0.17095947265625,0.0208892822265625
1761915653775398000,7.29439794921875,-0.9707489013671875,-0.1654510498046875,0.019927978515625
1761915653785452000,7.3044521484375,-0.974365234375,-0.1717529296875,0.009796142578125
1761915653795506000,7.314505859375,-0.9665069580078125,-0.1622161865234375,0.0078125
1761915653805561000,7.32456103515625,-0.964385986328125,-0.1557769775390625,0.00762939453125
1761915653815615200,7.334615234375,-0.962860107421875,-0.1551666259765625,0.009979248046875
1761915653825669000,7.344669189453125,-0.97344970703125,-0.15899658203125,0.0114288330078125
1761915653835723300,7.35472314453125,-0.985137939453125,-0.1646881103515625,0.0164337158203125
1761915653845777200,7.364777099609375,-0.9980316162109375,-0.166229248046875,0.0198974609375
1761915653855831000,7.3748310546875,-1.005218505859375,-0.1620330810546875,0.027008056640625
1761915653865885000,7.384885009765625,-1.00592041015625,-0.1562347412109375,0.029510498046875
1761915653875939000,7.39493896484375,-1.0023193359375,-0.155059814453125,0.0213165283203125
1761915653885993000,7.404992919921875,-0.9935302734375,-0.14306640625,0.0234832763671875
1761915653896047000,7.415047119140625,-0.9935760498046875,-0.137939453125,0.023651123046875
1761915653906101000,7.42510107421875,-0.9980621337890625,-0.1399993896484375,0.0228729248046875
1761915653916156200,7.43515625,-1.003265380859375,-0.1421966552734375,0.0259552001953125
1761915653926210000,7.4452099609375,-1.0013275146484375,-0.14349365234375,0.029449462890625
1761915653936264000,7.455263916015625,-1.0160064697265625,-0.1474761962890625,0.0288543701171875
1761915653946318000,7.465318115234375,-1.0073699951171875,-0.1454925537109375,0.034393310546875
1761915653956372000,7.4753720703125,-0.9890899658203125,-0.151885986328125,0.0278167724609375
1761915653966426000,7.485426025390625,-0.9733123779296875,-0.1612548828125,0.020477294921875
1761915653976480000,7.49547998046875,-0.9667205810546875,-0.1663818359375,0.0161285400390625
1761915653986534100,7.5055341796875,-0.97283935546875,-0.1707000732421875,0.015716552734375
1761915653996588000,7.515588134765625,-0.9776458740234375,-0.1688385009765625,0.016021728515625
1761915654006642200,7.52564208984375,-0.9795684814453125,-0.1621246337890625,0.0172882080078125
1761915654016697000,7.535697021484375,-0.98223876953125,-0.1594390869140625,0.0163421630859375
1761915654026751000,7.5457509765625,-0.980072021484375,-0.1549072265625,0.019683837890625
1761915654036805000,7.55580517578125,-0.9805145263671875,-0.160919189453125,0.0170745849609375
1761915654046859000,7.56585888671875,-0.983642578125,-0.1694183349609375,0.0120391845703125
1761915654056913200,7.5759130859375,-0.9837493896484375,-0.1728057861328125,0.0122528076171875
1761915654066967000,7.585967041015625,-0.9937896728515625,-0.1711273193359375,0.011993408203125
1761915654077021200,7.596021240234375,-0.9915008544921875,-0.1654052734375,0.0133056640625
1761915654087075000,7.606074951171875,-0.9712677001953125,-0.163421630859375,0.00439453125
1761915654097129200,7.616129150390625,-0.9665069580078125,-0.1589508056640625,0.0019989013671875
1761915654107183000,7.62618310546875,-0.962860107421875,-0.15863037109375,-0.0010223388671875
1761915654117237000,7.636237060546875,-0.958526611328125,-0.1618499755859375,-0.0084075927734375
1761915654127292200,7.646292236328125,-0.95477294921875,-0.1627349853515625,-0.0086822509765625
1761915654137346000,7.656345947265625,-0.9622802734375,-0.1627044677734375,-0.0036468505859375
1761915654147400200,7.666400146484375,-0.976318359375,-0.162322998046875,0.0011749267578125
1761915654157454000,7.6764541015625,-0.984161376953125,-0.1636962890625,-0.0004119873046875
1761915654167508200,7.68650830078125,-0.98297119140625,-0.1671905517578125,-0.004241943359375
1761915654177562000,7.69656201171875,-0.979705810546875,-0.1647186279296875,-0.006195068359375
1761915654187616000,7.706615966796875,-0.9773406982421875,-0.15802001953125,-0.00677490234375
1761915654197670000,7.716669921875,-0.97357177734375,-0.156951904296875,-0.0063323974609375
1761915654207724000,7.72672412109375,-0.97021484375,-0.1585235595703125,-0.005340576171875
1761915654217778000,7.73677783203125,-0.972503662109375,-0.1647796630859375,-0.0063018798828125
1761915654227832000,7.74683203125,-0.96710205078125,-0.170501708984375,-0.009735107421875
1761915654237887200,7.75688720703125,-0.953399658203125,-0.175262451171875,-0.0126953125
1761915654247941000,7.766941162109375,-0.943450927734375,-0.17822265625,-0.0140838623046875
1761915654257995000,7.7769951171875,-0.9469146728515625,-0.1794891357421875,-0.0106353759765625
1761915654268049000,7.787048828125,-0.96527099609375,-0.178741455078125,-0.0062103271484375
1761915654278103000,7.79710302734375,-0.9835968017578125,-0.17510986328125,0.003509521484375
1761915654288157000,7.807156982421875,-0.9924774169921875,-0.16766357421875,0.0121917724609375
1761915654298211000,7.817211181640625,-0.98895263671875,-0.161468505859375,0.0108489990234375
1761915654308265000,7.827264892578125,-0.9795989990234375,-0.15997314453125,0.0062713623046875
1761915654318319000,7.837319091796875,-0.977081298828125,-0.160308837890625,0.00421142578125
1761915654328373200,7.847373291015625,-0.9778594970703125,-0.16058349609375,0.005035400390625
1761915654338427100,7.85742724609375,-0.9816131591796875,-0.1610107421875,0.008514404296875
1761915654348482000,7.86748193359375,-0.99102783203125,-0.1652679443359375,0.0095367431640625
1761915654358536000,7.877535888671875,-0.996826171875,-0.16845703125,0.0122222900390625
1761915654368590000,7.887590087890625,-0.9934234619140625,-0.173583984375,0.01544189453125
1761915654378644000,7.89764404296875,-0.985931396484375,-0.177398681640625,0.016326904296875
1761915654388698000,7.907697998046875,-0.9732818603515625,-0.17816162109375,0.0160980224609375
1761915654398752000,7.917751953125,-0.965362548828125,-0.1789398193359375,0.0142364501953125
1761915654408806100,7.92780615234375,-0.9749603271484375,-0.181640625,0.0107574462890625
1761915654418860300,7.9378603515625,-0.9913787841796875,-0.1804351806640625,0.011688232421875
1761915654428914200,7.9479140625,-0.9951019287109375,-0.171234130859375,0.0118865966796875
1761915654438968000,7.957968017578125,-0.9891510009765625,-0.163360595703125,0.006622314453125
1761915654449022000,7.96802197265625,-0.9768829345703125,-0.153839111328125,0.00250244140625
1761915654459077000,7.9780771484375,-0.9712677001953125,-0.1490478515625,0.0004119873046875
1761915654469131000,7.988131103515625,-0.9710693359375,-0.1467132568359375,0.0013275146484375
1761915654479185200,7.99818505859375,-0.97216796875,-0.1483917236328125,0.0068359375
1761915654489239000,8.008239013671876,-0.987884521484375,-0.156524658203125,0.0052642822265625
1761915654499293200,8.018293212890624,-0.9980010986328125,-0.154510498046875,0.006195068359375
1761915654509347000,8.02834716796875,-0.985137939453125,-0.149993896484375,0.008087158203125
1761915654519401000,8.03840087890625,-0.980438232421875,-0.1531524658203125,0.0023651123046875
1761915654529455000,8.048455078125,-0.9869384765625,-0.1530914306640625,0.0022430419921875
1761915654539509000,8.058509033203125,-0.9828643798828125,-0.1517181396484375,0.007110595703125
1761915654549563100,8.068563232421875,-0.9830322265625,-0.1544647216796875,0.006591796875
1761915654559618000,8.0786181640625,-0.9814605712890625,-0.1549530029296875,0.0072021484375
1761915654569672200,8.088672119140625,-0.981231689453125,-0.1544647216796875,0.007843017578125
1761915654579726000,8.09872607421875,-0.98455810546875,-0.1530303955078125,0.004852294921875
1761915654589780000,8.108780029296875,-0.98687744140625,-0.1510772705078125,0.0030059814453125
1761915654599833900,8.118833740234376,-0.992523193359375,-0.149444580078125,0.0055389404296875
1761915654609888000,8.128887939453126,-0.9970550537109375,-0.1496429443359375,0.00823974609375
1761915654619942100,8.138942138671876,-1.0007171630859375,-0.149810791015625,0.0121307373046875
1761915654629996000,8.14899609375,-0.9955596923828125,-0.1500396728515625,0.0136260986328125
1761915654640050200,8.15905029296875,-0.9863128662109375,-0.152313232421875,0.011077880859375
1761915654650104000,8.16910400390625,-0.9803009033203125,-0.1552734375,0.0035552978515625
1761915654660158200,8.179158203125,-0.978485107421875,-0.1551361083984375,0.000823974609375
1761915654670212900,8.189212890625,-0.97760009765625,-0.1594085693359375,-0.002685546875
1761915654680267000,8.19926708984375,-0.9720306396484375,-0.1632232666015625,-0.0046234130859375
1761915654690321000,8.20932080078125,-0.96343994140625,-0.1627197265625,-0.0039825439453125
1761915654700375000,8.219375,-0.95916748046875,-0.1655731201171875,-0.007598876953125
1761915654710429200,8.22942919921875,-0.9602508544921875,-0.1667022705078125,-0.0054168701171875
1761915654720483000,8.239483154296876,-0.9650726318359375,-0.167327880859375,0.0025482177734375
1761915654730537200,8.249537109375,-0.97479248046875,-0.16864013671875,0.006927490234375
1761915654740591000,8.259591064453126,-0.9848480224609375,-0.16748046875,0.008575439453125
1761915654750645200,8.269645263671874,-0.9908294677734375,-0.162750244140625,0.0081939697265625
1761915654760699100,8.27969921875,-0.9962615966796875,-0.156494140625,0.0109100341796875
1761915654770753000,8.2897529296875,-0.9988555908203125,-0.155975341796875,0.0111236572265625
1761915654780808000,8.299807861328125,-0.9944305419921875,-0.1565399169921875,0.0097503662109375
1761915654790862000,8.309862060546875,-0.9858856201171875,-0.1595611572265625,0.0091400146484375
1761915654800916200,8.319916259765625,-0.976104736328125,-0.1644134521484375,0.00933837890625
1761915654810970000,8.32997021484375,-0.971954345703125,-0.16839599609375,0.005828857421875
1761915654821024300,8.340024169921875,-0.9764556884765625,-0.1684722900390625,0.0034942626953125
1761915654831078100,8.350078125,-0.9864959716796875,-0.1627960205078125,0.0052490234375
1761915654841132300,8.36013232421875,-0.99200439453125,-0.1590728759765625,0.007965087890625
1761915654851186000,8.37018603515625,-0.9918670654296875,-0.1601409912109375,0.0098724365234375
1761915654861240000,8.380239990234376,-0.9854278564453125,-0.1615447998046875,0.0058746337890625
1761915654871294000,8.3902939453125,-0.977783203125,-0.1628265380859375,0.004119873046875
1761915654881349000,8.40034912109375,-0.977264404296875,-0.1631317138671875,0.003509521484375
1761915654891403000,8.410403076171875,-0.9781036376953125,-0.1633453369140625,0.0043182373046875
1761915654901457200,8.42045703125,-0.9832916259765625,-0.16326904296875,0.00341796875
1761915654911511300,8.43051123046875,-0.988800048828125,-0.1628570556640625,0.00592041015625
1761915654921565000,8.44056494140625,-0.990509033203125,-0.1612548828125,0.0066070556640625
1761915654931619000,8.450619140625,-0.9925384521484375,-0.1620330810546875,0.0080413818359375
1761915654941673000,8.4606728515625,-0.99530029296875,-0.16094970703125,0.0103302001953125
1761915654951727000,8.47072705078125,-1.005584716796875,-0.15594482421875,0.0147552490234375
1761915654961781000,8.480781005859376,-1.0050506591796875,-0.1519927978515625,0.0133209228515625
1761915654971835100,8.490835205078126,-0.9911346435546875,-0.1498565673828125,0.0096435546875
1761915654981889000,8.500888916015626,-0.9815826416015625,-0.1534271240234375,0.0050201416015625
1761915654991944200,8.510944091796874,-0.979217529296875,-0.1577606201171875,0.0034942626953125
1761915655001998000,8.520998046875,-0.98101806640625,-0.1618194580078125,0.0059661865234375
1761915655012052000,8.531052001953125,-0.984375,-0.1685028076171875,0.005523681640625
1761915655022106000,8.541106201171875,-0.9824981689453125,-0.1720428466796875,0.003936767578125
1761915655032160000,8.551159912109375,-0.971405029296875,-0.1689910888671875,0.00604248046875
1761915655042214100,8.561214111328125,-0.966583251953125,-0.1638641357421875,0.0089111328125
1761915655052268000,8.57126806640625,-0.9683837890625,-0.1645355224609375,0.008331298828125
1761915655062322200,8.581322265625,-0.9701995849609375,-0.1701507568359375,0.0041046142578125
1761915655072376000,8.5913759765625,-0.9661102294921875,-0.17462158203125,0.0015106201171875
1761915655082431200,8.60143115234375,-0.9588623046875,-0.1792144775390625,0.005126953125
1761915655092485000,8.611485107421874,-0.954010009765625,-0.17974853515625,0.007476806640625
1761915655102540300,8.621540283203124,-0.96112060546875,-0.1745758056640625,0.0073394775390625
1761915655112594200,8.63159423828125,-0.97210693359375,-0.165924072265625,0.00933837890625
1761915655122648300,8.6416484375,-0.981475830078125,-0.16351318359375,0.0077362060546875
1761915655132702200,8.6517021484375,-0.9833984375,-0.1646728515625,0.0048980712890625
1761915655142756000,8.661756103515625,-0.978485107421875,-0.1705474853515625,0.00384521484375
1761915655152810000,8.67181005859375,-0.97607421875,-0.1780853271484375,0.0039215087890625
1761915655162864000,8.681864013671875,-0.977081298828125,-0.1788330078125,0.00360107421875
1761915655172918300,8.691918212890625,-0.980133056640625,-0.1733551025390625,0.0023651123046875
1761915655182972200,8.70197216796875,-0.9829864501953125,-0.1671905517578125,-0.0009613037109375
1761915655193026300,8.7120263671875,-0.9821319580078125,-0.161041259765625,-0.00390625
1761915655203081200,8.722081298828124,-0.9789276123046875,-0.1606597900390625,-0.005950927734375
1761915655213135400,8.73213525390625,-0.9772186279296875,-0.1606903076171875,-0.007080078125
1761915655223189000,8.74218896484375,-0.9734344482421875,-0.1624603271484375,-0.006622314453125
1761915655233243100,8.7522431640625,-0.9700164794921875,-0.164947509765625,-0.002349853515625
1761915655243297000,8.762297119140625,-0.96881103515625,-0.17010498046875,-0.0000762939453125
1761915655253351200,8.77235107421875,-0.964508056640625,-0.1736602783203125,0.0014495849609375
1761915655263405300,8.7824052734375,-0.9600982666015625,-0.1785125732421875,0.0012664794921875
1761915655273459200,8.792459228515625,-0.9560699462890625,-0.1822662353515625,-0.0004119873046875
1761915655283513300,8.802513427734375,-0.952880859375,-0.177642822265625,-0.000091552734375
1761915655293567200,8.812567138671875,-0.9552764892578125,-0.1739044189453125,0.0003662109375
1761915655303621400,8.822621337890626,-0.9647979736328125,-0.1698760986328125,-0.0015411376953125
1761915655313676000,8.832676025390626,-0.9770965576171875,-0.1667633056640625,0.000946044921875
1761915655323730200,8.842730224609374,-0.9859466552734375,-0.1688079833984375,0.004058837890625
1761915655333784000,8.8527841796875,-0.9875030517578125,-0.173858642578125,0.00482177734375
1761915655343838200,8.862838134765624,-0.9796295166015625,-0.1794281005859375,0.005523681640625
1761915655353892000,8.87289208984375,-0.968017578125,-0.185638427734375,0.003387451171875
1761915655363946200,8.8829462890625,-0.9640350341796875,-0.1879730224609375,0.0013885498046875
1761915655374000400,8.89300048828125,-0.9678955078125,-0.188140869140625,0.0035247802734375
1761915655384054300,8.90305419921875,-0.975860595703125,-0.1848602294921875,0.0035552978515625
1761915655394108400,8.9131083984375,-0.9832611083984375,-0.1819305419921875,0.0025482177734375
1761915655404162000,8.923162109375,-0.9822235107421875,-0.1777801513671875,0.0030670166015625
1761915655414217200,8.93321728515625,-0.976654052734375,-0.1761016845703125,0.0024871826171875
1761915655424271000,8.94327099609375,-0.9729156494140625,-0.1795654296875,0.0032806396484375
1761915655434325200,8.9533251953125,-0.9744873046875,-0.181396484375,0.003631591796875
1761915655444379100,8.963379150390624,-0.974151611328125,-0.177764892578125,0.0005035400390625
1761915655454433300,8.973433349609374,-0.9727630615234375,-0.1697998046875,-0.0022430419921875
1761915655464487400,8.9834873046875,-0.971221923828125,-0.1624755859375,-0.0073089599609375
1761915655474541300,8.993541259765625,-0.9661102294921875,-0.1578216552734375,-0.0101776123046875
1761915655484595200,9.00359521484375,-0.960296630859375,-0.1620941162109375,-0.0099334716796875
1761915655494649000,9.013649169921875,-0.9639892578125,-0.173919677734375,-0.010986328125
1761915655504703200,9.023703125,-0.968994140625,-0.18206787109375,-0.0099334716796875
1761915655514757000,9.033757080078125,-0.9676361083984375,-0.178497314453125,-0.0019378662109375
1761915655524812300,9.043812255859375,-0.96527099609375,-0.165802001953125,0.0045318603515625
1761915655534866200,9.0538662109375,-0.971954345703125,-0.1653900146484375,0.00152587890625
1761915655544920300,9.06392041015625,-0.971099853515625,-0.164459228515625,-0.0021209716796875
1761915655554974200,9.07397412109375,-0.9685516357421875,-0.1639404296875,-0.0057220458984375
1761915655565028000,9.084028076171874,-0.9697113037109375,-0.1620025634765625,-0.00311279296875
1761915655575082200,9.094082275390624,-0.9761505126953125,-0.160736083984375,0.003173828125
1761915655585136000,9.10413623046875,-0.9894256591796875,-0.160308837890625,0.007110595703125
1761915655595190300,9.114190185546875,-0.998260498046875,-0.157318115234375,0.0077056884765625
1761915655605244200,9.124244140625,-0.995025634765625,-0.157928466796875,0.0067138671875
1761915655615298300,9.13429833984375,-0.98822021484375,-0.1634674072265625,0.002685546875
1761915655625352200,9.144352294921875,-0.9846649169921875,-0.1724090576171875,0.0019378662109375
1761915655635407000,9.154406982421875,-0.9820709228515625,-0.1768341064453125,0.0028839111328125
1761915655645461200,9.164461181640625,-0.9810028076171875,-0.178741455078125,0.0021514892578125
1761915655655515100,9.17451513671875,-0.9836883544921875,-0.1766815185546875,0.001312255859375
1761915655665569300,9.1845693359375,-0.9863739013671875,-0.1735382080078125,0.000518798828125
1761915655675623200,9.194623046875,-0.985931396484375,-0.167877197265625,-0.00360107421875
1761915655685677300,9.20467724609375,-0.9803466796875,-0.1619415283203125,-0.0034942626953125
1761915655695731200,9.214731201171874,-0.9748382568359375,-0.158203125,-0.0029449462890625
1761915655705785300,9.224785400390624,-0.9752655029296875,-0.158843994140625,-0.0034027099609375
1761915655715839200,9.234839111328125,-0.9795074462890625,-0.1572265625,0.0003509521484375
1761915655725893400,9.244893310546875,-0.984893798828125,-0.158538818359375,0.0053863525390625
1761915655735948000,9.254947998046875,-0.9853057861328125,-0.162109375,0.0072174072265625
1761915655746002200,9.265002197265625,-0.98162841796875,-0.167999267578125,0.0075225830078125
1761915655756056300,9.275056396484375,-0.9742889404296875,-0.17010498046875,0.0086517333984375
1761915655766110200,9.285110107421875,-0.9676361083984375,-0.1716156005859375,0.008819580078125
1761915655776164400,9.295164306640626,-0.9668121337890625,-0.17254638671875,0.0084381103515625
1761915655786218200,9.30521826171875,-0.9677886962890625,-0.1716461181640625,0.008514404296875
1761915655796272400,9.3152724609375,-0.96453857421875,-0.1727447509765625,0.008331298828125
1761915655806326300,9.325326171875,-0.96466064453125,-0.175384521484375,0.0078125
1761915655816380200,9.335380126953124,-0.96795654296875,-0.173187255859375,0.0102386474609375
1761915655826434000,9.34543408203125,-0.973846435546875,-0.16925048828125,0.013336181640625
1761915655836488200,9.35548828125,-0.986175537109375,-0.1684112548828125,0.01605224609375
1761915655846543400,9.36554345703125,-0.9975738525390625,-0.1658172607421875,0.017425537109375
1761915655856597200,9.37559716796875,-0.998626708984375,-0.162384033203125,0.0177001953125
1761915655866651400,9.3856513671875,-0.995208740234375,-0.160736083984375,0.0154876708984375
1761915655876705300,9.395705322265625,-0.990234375,-0.16168212890625,0.0146026611328125
1761915655886759200,9.40575927734375,-0.98193359375,-0.1645660400390625,0.0133514404296875
1761915655896813000,9.41581298828125,-0.976898193359375,-0.1684417724609375,0.01422119140625
1761915655906867200,9.4258671875,-0.9797210693359375,-0.1730499267578125,0.014129638671875
1761915655916921000,9.435921142578126,-0.98406982421875,-0.174407958984375,0.01214599609375
1761915655926975200,9.445975341796874,-0.985443115234375,-0.1727752685546875,0.012542724609375
1761915655937029000,9.456029052734374,-0.98468017578125,-0.1704864501953125,0.01043701171875
1761915655947083300,9.466083251953124,-0.9826202392578125,-0.16961669921875,0.0073394775390625
1761915655957138200,9.47613818359375,-0.9764556884765625,-0.1669769287109375,0.005523681640625
1761915655967192000,9.486192138671875,-0.9698944091796875,-0.1637725830078125,0.0004730224609375
1761915655977246200,9.49624609375,-0.9694976806640625,-0.162872314453125,-0.0051727294921875
1761915655987300000,9.506300048828125,-0.9726715087890625,-0.15960693359375,-0.0037841796875
1761915655997354200,9.516354248046875,-0.975860595703125,-0.1556549072265625,-0.0000762939453125
1761915656007408000,9.526408203125,-0.9734649658203125,-0.1564788818359375,0.0011138916015625
1761915656017462300,9.536462158203125,-0.9747772216796875,-0.1604461669921875,0.0006866455078125
1761915656027516200,9.54651611328125,-0.9783172607421875,-0.16448974609375,0.0020904541015625
1761915656037570300,9.5565703125,-0.9845428466796875,-0.1629791259765625,0.0075225830078125
1761915656047624200,9.566624267578124,-0.9843902587890625,-0.15740966796875,0.010589599609375
1761915656057678300,9.57667822265625,-0.985565185546875,-0.1512908935546875,0.0109405517578125
1761915656067733200,9.586733154296875,-0.9839324951171875,-0.15032958984375,0.0106964111328125
1761915656077787100,9.596787109375,-0.9806365966796875,-0.1535186767578125,0.0075225830078125
1761915656087843800,9.60684375,-0.9676666259765625,-0.1607208251953125,0.0041656494140625
1761915656097897700,9.616897705078125,-0.955963134765625,-0.1696624755859375,0.0016021728515625
1761915656107951900,9.626951904296876,-0.9528961181640625,-0.1725311279296875,0.002899169921875
1761915656118005800,9.637005859375,-0.9582977294921875,-0.174224853515625,0.008392333984375
1761915656128060000,9.647059814453126,-0.9727630615234375,-0.1750030517578125,0.012359619140625
1761915656138114000,9.657114013671874,-0.984466552734375,-0.1713714599609375,0.0141143798828125
1761915656148168000,9.66716796875,-0.9834747314453125,-0.168487548828125,0.0115814208984375
1761915656158222000,9.67722216796875,-0.982086181640625,-0.16680908203125,0.0073699951171875
1761915656168276700,9.68727685546875,-0.985687255859375,-0.166748046875,0.008514404296875
1761915656178331000,9.697330810546875,-0.9937286376953125,-0.1680908203125,0.0110321044921875
1761915656188384800,9.707384765625,-0.9981689453125,-0.168182373046875,0.0138702392578125
1761915656198439000,9.71743896484375,-0.995880126953125,-0.16748046875,0.015289306640625
1761915656208492800,9.727492919921875,-0.9857635498046875,-0.167938232421875,0.0114898681640625
1761915656218547000,9.737546875,-0.9785003662109375,-0.1669769287109375,0.0068817138671875
1761915656228601000,9.74760107421875,-0.9750213623046875,-0.164154052734375,0.0069580078125
1761915656238655000,9.757655029296876,-0.9819183349609375,-0.160858154296875,0.006256103515625
1761915656248708900,9.767708984375,-0.99169921875,-0.1565399169921875,0.0054779052734375
1761915656258762800,9.7777626953125,-1.00042724609375,-0.154296875,0.0071868896484375
1761915656268818000,9.78781787109375,-1.0047454833984375,-0.1538848876953125,0.006866455078125
1761915656278871800,9.797871826171875,-1.0009002685546875,-0.1553192138671875,0.005645751953125
1761915656288926000,9.807926025390625,-0.995941162109375,-0.156829833984375,0.0035552978515625
1761915656298979800,9.817979736328125,-0.986968994140625,-0.1549224853515625,0.0020294189453125
1761915656309034000,9.828033935546875,-0.9775238037109375,-0.1540069580078125,0.0022735595703125
1761915656319087900,9.838087890625,-0.9738616943359375,-0.156463623046875,0.0009918212890625
1761915656329141800,9.848141845703125,-0.9806060791015625,-0.158721923828125,0.0001373291015625
1761915656339196000,9.85819580078125,-0.9914398193359375,-0.1562042236328125,0.0054779052734375
1761915656349249800,9.868249755859376,-0.9921417236328125,-0.1560516357421875,0.0078125
1761915656359304000,9.878303955078126,-0.9884033203125,-0.1620941162109375,0.0063323974609375
1761915656369357800,9.88835791015625,-0.9788970947265625,-0.169708251953125,0.0061798095703125
1761915656379413000,9.8984130859375,-0.965301513671875,-0.176422119140625,0.005645751953125
1761915656389467000,9.908466796875,-0.94940185546875,-0.17889404296875,0.00238037109375
1761915656399520800,9.918520751953125,-0.942535400390625,-0.17559814453125,-0.003204345703125
1761915656409575000,9.928574951171875,-0.948089599609375,-0.169036865234375,-0.006561279296875
1761915656419628800,9.93862890625,-0.9581451416015625,-0.15899658203125,-0.0064697265625
1761915656429683000,9.948682861328125,-0.964141845703125,-0.15313720703125,-0.0082855224609375
1761915656439736800,9.95873681640625,-0.9599456787109375,-0.1468658447265625,-0.015594482421875
1761915656449791000,9.968791015625,-0.9678955078125,-0.146575927734375,-0.0157470703125
1761915656459844900,9.978844970703125,-0.9736785888671875,-0.1468963623046875,-0.0151824951171875
1761915656469899000,9.98889892578125,-0.9881439208984375,-0.1474609375,-0.011932373046875
1761915656479953700,9.99895361328125,-0.996429443359375,-0.14495849609375,-0.0040435791015625
1761915656490007800,10.0090078125,-0.9925537109375,-0.141754150390625,-0.0093994140625
1761915656500062000,10.01906201171875,-0.9893646240234375,-0.1385498046875,-0.0182342529296875
1761915656510115800,10.02911572265625,-0.9871368408203125,-0.13604736328125,-0.021575927734375
1761915656520170000,10.039169921875,-0.9813079833984375,-0.137298583984375,-0.02264404296875
1761915656530223900,10.049223876953125,-0.974334716796875,-0.142181396484375,-0.0200347900390625
1761915656540278000,10.059278076171875,-0.981170654296875,-0.15130615234375,-0.0130767822265625
1761915656550332000,10.069331787109375,-0.999664306640625,-0.1566009521484375,-0.004608154296875
1761915656560386000,10.079385986328125,-1.0124664306640625,-0.1563873291015625,0.002899169921875
1761915656570440000,10.08943994140625,-1.0094451904296875,-0.154449462890625,0.002655029296875
1761915656580493000,10.0994931640625,-0.9968414306640625,-0.155426025390625,-0.002349853515625
1761915656590547000,10.109546875,-0.9792022705078125,-0.156829833984375,-0.0082855224609375
1761915656600600800,10.119600830078125,-0.965118408203125,-0.160003662109375,-0.0095672607421875
1761915656610654700,10.12965478515625,-0.963409423828125,-0.1652069091796875,-0.0088653564453125
1761915656620708900,10.139708984375,-0.972381591796875,-0.168670654296875,-0.005218505859375
1761915656630762800,10.1497626953125,-0.977783203125,-0.1651153564453125,-0.0030670166015625
1761915656640818000,10.15981787109375,-0.97796630859375,-0.161407470703125,-0.0036468505859375
1761915656650871800,10.169871826171875,-0.9769287109375,-0.1581268310546875,-0.0049591064453125
1761915656660926000,10.179926025390625,-0.981048583984375,-0.1563568115234375,-0.003997802734375
1761915656670980000,10.18997998046875,-0.9892730712890625,-0.1569976806640625,0.00164794921875
1761915656681033700,10.20003369140625,-0.9883880615234375,-0.15875244140625,0.003814697265625
1761915656691088000,10.210087890625,-0.9812469482421875,-0.1587677001953125,0.001739501953125
1761915656701141800,10.220141845703125,-0.9750213623046875,-0.1552276611328125,-0.0023956298828125
1761915656711196000,10.23019580078125,-0.970977783203125,-0.15057373046875,-0.0035552978515625
1761915656721249800,10.240249755859375,-0.97259521484375,-0.1517791748046875,-0.0050811767578125
1761915656731304000,10.250303955078126,-0.9757843017578125,-0.1545562744140625,-0.0058746337890625
1761915656741357800,10.26035791015625,-0.9766998291015625,-0.155303955078125,-0.006317138671875
1761915656751413000,10.2704130859375,-0.9739837646484375,-0.156280517578125,-0.005126953125
1761915656761467000,10.280466796875,-0.9681396484375,-0.15582275390625,-0.00665283203125
1761915656771520800,10.290520751953125,-0.9648895263671875,-0.153961181640625,-0.0092010498046875
1761915656781575000,10.300574951171875,-0.968719482421875,-0.152313232421875,-0.01031494140625
1761915656791628800,10.31062890625,-0.9825286865234375,-0.1522979736328125,-0.009918212890625
1761915656801683000,10.320682861328125,-0.99200439453125,-0.15509033203125,-0.0060272216796875
1761915656811736800,10.33073681640625,-0.992095947265625,-0.15521240234375,-0.0041656494140625
1761915656821791000,10.340791015625,-0.9875640869140625,-0.1561431884765625,-0.002716064453125
1761915656831844900,10.350844970703125,-0.9847412109375,-0.1573028564453125,-0.0026702880859375
1761915656841899000,10.36089892578125,-0.9803619384765625,-0.1566009521484375,-0.0040283203125
1761915656851954000,10.370953857421876,-0.979400634765625,-0.1540374755859375,-0.0041961669921875
1761915656862007800,10.3810078125,-0.9820098876953125,-0.153411865234375,-0.0057373046875
1761915656872062000,10.39106201171875,-0.9805908203125,-0.153656005859375,-0.0061187744140625
1761915656882115800,10.40111572265625,-1.0024871826171875,-0.1427154541015625,-0.0068817138671875
1761915656892170000,10.411169921875,-1.00616455078125,-0.1474761962890625,0.0054168701171875
1761915656902224000,10.421223876953125,-0.996826171875,-0.162811279296875,-0.0042266845703125
1761915656912278000,10.431278076171875,-0.9997406005859375,-0.167236328125,0.0003814697265625
1761915656922332000,10.441331787109375,-1.0323486328125,-0.1564788818359375,0.0174713134765625
1761915656932386000,10.451385986328125,-1.0516204833984375,-0.1599884033203125,0.0228118896484375
1761915656942439700,10.461439697265625,-1.0345611572265625,-0.15997314453125,0.00482177734375
1761915656952493800,10.471493896484375,-1.01434326171875,-0.15728759765625,-0.0079803466796875
1761915656962549000,10.481549072265626,-1.0017547607421875,-0.1558837890625,-0.0101165771484375
1761915656972603000,10.491602783203126,-0.9889984130859375,-0.1593475341796875,-0.012664794921875
1761915656982657000,10.501656982421874,-0.9720001220703125,-0.1735076904296875,-0.020965576171875
1761915656992711000,10.5117109375,-0.9592132568359375,-0.18878173828125,-0.030303955078125
1761915657002765000,10.52176513671875,-0.94390869140625,-0.197998046875,-0.0335235595703125
1761915657012818700,10.531818603515624,-0.928558349609375,-0.2001800537109375,-0.037139892578125
1761915657022872800,10.541872802734375,-0.9229583740234375,-0.19757080078125,-0.03546142578125
1761915657032926700,10.5519267578125,-0.929290771484375,-0.193023681640625,-0.0328216552734375
1761915657042980900,10.56198095703125,-0.9462738037109375,-0.191162109375,-0.0252685546875
1761915657053034800,10.57203466796875,-0.9481048583984375,-0.196075439453125,-0.0177001953125
1761915657063090000,10.58208984375,-0.931243896484375,-0.2045440673828125,-0.018463134765625
1761915657073144000,10.59214404296875,-0.929718017578125,-0.2098388671875,-0.0247039794921875
1761915657083195100,10.602195068359375,-0.9442901611328125,-0.2029571533203125,-0.023773193359375
1761915657093249000,10.6122490234375,-0.968536376953125,-0.188507080078125,-0.0164642333984375
1761915657103303200,10.62230322265625,-0.97906494140625,-0.1719512939453125,-0.0139312744140625
1761915657113357000,10.632357177734375,-0.962860107421875,-0.1654052734375,-0.0153961181640625
1761915657123411200,10.6424111328125,-0.9305877685546875,-0.2203216552734375,-0.067535400390625
1761915657133465000,10.652465087890626,-0.8525238037109375,-0.2274627685546875,-0.120849609375
1761915657143519200,10.662519287109374,-0.91827392578125,-0.192657470703125,-0.10784912109375
1761915657153573000,10.672572998046874,-0.96954345703125,-0.1493682861328125,-0.04644775390625
1761915657163627300,10.682627197265624,-1.019989013671875,-0.1665802001953125,-0.06494140625
1761915657173682200,10.69268212890625,-1.0111846923828125,-0.2045135498046875,-0.077667236328125
1761915657183736000,10.702736083984375,-0.98773193359375,-0.2386016845703125,-0.067596435546875
1761915657193790200,10.712790283203125,-0.9849090576171875,-0.210784912109375,-0.045013427734375
1761915657203844000,10.722843994140625,-0.9693756103515625,-0.1839141845703125,-0.0519256591796875
