time,seconds_elapsed,z,y,x
1761915646596795100,0.115795166015625,0.1390150874584913,0.06196005095914006,-0.1124994575092569
1761915646606849000,0.12584912109375,0.049802434045076366,0.17872750464379786,-0.06883654913250356
1761915646616903200,0.135903076171875,-0.038513562789559364,0.2114446561142802,0.017965572540462015
1761915646626957000,0.14595703125,-0.21793840204775333,0.15604659401923418,0.06770776429828256
1761915646637011000,0.156010986328125,-0.24098843824565408,0.09891571678221225,0.1272400035886094
1761915646647064800,0.16606494140625,-0.19732465308606623,0.008685264628380537,0.12639935151338577
1761915646657119000,0.176118896484375,-0.07591945659816264,-0.02426452655419707,0.14228910416048018
1761915646667172900,0.1861728515625,0.07294482470154762,-0.07861322572678327,0.1577621292328462
1761915646677227000,0.19622705078125,0.05645137054026127,-0.13574308005049823,0.17909937016349284
1761915646687281000,0.206281005859375,-0.03691840255260467,-0.12973404889404774,0.22577081270646301
1761915646697335000,0.2163349609375,-0.07034954751133918,-0.11993906945809721,0.2611185684088617
1761915646707389000,0.226388916015625,-0.06914484789669513,-0.16682956157922743,0.2275799444876611
1761915646717443800,0.23644384765625,0.01815934154689312,-0.18377704311832785,0.16210194853544235
1761915646727498000,0.246498046875,0.14747545728981495,-0.15782865513041613,0.09774733058996499
1761915646737552000,0.2565517578125,0.20898469574153422,-0.18728841224014758,0.043491533865220845
1761915646747606000,0.26660595703125,0.22928104931712148,-0.15242986482679843,0.05261595709584653
1761915646757660000,0.276659912109375,0.17106500719189643,-0.16817147770747543,0.05780243808934465
1761915646767714000,0.286714111328125,0.16542670904397963,-0.15805705705881118,0.09759917255723849
1761915646777768000,0.296767822265625,0.241993815895915,-0.15666019587293267,0.10797679245304316
1761915646787822000,0.306822021484375,0.30324761828184127,-0.14550561852157115,0.09183876413330436
1761915646797876000,0.3168759765625,0.2801958285182714,-0.13433745103627442,0.07896770172026008
1761915646807930000,0.32693017578125,0.18604688774645328,-0.09563406476303934,0.07015680141821504
1761915646817984000,0.33698388671875,0.13357552675306797,-0.05369549596086144,0.06274504559068009
1761915646828038000,0.347037841796875,0.12398235349953174,-0.053160366170853374,0.07501452538138255
1761915646838092000,0.357092041015625,0.08329495380222797,-0.06799611625298857,0.07901621703710407
1761915646848146000,0.36714599609375,0.027914427363872528,-0.055097325582802295,0.10393308828650041
1761915646858200000,0.377199951171875,0.0017453823626041411,-0.019968436795473096,0.14772219859249888
1761915646868254000,0.38725390625,0.044132571715116496,0.022377105372399092,0.16921055669793858
1761915646878308000,0.39730810546875,0.1124509056597948,0.048884150156378745,0.08613742895284666
1761915646888363000,0.407363037109375,0.2705897957831621,0.0835334387332201,-0.006210709474701434
1761915646898417000,0.4174169921875,0.32853578879535195,0.11507687024921179,-0.08930504440460353
1761915646908471000,0.427470947265625,0.2933680293023586,0.14161884021610022,-0.117540721345786
1761915646918525000,0.43752490234375,0.31615795325934887,0.1248738955117762,-0.1320210364532191
1761915646928579000,0.4475791015625,0.3948690864026546,0.076939885687083,-0.24891769687496124
1761915646938633000,0.457633056640625,0.4740723869770765,0.09104629858136176,-0.36663770204409957
1761915646948687000,0.46768701171875,0.5114122298121452,0.1191639934323728,-0.4606786889294162
1761915646958741000,0.477740966796875,0.4475035290032625,0.13615940576642752,-0.5308150686141103
1761915646968795100,0.487795166015625,0.3884773395389318,0.08912102960720658,-0.5528056588869542
1761915646978849000,0.49784912109375,0.2666612241625786,0.06124459616616368,-0.6091909053884447
1761915646988903200,0.507903076171875,0.11974398527741431,0.08297142093628644,-0.6402557596072554
1761915646998956800,0.517956787109375,-0.1204635317236185,0.18214184313192963,-0.6598912381213158
1761915647009011000,0.528010986328125,-0.3836263923764229,0.29760230587124825,-0.6550144989304244
1761915647019064800,0.53806494140625,-0.5671276872932911,0.4342839819461107,-0.6255680396936834
1761915647029119000,0.548118896484375,-0.6787275290817022,0.5057521582238376,-0.5710585239361972
1761915647039172900,0.5581728515625,-0.6838648919701575,0.4758437805637717,-0.541897603642568
1761915647049228000,0.56822802734375,-0.557687074252963,0.4055312040619552,-0.474577158161439
1761915647059282200,0.5782822265625,-0.4099181869745254,0.35806422722712156,-0.41257418137602503
1761915647069333000,0.5883330078125,-0.3272369811564684,0.3233271142363548,-0.3372340955683961
1761915647079387000,0.598386962890625,-0.2604085935086012,0.28134163755252956,-0.2516723841442726
1761915647089441000,0.60844091796875,-0.14146657226383685,0.21069836779162288,-0.1841071701218374
1761915647099495000,0.618494873046875,0.045947512182593346,0.16098375816047192,-0.08030954478327185
1761915647109549000,0.628549072265625,0.13459610197246075,0.09071107527762651,0.06525072196840774
1761915647119603000,0.63860302734375,0.12556406973302364,0.011400953327864408,0.20582962924409656
1761915647129657000,0.648656982421875,0.09549743277132511,-0.03131839058846235,0.3182206579428166
1761915647139711000,0.6587109375,0.1326893915683031,0.006393208168447018,0.392086579544656
1761915647149765000,0.66876513671875,0.15581307752430437,0.03634863984063268,0.428882415163517
1761915647159819000,0.678819091796875,0.14011749574244023,0.03092661479189992,0.4423315331928432
1761915647169873000,0.688872802734375,0.11292612195610999,0.0014081132322549819,0.48936161644775417
1761915647179927000,0.698927001953125,0.035085341906547544,-0.09118512253016232,0.5176368399480358
1761915647189981000,0.70898095703125,0.04549275415241718,-0.17317790769264102,0.5156559683291241
1761915647200035000,0.71903515625,0.09695172323286533,-0.2152554465740919,0.478735666080378
1761915647210089000,0.7290888671875,0.10682838960289955,-0.2207654421672225,0.43508846672941
1761915647220144000,0.73914404296875,0.060146717926859855,-0.16680895718261599,0.4276625910449773
1761915647230198000,0.749197998046875,0.023244681987166404,-0.07466989492848515,0.4003614367412403
1761915647240252000,0.759251953125,0.055665773120522496,0.04895049339085817,0.33776469531375913
1761915647250305800,0.769305908203125,0.13449381064176558,0.16176643297076224,0.2575780097251758
1761915647260360000,0.77935986328125,0.15971768374741077,0.20798983948528765,0.18486323091983795
1761915647270414000,0.7894140625,0.10809037236273288,0.19728607464134693,0.14241219168403185
1761915647280468000,0.799468017578125,0.09250994139313698,0.14212620521634817,0.13131972891660407
1761915647290522000,0.809522216796875,0.09599719898700713,0.059679100415110584,0.15631625953977926
1761915647300576000,0.819575927734375,0.08640519477725028,-0.036091596339643,0.1816114077833481
1761915647310630100,0.829630126953125,0.04829904374480247,-0.12082125912010669,0.18946855102451518
1761915647320684000,0.83968408203125,0.10309271020591258,-0.158648593211174,0.13287648423877543
1761915647330738200,0.84973828125,0.26268063009381293,-0.13028028459995986,0.07524338396750391
1761915647340792000,0.8597919921875,0.3520908519059419,-0.09140957893580198,0.06888837065128608
1761915647350846000,0.869845947265625,0.24200959798693655,-0.09885010420009493,0.11158773122550919
1761915647360899800,0.87989990234375,0.03758534202873707,-0.10373305393606423,0.1858346149689518
1761915647370954000,0.8899541015625,-0.12726678199768066,-0.10074132477417588,0.19629910943061113
1761915647381009200,0.900009033203125,-0.18133505679368972,-0.1341219085894525,0.12990598966116085
1761915647391063000,0.91006298828125,-0.04658288747668266,-0.12241685774847864,0.1287854794649407
1761915647401117200,0.9201171875,0.07768997340202331,-0.13972893481627105,0.16282730366792528
1761915647411171000,0.930171142578125,0.05602525408267975,-0.14925430353060365,0.21159023859743029
1761915647421225000,0.940224853515625,0.011336217528581619,-0.133047703486681,0.2704169964995235
1761915647431278800,0.95027880859375,-0.010390461111068726,-0.08070771378800272,0.25720106617156413
1761915647441333000,0.9603330078125,0.1677197884172201,0.005749941828846931,0.3135015935316682
1761915647451387000,0.970386962890625,0.5415910949766636,-0.19176409634947775,0.4738968842796981
1761915647461441000,0.98044091796875,0.25005378823280333,-0.3943862713217735,0.14210903488583862
1761915647471495000,0.990494873046875,0.2386135258078575,-0.2139174759685993,0.19689221648555247
1761915647481549000,1.000549072265625,0.011752981635928153,-0.09501111055910587,0.34987310279123485
1761915647491603000,1.01060302734375,-0.033306057274341584,-0.000921644889563322,0.365913187161833
1761915647501657000,1.020656982421875,0.11467150431871413,0.044712855821102855,0.26570790549311785
1761915647511711000,1.0307109375,0.2589513804376125,0.08064984612092375,0.15279164734389633
1761915647521765000,1.04076513671875,0.363635159227252,0.1056290968157351,0.10363028768133371
1761915647531819000,1.050819091796875,0.39204643019735813,0.09688991004303098,0.0850188093196135
1761915647541874000,1.0608740234375,0.3156862440943718,0.06191840377449989,0.06670121760424226
1761915647551928000,1.070927978515625,0.24126082544624805,0.032252456568181515,0.05668580035064369
1761915647561982000,1.08098193359375,0.2080401083678007,-0.014758154801279306,0.03132719951600302
1761915647572036000,1.0910361328125,0.254955588799715,-0.057548518127202984,-0.015676774333405773
1761915647582090000,1.101090087890625,0.3299199366301298,-0.08540668525919318,-0.03320509025105275
1761915647592144100,1.11114404296875,0.31944179723560806,-0.11294994122311472,-0.08541779117509722
1761915647602197800,1.12119775390625,0.23727964685559272,-0.12802636819332838,-0.13527895140377805
1761915647612252000,1.131251953125,0.16877368138432502,-0.06317790231630206,-0.13538723408384248
1761915647622306000,1.14130615234375,0.14300444935560225,0.030086218445003032,-0.16064888191660864
1761915647632360000,1.15135986328125,0.10888882926404475,0.08235986490920186,-0.1921735904658213
1761915647642414000,1.1614140625,0.10045534743964671,0.12154811208993196,-0.22346540357461198
1761915647652468000,1.171468017578125,0.0852712223112583,0.1270619070753455,-0.21638552831625565
1761915647662522000,1.181522216796875,-0.031684009030461306,0.06748232151195406,-0.19646332354899496
1761915647672576000,1.191575927734375,-0.1693751544088125,0.022485972574353218,-0.1709639031712897
1761915647682630100,1.201630126953125,-0.2237292604088783,0.01177212472781539,-0.12542363834902642
1761915647692684000,1.21168408203125,-0.16616671375632286,0.02876987514942884,-0.10633220358379185
1761915647702738000,1.221738037109375,-0.08539630999565125,0.03378565748482942,-0.08466742946552112
1761915647712793000,1.23179296875,-0.08875380373001097,0.03394610874354839,-0.055870282716676586
1761915647722847000,1.241846923828125,-0.14304945754110812,-0.020524901634454727,-0.005008841137960553
1761915647732901000,1.251901123046875,-0.15646832656264303,-0.03112389092966914,0.04164390583769418
1761915647742955000,1.261955078125,-0.13124562250077723,-0.041772418455034495,0.06439862148398533
1761915647753009200,1.272009033203125,-0.08451309742033482,-0.028120325199514625,0.061132075702399015
1761915647763063000,1.28206298828125,-0.04317220225036144,0.009139584267139435,0.06174912075535394
1761915647773117200,1.2921171875,0.016662965509295462,0.00881517461836338,0.043109283948829395
1761915647783170800,1.3021708984375,0.0846270791888237,-0.01289075349420309,0.031867530637513845
1761915647793225000,1.312224853515625,0.0621750088840723,-0.07288578799068927,0.04173366648037918
1761915647803278800,1.32227880859375,0.04376315388083458,-0.10576543654650448,0.026672665408160535
1761915647813333000,1.3323330078125,0.10699380929768085,-0.07798837182670831,-0.017662607538513838
1761915647823387000,1.342386962890625,0.0955453635662794,-0.022203648501634598,-0.05411478081885725
1761915647833441000,1.35244091796875,-0.015654665249586103,0.06343816068768501,-0.019323307292349635
1761915647843495000,1.362494873046875,-0.09615268180966377,0.11174831034839153,0.014807866561366245
1761915647853549000,1.372549072265625,-0.1548579687565565,0.11530132665485143,-0.0033746457985602317
1761915647863603000,1.38260302734375,-0.1814367636024952,0.10988500069454311,-0.016160669409809633
1761915647873657900,1.392657958984375,-0.10429214912354945,0.13073854976147412,-0.01270143233402632
1761915647883712000,1.4027119140625,0.011550152540206908,0.13111892738118766,-0.012836593887861817
1761915647893766000,1.412765869140625,0.21973171520531176,0.16831819270178675,-0.009875369462091475
1761915647903820000,1.422820068359375,1.2516601032614707,0.061318245924264186,0.247327541606687
1761915647913874000,1.4328740234375,0.5399567717730999,-0.46847836636230344,0.039352726160595194
1761915647923928000,1.442927978515625,0.5795861868500709,-0.29606267521381374,0.0027429968315176665
1761915647933982000,1.45298193359375,0.10206219811439514,-0.12016411038562655,-0.11072256576353684
1761915647944036000,1.4630361328125,-0.0386468337804079,0.08520195646733045,0.05593339281445369
1761915647954090000,1.473090087890625,0.03563654604852199,0.12364464597776531,0.1753623755922541
1761915647964143900,1.483143798828125,0.14110066156089304,0.006916939781606197,0.07892736057671718
1761915647974198000,1.493197998046875,0.18355448640882968,-0.06187646432891488,0.10728225258393212
1761915647984252000,1.503251953125,0.1147469076424837,-0.08175020857825875,0.13692810685029252
1761915647994306000,1.51330615234375,0.016267244189977645,-0.05367006925866007,0.13853103026859462
1761915648004360000,1.52335986328125,-0.036567104896903034,-0.0023123685956001282,0.13410637309360318
1761915648014414000,1.5334140625,-0.03640694589912891,0.05189999084621667,0.12159736719229258
1761915648024468000,1.543468017578125,-0.0018500117808580398,0.08095029037222266,0.13605453888615593
1761915648034523100,1.553523193359375,0.054279287198185915,0.07123772852271795,0.13629280462143942
1761915648044576800,1.56357666015625,0.1386187816172838,-0.020285686051100493,0.11159799689119682
1761915648054631000,1.573630859375,0.14044541252255438,-0.11675021028891205,0.09020887964284047
1761915648064685000,1.58368505859375,0.10146189413368702,-0.13611308240666986,0.0898462386092171
1761915648074739000,1.593739013671875,0.046831893801689145,-0.09850655145943164,0.10219608102659694
1761915648084793000,1.60379296875,-0.020143208840489386,-0.06441752711385489,0.0906104644473642
1761915648094847000,1.613846923828125,-0.07285071667730808,0.001974514943361282,0.059077426461223506
1761915648104901000,1.623901123046875,-0.032709260424971576,0.06995236488729716,0.03214544339659624
1761915648114955300,1.633955322265625,0.024762100812792776,0.10290434802696108,0.001226555253425613
1761915648125009200,1.644009033203125,0.0916898571819067,0.06990691831037402,0.005795616734633222
1761915648135063300,1.654063232421875,0.07093114679157733,-0.011211714366078375,0.03686013302672654
1761915648145117000,1.664116943359375,0.027073884886503218,-0.09454787696152925,0.071249007968558
1761915648155171000,1.674171142578125,0.032464930275082585,-0.13292334645465015,0.07075865803519263
1761915648165225000,1.684224853515625,0.10853110186755656,-0.15326047043204308,0.04668459428548813
1761915648175279000,1.694279052734375,0.1839981385231018,-0.12801394710317254,0.014182537737255915
1761915648185334000,1.704333984375,0.2140788040101528,-0.0668392013028264,-0.007347860278468578
1761915648195388200,1.71438818359375,0.20829262182414532,-0.017298633064329622,-0.024806789337890222
1761915648205442300,1.7244423828125,0.17673837665319442,0.04594195922464132,-0.021320810385653748
1761915648215496000,1.734495849609375,0.09142974494099616,0.09695669166892766,-0.013158144859271123
1761915648225550000,1.744550048828125,0.018739771783351896,0.10543825041875242,-0.02535876979799941
1761915648235604000,1.75460400390625,-0.02205751802921295,0.07910027859136462,-0.06911375863868743
1761915648245658000,1.764658203125,-0.0020715455770492553,0.11229235409721731,-0.1704102878765203
1761915648255712000,1.7747119140625,0.09898644393086432,0.19910276867449284,-0.2706649433786049
1761915648265766100,1.78476611328125,0.15180208831727504,0.27485402909889817,-0.37582846850920465
1761915648275820000,1.794820068359375,0.09524433479309082,0.29036621713787314,-0.4344838884323835
1761915648285874200,1.804874267578125,0.031522680988907814,0.2569004392571747,-0.44749775684960186
1761915648295928000,1.814927978515625,0.02405658289194107,0.20205694230496882,-0.4782481017591431
1761915648305982200,1.824982177734375,0.11365969692766666,0.18269085531681775,-0.5041413620263338
1761915648316036000,1.8350361328125,0.13294891928732394,0.16930866504386066,-0.47432804223857816
1761915648326090000,1.845090087890625,0.042754269099235534,0.15475567742586135,-0.43195466221570966
1761915648336144000,1.855143798828125,-0.0806400553792715,0.1705086884833872,-0.35301041443627323
1761915648346198000,1.865197998046875,-0.16701368597447872,0.17265797547176479,-0.25126038754358887
1761915648356253200,1.875253173828125,-0.1609317357122898,0.13985109989121555,-0.1643783873011358
1761915648366307000,1.88530712890625,-0.07352993111312389,0.11832973456531762,-0.09629367944924161
1761915648376361200,1.895361328125,-0.015624270111322402,0.07071984212845564,-0.041080618532281364
1761915648386415000,1.9054150390625,-0.014053075271844863,0.060006432673335074,0.0667713419646956
1761915648396469000,1.915468994140625,-0.05972820025384426,0.0480386392429471,0.19663491725623605
1761915648406523000,1.92552294921875,-0.13055822475850581,-0.013965396988391875,0.271455143908225
1761915648416577000,1.935576904296875,-0.09181962104141711,-0.05654693986922502,0.3682891955781728
1761915648426631000,1.945630859375,-0.029607202756404875,-0.0932385479286313,0.3909691563546657
1761915648436685000,1.95568505859375,0.08311199845075606,-0.12047244568243622,0.4367548655716702
1761915648446739200,1.9657392578125,0.030434885752201078,-0.20904037145152687,0.447546674025245
1761915648456793000,1.97579296875,-0.1585913100659847,-0.29455986943542956,0.43975802944302556
1761915648466847200,1.98584716796875,-0.03680792791545391,-0.315944164378196,0.4942494250219315
1761915648476901000,1.995901123046875,0.0782435156315565,-0.3641103755235672,0.42432990295831113
1761915648486955300,2.005955322265625,0.873369226694107,-0.29392244831472636,0.5387729688160121
1761915648497009200,2.016009033203125,2.1996301051706073,-0.9477512445919215,0.8488855044312774
1761915648507063000,2.02606298828125,1.341204180586338,-1.2893044820010662,0.579333235002309
1761915648517117000,2.036116943359375,0.6142711312621831,-0.48509442398995156,0.1959496201395057
1761915648527172000,2.046172119140625,-0.3260521552860737,0.31694588876664637,0.06891282923910766
1761915648537226000,2.05622607421875,-0.8909569058328867,0.6337975233785808,0.4465456437565386
1761915648547280100,2.066280029296875,-1.3228104457616805,0.4334807027392089,0.5706640447258949
1761915648557334300,2.076334228515625,-1.1050374634087086,0.2342005316711962,0.41578072233237323
1761915648567388200,2.08638818359375,-0.5884586446136236,0.1295461251065135,0.2812692299034446
1761915648577442000,2.096442138671875,-0.21476035653352737,0.07364259770736098,0.15272623569117857
1761915648587496000,2.106495849609375,0.009087561818957328,0.05042363468334078,0.06842464386336505
1761915648597550000,2.116550048828125,0.10141747047007084,0.004569061481207609,0.018992120842915027
1761915648607604000,2.12660400390625,0.1607142935693264,-0.05129705651700496,-0.014244524457026272
1761915648617658000,2.136658203125,0.27311025417149065,-0.07270794720575213,-0.03718415908301249
1761915648627712000,2.1467119140625,0.35788814000785346,-0.07125467965751886,-0.08617636359059251
1761915648637766100,2.15676611328125,0.3746206636220217,-0.07754457358196377,-0.11266168059995398
1761915648647820000,2.166820068359375,0.3444371222823858,-0.0799636174224317,-0.10286523072612472
1761915648657874200,2.176874267578125,0.3285048091351986,-0.057396104044467204,-0.08484402814144268
1761915648667928000,2.186927978515625,0.3479629583209753,-0.028779081369191408,-0.08053794671166688
1761915648677982200,2.196982177734375,0.3368558733731508,-0.02421031214892864,-0.07782082410692237
1761915648688037000,2.207037109375,0.23294775513112545,-0.029658786813169715,-0.013544258100027217
1761915648698091000,2.217091064453125,0.09700900637805461,-0.0042740240573883054,0.05262740093846805
1761915648708145200,2.227145263671875,0.040130350336432453,0.0159314363643527,0.08404218283980153
1761915648718199000,2.237198974609375,0.07494505860805512,0.04661898170337081,0.07341732845096849
1761915648728253200,2.247253173828125,0.1220277123004198,0.08424640930816531,0.03835780597226694
1761915648738307000,2.25730712890625,0.17253858687579632,0.12393573787882924,0.009081447172001935
1761915648748361200,2.267361328125,0.15826748493909834,0.1332423492759466,-0.013385939432890154
1761915648758415000,2.2774150390625,0.06662731211781502,0.13074161850139498,0.02234332183380611
1761915648768469000,2.287468994140625,-0.025710779839754103,0.10327902655825018,0.08640313068432733
1761915648778523000,2.29752294921875,-0.0595914221316576,0.04757774373292923,0.09213802107451483
1761915648788577000,2.307576904296875,-0.028174539604783055,0.004369301125407218,0.0734548154837219
1761915648798631200,2.317631103515625,0.01215221008658409,0.00010755202770233153,0.03690249259741977
1761915648808685000,2.32768505859375,0.01989654060304165,0.013349018655717372,0.03257207587740849
1761915648818739200,2.3377392578125,-0.006388824254274368,0.015263473974913358,0.0274255615681177
1761915648828793000,2.34779296875,-0.058633390754461286,-0.011265490379929542,0.04173715534540824
1761915648838847200,2.35784716796875,-0.09760697227120399,-0.053789896246045826,0.02739757301607169
1761915648848902000,2.36790185546875,-0.10079904631078243,-0.05223331445381045,0.021184735516365617
1761915648858956000,2.3779560546875,-0.05693652370870113,-0.01035363623201847,0.0452814220898319
1761915648869010000,2.388010009765625,0.0037871173232793807,0.010147446135431528,0.04863177369735203
1761915648879064000,2.39806396484375,0.05645487767159939,-0.014687135391682385,0.04417226440468803
1761915648889118200,2.4081181640625,0.05991583178043365,-0.0760251089297235,0.03695161983561702
1761915648899172000,2.418172119140625,0.028597148931026457,-0.14770619730576873,0.049526256585353985
1761915648909226200,2.428226318359375,0.03925941272079944,-0.2102618760704994,0.07257833860986866
1761915648919280000,2.438280029296875,0.10136486349999904,-0.22178280251622198,0.07653592626238241
1761915648929334300,2.448334228515625,0.153424721083045,-0.20080270446017384,0.024852108050649985
1761915648939388200,2.45838818359375,0.15027999331653116,-0.12853431771546603,0.004743102873861789
1761915648949442000,2.468442138671875,0.0990226842880249,-0.05254121135920286,0.03772965500340797
1761915648959496000,2.478495849609375,-0.05235036496222019,-0.03744797938466072,0.0724539359120652
1761915648969550000,2.488550048828125,-0.10064297896623611,-0.08494184422641993,0.06089224819769151
1761915648979604000,2.49860400390625,-0.05230886390805244,-0.10313187317252158,0.039012890613824125
1761915648989658000,2.508658203125,-0.06267360605597495,-0.05878814292475581,0.08048040783815086
1761915648999712000,2.5187119140625,-0.020424363869428634,-0.016759703882038592,0.14426276972047053
1761915649009767200,2.52876708984375,0.01981412301659584,-0.03195931884050369,0.08320962273948826
1761915649019821000,2.538821044921875,0.1229296295762062,0.04047770246937871,0.07488819102139678
1761915649029875000,2.548875,0.17551380329430102,0.10904854987040162,0.06360762636992148
1761915649039929000,2.55892919921875,0.19530688352286815,0.1422917710416019,0.06044146765631157
1761915649049983000,2.56898291015625,0.14104396293759344,0.11155585651621222,0.0725086389411008
1761915649060037000,2.579037109375,0.04168693212866783,0.06717384008467198,0.09612513621561229
1761915649070094300,2.58909423828125,-0.09390519514381886,0.02560658881291747,0.10827748329951427
1761915649080148500,2.5991484375,-0.08187105847895144,0.05044248551428318,0.10183744944781065
1761915649090202600,2.60920263671875,0.04602992976903915,0.09774112004488707,0.07452079618084244
1761915649100256500,2.619256591796875,0.1603004520714283,0.12858458659797906,0.04173940666799899
1761915649110310700,2.629310546875,0.21655191612541674,0.08470306703448295,0.038759221813431936
1761915649120364500,2.639364501953125,0.2694897255867719,0.010549451065063477,0.015141993886558338
1761915649130418400,2.64941845703125,0.25549101085066794,-0.031086189267784354,0.004814414544403553
1761915649140472300,2.659472412109375,0.17079963425397873,-0.02611000829041004,0.004721018906217068
1761915649150526500,2.6695263671875,0.16342764418125152,0.009351181191205978,-0.006058797715464606
1761915649160580400,2.679580322265625,0.2181961762011051,0.005881020862609148,-0.040104576574359084
1761915649170635500,2.689635498046875,0.25785540189445016,-0.02044716022312641,-0.03108286479953676
1761915649180689400,2.699689453125,0.21483166820406913,-0.06546645164489746,0.007638879114296287
1761915649190743600,2.70974365234375,0.07869768913984299,-0.10070493828654288,0.04039714804645628
1761915649200797400,2.71979736328125,0.04654080190062523,-0.08530541684180498,0.04363388321166858
1761915649210851300,2.729851318359375,0.09650281042158602,-0.025306729083508252,0.0010416271405760198
1761915649220905500,2.739905517578125,0.114843353754282,0.016820201897621154,-0.022377370233880353
1761915649230959400,2.74995947265625,0.12238017899990081,0.044280894144624466,-0.02262517098248936
1761915649241013500,2.760013427734375,0.09679448684453963,0.03935074426606297,-0.01597431652485393
1761915649251067400,2.7700673828125,0.10564181016683578,0.03579407469779253,-0.003013009411934763
1761915649261121500,2.78012158203125,0.09055003949701786,0.024573007981479166,0.008379687544237822
1761915649271175400,2.790175537109375,0.017422843965888023,-0.01009878468811512,-0.019944973721494896
1761915649281229600,2.8002294921875,-0.01579728859066963,-0.011080635332316159,-0.033414805745286866
1761915649291283500,2.810283447265625,-0.019523615637421606,0.020986966188251972,-0.013711413094168528
1761915649301337600,2.820337646484375,-0.01465571734011173,0.060041211725771426,0.017926729234261436
1761915649311391200,2.83039111328125,-0.002979308071732521,0.07947919490635394,0.019999726982880384
1761915649321446400,2.8404462890625,0.012201309925317764,0.05694032310098409,-0.013905483494699
1761915649331500500,2.85050048828125,0.07800795331001281,0.03220058025047183,-0.03837455617766827
1761915649341554400,2.860554443359375,0.1431073252081871,0.0019550795905292034,-0.047575149917043744
1761915649351608600,2.870608642578125,0.24051088386178016,-0.008501286363601684,-0.04050716602588072
1761915649361662500,2.880662353515625,0.32977439067959785,-0.0027022446960210797,-0.06518812789386139
1761915649371716600,2.890716552734375,0.3412789505124092,0.005669131677597761,-0.09880692264549433
1761915649381770500,2.9007705078125,0.2553290982872248,0.04511690657734871,-0.1084915735747665
1761915649391824400,2.910824462890625,0.14633914673626422,0.09577478840798138,-0.09982486751638352
1761915649401878300,2.920878173828125,0.046186581635475156,0.12111118197739124,-0.08783530064560473
1761915649411932400,2.930932373046875,-0.012571896803379059,0.11462547321990131,-0.10188684154748916
1761915649421986300,2.940986328125,0.006411620607972145,0.12271277195513247,-0.12119522526534274
1761915649432040400,2.95104052734375,-0.04178630084991455,0.1365831841364503,-0.15804627993647008
1761915649442094600,2.961094482421875,-0.07819500031471252,0.19684286091849207,-0.1026023876720108
1761915649452148500,2.9711484375,-0.1923684919834137,0.23228943735286592,-0.04229994946047663
1761915649462202600,2.98120263671875,-0.24446692801117895,0.23654256475269794,0.03577986350934952
1761915649472257300,2.99125732421875,-0.22769699499607085,0.19806918784305452,0.04254329322967678
1761915649482311400,3.0013115234375,-0.11579729347825049,0.1485850259669125,0.03227380988346413
1761915649492365300,3.011365234375,0.016248539489507673,0.07246566288247704,0.06033780178586021
1761915649502419500,3.02141943359375,0.150353058552742,-0.017115823843330144,0.0850744393638335
1761915649512473300,3.031473388671875,0.2733393867522478,-0.07725742720365524,0.1084605208493769
1761915649522527500,3.041527587890625,0.35953590721488,-0.09259645063281059,0.15339151293318717
1761915649532581600,3.05158154296875,0.3627069384664297,-0.07854498279616236,0.1948698438124731
1761915649542635500,3.061635498046875,0.3202344089180231,-0.06731061820685863,0.21601408292166888
1761915649552689700,3.071689697265625,0.2551221775382757,-0.05249079634621739,0.18973251745663583
1761915649562743600,3.08174365234375,0.2573772629886866,-0.01998991797491908,0.2102358831127174
1761915649572797400,3.09179736328125,0.2824228569179773,-0.023459493781626223,0.2035331888699904
1761915649582851300,3.101851318359375,0.3316746713429689,-0.03614800270199776,0.19294548815377055
1761915649592905500,3.111905517578125,0.340100554382801,-0.051878655797243114,0.1971480361438356
1761915649602959400,3.12195947265625,0.28266543350219725,-0.09911284678950905,0.21069661422595382
1761915649613013500,3.132013427734375,0.25166531508266926,-0.10769231295585632,0.22612417445508762
1761915649623068700,3.142068603515625,0.2634960381299257,-0.12418474420383571,0.16125051933787762
1761915649633122600,3.15212255859375,0.2576332835763693,-0.10234013827294111,0.09305822292566299
1761915649643176400,3.162176513671875,0.17848492805957794,-0.0877352743372321,0.06776464558467268
1761915649653230300,3.172230224609375,0.09552198269069194,-0.07451280467063189,0.0409009328501299
1761915649663284500,3.182284423828125,0.08629705822765826,-0.021877193026244638,0.009647679919749498
1761915649673338400,3.19233837890625,0.08039455618560314,0.013490619083493947,-0.05267406222494319
1761915649683392500,3.202392578125,0.10523322936594486,0.06613865181803703,-0.10443411487750709
1761915649693446400,3.2124462890625,0.0629594372600317,0.10840323770418762,-0.1345067431885749
1761915649703500500,3.22250048828125,-0.002975216418504715,0.1358675832130015,-0.12723465156005695
1761915649713554400,3.232554443359375,-0.09263853620886803,0.16113865646123884,-0.10590609625936485
1761915649723608600,3.242608642578125,-0.16163608458936213,0.16791633390262722,-0.09852301853704265
1761915649733662500,3.252662353515625,-0.1571720909178257,0.15830328690484166,-0.0879522598224692
1761915649743716400,3.26271630859375,-0.12800327957868576,0.16429916631877423,-0.08681934680240229
1761915649753770200,3.272770263671875,-0.08859072212278843,0.12196955237239598,-0.08445922094178386
1761915649763824400,3.282824462890625,-0.006669394761323929,0.09863821501508355,-0.10091634341436438
1761915649773879600,3.292879638671875,0.07883329821825028,0.09535144842937589,-0.1009330570871476
1761915649783933400,3.302933349609375,0.07605448115468025,0.09957812621369957,-0.06484166167690418
1761915649793987600,3.312987548828125,0.040462943291664125,0.09679477910548448,-0.05757667564260773
1761915649804041500,3.32304150390625,0.05530746120214462,0.06551628213599324,-0.0762694116801489
1761915649814095600,3.333095703125,0.04746493100821972,0.0459600794032216,-0.08043605723977089
1761915649824149200,3.343149169921875,0.01789046147763729,0.022614421259611845,-0.03234375158082694
1761915649834203400,3.353203369140625,-0.016622633498907087,0.019806670362502336,0.01095770307239145
1761915649844257300,3.36325732421875,-0.06137187580764293,0.03505509289875627,0.03308666063630953
1761915649854311400,3.3733115234375,-0.1111789860278368,0.07898176677823067,0.05444190301452763
1761915649864365300,3.383365234375,-0.12518062337338923,0.09099734487310052,0.07212698724633082
1761915649874419500,3.39341943359375,-0.1099544126689434,0.0824668324150145,0.07725644995612092
1761915649884473600,3.4034736328125,-0.07883797439336776,0.04278393358513713,0.08847916977340355
1761915649894527500,3.413527587890625,-0.031605683097243306,-0.017387772652506826,0.11477891021594404
1761915649904581600,3.42358154296875,0.0342985754430294,-0.057957975710928436,0.1422327160644345
1761915649914635500,3.433635498046875,0.07000526411831379,-0.08766776205897331,0.18004709934238344
1761915649924690400,3.4436904296875,0.04884381814599037,-0.10062310522198677,0.2009834313219413
1761915649934744300,3.453744384765625,0.05010930803716183,-0.08902502188682555,0.19679589823791757
1761915649944798500,3.463798583984375,0.05300035330355167,-0.08180968368053436,0.147449309068406
1761915649954852400,3.473852294921875,0.06943886240720748,-0.07744593551307916,0.0957154959687963
1761915649964906500,3.483906494140625,0.07886077074706555,-0.06654840166270733,0.09090838794801384
1761915649974960600,3.493960693359375,0.06797755768299102,-0.0506890076212585,0.11655678834235295
1761915649985014500,3.5040146484375,0.04480301832258701,-0.08234276764392852,0.12512168712723068
1761915649995068700,3.514068603515625,-0.01579553502500057,-0.12205109317600726,0.10561420064070261
1761915650005122300,3.524122314453125,-0.037924949246644975,-0.12388166960403323,0.09098708834056742
1761915650015176400,3.534176513671875,-0.0340676892966032,-0.13799568128287792,0.008944939619518118
1761915650025230300,3.544230224609375,0.04045008381009101,-0.15038389208242298,-0.08048928526435047
1761915650035284500,3.554284423828125,0.21508885783553122,-0.13103431783765554,-0.11998364838534034
1761915650045338400,3.56433837890625,0.29828561196029185,-0.09329919207468629,-0.1488216386012267
1761915650055392500,3.574392578125,0.25072891101539135,-0.0012324644044041633,-0.16042997846892101
1761915650065447700,3.58444775390625,0.10082476527392864,0.0931534999936819,-0.16228760730065406
1761915650075501600,3.59450146484375,-0.10421733032166958,0.21395357019528746,-0.09349499777457676
1761915650085555500,3.604555419921875,-0.30908991456925866,0.29254677604734897,-0.013710632209456525
1761915650095609600,3.614609619140625,-0.27060557787418366,0.28091318300738927,0.03770238797056954
1761915650105663500,3.62466357421875,-0.22053134115040302,0.126988257317245,-0.06095465047599282
1761915650115717600,3.634717529296875,-0.1457131237924099,0.08098200068473815,-0.0934534236551728
1761915650125771500,3.644771484375,0.02939092965722084,0.06272226750329137,-0.044561615348723715
1761915650135825700,3.65482568359375,0.11032850667834282,-0.001696282523870468,-0.053911481365677895
1761915650145879600,3.664879638671875,0.18914017758667467,-0.0528702971830964,-0.05363613958959467
1761915650155933700,3.67493359375,0.2399070727497339,-0.13692045326679944,-0.03789090541314799
1761915650165987800,3.68498779296875,0.262438053509593,-0.16826748542785644,-0.0014172418202040716
1761915650176041700,3.695041748046875,0.25160744741559027,-0.18065891109779475,0.052561400197283364
1761915650186095600,3.705095703125,0.16908172442018984,-0.17943784487023948,0.11560428252364507
1761915650196149500,3.7151494140625,0.0703010321944952,-0.13466302972882985,0.16991643994497135
1761915650206203600,3.72520361328125,0.060224459338188166,-0.0756024996034801,0.20128199414340778
1761915650216258600,3.735258544921875,0.11633622266054153,-0.03316489523798227,0.1899589283573441
1761915650226312700,3.745312744140625,0.18516250612735746,-0.02259907756000757,0.14433580755721775
1761915650236366600,3.75536669921875,0.21585399698913096,-0.04900426940470934,0.1294337325069122
1761915650246420700,3.765420654296875,0.22316519678533075,-0.07458528538495302,0.13027336166882886
1761915650256474600,3.775474609375,0.2306312948822975,-0.09839417712613939,0.14693938678489066
1761915650266528500,3.785528564453125,0.21981997801065445,-0.06280906900390983,0.15988476567631588
1761915650276582700,3.795582763671875,0.15043606066107748,0.0499167080745101,0.1640031973131932
1761915650286636500,3.805636474609375,0.00036240357160568235,0.14472060562372208,0.1514639606704004
1761915650296690700,3.815690673828125,-0.16066928538382053,0.22502353800311684,0.12701708155293018
1761915650306744600,3.82574462890625,-0.17828326800763605,0.28511881800368427,0.12493269476061686
1761915650316798700,3.835798828125,-0.0776601627856493,0.30684125885963437,0.11161943240487016
1761915650326852600,3.8458525390625,0.10624737484455107,0.2934454784527421,0.06687511286642402
1761915650336906800,3.85590673828125,0.2337906356960535,0.28906989371702074,0.050741020936286074
1761915650346961700,3.865961669921875,0.3307166399657726,0.27004472912102934,0.05994078355859965
1761915650357015600,3.876015625,0.40668870353400705,0.19710545737743376,0.04417842471741605
1761915650367069700,3.886069580078125,0.4758049098581075,0.07438830150812864,0.04325835529700853
1761915650377123600,3.89612353515625,0.4705202474534511,-0.023836948791891334,0.03941858990446199
1761915650387177700,3.906177734375,0.460910123065114,-0.07810586072653532,0.07181944196738768
1761915650397231600,3.916231689453125,0.419540586322546,-0.1248084290601313,0.10325729878363199
1761915650407285800,3.92628564453125,0.3098468704164028,-0.16396043588370085,0.14410736909620464
1761915650417339600,3.936339599609375,0.1701478923469782,-0.20226722405478356,0.17427974972100926
1761915650427393800,3.946393798828125,-0.005177110376954079,-0.19358765851482748,0.16917281850343568
1761915650437447400,3.956447509765625,-0.06744622728526592,-0.13333937990963457,0.21115942769842222
1761915650447501600,3.96650146484375,-0.056305824589729304,-0.10295870856270194,0.20935425970628857
1761915650457555500,3.976555419921875,-0.0250181214004755,-0.13152502396404742,0.17785764474039897
1761915650467609600,3.986609619140625,0.01849602615535259,-0.13756123538836837,0.1583961528200656
1761915650477663500,3.99666357421875,0.048943771389126776,-0.1514379311800003,0.12632098904754965
1761915650487718700,4.00671875,0.0458142411917448,-0.165765439479053,0.07783692585835233
1761915650497772800,4.016772705078125,0.01190612637102604,-0.16093202797323464,0.03379900102359243
1761915650507826700,4.02682666015625,-0.014350596913695335,-0.15347177509516477,0.022346874630916863
1761915650517880600,4.036880615234375,-0.03956044149398803,-0.1175201717481017,-0.017843530763103625
1761915650527934500,4.0469345703125,-0.025711948883533477,-0.049825522659718985,-0.03681457456866046
1761915650537988600,4.056988525390625,0.061599839344620703,-0.0059051323905587195,-0.05925607553033623
1761915650548042500,4.06704248046875,0.09745148944854735,-0.005845365027338266,-0.1063610917515587
1761915650558096600,4.0770966796875,0.08434592415988444,0.024386253237724302,-0.12582831015978008
1761915650568150500,4.087150634765625,0.08113865255117415,0.03843333716019988,-0.1102070265899878
1761915650578204700,4.09720458984375,0.06271686067581177,0.02389583937227726,-0.09884414025018923
1761915650588258600,4.107258544921875,0.024333061745762823,0.016657850942760705,-0.060457797736604695
1761915650598312700,4.117312744140625,0.04431143541336059,0.020801526618748904,-0.022779694823920726
1761915650608366800,4.127366943359375,0.04289338530898094,-0.030009499946981665,-0.06014311946397647
1761915650618421500,4.13742138671875,0.05085281988084316,-0.08118731399849057,-0.043888241565227505
1761915650628475600,4.1474755859375,0.10943301914334297,-0.07407938168942928,0.02049918723788578
1761915650638529500,4.157529541015625,0.15315642553567885,-0.06814516933485865,0.035406669115670954
1761915650648583700,4.167583740234375,0.026410452541708946,-0.03787847975641489,0.017172680013545324
1761915650658637600,4.177637451171875,-0.1146253270894289,0.0007933423347771168,0.06062856945993844
1761915650668691700,4.187691650390625,-0.1237052901238203,0.04306289665699005,0.09118162453197874
1761915650678745600,4.19774560546875,-0.06123451316356659,0.032569413562864066,0.11337971094250679
1761915650688799700,4.2077998046875,0.024889526584744453,0.0033589550390839573,0.11066165675600059
1761915650698853600,4.217853515625,0.07795242373049259,-0.04702171728536486,0.10102027871287428
1761915650708907500,4.227907470703125,0.03842179285287857,-0.08132876829579472,0.11016887740353122
1761915650718961700,4.237961669921875,-0.03483399749398231,-0.08465469784811139,0.11301118815736845
1761915650729015600,4.248015625,-0.0409299762815237,-0.05643851105868816,0.06751652060907799
1761915650739069700,4.258069580078125,0.011622048732638359,0.011084580855071543,0.04076793585391715
1761915650749123600,4.26812353515625,0.09714227736890316,0.07428031108900904,0.029252751879103013
1761915650759178800,4.2781787109375,0.16089140370190141,0.0927059023566544,0.024723193574510513
1761915650769232400,4.288232421875,0.18328151468634604,0.07719897501468657,0.006227331815939396
1761915650779286500,4.29828662109375,0.19602467640340326,0.030732261263579128,-0.03307273942552274
1761915650789340700,4.308340576171875,0.2438888358622789,0.0024247429288923737,-0.05595593800640199
1761915650799394600,4.31839453125,0.2905097172617912,0.052034869272261856,-0.056410166313615624
1761915650809448700,4.32844873046875,0.22592647819221018,0.10752440904304385,-0.049519909042958166
1761915650819502600,4.338502685546875,0.1068003325521946,0.12877718656063078,-0.053749331340217026
1761915650829556700,4.348556640625,0.03469254319667816,0.11684373379126191,-0.025164018977456723
1761915650839610600,4.358610595703125,-0.002746083837747574,0.06724325205907225,-0.01267131918190862
1761915650849664800,4.368664794921875,-0.02071253316104412,-0.026422873631864786,0.004418331323837629
1761915650859718700,4.37871875,0.016664719074964522,-0.1078596323467791,-0.0018725512645847628
1761915650869772800,4.388772705078125,0.05396949059665203,-0.16069573499932885,-0.019318909678445198
1761915650879826400,4.398826416015625,0.07381868492662906,-0.16550518110767007,-0.029199640302243642
1761915650889880600,4.408880615234375,0.12464052514731883,-0.12992796403095125,-0.05374921717578545
1761915650899935700,4.418935791015625,0.13430033389627932,-0.12145897250175475,-0.07601602144096978
1761915650909989600,4.42898974609375,0.04928279408514499,-0.0996465152747929,-0.060876356508815656
1761915650920043800,4.439043701171875,-0.05691898805201053,-0.07733195374459027,-0.019221625599719117
1761915650930097700,4.44909765625,-0.13618015629351138,-0.0854823808439076,0.030706706697214394
1761915650940151800,4.45915185546875,-0.1997398975342512,-0.0875793531231582,0.06531658571227453
1761915650950205400,4.469205322265625,-0.208127202129364,-0.0701775519452989,0.0959331390411593
1761915650960259600,4.479259521484375,-0.15806290227770806,-0.03602335340902209,0.10090394972367212
1761915650970313500,4.4893134765625,-0.11809446450471878,-0.0206556884072721,0.11276926916027441
1761915650980367600,4.49936767578125,-0.06773907275199889,-0.029363018736988305,0.13790283363396302
1761915650990421500,4.50942138671875,-0.0068073419272899624,-0.03911488968357443,0.14862190564488992
1761915651000475600,4.5194755859375,0.024440029251575467,-0.06484335131049156,0.14182599842706695
1761915651010529500,4.529529541015625,-0.04019114061295986,-0.0714426034450531,0.16703471049619836
1761915651020583700,4.539583740234375,-0.11051789177060127,-0.07474208338186145,0.2170488510631956
1761915651030638600,4.549638671875,-0.09202712631225586,-0.07030351641252637,0.2445013234711252
1761915651040692500,4.5596923828125,-0.038271570727229115,-0.06182634157687425,0.2383778538884595
1761915651050746600,4.56974658203125,0.0041273090630769725,-0.06203399297818541,0.18430327721582723
1761915651060800500,4.579800537109375,0.03806991067528724,-0.06921133726164698,0.14432970660999417
1761915651070854700,4.589854736328125,0.03829436708092689,-0.06482172400057315,0.10007469582529738
1761915651080909600,4.59990966796875,0.06634791065454483,-0.08104498291835188,0.07281240309407003
1761915651090963700,4.609963623046875,0.040821255210042,-0.11168006741777062,0.07798431670609861
1761915651101017600,4.620017578125,0.005825929674506187,-0.11894041380956769,0.09676612839973531
1761915651111071500,4.630071533203125,-0.02774608505964279,-0.11524638159722089,0.06592079868311994
1761915651121125600,4.640125732421875,-0.020173603978753087,-0.07491027955561876,0.00874948897100985
1761915651131179500,4.650179443359375,0.03739186528325081,0.0029626491978764534,-0.026272498525877017
1761915651141233700,4.660233642578125,0.06931728185415267,0.03820435070991516,-0.03216857311043422
1761915651151288600,4.67028857421875,0.07549567822813988,0.04751666119545698,-0.03495148411052069
1761915651161342700,4.6803427734375,0.10336568192839622,0.06859408214613795,-0.041767819911730474
1761915651171396600,4.690396728515625,0.11910334928631781,0.10446487534195184,-0.05465971961682662
1761915651181450500,4.700450439453125,0.1290641868084669,0.11614040782749652,-0.08426847500950098
1761915651191504400,4.71050439453125,0.15713818864822388,0.12386033455505967,-0.08251909232521429
1761915651201558500,4.72055859375,0.17412673285007477,0.07536839858666063,-0.09725675232773646
1761915651211612400,4.7306123046875,0.1813701281070709,0.014100275414437055,-0.09975737350443377
1761915651221666600,4.74066650390625,0.24396307014226912,-0.014767068760097027,-0.08463887009131722
1761915651231720700,4.750720703125,0.3169265995442867,-0.0041163492776453495,-0.06275566288281698
1761915651241774600,4.760774658203125,0.4192161766737699,0.0544466065891087,-0.05383138816705905
1761915651251828700,4.770828857421875,0.37684710749983785,0.15884177769571542,-0.06788165042730979
1761915651261882600,4.780882568359375,0.17205694083869455,0.002000233906507492,-0.03143152297358028
1761915651271936800,4.790936767578125,0.028871874219179153,-0.028930764799565075,-0.007187947875866666
1761915651281991400,4.800991455078125,0.014689035087823868,-0.04800853636562824,0.06704184316887986
1761915651292045600,4.811045654296875,0.01166296526491642,-0.025250030460208652,0.07663591603813692
1761915651302099500,4.821099365234375,0.10919336516857146,0.008725596638768911,0.08502479153582826
1761915651312153600,4.831153564453125,0.1880319240838289,-0.006444353833794593,0.05989486662421841
1761915651322207700,4.841207763671875,0.20833295383453368,-0.003450724975764751,0.053779539248812944
1761915651332261600,4.85126171875,0.18827976136505603,0.00509644635617733,0.036951268209167755
1761915651342315800,4.861315673828125,0.15917057125866413,-0.012195464706420897,0.030271749346051362
1761915651352369700,4.87136962890625,0.15953998909294603,-0.019002075981348752,0.0028955753110349175
1761915651362423600,4.881423583984375,0.16524200012683868,-0.0443533748589456,-0.004111732468032278
1761915651372477400,4.8914775390625,0.1614636506319046,-0.06597425503656268,-0.011352572725049685
1761915651382531600,4.901531494140625,0.12126900288760661,-0.08821604359149933,-0.0034364247390651142
1761915651392585500,4.91158544921875,0.0846224030137062,-0.04964899704903364,0.010596470827853772
1761915651402639600,4.9216396484375,0.11661445508003235,0.02895779893696308,0.01573313959656516
1761915651412694800,4.93169482421875,0.13624328465759752,0.07248729019239544,-0.01624229241181165
1761915651422748700,4.941748779296875,0.11534253544807434,0.05697597893625497,-0.010345850217784754
1761915651432802600,4.951802490234375,0.09523439792096615,0.03843304489925504,0.021171622589754406
1761915651442856400,4.9618564453125,0.11689561010897159,0.0019176701895892618,0.02335632110151928
1761915651452910600,4.97191064453125,0.17861995261609553,-0.019766776743531226,0.014072444409306627
1761915651462964500,4.981964599609375,0.19836159491837024,-0.03916238208711147,0.004102554789377609
1761915651473018600,4.9920185546875,0.20203706856071948,-0.06325038303062319,0.01970801174402004
1761915651483072500,5.002072509765625,0.21503274373412132,-0.0944584451124072,0.04752590394783765
1761915651493126700,5.012126708984375,0.12622282590270043,-0.14857202035486697,0.08235333470371552
1761915651503180500,5.0221806640625,0.006409867042303085,-0.06653802639916538,0.17560637694858014
1761915651513234700,5.032234619140625,-0.17704232803583145,-0.06607450054064393,0.13988555928324348
1761915651523288600,5.04228857421875,0.05832534771859645,0.014367986439913511,0.20239315198939292
1761915651533342700,5.0523427734375,0.10382745422124862,0.026828531823307276,0.09680040512867272
1761915651543397600,5.062397705078125,0.1250087739378214,0.07467384045124054,0.0832776008086279
1761915651553451500,5.072451416015625,0.23182255049347877,0.11515753426998852,0.08013360369447618
1761915651563505700,5.082505615234375,0.14202362162470816,-0.11535802527815103,0.03556642168806866
1761915651573559600,5.0925595703125,-0.0096726682305336,-0.11689254136905074,0.012298023181885945
1761915651583613700,5.10261376953125,-0.07723930702507495,-0.09417918977960944,0.06845473760752939
1761915651593667600,5.11266748046875,-0.05834872859418392,-0.04341477883458137,0.06211603610529564
1761915651603721700,5.1227216796875,0.05844926635921001,0.003929740664362907,0.036863071619195394
1761915651613775600,5.132775634765625,0.18653204091489314,0.013693155918270349,-0.002258279771206435
1761915651623829500,5.14282958984375,0.23842063358426094,0.001262713412195444,-0.020318359911418518
1761915651633883400,5.15288330078125,0.2688333075046539,-0.023696955799311397,-0.022647353131545242
1761915651643937500,5.1629375,0.19629589456021784,-0.04646145305410027,0.003998700547614135
1761915651653991400,5.172991455078125,0.1896791067689657,-0.030890228304266926,-0.004728069701511413
1761915651664046600,5.183046630859375,0.18169687584340571,-0.016067483834177256,-0.0074063375836121844
1761915651674100700,5.193100830078125,0.18395605294704437,0.011268997511267661,-0.011224555581342428
1761915651684154600,5.203154541015625,0.1248907005161047,-0.012910627238452434,-0.005452006911754142
1761915651694208500,5.21320849609375,0.06546528260111809,-0.03480038748532534,-0.015879281485429966
1761915651704262400,5.223262451171875,0.007352700850367546,-0.01017959483936429,0.015307475230132695
1761915651714316500,5.233316650390625,-0.0892149915009737,0.04005918479636311,0.06427733319187537
1761915651724370400,5.243370361328125,-0.1256692836731672,0.08633987445607781,0.05573018012624233
1761915651734424600,5.253424560546875,-0.1139583876132965,0.10820201604366302,0.02801212471784092
1761915651744478500,5.263478515625,-0.08722761707603931,0.10976385853290557,0.007918846833147109
1761915651754532600,5.27353271484375,-0.061301733180880544,0.08912497512996197,0.016092287198582196
1761915651764586800,5.283586669921875,0.001110007068514824,0.08081146642342209,0.05325378007534891
1761915651774640600,5.293640625,-0.0224082311630249,0.06481938591301441,0.05700761618353426
1761915651784695600,5.303695556640625,-0.07250935589373111,0.04945990421772003,0.08839920900552534
1761915651794749400,5.31374951171875,-0.04757072947025299,0.020663579452782868,0.12038772654104977
1761915651804803600,5.323803466796875,0.0477402408182621,-0.02551350370198488,0.10968056416362523
1761915651814857500,5.333857421875,0.17472469874322413,-0.052888855753093954,0.06107356414792593
1761915651824911600,5.34391162109375,0.2535200030386448,-0.059468964795768256,0.028965169392665847
1761915651834965500,5.353965576171875,0.2673568052113056,-0.047441404002159834,0.01722679167082533
1761915651845019600,5.36401953125,0.2211632093131542,-0.044008799204975364,0.021352506998437455
1761915651855073800,5.37407373046875,0.15312953752875327,-0.05857099304273724,0.026905101907567584
1761915651865127700,5.384127685546875,0.05673427913486957,-0.04719838902652263,0.03462031592739513
1761915651875181600,5.394181640625,-0.06911912893354892,-0.030521394991874694,0.08204861613609828
1761915651885235500,5.4042353515625,-0.17762918801307678,-0.008313216445595026,0.12173397178454323
1761915651895289600,5.41428955078125,-0.17696809375584124,0.036559359981864686,0.13105694979457183
1761915651905344500,5.424344482421875,-0.05692424874901771,0.04074614414721727,0.12610033203419296
1761915651915398700,5.434398681640625,0.07264145784080028,0.021405045469850302,0.09725537322140299
1761915651925452500,5.44445263671875,0.14565233351588247,-0.034136662879586215,0.08187756128497421
1761915651935506700,5.454506591796875,0.15688158353865145,-0.07956219701468945,0.05377602298432029
1761915651945560600,5.464560546875,0.14296177925765513,-0.09734028415903448,0.028357476689945905
1761915651955614500,5.474614501953125,0.1637514693081379,-0.06474091384932398,0.04061911566748749
1761915651965668600,5.484668701171875,0.19403788650035858,-0.024510171878337858,0.026021053648611996
1761915651975722500,5.494722412109375,0.195547706541419,0.022512276059389113,0.018461557630170135
1761915651985776600,5.504776611328125,0.17525193748772144,0.045004824505001303,-0.004097329483344219
1761915651995830500,5.51483056640625,0.09270692526996135,0.07733531474545598,-0.0019249241975718176
1761915652005884700,5.524884765625,0.02158873147368431,0.07809256285354495,0.001617817310045939
1761915652015939600,5.534939697265625,-0.012810966256260872,0.06655278557687998,0.007557068882626481
1761915652025993500,5.544993408203125,0.06745616415739059,0.07891615419611335,0.005802051041997038
1761915652036047600,5.555047607421875,0.13559271179437637,0.08719795259013771,-0.014690816052956506
1761915652046101500,5.5651015625,0.14385726679265498,0.09175181650221348,-0.044316412982577456
1761915652056155600,5.57515576171875,0.10804711774289608,0.10527619172483682,-0.03073385956562124
1761915652066209500,5.58520947265625,0.06505202562510967,0.0866658915400505,-0.011270600379887037
1761915652076258800,5.5952587890625,-0.0104699560880661,0.03373027403578162,0.0003509734287159517
1761915652086313000,5.60531298828125,-0.05472527740001678,0.011323065786063671,0.012469374860532116
1761915652096366800,5.615366943359375,0.010064882418513298,0.010256751728802919,0.021602915262663735
1761915652106421000,5.6254208984375,0.11935118656754493,-0.014520254392176865,0.0031358046745415774
1761915652116475100,5.63547509765625,0.1886988635599613,-0.029329993250221013,-0.0041265510112512855
1761915652126529000,5.645529052734375,0.20888357345461844,-0.056845338293910024,0.01511748506638687
1761915652136584000,5.655583984375,0.1593365754753351,-0.098255060916394,0.01804536662827013
1761915652146637800,5.665637939453125,0.0752899265229702,-0.0970358943849802,0.08096328685111366
1761915652156692000,5.67569189453125,-0.03210778740048408,-0.07710106759816408,0.11023816151376813
1761915652166745900,5.685745849609375,-0.10898995155096053,-0.02243365786522627,0.11296454513720236
1761915652176800000,5.695800048828125,-0.11661445508003235,0.036564328417927026,0.09817397677050903
1761915652186854000,5.70585400390625,-0.05496493137478828,0.08646116274818777,0.10300989076066762
1761915652196908000,5.715907958984375,0.0046223991036415096,0.08196575102508068,0.07883201957661658
1761915652206962200,5.725962158203125,0.024492051699757576,0.023463439304381606,0.05194821846869308
1761915652217016000,5.73601611328125,0.028395488879084586,-0.03323503786474466,0.012956032716180198
1761915652227070200,5.7460703125,0.0013607669591903686,-0.077898501586169,0.006907824893388897
1761915652237123800,5.756123779296875,0.004453472277522087,-0.08204203113168478,0.015377980899787508
1761915652247178000,5.766177978515625,0.02208966673314571,-0.04759498712867498,0.03955594341538381
1761915652257233000,5.77623291015625,0.053390229403972624,0.006605389614403248,0.04487036620406434
1761915652267287000,5.786287109375,0.0687584789276123,0.03780994456484914,0.024885370999434962
1761915652277341000,5.7963408203125,0.10592530328333377,0.05585588886514306,0.015464394241338594
1761915652287395000,5.80639501953125,0.18493278902471064,0.03758987207338214,-0.020583454288123176
1761915652297449200,5.81644921875,0.17004735458195208,-0.005817746368050575,-0.05680528027815744
1761915652307503000,5.826503173828125,0.08712240313589573,-0.021897212900966405,-0.02881596104716882
1761915652317557000,5.836556884765625,0.057066287568211554,-0.020918869388103483,-0.0011884745656279847
1761915652327611000,5.84661083984375,0.12435235585570335,-0.013820143298804759,0.009814930812013335
1761915652337665000,5.8566650390625,0.16265549076497554,-0.021297785703092813,0.011003024068439844
1761915652347719000,5.866718994140625,0.07746376343071461,-0.010177695143222809,0.002184714494785294
1761915652357773000,5.87677294921875,-0.06196341196000576,0.032907851736992594,0.05957570397271774
1761915652367828000,5.886827880859375,-0.1424748725235462,0.07735781883820891,0.08583592525562271
1761915652377882000,5.896882080078125,-0.10564181016683578,0.1102966502353549,0.08755569825293495
1761915652387936000,5.90693603515625,-0.005050853648781776,0.1347179747864604,0.06588274082820862
1761915652397990000,5.916989990234375,0.09712415719032287,0.10374167563393712,0.026413069190480743
1761915652408044000,5.9270439453125,0.1589975527793169,0.05860708726942539,-0.01215300010445062
1761915652418098000,5.937097900390625,0.219934544301033,0.01648264050632715,-0.032300866853748444
1761915652428152000,5.947152099609375,0.23998189155161379,0.00028027824610471724,-0.038707674289285204
1761915652438206000,5.9572060546875,0.15880232246816156,-0.02076850113198161,-0.03458923123596469
1761915652448260000,5.967260009765625,0.0648719928830862,-0.02420651275664568,0.003485693541157525
1761915652458314000,5.97731396484375,-0.01827858401238918,-0.010901917764544486,0.0076915637161815535
1761915652468368100,5.9873681640625,-0.062064534246921536,0.00821501676812768,0.010733054870506747
1761915652478422000,5.997422119140625,-0.08432371232807635,0.037392888196557755,0.01863959934450686
1761915652488477000,6.007476806640625,-0.06544540885686874,0.055731970224529505,0.005735990935307927
1761915652498531000,6.017531005859375,-0.0037953006297349926,0.07243862874507903,0.013153646780666894
1761915652508585000,6.0275849609375,0.058203767165541646,0.027423136715590952,0.007855261811334639
1761915652518639000,6.03763916015625,0.0986561890631914,0.007054156295210123,-0.0010667455988121219
1761915652528693000,6.04769287109375,0.11960311550199985,-0.0011994389176368714,0.03029287433247082
1761915652538747100,6.0577470703125,0.05526537562608719,-0.026405922497063875,0.04615702218085062
1761915652548801000,6.067801025390625,-0.019939795222878455,-0.047057665381580585,0.054653171145031224
1761915652558855200,6.077855224609375,-0.02521159814596176,-0.03821516436487436,0.06447975129564293
1761915652568909000,6.087908935546875,0.03721826228201389,-0.0028188568130135534,0.09014434477295726
1761915652578961000,6.0979609375,0.07397942844629288,0.013414777368307113,0.09288828231939114
1761915652589015000,6.10801513671875,0.04014613242745399,-0.01560541928038001,0.09417478759912773
1761915652599069000,6.11806884765625,0.016188333734869956,-0.013036007183790206,0.12345065777562558
1761915652609123000,6.128123046875,-0.012165654090046881,-0.007603606871515512,0.11939551889961585
1761915652619177200,6.13817724609375,-0.05897475153803825,-0.003958089976012706,0.12353608930306509
1761915652629231000,6.148231201171875,-0.06907821240127086,0.0663173693858087,0.15502917887130752
1761915652639286000,6.1582861328125,-0.061657707011699675,0.09445318441540003,0.13651232912363484
1761915652649340000,6.16833984375,-0.04511398396790027,0.11290975534319878,0.13238764127590694
1761915652659394000,6.17839404296875,-0.018728081345558166,0.12651669428274034,0.16738036386240274
1761915652669448000,6.188447998046875,0.036709143716096876,0.08696984292268753,0.15201184034412726
1761915652679502000,6.198502197265625,0.13774550591409204,-0.0075495385967195025,0.08373152772174217
1761915652689556000,6.208555908203125,0.2547884155392647,-0.0917182064935565,0.01768892015670426
1761915652699610000,6.218610107421875,0.2890337994903326,-0.15147665575519204,-0.03585428501900751
1761915652709664000,6.2286640625,0.299404386857152,-0.13044979594796896,-0.029250365842483004
1761915652719718000,6.2387177734375,0.24301672920286654,-0.08156111574694513,0.0068587250546552235
1761915652729772000,6.24877197265625,0.169751001983881,-0.023014672623574733,0.04560703274842817
1761915652739826000,6.258825927734375,0.10708908636569976,0.006803980926424265,0.05525237914719618
1761915652749881000,6.268881103515625,0.03628770343363285,0.018372838167101144,0.05207246590286959
1761915652759935000,6.27893505859375,-0.0040951603591442105,-0.003548340131342411,0.07546080327758099
1761915652769989000,6.288989013671875,-0.008752630776166915,-0.04050006043165922,0.09214120854544453
1761915652780043000,6.29904296875,0.04262684332728386,-0.053807285772264,0.07792269531250931
1761915652790097000,6.309096923828125,0.13454407952427863,-0.052843555306643246,0.03313717154741753
1761915652800151000,6.319151123046875,0.21517828968465327,-0.02669409178867936,-0.02364599279705435
1761915652810205000,6.329204833984375,0.23792612806558608,-0.0101040453851223,-0.05574405338796787
1761915652820259000,6.339259033203125,0.188425307315588,-0.00845920078754425,-0.046917676955577914
1761915652830313000,6.34931298828125,0.1556248614758253,-0.020022212809324265,-0.02964283575878944
1761915652840367000,6.3593671875,0.10133563740551471,-0.016343232035636902,0.007210757929296232
1761915652850421000,6.3694208984375,0.05772036756277084,0.0027791093245148656,0.02401066139098257
1761915652860476000,6.379475830078125,0.08918225827515125,0.04635755428820848,0.03776328784495126
1761915652870529800,6.38952978515625,0.11251344950199127,0.08677885039523243,0.008767654815362767
1761915652880584000,6.399583984375,0.11486556558609008,0.09190671480298042,-0.026300598959065974
1761915652890638000,6.40963818359375,0.12629238400757312,0.05554638452455401,-0.013168816950335166
1761915652900692000,6.41969189453125,0.12896657165288924,0.030177842251211402,0.02655725430098828
1761915652910746000,6.42974609375,0.09266191708445548,0.01354059570506215,0.05733748745871708
1761915652920800000,6.439800048828125,0.052335751914978024,0.017833178332448005,0.05604078957852907
1761915652930854100,6.449854248046875,0.05044073194861412,0.07031243037134409,0.051209346267511134
1761915652940908000,6.459907958984375,0.03125789257287979,0.12859013955593107,0.025577568214409985
1761915652950962200,6.469962158203125,0.07569090853929519,0.16139423865750432,0.010506465873285195
1761915652961016000,6.48001611328125,0.12559504939317703,0.16184139790311455,0.0019544859354849904
1761915652971070000,6.490070068359375,0.08836392762959003,0.10928864223659038,0.00893101955037564
1761915652981124900,6.500124755859375,0.02412672551870346,0.04683350123688578,0.046893789189914235
1761915652991179000,6.510178955078125,-0.022963526958227155,0.021433687042444943,0.09040197279583662
1761915653001233200,6.520233154296875,-0.05691255831122398,-0.0094525957390666,0.08770193832321092
1761915653011287000,6.530287109375,-0.014089315629005431,-0.012976385951042174,0.05954634544749278
1761915653021341200,6.540341064453125,0.07171732873320578,0.016044979741424322,0.026164706752868368
1761915653031395000,6.55039501953125,0.12546353196799753,0.04104615000709891,-0.0009659178561298176
1761915653041449000,6.560448974609375,0.12620704381167888,0.03448869118764996,0.02148737629132811
1761915653051502800,6.5705029296875,0.0989227310448885,0.028540158046782015,0.05550998433718923
1761915653061557000,6.580556884765625,0.12079320206940174,0.011865648230165242,0.07755386200011707
1761915653071611000,6.59061083984375,0.1432207224547863,-0.035668548621982335,0.0683242385290796
1761915653081664000,6.6006640625,0.20833529192209244,-0.03231675397604704,0.0645716216970235
1761915653091719200,6.61071923828125,0.2657172213107347,-0.009567892681807279,0.03657086775656789
1761915653101773000,6.62077294921875,0.23890812484025953,-0.02161006652265787,0.021973648271197452
1761915653111827200,6.6308271484375,0.15024141487181186,-0.03765212365463376,0.018583987566595895
1761915653121881000,6.640881103515625,0.06717851625978946,-0.030851795990020036,0.03907896898682229
1761915653131935200,6.650935302734375,0.04106266275048256,0.0006157938107848167,0.07676910483059472
1761915653141989000,6.660989013671875,0.067076809450984,0.028479513900727033,0.07344108378589152
1761915653152043000,6.67104296875,0.12382803972065448,0.06013707331568002,0.02381443099940661
1761915653162099200,6.68109912109375,0.16941373285353184,0.07073226321861148,-0.003530904939351603
1761915653172153000,6.691153076171875,0.2074170080333948,0.05848346088975668,-0.027022195798461324
1761915653182207200,6.701207275390625,0.19516426018178462,0.032360593117773534,-0.01498425974131096
1761915653192260900,6.7112607421875,0.12058686584234236,0.050013446447253224,0.01629243799673859
1761915653202315000,6.72131494140625,0.028251111972332,0.11232026501744985,0.04181099689975381
1761915653212369000,6.731368896484375,-0.07768705079257487,0.15079071931764482,0.08303575487677008
1761915653222423000,6.741423095703125,-0.07954875301122664,0.16597615962028503,0.09008221192271448
1761915653232477200,6.751477294921875,-0.03545359069705009,0.1272995152235031,0.0800138315060176
1761915653242531000,6.761531005859375,0.08860358160436153,0.06417626570388674,0.06585712689633946
1761915653252586200,6.771586181640625,0.20497078392505644,-0.01849514937251806,0.04483032188804354
1761915653262639900,6.781639892578125,0.2678220846354961,-0.07279708679392934,0.032654077905323355
1761915653272694000,6.791694091796875,0.23006138603985307,-0.10778262158781289,0.019623057423904536
1761915653282748000,6.801747802734375,0.13336685243844984,-0.0974780851945281,0.037082050415407866
1761915653292802000,6.811802001953125,0.08063947085738181,-0.09114698247686027,0.0783676900004968
1761915653302856000,6.82185595703125,0.07421966694295407,-0.12136647191271185,0.10501909342491998
1761915653312910000,6.83191015625,0.08223287752866744,-0.10942892749011517,0.12291199345481581
1761915653322964200,6.841964111328125,0.1430196469247341,-0.08955737519785761,0.11770184845793992
1761915653333018000,6.85201806640625,0.14322832123935222,-0.07077668688222766,0.12593475707578472
1761915653343072300,6.862072265625,0.08734861310720443,-0.06986278690770269,0.10312555302958935
1761915653353126100,6.872126220703125,0.039432431200146674,-0.0968495780326426,0.11337524482994339
1761915653363181000,6.88218115234375,0.003075169661641121,-0.14201017762124538,0.1158994295453187
1761915653373235000,6.89223486328125,0.007594108390808105,-0.16937953832298516,0.11131968227331526
1761915653383289000,6.9022890625,0.03677870182096958,-0.1559137614198029,0.12363259934694505
1761915653393343000,6.912343017578125,0.057765375748276705,-0.1323363403469324,0.10561158855850808
1761915653403397000,6.922397216796875,0.04413783241212368,-0.10505451179817318,0.07037534867287613
1761915653413451300,6.932451171875,-0.010741174244880676,-0.0497736463420093,0.051442556801764294
1761915653423505200,6.942505126953125,-0.08651157776117324,-0.0183496034219861,0.057177474591415374
1761915653433559300,6.952559326171875,-0.10167290653586387,0.003041559652984142,0.040694130832189694
1761915653443613000,6.962613037109375,-0.029388007047772405,0.004279138623923063,0.024158289700746533
1761915653453667000,6.9726669921875,0.12322364408671856,-0.031315321848541494,-0.019869360335171223
1761915653463721000,6.982720947265625,0.1582218922317028,-0.05423413288220763,-0.03753304558591917
1761915653473776000,6.992776123046875,0.14323942715525625,-0.01098652730807662,0.02851637531239539
1761915653483830000,7.002830078125,0.08718494697809219,-0.005401420652121305,0.0072462813338264815
1761915653493884200,7.01288427734375,-0.031142157238721845,-0.049925037511438126,-0.0354300271583721
1761915653503938300,7.022938232421875,-0.07313771692514419,0.06358633698672056,0.03866115456670523
1761915653513992200,7.0329921875,-0.07556932798624039,0.050910395286977286,0.05565413748165592
1761915653524046000,7.043046142578125,0.01667173333764076,-0.0468828933365643,-0.06370130513589829
1761915653534100000,7.053099853515625,0.1374514914035797,0.016197978346049784,-0.009201287859119474
1761915653544154000,7.063154052734375,0.11097966406345366,0.04242489101439714,-0.013509579512290655
1761915653554208000,7.0732080078125,0.12141630240380763,0.09727978614345192,-0.02901143795349635
1761915653564262100,7.08326220703125,0.161817286375165,0.13596987454369663,-0.06290761574124917
1761915653574316000,7.09331591796875,0.12588789485991,0.11779299734011292,-0.07599950869758614
1761915653584371200,7.10337109375,0.07865326547622681,0.07980433520749211,-0.053049571873294184
1761915653594425000,7.113425048828125,0.04463116888701915,0.029140023636072872,-0.04027093698405661
1761915653604479000,7.12347900390625,0.10269348175525665,-0.015912001011520623,-0.01952543313517235
1761915653614533000,7.133533203125,0.2077829187363386,-0.03990983945354819,-0.015077787810238077
1761915653624587000,7.1435869140625,0.24998715273737906,-0.05635083277523517,0.012505434837890789
1761915653634641200,7.15364111328125,0.19948972216546534,-0.08883417548984289,0.05917668558461591
1761915653644695000,7.163695068359375,0.09460603688955306,-0.09728957688510417,0.09509459672463126
1761915653654749200,7.173749267578125,0.04468377585709095,-0.08903627393320203,0.13097901658699848
1761915653664803000,7.183802978515625,0.06474807424247264,-0.03177402540147305,0.14338175823539495
1761915653674857200,7.193857177734375,0.03478489765524864,0.009005874884873628,0.15517271552784367
1761915653684911900,7.203911865234375,0.01806172639131546,0.032439795833826064,0.16839792514080182
1761915653694966000,7.213966064453125,0.03694002986252308,0.0076264032252132885,0.16633063561376182
1761915653705020200,7.224020263671875,0.10179740969836712,-0.03400134606212377,0.13231573595032095
1761915653715074000,7.234073974609375,0.16203589756190775,-0.06765183285996318,0.09546674537211657
1761915653725128200,7.244128173828125,0.21676117496192454,-0.08705927477180957,0.0665632978377398
1761915653735182000,7.25418212890625,0.2482037764519453,-0.09857026434540749,0.03700253717210144
1761915653745236200,7.264236328125,0.27416064000725743,-0.10284764940366148,0.026860187336895613
1761915653755290000,7.2742900390625,0.2629255447655916,-0.11646452521532773,0.03616259748293087
1761915653765344300,7.28434423828125,0.22433716317415237,-0.14325374794155357,0.04375568296043202
1761915653775398000,7.29439794921875,0.1769955662846565,-0.08629413561820984,0.03978685239469632
1761915653785452000,7.3044521484375,0.12619009267687797,-0.150820237673074,-0.060738436742313204
1761915653795506000,7.314505859375,0.19884557904303074,-0.07892141489312052,-0.09508918076399714
1761915653805561000,7.32456103515625,0.2264922953814268,-0.009457710305601358,-0.10431288138432428
1761915653815615200,7.334615234375,0.24662439830601213,0.008694032456725835,-0.08938563536014407
1761915653825669000,7.344669189453125,0.15200199480354784,-0.026425942371785638,-0.09013291006349027
1761915653835723300,7.35472314453125,0.038889410364627834,-0.08202157286554575,-0.05179296854147687
1761915653845777200,7.364777099609375,-0.08758183734118938,-0.10015738740637897,-0.026967830696143207
1761915653855831000,7.3748310546875,-0.1732189703553915,-0.07093465392291545,0.031177648677211255
1761915653865885000,7.384885009765625,-0.17922142564058302,-0.003856821558624506,0.07241347603751346
1761915653875939000,7.39493896484375,-0.15581892274320125,-0.002582125447690487,-0.010481555194314568
1761915653885993000,7.404992919921875,-0.06499474247992039,0.10866539577171205,0.002036163736414164
1761915653896047000,7.415047119140625,-0.0554389786273241,0.16509616191536186,0.012629709671530872
1761915653906101000,7.42510107421875,-0.09207622615098952,0.15229381735697387,0.0015478870291262864
1761915653916156200,7.43515625,-0.1515033976316452,0.12285393399149179,0.03330123496875167
1761915653926210000,7.4452099609375,-0.12964169443547724,0.12297741424068807,0.07985034803999587
1761915653936264000,7.455263916015625,-0.26302725157439705,0.07751447070464491,0.0840765143676661
1761915653946318000,7.465318115234375,-0.22122809124290943,0.1104687919318676,0.16007776749776675
1761915653956372000,7.4753720703125,-0.03340425695180893,0.06667743486985564,0.12512268264107407
1761915653966426000,7.485426025390625,0.11632336317896842,-0.02454144379943609,0.06636648749085143
1761915653976480000,7.49547998046875,0.2037234142124653,-0.06538593375459313,0.03010362623753026
1761915653986534100,7.5055341796875,0.14500935943722723,-0.1043579078361392,0.032097759196814145
1761915653996588000,7.515588134765625,0.09642857614159583,-0.0858132202334702,0.043945068052690474
1761915654006642200,7.52564208984375,0.07229892801344394,-0.012071692196279763,0.060630729450983925
1761915654016697000,7.535697021484375,0.04633505019545555,0.026395693363994357,0.05936169589585624
1761915654026751000,7.5457509765625,0.056037529042363164,0.08065116129517555,0.09692035998022183
1761915654036805000,7.55580517578125,0.06419336296916008,0.04496098536327481,0.08960735181942582
1761915654046859000,7.56585888671875,0.02466916183233261,-0.03568462297394871,0.04740680304623674
1761915654056913200,7.5759130859375,0.028841479080915448,-0.07254515785947442,0.05868755492737982
1761915654066967000,7.585967041015625,-0.05713643019497394,-0.06063172496482729,0.06567955097288358
1761915654077021200,7.596021240234375,-0.07551905910372733,-0.004707300908118486,0.10276671138824894
1761915654087075000,7.606074951171875,0.13155308101475238,0.01646042867451906,0.03564361739341402
1761915654097129200,7.616129150390625,0.18893150327205657,0.061481912053376435,0.008807697989739243
1761915654107183000,7.62618310546875,0.22368074509203434,0.07535057066902517,-0.005210350492852739
1761915654117237000,7.636237060546875,0.2640308756589889,0.047481005360186096,-0.0728431361590512
1761915654127292200,7.646292236328125,0.30571956135332584,0.04283054920583963,-0.08339247762626037
1761915654137346000,7.656345947265625,0.24692367351353167,0.043746933398395776,-0.03772883758607786
1761915654147400200,7.666400146484375,0.10990005213320254,0.04838584524542093,0.016556232040567557
1761915654157454000,7.6764541015625,0.022895137897133825,0.040094256109744306,0.011100924635096453
1761915654167508200,7.68650830078125,0.02371580663025379,0.0012108370944857597,-0.022057597944315055
1761915654177562000,7.69656201171875,0.05847556984424591,0.01217164543941617,-0.041298544732434675
1761915654187616000,7.706615966796875,0.08158464275300502,0.07609232894703745,-0.04037841137994546
1761915654197670000,7.716669921875,0.11614333043694496,0.09267463043555617,-0.030740540468157267
1761915654207724000,7.72672412109375,0.15590075580775736,0.07488426833152771,-0.015778104399587028
1761915654217778000,7.73677783203125,0.13839081808030604,0.02087429959401488,-0.013978836425277403
1761915654227832000,7.74683203125,0.17159984472095965,-0.04700432775914669,-0.03995615824672859
1761915654237887200,7.75688720703125,0.3072323040038347,-0.09786050864085555,-0.0661376882702345
1761915654247941000,7.766941162109375,0.4152256457328796,-0.1362511757031083,-0.08794935547932982
1761915654257995000,7.7769951171875,0.4014274220049381,-0.1539640886567533,-0.0665399352284614
1761915654268049000,7.787048828125,0.2359551202535629,-0.15542217851057646,-0.03500665293043712
1761915654278103000,7.79710302734375,0.04808160160183906,-0.1271260583527386,0.04468245611626189
1761915654288157000,7.807156982421875,-0.05441431175470352,-0.05553951639235019,0.12763751500621437
1761915654298211000,7.817211181640625,-0.03623100481033325,0.015154022251069545,0.12326976651707663
1761915654308265000,7.827264892578125,0.05980418809950351,0.041289603374153376,0.0706068102080375
1761915654318319000,7.837319091796875,0.09006956250369548,0.04374547209367156,0.03672130222806008
1761915654328373200,7.847373291015625,0.08431143736839294,0.046942660699784755,0.032276613761903716
1761915654338427100,7.85742724609375,0.05436053574085235,0.04874781042560935,0.05731649946961551
1761915654348482000,7.86748193359375,-0.03586450958549976,0.006985182712227106,0.058977573682786895
1761915654358536000,7.877535888671875,-0.10245791943371295,-0.030020751993358134,0.08042083227117545
1761915654368590000,7.887590087890625,-0.07612579282522201,-0.08179317093715072,0.11081384250987321
1761915654378644000,7.89764404296875,-0.00514613071680069,-0.1304502343393862,0.12205650913664139
1761915654388698000,7.907697998046875,0.11593348707854748,-0.14859686253517865,0.12012924000164493
1761915654398752000,7.917751953125,0.20525076991021632,-0.16059329753816126,0.10128942364361136
1761915654408806100,7.92780615234375,0.137939567181468,-0.1889034462213516,0.06287347600962967
1761915654418860300,7.9378603515625,-0.03101473146677017,-0.19947949303239582,0.06676142335887998
1761915654428914200,7.9479140625,-0.0788280375212431,-0.11655673354342579,0.07465410827088635
1761915654438968000,7.957968017578125,-0.03252455150783062,-0.05020560801848769,0.029223427603207525
1761915654449022000,7.96802197265625,0.08714344592392444,0.037381051628291605,-0.01272516483606305
1761915654459077000,7.9780771484375,0.15542320142388344,0.08487579325288534,-0.03938801210310776
1761915654469131000,7.988131103515625,0.16219430299401283,0.10766922434121369,-0.038228010146715674
1761915654479185200,7.99818505859375,0.15340835447013376,0.09764803493395448,0.0018549391177250072
1761915654489239000,8.008239013671876,0.02025368347764015,0.023206834194809196,-0.010381332523119634
1761915654499293200,8.018293212890624,-0.10753975274264811,0.03632438218221068,-0.020952844722941517
1761915654509347000,8.02834716796875,-0.0016126958936452864,0.09608326983526348,-0.0028564123444259166
1761915654519401000,8.03840087890625,0.07056523608863353,0.08382613806948065,-0.059546468745078886
1761915654529455000,8.048455078125,0.0002963525980710983,0.08798048126995563,-0.07983154287482612
1761915654539509000,8.058509033203125,0.030838790377974507,0.11276494004502892,-0.03409191042240709
1761915654549563100,8.068563232421875,0.035004093363881106,0.09038082040995359,-0.03634359833933413
1761915654559618000,8.0786181640625,0.04502981281578541,0.08190335331335663,-0.033552186655672264
1761915654569672200,8.088672119140625,0.0575087706387043,0.08038198896497488,-0.024275285410229115
1761915654579726000,8.09872607421875,0.021343232280015945,0.08802870432585477,-0.05323361407015472
1761915654589780000,8.108780029296875,0.0037257425248622893,0.09944617039710282,-0.07945870010759681
1761915654599833900,8.118833740234376,-0.048829789620637894,0.11585428436249494,-0.05361930718580261
1761915654609888000,8.128887939453126,-0.09309212519526482,0.11277502304762602,-0.030062189115444195
1761915654619942100,8.138942138671876,-0.13516717985868454,0.1095189438611269,0.015458567288750781
1761915654629996000,8.14899609375,-0.0951402898967266,0.10506035701707005,0.04535420419825241
1761915654640050200,8.15905029296875,-0.002523380997776985,0.08535510120242834,0.033196057561226185
1761915654650104000,8.16910400390625,0.0591033463537693,0.05021554489061236,-0.02751995728672482
1761915654660158200,8.179158203125,0.08301672138273715,0.04319046855941414,-0.052837257996597324
1761915654670212900,8.189212890625,0.09221884949207305,0.00857376707792282,-0.07270370028889737
1761915654680267000,8.19926708984375,0.13910744191706179,-0.04008051984533667,-0.09027947892732918
1761915654690321000,8.20932080078125,0.22798107263445852,-0.04085997978523374,-0.07372462256816216
1761915654700375000,8.219375,0.2734358328640461,-0.06444441512078046,-0.10264083825256674
1761915654710429200,8.22942919921875,0.270224469602108,-0.08275807044655084,-0.09086495979824102
1761915654720483000,8.239483154296876,0.22890870887339113,-0.08794409478232264,-0.016086273016326594
1761915654730537200,8.249537109375,0.13687573734223843,-0.10697495846673846,0.03273784948192769
1761915654740591000,8.259591064453126,0.03750292444229126,-0.09588000234812498,0.05270696898070164
1761915654750645200,8.269645263671874,-0.029087562796473503,-0.057013096076250075,0.044372467718482946
1761915654760699100,8.27969921875,-0.07843523881137371,0.007728694555908441,0.07134107016618363
1761915654770753000,8.2897529296875,-0.11342355008423327,0.018419892179220913,0.07970453722798265
1761915654780808000,8.299807861328125,-0.0747930829167366,0.014795418071746825,0.07261556534771807
1761915654790862000,8.309862060546875,0.00310439575612545,-0.01067410035803914,0.06363411708462517
1761915654800916200,8.319916259765625,0.10200082331597804,-0.061554100506752724,0.07342317366986535
1761915654810970000,8.32997021484375,0.14963818828165532,-0.10590338371247053,0.040158964509563515
1761915654821024300,8.340024169921875,0.11995032150447368,-0.11651859349012374,0.009733058931550477
1761915654831078100,8.350078125,0.02015957545340061,-0.06894158040955663,0.019606261552730573
1761915654841132300,8.36013232421875,-0.04039104709923267,-0.017296294976770876,0.044962200072826815
1761915654851186000,8.37018603515625,-0.047262686434388156,-0.020471271751075982,0.07075515090385452
1761915654861240000,8.380239990234376,0.007846621847152709,-0.02519493927210569,0.03463762325522257
1761915654871294000,8.3902939453125,0.08551438341736793,-0.030999387767165897,0.018641505890514234
1761915654881349000,8.40034912109375,0.09845686709880828,-0.031206746907532213,0.007839324456686154
1761915654891403000,8.410403076171875,0.09137246179580688,-0.03375979239121079,0.014334109286486636
1761915654901457200,8.42045703125,0.04606383203864097,-0.03177548670619726,0.0026612733648158607
1761915654911511300,8.43051123046875,-0.014444704937934875,-0.03238645821139216,0.022488870067626704
1761915654921565000,8.44056494140625,-0.029216742134094236,-0.014799655855447054,0.0324715449622483
1761915654931619000,8.450619140625,-0.054036710613965984,-0.015261282017827033,0.043915814558742564
1761915654941673000,8.4606728515625,-0.07089549095630646,-0.002998305033147335,0.06237004739898257
1761915654951727000,8.47072705078125,-0.1737766042381525,0.05213876803815364,0.10870844032899477
1761915654961781000,8.480781005859376,-0.1893658030360937,0.10157470685839652,0.10697415474914014
1761915654971835100,8.490835205078126,-0.06311959625780582,0.13596125284582375,0.07910735678612255
1761915654981889000,8.500888916015626,0.0390349563151598,0.11626885651275515,0.03521733425576239
1761915654991944200,8.510944091796874,0.06968319255709647,0.07187880290523171,0.01970729022481246
1761915655001998000,8.520998046875,0.05370762479007244,0.036081367206573484,0.044263774046464824
1761915655012052000,8.531052001953125,0.022332243317365646,-0.025234394499659536,0.05384244841719046
1761915655022106000,8.541106201171875,0.028680735561251638,-0.06901347660198807,0.04292020938382484
1761915655032160000,8.551159912109375,0.13190730127990244,-0.04497296806201338,0.06630959250472951
1761915655042214100,8.561214111328125,0.1941670658379793,0.010573416462540626,0.10169959361338987
1761915655052268000,8.57126806640625,0.17624445565640925,0.015840250949561596,0.10451243167757056
1761915655062322200,8.581322265625,0.15650748952925203,-0.033130554576963185,0.07166186765234452
1761915655072376000,8.5913759765625,0.18740239400863645,-0.06899886355474591,0.04209973244694993
1761915655082431200,8.60143115234375,0.25400515620708464,-0.11157543799951672,0.07176810907237231
1761915655092485000,8.611485107421874,0.31137013446092604,-0.11471534346044063,0.10070881074406206
1761915655102540300,8.621540283203124,0.2556090842723846,-0.06548121082261205,0.09365184143725783
1761915655112594200,8.63159423828125,0.14275602755248545,0.02861877624094486,0.10786380619839764
1761915655122648300,8.6416484375,0.046886838859319685,0.07087327912449837,0.09753750549787654
1761915655132702200,8.6517021484375,0.01574585066437721,0.06544409368261694,0.0675582499921089
1761915655142756000,8.661756103515625,0.06001169337034225,0.023312194265425204,0.057937617909489196
1761915655152810000,8.67181005859375,0.08733516910374164,-0.053396366883814335,0.06082384087028913
1761915655162864000,8.681864013671875,0.07969312991797924,-0.06881283946335315,0.05754162259553559
1761915655172918300,8.691918212890625,0.05425123014748096,-0.02033347071558237,0.049793620550958435
1761915655182972200,8.70197216796875,0.020696166548132895,0.043549949521571395,0.022566839807818175
1761915655193026300,8.7120263671875,0.025949849292635916,0.10878960667327046,-0.006792621565482113
1761915655203081200,8.722081298828124,0.05507131435871124,0.12288739786967634,-0.025972677612374536
1761915655213135400,8.73213525390625,0.07100128941833972,0.13220306935608386,-0.03686983928669942
1761915655223189000,8.74218896484375,0.10439853210747241,0.12224866157472133,-0.03183519242062466
1761915655233243100,8.7522431640625,0.13933131380081176,0.10550254782661796,0.009232915973244235
1761915655243297000,8.762297119140625,0.15110416918098926,0.05945756661891937,0.04172099422847386
1761915655253351200,8.77235107421875,0.18667349521219728,0.028302403768151997,0.056472253498085774
1761915655263405300,8.7824052734375,0.2353191604375839,-0.017574819657206534,0.06429351714169607
1761915655273459200,8.792459228515625,0.2705640768200159,-0.06174290107712149,0.0483991933507612
1761915655283513300,8.802513427734375,0.3096943102031946,-0.028028993654251096,0.05036895905376877
1761915655293567200,8.812567138671875,0.29390169778764247,0.01003229532316327,0.056054018952860496
1761915655303621400,8.822621337890626,0.20621581555008886,0.0432623647518456,0.03401238804594613
1761915655313676000,8.832676025390626,0.09024024289548396,0.07656973720043897,0.047277820071438326
1761915655323730200,8.842730224609374,-0.005466448712348937,0.063655456700176,0.0797605599978473
1761915655333784000,8.8527841796875,-0.032574820390343665,0.018444295968115327,0.08736380154318175
1761915655343838200,8.862838134765624,0.031925416570901866,-0.031715573212504386,0.09457270087553188
1761915655353892000,8.87289208984375,0.14900456655323505,-0.08860255869105457,0.07825213732942939
1761915655363946200,8.8829462890625,0.20192834748923777,-0.1162098198018968,0.05013275284483097
1761915655374000400,8.89300048828125,0.1702285563677549,-0.11803674296811223,0.06182994917291216
1761915655384054300,8.90305419921875,0.09446633615791797,-0.09334113152027129,0.06365661661080084
1761915655394108400,8.9131083984375,0.018137714236974717,-0.06377528368756175,0.051104397188848814
1761915655404162000,8.923162109375,0.014212065225839614,-0.024094284553825854,0.05251788071596529
1761915655414217200,8.93321728515625,0.07046119119226932,-0.0053492520734667775,0.04843709594204556
1761915655424271000,8.94327099609375,0.11205576886236666,-0.03792947929129004,0.05646897926218807
1761915655434325200,8.9533251953125,0.10042845943272113,-0.06639964084178208,0.06249080596813
1761915655444379100,8.963379150390624,0.10094517678320407,-0.039636283209174866,0.03631377630651696
1761915655454433300,8.973433349609374,0.11558745011985301,0.032088498178124425,0.005357412547036074
1761915655464487400,8.9834873046875,0.12847265065610408,0.10689254088029265,-0.04082494500447065
1761915655474541300,8.993541259765625,0.1732493654936552,0.1594061335802078,-0.07973708779071458
1761915655484595200,9.00359521484375,0.23561726660132407,0.13551175551265476,-0.08326681455313227
1761915655494649000,9.013649169921875,0.20942250263690948,0.028651071075350046,-0.09481566105224191
1761915655504703200,9.023703125,0.1538251185774803,-0.05302168835252523,-0.0937718510877341
1761915655514757000,9.033757080078125,0.1573895330607891,-0.04012099798619747,-0.025572917155467438
1761915655524812300,9.043812255859375,0.19122224455773829,0.08965805909335613,0.050504737095534796
1761915655534866200,9.0538662109375,0.12884557562172413,0.10036430815532803,0.02596835763028357
1761915655544920300,9.06392041015625,0.12939268811047078,0.09716668115779757,-0.0072702558644581585
1761915655554974200,9.07397412109375,0.15963468163907527,0.09455284539759158,-0.04573892463294323
1761915655565028000,9.084028076171874,0.15220599294304846,0.09694032505601644,-0.031527060336503196
1761915655575082200,9.094082275390624,0.10166998392641544,0.10381006469503044,0.028429621760838197
1761915655585136000,9.10413623046875,-0.022498247534036633,0.09521218608915805,0.07164819532001857
1761915655595190300,9.114190185546875,-0.12096563602685928,0.11498086252883076,0.0799601194242481
1761915655605244200,9.124244140625,-0.09997194783687591,0.107849549344182,0.078080799350515
1761915655615298300,9.13429833984375,-0.03175181356966495,0.05640796978995204,0.043521467779180964
1761915655625352200,9.144352294921875,0.00791325734257698,-0.03607917524948716,0.029801282290089874
1761915655635407000,9.154406982421875,0.032761282873153684,-0.08591814191266894,0.03874460876618977
1761915655645461200,9.164461181640625,0.04876023151576519,-0.10810177053958177,0.031154402515653053
1761915655655515100,9.17451513671875,0.02554360657930374,-0.09820172329396008,0.020916056376509368
1761915655665569300,9.1845693359375,-0.0031517420291900635,-0.06529957064539194,0.017354498287278693
1761915655675623200,9.194623046875,-0.002895136919617653,-0.01593231314718723,-0.024656478163984138
1761915655685677300,9.20467724609375,0.04535539150834083,0.04188596183210611,-0.031001116216660008
1761915655695731200,9.214731201171874,0.10577741924524306,0.08426350657343865,-0.028261313705937936
1761915655705785300,9.224785400390624,0.10679507185518741,0.08348667698204516,-0.03987688703201711
1761915655715839200,9.234839111328125,0.0686848291695118,0.10268822105824947,-0.01355909148462233
1761915655725893400,9.244893310546875,0.014413725277781486,0.09938815659955143,0.02909716630845796
1761915655735948000,9.254947998046875,0.0023521160840988156,0.07084726790040731,0.04744671949809417
1761915655746002200,9.265002197265625,0.031195348730683324,0.020002192934602498,0.04730110961548052
1761915655756056300,9.275056396484375,0.09960428356826305,-0.0033320670321583747,0.05981058587424922
1761915655766110200,9.285110107421875,0.1687695897310972,-0.011941197684407233,0.06206790894751902
1761915655776164400,9.295164306640626,0.18504560174942017,-0.0278089211627841,0.061657597413845355
1761915655786218200,9.30521826171875,0.1716460219502449,-0.022786855217069385,0.06289559650989249
1761915655796272400,9.3152724609375,0.20407821899950504,-0.03711874743029475,0.06729893690221943
1761915655806326300,9.325326171875,0.21052081926763055,-0.0737440122552216,0.06161820155179593
1761915655816380200,9.335380126953124,0.18094576521515846,-0.06896101576238871,0.0812546618799679
1761915655826434000,9.34543408203125,0.13235270695984364,-0.03710881055817008,0.11058901164489797
1761915655836488200,9.35548828125,0.017242226701974867,-0.034940526608377695,0.13291763823307118
1761915655846543400,9.36554345703125,-0.09996960974931716,-0.010311696786433457,0.14518951091025956
1761915655856597200,9.37559716796875,-0.12436638438105582,0.02439677463173866,0.14787654890399426
1761915655866651400,9.3856513671875,-0.09194763133525848,0.04605477194935083,0.12726193229262717
1761915655876705300,9.395705322265625,-0.04926642747223377,0.04533639454692602,0.113108766780328
1761915655886759200,9.40575927734375,0.03219020498692989,0.02250759988427162,0.10106695826565847
1761915655896813000,9.41581298828125,0.08603226981163024,-0.012683394353836775,0.10619162606932223
1761915655906867200,9.4258671875,0.06848316911756992,-0.06062587974593043,0.10567229663664475
1761915655916921000,9.435921142578126,0.023198504757881162,-0.08186915878280997,0.08939495117776096
1761915655926975200,9.445975341796874,0.005959200665354728,-0.06843100053891539,0.09158319107019341
1761915655937029000,9.456029052734374,0.014592004454135894,-0.05413491029143333,0.0803611653726548
1761915655947083300,9.466083251953124,0.03066226476728916,-0.04644990874677896,0.05695388583545573
1761915655957138200,9.47613818359375,0.08689151698946952,-0.030309359676390885,0.04177560592596419
1761915655967192000,9.486192138671875,0.1574421400308609,-0.0001851473085582256,0.0012046071414544713
1761915655977246200,9.49624609375,0.16885376088321208,0.006156769064068794,-0.056107498139189554
1761915655987300000,9.506300048828125,0.14246493565142154,0.030852526642382142,-0.049950888905324974
1761915655997354200,9.516354248046875,0.10607552540898323,0.07426058347523212,-0.01608658925180207
1761915656007408000,9.526408203125,0.12653496059179306,0.07629340447708964,-0.002070400507800514
1761915656017462300,9.536462158203125,0.11438859572410583,0.042311347637325525,-0.006237358877965016
1761915656027516200,9.54651611328125,0.0879120922088623,0.004817775545269251,-0.004489435215113917
1761915656037570300,9.5565703125,0.019873159727454185,0.009767360776662825,0.04742467206306755
1761915656047624200,9.566624267578124,0.019911153650283814,0.05728007644936442,0.08267964404863305
1761915656057678300,9.57667822265625,0.009070610684156417,0.11379866700693965,0.09009130854462273
1761915656067733200,9.586733154296875,0.026127543947100637,0.12081234516128897,0.0965643861494027
1761915656077787100,9.596787109375,0.051824295261502264,0.08625774913057685,0.07444638380433898
1761915656087843800,9.60684375,0.17106792980134486,0.013375322140753269,0.04857623498467728
1761915656097897700,9.616897705078125,0.2935737810075283,-0.07859539780914783,0.017913732755370438
1761915656107951900,9.626951904296876,0.3373147230565548,-0.11568988758102058,0.02615901908088708
1761915656118005800,9.637005859375,0.29177696071863174,-0.12867811010032892,0.07104090904267504
1761915656128060000,9.647059814453126,0.1605260775208473,-0.13734963846430182,0.11272669952702707
1761915656138114000,9.657114013671874,0.029141923332214353,-0.1028949956767261,0.12645967599903232
1761915656148168000,9.66716796875,0.0309393281430006,-0.07328443191945552,0.10704270820701495
1761915656158222000,9.67722216796875,0.04724164364635944,-0.0563834198705852,0.06531250319220125
1761915656168276700,9.68727685546875,0.02377542786300182,-0.06086114980652928,0.06873101553195156
1761915656178331000,9.697330810546875,-0.056684594774246214,-0.07898176677823067,0.09332344973310827
1761915656188384800,9.707384765625,-0.10381868639290333,-0.09076353611722587,0.12482041175886988
1761915656198439000,9.71743896484375,-0.09269114317893981,-0.0917749051168561,0.14671107618804088
1761915656208492800,9.727492919921875,0.0038601825594902035,-0.0973755016028881,0.11878191704591735
1761915656218547000,9.737546875,0.08240238887667656,-0.0932622210651636,0.06830155177323613
1761915656228601000,9.74760107421875,0.12206745978891849,-0.0655741498030722,0.06578107055202126
1761915656238655000,9.757655029296876,0.06715805799365043,-0.028856676650047302,0.055851833744533355
1761915656248708900,9.767708984375,-0.034357612153887745,0.012878770795464515,0.04395250700705219
1761915656258762800,9.7777626953125,-0.11790040323734283,0.04161795854568481,0.05876874410454183
1761915656268818000,9.78781787109375,-0.16975567815899847,0.04553732394650578,0.060528186958539294
1761915656278871800,9.797871826171875,-0.13916998575925826,0.03224544230550527,0.051456882154638874
1761915656288926000,9.807926025390625,-0.08966331979036331,0.01070069610401988,0.04174338872337248
1761915656298979800,9.817979736328125,-0.007352116328477859,0.022285919957607984,0.025931745097076055
1761915656309034000,9.828033935546875,0.088940266212821,0.03518675645440816,0.033599982736597304
1761915656319087900,9.838087890625,0.13189327275454998,0.013196604572981595,0.01900194355060812
1761915656329141800,9.848141845703125,0.08275836270749569,-0.006460282055288553,0.0059504613781173245
1761915656339196000,9.85819580078125,-0.03394610874354839,0.019073241521418094,0.048725639692996627
1761915656349249800,9.868249755859376,-0.04853402154445648,0.03837751531973481,0.08020838596373796
1761915656359304000,9.878303955078126,-0.021560089901089666,-0.005958762273937463,0.07470675634015352
1761915656369357800,9.88835791015625,0.06341302624642849,-0.07779547960311174,0.07879180629723705
1761915656379413000,9.8984130859375,0.19349077401161194,-0.1480010885991156,0.08857445597457698
1761915656389467000,9.908466796875,0.3523714224129915,-0.18805632787272333,0.0699237735470524
1761915656399520800,9.918520751953125,0.4380050482958555,-0.17550781194493173,0.02468931413779501
1761915656409575000,9.928574951171875,0.39875907957851886,-0.12551438537240028,-0.004529610820231028
1761915656419628800,9.93862890625,0.30388474714159963,-0.044865562164783476,-0.0015679297367343678
1761915656429683000,9.948682861328125,0.23438509445786473,0.005294891537725925,-0.002758162434608675
1761915656439736800,9.95873681640625,0.27274843512177466,0.061990738358348604,-0.07648536968550179
1761915656449791000,9.968791015625,0.21233751330077646,0.0543237108618021,-0.07910040645552799
1761915656459844900,9.978844970703125,0.15513561665415762,0.04644260222315788,-0.07140894777062348
1761915656469899000,9.98889892578125,0.022388357418775557,0.03108808896392584,-0.047992251951107755
1761915656479953700,9.99895361328125,-0.07350596571564674,0.04139803218469024,0.03893229965828359
1761915656490007800,10.0090078125,-0.04490063347816467,0.07146072362363338,0.0031472485171630976
1761915656500062000,10.01906201171875,-0.010702011278271674,0.10012743065953254,-0.08829921009661629
1761915656510115800,10.02911572265625,0.014273440024256706,0.13278203828781843,-0.12806960454685612
1761915656520170000,10.039169921875,0.060517889326810834,0.129505062443763,-0.14673800072758458
1761915656530223900,10.049223876953125,0.13530161989331244,0.09099076900184154,-0.1321434115907177
1761915656540278000,10.059278076171875,0.08889467350542544,0.009556640635430812,-0.07556182509979699
1761915656550332000,10.069331787109375,-0.08594225344061851,-0.04463789088875055,0.004497841142211109
1761915656560386000,10.079385986328125,-0.2302268057346344,-0.046035628857463595,0.08178957247426732
1761915656570440000,10.08943994140625,-0.21710019765794275,-0.02604147309884429,0.09706159508181736
1761915656580493000,10.0994931640625,-0.10209200873076915,-0.030137948632240293,0.060334532116539774
1761915656590547000,10.109546875,0.0681833093881607,-0.0478306955806911,0.004484835530165583
1761915656600600800,10.119600830078125,0.21908757208287716,-0.07927008220031857,-0.005927636483311653
1761915656610654700,10.12965478515625,0.2524666945934296,-0.1291999420173466,0.0013961761992890387
1761915656620708900,10.139708984375,0.17033493935167787,-0.17054595175385473,0.03680216489494778
1761915656630762800,10.1497626953125,0.1075578729212284,-0.14143500808179377,0.06532333511346951
1761915656640818000,10.15981787109375,0.10374620567858218,-0.10200783757865428,0.06403143213940785
1761915656650871800,10.169871826171875,0.11054945595264434,-0.06698153238296509,0.04816506036790087
1761915656660926000,10.179926025390625,0.08120119639337062,-0.04394099466577172,0.05368562302081845
1761915656670980000,10.18997998046875,-0.005551204386353492,-0.042010318864136934,0.10507488786592148
1761915656681033700,10.20003369140625,-0.007940729871392249,-0.05631853794082999,0.13740293955411761
1761915656691088000,10.210087890625,0.059839843934774394,-0.06075535134449601,0.12504781817342153
1761915656701141800,10.220141845703125,0.12379939814805983,-0.03320245076939463,0.08817279810481704
1761915656711196000,10.23019580078125,0.16710720947682856,0.016439239756017923,0.07435778763885609
1761915656721249800,10.240249755859375,0.16006313618421553,0.011222235760092734,0.06336629189471714
1761915656731304000,10.250303955078126,0.12520984946787356,-0.015547990004718303,0.05221890233596786
1761915656741357800,10.26035791015625,0.11106734234690666,-0.020470102707296607,0.04821299116285518
1761915656751413000,10.2704130859375,0.13159458206892014,-0.02289718372374773,0.05473612758759409
1761915656761467000,10.280466796875,0.18916005133092403,-0.014171733215451239,0.04201447444944642
1761915656771520800,10.290520751953125,0.22280396225750446,0.01051525653451681,0.009586332520795986
1761915656781575000,10.300574951171875,0.1969593269050121,0.03584580488502979,-0.006536489096656441
1761915656791628800,10.31062890625,0.06721066496372223,0.04367562172785401,-0.012117010909039527
1761915656801683000,10.320682861328125,-0.03598433657288551,0.023889263501018283,0.02249483173424378
1761915656811736800,10.33073681640625,-0.04791676642894745,0.020997925973683593,0.0433802007115446
1761915656821791000,10.340791015625,-0.007626257094740867,0.010745558159053325,0.05961825533965602
1761915656831844900,10.350844970703125,0.02626081493794918,-0.0018657938718795776,0.06601982947764917
1761915656841899000,10.36089892578125,0.062277300214767455,-0.0007030337028205394,0.053821049436135214
1761915656851954000,10.370953857421876,0.08449789985120296,0.024279577992856502,0.05108126747501082
1761915656862007800,10.3810078125,0.05539513948559761,0.03672843293845653,0.037172075919574124
1761915656872062000,10.39106201171875,0.06795183871984481,0.04007876627966761,0.03101212851773016
1761915656882115800,10.40111572265625,-0.11371230389773845,0.13763868453875183,0.010997468827199191
1761915656892170000,10.411169921875,-0.20417641867697237,0.15780556651577352,0.14027170905661768
1761915656902224000,10.421223876953125,-0.10694412493705749,0.01570244991406798,0.060620938709331676
1761915656912278000,10.431278076171875,-0.10851941142976283,-0.030305706414580344,0.08512272635181434
1761915656922332000,10.441331787109375,-0.4136012594014406,0.10939297939389943,0.2549608494967222
1761915656932386000,10.451385986328125,-0.6475631600111723,0.1027944579117,0.36138891467042267
1761915656942439700,10.461439697265625,-0.5175795202702284,0.11713117243051528,0.22558011243995277
1761915656952493800,10.471493896484375,-0.31136487376391886,0.16134952273294328,0.11136798752760514
1761915656962549000,10.481549072265626,-0.18714111272394657,0.1930073744088411,0.1142955654121004
1761915656972603000,10.491602783203126,-0.06602116291821003,0.18204729671627282,0.12353155925842
1761915656982657000,10.501656982421874,0.09218845435380935,0.06799889273196458,0.07156356294360011
1761915656992711000,10.5117109375,0.22406711406111715,-0.07357610834240913,0.0029853176874108612
1761915657002765000,10.52176513671875,0.36032033559083937,-0.15701660809516907,-0.010748115442320703
1761915657012818700,10.531818603515624,0.5183060809791088,-0.17983634266853332,-0.028580270861461757
1761915657022872800,10.541872802734375,0.5802788452893495,-0.15090981565266848,-0.00744136551450938
1761915657032926700,10.5519267578125,0.5377116231948137,-0.1022502680324018,0.024714973735436796
1761915657042980900,10.56198095703125,0.3735948277056217,-0.06436579692661762,0.10389229961838573
1761915657053034800,10.57203466796875,0.3167839762032032,-0.09546031563133,0.19646763439793138
1761915657063090000,10.58208984375,0.47698447503149505,-0.16266498924568296,0.21624591891616582
1761915657073144000,10.59214404296875,0.5161076941519975,-0.21897256740108131,0.1682072066079825
1761915657083195100,10.602195068359375,0.3856669582933187,-0.16137158843427896,0.1813654884645715
1761915657093249000,10.6122490234375,0.1527396614283323,-0.02660992063656449,0.2762117273181677
1761915657103303200,10.62230322265625,0.012394786670804023,0.12935966262370346,0.3347867389488965
1761915657113357000,10.632357177734375,0.1649801343202591,0.22560762150138616,0.36433779107127334
1761915657123411200,10.6424111328125,0.39161271495521066,-0.21571078912615774,-0.024987835860066115
1761915657133465000,10.652465087890626,1.2280255451738833,-0.40111002661883827,-0.6281171396546066
1761915657143519200,10.662519287109374,0.6990735670179128,-0.018161825764924287,-0.6220500947006047
1761915657153573000,10.672572998046874,0.14752397260665892,0.466248707614094,-0.03138772949762642
1761915657163627300,10.682627197265624,-0.37019057222008706,0.41921325406432147,-0.16971037771254777
1761915657173682200,10.69268212890625,-0.3777466866880655,0.08809899308308959,-0.370527439491637
1761915657183736000,10.702736083984375,-0.11151216350495814,-0.2675498435653746,-0.32903197481445967
1761915657193790200,10.712790283203125,-0.09105915806293487,-0.05141965998336673,-0.11643570097964256
1761915657203844000,10.722843994140625,0.05831774893403053,0.24399799532517788,-0.16636914099324493
