time,seconds_elapsed,z,y,x
1761916258663829500,0.13082958984375,0.10317805040180683,-0.00002018427150323987,-0.0025318474320229142
1761916258673884400,0.140884521484375,0.20330314297378063,0.007483204495394602,-0.027206680953316388
1761916258683939600,0.150939697265625,0.09781155493259429,0.0037335148393642156,-0.009991817182302474
1761916258693994500,0.160994384765625,0.011906710892915725,0.00035062180226668713,0.018258765067066998
1761916258704049200,0.171049072265625,0.08133037573099136,0.0032033808848820626,0.004210703897057101
1761916258714105000,0.18110498046875,0.13670096529722212,0.009483310537738725,-0.0076072236007079476
1761916258724160300,0.19116015625,0.1039414359897375,-0.0004672704518772661,-0.018483468067878855
1761916258734215000,0.20121484375,0.081642510420084,0.003593375716311857,0.0030014468383044004
1761916258744270000,0.21127001953125,0.0735515584230423,-0.0016766188421752303,0.010428993890015408
1761916258754325200,0.2213251953125,0.08447101184427738,0.0028209026396274566,-0.007033524499135091
1761916258764380200,0.231380126953125,0.10707213523089885,0.00273144339104183,-0.01571519979778677
1761916258774436400,0.241436279296875,0.11979834581315517,0.0038077399861998853,-0.012080460024625062
1761916258784491000,0.251490966796875,0.07849486004412173,0.00014404811318963765,-0.00031452757557854055
1761916258794546200,0.261546142578125,0.0549947419911623,0.0018632548549212514,0.005606459971237927
1761916258804601000,0.27160107421875,0.08686988967955112,-0.0056446365571580824,-0.009442439671233295
1761916258814656000,0.281656005859375,0.11815174764990806,0.0028747608518693594,-0.014751049207057804
1761916258824711200,0.291711181640625,0.09720014503598212,0.005827171783521771,-0.012064102544868364
1761916258834767000,0.30176708984375,0.06786708304584026,0.0028000699141528455,-0.00010487601342611015
1761916258844822300,0.311822265625,0.07564940748512744,-0.0025280206402763725,-0.007296248822240159
1761916258854877200,0.321877197265625,0.10588146414160728,0.00678588814730756,-0.01612283988376148
1761916258864932000,0.33193212890625,0.0939157165378332,0.00040328357126563787,-0.011699306086776778
1761916258874987000,0.341987060546875,0.08104396000504493,-0.0005041775293182581,-0.009505147910211235
1761916258885043200,0.352043212890625,0.07176409048438072,-0.004383859373722225,-0.002716638547554612
1761916258895098000,0.36209814453125,0.09226385767757891,-0.0000024385522585362194,-0.007262474416801706
1761916258905153000,0.372153076171875,0.09346212755143642,0.003645060237776488,-0.008219592478545382
1761916258915208200,0.382208251953125,0.08657938230037689,-0.006822585162194445,-0.007195217866869643
1761916258925263000,0.39226318359375,0.08418050446510314,-0.007751746637932956,0.0037555896738544104
1761916258935318300,0.402318359375,0.09375731110572814,-0.0029517076787538826,0.0013958382725715636
1761916258945374000,0.4123740234375,0.1117144080787897,0.005649312732275575,-0.006957390523003414
1761916258955429000,0.42242919921875,0.09794716401100158,0.00427448984826915,-0.004258022770658136
1761916258965484000,0.432484130859375,0.08507774556577205,0.0026820695576723662,0.00395021719681099
1761916258975539200,0.442539306640625,0.08687047420144081,0.01277565748086199,0.0036499464754480865
1761916258985594000,0.452593994140625,0.07774024228453635,0.006877256225189194,-0.00642698257388547
1761916258995649000,0.46264892578125,0.09644669632017612,0.0086748893648386,-0.0023817988363094627
1761916259005705200,0.472705322265625,0.0925567031443119,0.005802448334218934,-0.003946874462254345
1761916259015760100,0.482760009765625,0.08971417319476604,-0.000895761529635638,-0.010233553516305982
1761916259025815000,0.49281494140625,0.0940554172694683,-0.004142077373946085,-0.009893800167925655
1761916259035870000,0.502869873046875,0.1022854854762554,-0.000033829204365611074,-0.013281177583895623
1761916259045925000,0.512925048828125,0.10318448014259338,0.005265391448605806,-0.008671546630281954
1761916259055981000,0.52298095703125,0.09180968416929244,0.0019151311726309358,-0.0033232718043494968
1761916259066036200,0.5330361328125,0.09300327786803245,-0.0028057690025772896,0.0012661657446064055
1761916259076091100,0.543091064453125,0.09734159933328627,-0.0034354817408602683,-0.004103992119571194
1761916259086146000,0.55314599609375,0.0925526114910841,-0.005478604941023513,-0.0014896905684843658
1761916259096201200,0.563201171875,0.09255085792541504,0.003695603114925325,-0.00475880276649259
1761916259106256100,0.573256103515625,0.0832715729266405,0.004273156407708302,0.004991679940605536
1761916259116312000,0.58331201171875,0.09344400737285613,0.0022885949943680316,-0.004853659709403291
1761916259126367000,0.593366943359375,0.08251987777650356,0.00830496920705773,-0.01091548049901612
1761916259136422100,0.603422119140625,0.08895546378195285,-0.002305354332923889,-0.010991851937165483
1761916259146477300,0.613477294921875,0.08984978227317332,0.002587103016907349,-0.0043336726895999165
1761916259156532000,0.623531982421875,0.09328910907208919,-0.008827376512810587,0.0006069437840487807
1761916259166588200,0.633588134765625,0.0961293009340763,-0.009110065911710262,-0.008121968189813197
1761916259176643000,0.64364306640625,0.0804179370611906,0.0011285565053578465,-0.013633626017067581
1761916259186698200,0.6536982421875,0.10107084898948669,0.006254548616427928,-0.005169812986487522
1761916259196753200,0.663753173828125,0.1000245548069477,0.002317154368571937,-0.0038178138556424525
1761916259206808000,0.67380810546875,0.08341419626772403,0.00005234210859052837,-0.0076581866029649965
1761916259216863200,0.68386328125,0.09448971703350544,-0.007852667995449154,-0.007400768642639741
1761916259226919200,0.693919189453125,0.10765899520814418,0.004291249186825007,-0.003320285262819379
1761916259236974000,0.70397412109375,0.07757832972109317,0.006244657410075888,0.002197866237303242
1761916259247029000,0.714029052734375,0.07637655271589755,0.006470894780848175,0.0013099044216331095
1761916259257084200,0.724084228515625,0.09254267461895942,0.000885797258047387,-0.007704035038687288
1761916259267139000,0.73413916015625,0.10182780483663081,0.0049789574563503265,-0.0005021134363953024
1761916259277194000,0.744194091796875,0.09913432796895504,0.008603248900733888,-0.0012322908744681626
1761916259287250000,0.75425,0.07922785049378872,0.0007732585279736667,0.005376678936509415
1761916259297305000,0.76430517578125,0.06171674372255802,-0.02623328761020675,-0.0068206580665893845
1761916259307360300,0.7743603515625,0.09778349788188934,0.02100227335523814,-0.006614166575903073
1761916259317415000,0.784414794921875,0.13235855217874049,0.01963696721824817,-0.023340561843384056
1761916259327470000,0.794469970703125,0.06861117941141129,0.009645259633800014,0.02018384224497713
1761916259337526000,0.804526123046875,0.04870411741435528,0.010789196371380238,-0.0015370825073216109
1761916259347581200,0.814581298828125,0.14581892225444315,-0.01820454152864404,0.005851292444625869
1761916259357636000,0.824635986328125,0.08656301568746566,0.0205878290691413,-0.009611393896816298
1761916259367691000,0.83469091796875,0.057986325022578236,0.006276669116690755,-0.007079144605994224
1761916259377746200,0.84474609375,0.11948738016784191,-0.0015818258313462137,-0.001772042040666565
1761916259387801000,0.854801025390625,0.09149988756775855,-0.0009405687857419252,-0.009476533737080172
1761916259397857300,0.864857177734375,0.06875555631816387,-0.001339066584035754,-0.00559844106156379
1761916259407912000,0.874911865234375,0.11604688432514666,0.015458676886605098,-0.006061482862895354
1761916259417967000,0.884967041015625,0.10692308214902878,-0.0012373049763031304,-0.003620583383645862
1761916259428022300,0.895022216796875,0.08043430367410183,-0.010479217106755822,-0.009294400369515642
1761916259438077200,0.9050771484375,0.08507248486876487,-0.014682130423001944,-0.008841012312518432
1761916259448133000,0.915133056640625,0.10946750593483448,0.01554651956683956,-0.006903979835333302
1761916259458188000,0.92518798828125,0.0952583633184433,0.020890602274844423,-0.00550190361822024
1761916259468243200,0.9352431640625,0.08972060293555259,0.0007835241936612874,-0.005631210820004343
1761916259478298000,0.945298095703125,0.07549976988136768,-0.0076970299091655755,-0.000009535013325512408
1761916259488353000,0.95535302734375,0.1067781207203865,-0.009458240028563887,-0.007069856187840924
1761916259498408200,0.965408203125,0.12309212666153907,0.002517225251626223,-0.01203939736187458
1761916259508464000,0.975464111328125,0.07880056499242782,0.0030242888577748086,-0.013553528251871465
1761916259518519000,0.98551904296875,0.07281506084203719,-0.008755224592052399,-0.005553761669620871
1761916259528574200,0.99557421875,0.09930208575129508,-0.008108423721650614,0.0021518899374175816
1761916259538629000,1.005629150390625,0.09691080670058727,-0.004080364648811519,-0.0027291053034830836
1761916259548684000,1.01568408203125,0.0797036513119936,0.0065876712946221225,-0.0032608649594709277
1761916259558739200,1.0257392578125,0.09765841019749641,-0.012091529407911002,-0.0016867475105449556
1761916259568795100,1.035795166015625,0.09286825331151485,0.0020675909211393443,-0.00023022855930030344
1761916259578850000,1.04585009765625,0.09331658160090446,-0.006966423212829977,-0.0014616700503975151
1761916259588905200,1.0559052734375,0.08403905016779899,0.005963155321264639,-0.01324159449217841
1761916259598960000,1.065960205078125,0.08823124116063118,0.005975485079875216,-0.006531356263812631
1761916259609015300,1.076015380859375,0.0933235958635807,0.0014343984509818256,-0.0018884623614139854
1761916259619071000,1.086071044921875,0.09616554129123688,-0.0018269688319880514,-0.00417336756135337
1761916259629126100,1.096126220703125,0.0870405700713396,0.007565932609094306,-0.0026326865911483763
1761916259639181000,1.10618115234375,0.09871581029593944,0.01610633627353236,-0.0021371398928575216
1761916259649236200,1.116236328125,0.10604863740205764,0.006683331955131143,0.0035095698903780427
1761916259659291100,1.126291015625,0.0861474206238985,0.0017741152667440474,0.0006706201374065131
1761916259669346000,1.136345947265625,0.08943827886283397,0.0009457838169764726,-0.010112283490505069
1761916259679402200,1.14640234375,0.09736907186210154,0.00791956835235469,-0.013630767339700832
1761916259689457200,1.15645703125,0.10559855554699897,-0.0047204161180183285,0.0017497571436222643
1761916259699512000,1.166511962890625,0.07432020470798015,-0.01137758158543147,-0.010581280108587816
1761916259709567000,1.17656689453125,0.08374503565728664,-0.004904659244278445,-0.012285855536768212
1761916259719622000,1.186621826171875,0.10963409467339515,0.0035338092824909835,-0.004468523716181516
1761916259729677000,1.196677001953125,0.0999070659071207,0.00359444429539144,0.0009947649247013031
1761916259739733000,1.20673291015625,0.08523907360732555,0.006386422234633937,-0.001126574610825628
1761916259749788200,1.2167880859375,0.0943605376958847,0.009526181565085426,-0.004191743468260393
1761916259759842800,1.2268427734375,0.10139759672582149,0.0038498986274935303,-0.012457942434353754
1761916259769898000,1.23689794921875,0.08958031768202782,-0.004586341409571469,-0.0007271269644610584
1761916259779953000,1.246952880859375,0.091972765776515,0.003397067692922428,0.002607680014055222
1761916259790009000,1.257009033203125,0.09077215781509876,-0.003254837077483535,-0.005637658827099949
1761916259800064000,1.26706396484375,0.09944996978938579,-0.002963297651847824,-0.0015316848129965364
1761916259810119000,1.277118896484375,0.09331775064468384,0.0080046893525403,0.0003693539022002369
1761916259820174000,1.287174072265625,0.09226970289647579,0.013201299014408141,0.003516867280844599
1761916259830229000,1.29722900390625,0.08792670525610446,0.009767196379881351,-0.002596884625405073
1761916259840284200,1.3072841796875,0.09525544070899486,-0.0001945544577203691,-0.006875785787310451
1761916259850339800,1.31733984375,0.09675590839982032,-0.0005559807817917317,-0.01132133961985819
1761916259860395000,1.32739501953125,0.0894242503374815,-0.008082001505605877,-0.006369617230305448
1761916259870450000,1.337449951171875,0.09526011688411236,0.005050442656828091,-0.0014768858858384192
1761916259880505000,1.347505126953125,0.09166647630631923,-0.002483048987388611,0.00764548238501884
1761916259890560000,1.35756005859375,0.08972294102311133,-0.002019979786593467,-0.011004300426784902
1761916259900616000,1.367615966796875,0.09331599707901478,-0.002803905839053914,-0.01885330602726899
1761916259910671000,1.377671142578125,0.08777940573990345,0.0039068712454289195,-0.0028783684479072686
1761916259920726000,1.38772607421875,0.09301555282771587,0.009660228874068706,0.0023849223751574752
1761916259930781000,1.397781005859375,0.09121639445126056,0.003028380511002615,0.00115106059811078
1761916259940835800,1.4078359375,0.09406126248836517,-0.005910027761384844,-0.0032715781497303395
1761916259950891000,1.41789111328125,0.08657938230037689,0.0008655125218443573,-0.009696113038202748
1761916259960947000,1.427947021484375,0.09301438378393649,0.010050908692087978,-0.0029239428889937698
1761916259971002000,1.438002197265625,0.09241817145645619,0.004467619533883407,-0.009132423873990774
1761916259981057000,1.44805712890625,0.08628419874608516,0.0005678904152940958,-0.014047896773228421
1761916259991112000,1.45811181640625,0.09436229126155377,0.0043729087214451285,-0.014991442967345937
1761916260001167000,1.4681669921875,0.08927636629939079,-0.007078770146658643,-0.008798342214571311
1761916260011221800,1.4782216796875,0.08688625629246234,-0.0014847951976582408,-0.01192665770240128
1761916260021278000,1.48827783203125,0.09197861099541187,0.0041826833789702506,-0.005109159707278013
1761916260031332900,1.498332763671875,0.10409808785617351,-0.0015414664214942603,-0.005503976844297722
1761916260041388000,1.508387939453125,0.08659048821628093,0.0007888488227501511,-0.015023144146706907
1761916260051443200,1.518443115234375,0.10619301430881023,0.011011378621542826,0.0007308532915078104
1761916260061497900,1.528497802734375,0.09003039953708648,-0.0023617972278967498,-0.007081848019734024
1761916260071554000,1.538553955078125,0.08015139507949352,-0.00021525931903161106,-0.01171677781138569
1761916260081609000,1.54860888671875,0.09856149651706218,0.009370835739746688,-0.010151126796705648
1761916260091664100,1.5586640625,0.08838555493950843,0.009632354486454277,-0.001006765889748931
1761916260101718800,1.56871875,0.08928045795261859,0.0012139971659518778,-0.004972856509126723
1761916260111774000,1.57877392578125,0.09586509703993797,0.0037777741061989214,-0.005162095470912754
1761916260121829000,1.5888291015625,0.08374620470106602,0.00042477388386614616,-0.005950259307073429
1761916260131885000,1.598885009765625,0.10424830998182297,0.0004075396212749183,-0.002676105607766658
1761916260141940000,1.60893994140625,0.08599486041069031,0.01059559176173061,0.000896537847770378
1761916260151995000,1.618994873046875,0.08344926758110523,0.016598056180076672,-0.0029329938451293854
1761916260162050000,1.629050048828125,0.10170271715223789,-0.00003992101843468845,-0.0056293567896354944
1761916260172105000,1.63910498046875,0.10289981798231601,0.003092641386250034,-0.002947734756534919
1761916260182160000,1.649159912109375,0.0843435860723257,-0.0005790785295888781,-0.008330660770740359
1761916260192215800,1.6592158203125,0.08464169223606587,-0.0010614917516708372,-0.008701201983029021
1761916260202271000,1.66927099609375,0.09316928208470344,-0.0009625796881504356,-0.0008424513066653162
1761916260212326100,1.679326171875,0.08748363766372204,-0.0027323932391125705,-0.002837406249856576
1761916260222380800,1.689380859375,0.09451602051854133,-0.0014863478339277208,0.004289066362893209
1761916260232436000,1.69943603515625,0.0906219356894493,0.0021976013758219777,-0.00041482787858694787
1761916260242492000,1.709491943359375,0.0952577787965536,0.007899393214005977,-0.0002828629288356751
1761916260252547000,1.719547119140625,0.09166706082820891,0.00892250745035708,-0.0030447562570683658
1761916260262602000,1.72960205078125,0.09091945733129977,-0.0007768295913934707,-0.008773710096813738
1761916260272657000,1.739656982421875,0.0933148280352354,0.002068248508265242,-0.014398929567448794
1761916260282712000,1.749712158203125,0.10393909790217876,0.006729518317570909,0.012381287868414073
1761916260292767000,1.75976708984375,0.08343523905575274,0.002951278420491144,0.003376664225710556
1761916260302823200,1.7698232421875,0.08478139296770096,0.008667655906453728,-0.007935085581894964
1761916260312877800,1.7798779296875,0.11022387726008892,0.006116373121598735,-0.018019686481030656
1761916260322933000,1.78993310546875,0.09481237311661243,0.006694036012236029,-0.009595319544849917
1761916260332988000,1.79998779296875,0.08238777582943439,0.009362853362690656,0.005149528250284492
1761916260343043000,1.81004296875,0.084029697817564,-0.0012998396853450686,-0.002786671576462686
1761916260353099000,1.82009912109375,0.09525602523088454,0.0006966496278066188,-0.011438344462495297
1761916260363154000,1.83015380859375,0.10708031853735446,0.00045100430366583165,0.0035213425265625117
1761916260373209000,1.840208984375,0.08313362576067447,0.004323224360821769,-0.005383866729121655
1761916260383264000,1.850263916015625,0.07235679568052292,0.006918054026458412,-0.012422030870756134
1761916260393319000,1.86031884765625,0.10797346798479557,-0.0011990370588377118,-0.004932013042084873
1761916260403374000,1.8703740234375,0.09974398429989814,-0.0004079780126921832,-0.004208868132997304
1761916260413430000,1.880429931640625,0.0787923816859722,-0.00004858838208019733,-0.00606918211216107
1761916260423485000,1.89048486328125,0.08073357888162136,-0.0015579791648779064,-0.003457081651315093
1761916260433540000,1.9005400390625,0.07863806790709495,0.008001876340946183,-0.0007191171879414468
1761916260443595000,1.910594970703125,0.09555003974139689,0.002997820975957438,0.001932867758721113
1761916260453650000,1.92064990234375,0.10513269160091876,-0.0037461459920741617,-0.008599476907914504
1761916260463705000,1.930705078125,0.09405892440080642,0.0073538059620652345,0.0029905601181089876
1761916260473761000,1.940760986328125,0.07265665540993213,0.001343076038872823,0.003438787942798808
1761916260483816000,1.95081591796875,0.08836860380470753,-0.0015126604521181434,-0.003344880847958848
1761916260493870800,1.960870849609375,0.12518296146094798,-0.006679395565530285,-0.014952133870264514
1761916260503926000,1.970926025390625,0.09525427166521548,0.004775927431229502,-0.010296645347774028
1761916260513981200,1.980981201171875,0.07819090866148472,-0.0033040099814534186,0.0052209860512986775
1761916260524036900,1.991036865234375,0.07354922033548354,0.0019310685272794215,-0.0012682755033019929
1761916260534092000,2.001092041015625,0.09674480248391627,-0.0028592070897109803,-0.0023256025365088135
1761916260544147000,2.01114697265625,0.10767302373349666,-0.004143648276524618,-0.013559912326885387
1761916260554202000,2.0212021484375,0.09884498963356017,0.014352715805545448,-0.001845207741577178
1761916260564257000,2.031257080078125,0.07445172213315963,0.0030754162568133324,0.003983288349350914
1761916260574312000,2.04131201171875,0.09584931494891644,-0.0021678090257570147,0.0008958071954082697
1761916260584367900,2.051367919921875,0.08971358867287635,0.002426432562479749,-0.0031550299648195504
1761916260594423000,2.061423095703125,0.10288462041318416,-0.004381484753545373,-0.000473608861118555
1761916260604478000,2.07147802734375,0.09570143091082572,0.003323025209177285,-0.0022901567637920377
1761916260614532900,2.081532958984375,0.08313070315122603,0.008108953444613144,-0.00206219322681427
1761916260624588000,2.091588134765625,0.08342705574929714,-0.004954425803292542,-0.006942877940461039
1761916260634644000,2.10164404296875,0.10033902758359908,-0.004954133542347699,-0.013966328570153563
1761916260644699100,2.11169921875,0.1090180086016655,0.0011676190072670578,0.010100200327066704
1761916260654754000,2.121754150390625,0.06187398011088371,0.00029848975623026486,-0.0013238050828222184
1761916260664809000,2.13180908203125,0.0861170254856348,0.0027320279129315166,0.0012524842791259289
1761916260674864000,2.141864013671875,0.12158639827370643,-0.002363742589810863,-0.0004089461270719766
1761916260684918800,2.151918701171875,0.09180968416929244,0.004744481980195269,-0.013875261886371299
1761916260694975000,2.16197509765625,0.09016016339659691,0.0013637900333385914,0.0032266521626152095
1761916260705030000,2.17202978515625,0.08162906641662121,0.007422971341293305,-0.006292487740330398
1761916260715085000,2.1820849609375,0.10826923606097698,-0.004029209850309416,-0.014399568888265638
1761916260725140000,2.192139892578125,0.1156055702984333,0.000244193152571097,-0.001193374503031373
1761916260735195000,2.20219482421875,0.05829319901466369,0.012859591170959174,-0.011569249966321513
1761916260745250000,2.21225,0.09615326633155345,0.007563850249862298,0.01638625832661055
1761916260755306000,2.222305908203125,0.093009707608819,0.0032295747720636424,0.005569205833924934
1761916260765361000,2.23236083984375,0.06861644010841846,0.006033325347490608,-0.013737195989396423
1761916260775415800,2.242415771484375,0.11022387726008892,-0.015479326948989182,-0.006296195801068097
1761916260785471000,2.252470947265625,0.10289280371963977,0.001086406997218728,-0.0033108963799662887
1761916260795526100,2.262526123046875,0.06862170080542564,0.006236592834629118,0.0094044914141763
1761916260805582000,2.27258203125,0.09031739978492259,-0.0029070556862745432,-0.007213292379677295
1761916260815637000,2.282636962890625,0.09944587813615799,-0.00496079161199741,-0.016096271537244317
1761916260825692000,2.29269189453125,0.09825228443741797,0.00035062180226668713,-0.009242377921333537
1761916260835747000,2.3027470703125,0.09226619576513767,0.012591240824665874,-0.001435549228452146
1761916260845802000,2.312802001953125,0.07595218982398509,0.015231982858106494,-0.006851802123524248
1761916260855857000,2.32285693359375,0.10303776514828204,-0.002533829326555133,-0.0029243995467200874
1761916260865912800,2.332912841796875,0.1012444519907236,-0.006932055152347311,-0.014705200771335511
1761916260875968000,2.342968017578125,0.07850187430679798,-0.0012214132874272764,0.00023426541360095141
1761916260886023200,2.353023193359375,0.09316402138769626,0.004804057547170669,-0.001940366078587249
1761916260896077800,2.363077880859375,0.08942191224992274,0.0029430129156447944,-0.007450964459916576
1761916260906133000,2.373133056640625,0.08987024053931236,0.00493324601794593,-0.011090015082014725
1761916260916189000,2.38318896484375,0.10468611687719821,-0.0008623707166872918,-0.006704639604641125
1761916260926244000,2.393244140625,0.09929799409806728,0.0010123005813919008,0.0016967026489786803
1761916260936298800,2.403298828125,0.08866904805600642,-0.003081279742019251,-0.00024725275933742524
1761916260946354000,2.41335400390625,0.09435235438942909,-0.0024183040549512953,0.0030583372578490524
1761916260956409000,2.4234091796875,0.09839666134417056,0.0020943510639015585,-0.009514774255082011
1761916260966464000,2.433464111328125,0.10617898578345775,-0.00951595243201591,-0.014918724791007115
1761916260976520000,2.44352001953125,0.0901648395717144,0.0051813116280362,0.002852055829716846
1761916260986574800,2.453574951171875,0.08597089501321316,-0.0013111556638032197,-0.0019923793936148285
1761916260996630000,2.463630126953125,0.09868716872334479,-0.003780395321547985,-0.003934910029824823
1761916261006685000,2.473684814453125,0.10347615656554698,-0.004461701249750331,-0.0055630409546196455
1761916261016739800,2.48373974609375,0.08866495640277862,-0.0009344495722092687,-0.009190346339996904
1761916261026795800,2.493795654296875,0.08282908985614776,0.0016454839183948932,-0.0024141576027963308
1761916261036851000,2.503850830078125,0.09180793060362338,-0.000922886998578906,-0.004249994727829471
1761916261046906000,2.513906005859375,0.1034796636968851,0.004387622233387083,-0.009738563940441236
1761916261056961000,2.5239609375,0.09330781377255916,-0.008411562253534793,-0.005649495395366102
1761916261067016000,2.534015869140625,0.08522504508197307,-0.009708588927285745,-0.004666941498266533
1761916261077070800,2.54407080078125,0.08447627254128455,0.0020957849691621957,-0.0034082558072172104
1761916261087127000,2.554126953125,0.09405249466001987,-0.006172560288244858,-0.0011969638327602296
1761916261097182000,2.564181884765625,0.08522621412575244,0.0011570519474800676,-0.0037765776629559693
1761916261107236900,2.57423681640625,0.0906137523829937,0.00007553118793293833,-0.0023829678800888357
1761916261117292000,2.5842919921875,0.09285948548316955,0.006475333493947982,-0.007731900293147191
1761916261127347000,2.594346923828125,0.08717442558407783,0.00038266090834513305,-0.0067598860563710325
1761916261137403100,2.604403076171875,0.08732640127539634,0.0014764109618030487,-0.013037194493878633
1761916261147457800,2.614457763671875,0.09974749143123626,0.003211217131465673,-0.004191615604097023
1761916261157513000,2.624512939453125,0.09630407297909259,-0.000778647089144215,-0.007608264780323952
1761916261167568000,2.63456787109375,0.09465981290340424,0.0048498877165839074,-0.012316908262157812
1761916261177623000,2.644623046875,0.08059563171565533,0.002818427554750815,-0.006004026187770069
1761916261187678000,2.654677978515625,0.09630758011043071,0.0014705931423697619,0.00010198993659578264
1761916261197734000,2.66473388671875,0.09570902969539165,0.0029540640326216816,-0.003200421742815524
1761916261207789000,2.6747890625,0.11082301219701766,0.0033013339671771973,0.002200560517888516
1761916261217844000,2.684843994140625,0.08717968628108501,0.004171175604267045,-0.004377018640981987
1761916261227899000,2.69489892578125,0.1031879872739315,0.001278988693561405,-0.00524294215478003
1761916261237953800,2.704953857421875,0.11216448993384838,0.00014247721061110496,-0.008499633262632414
1761916261248010000,2.715010009765625,0.08507657652199267,-0.0037862131409812714,-0.001814273747196421
1761916261258065000,2.72506494140625,0.0879167683839798,-0.004735878548631444,0.0013470489610917864
1761916261268120000,2.7351201171875,0.09644494275450706,-0.003586955108679831,-0.003845551245938986
1761916261278175000,2.745175048828125,0.09240297388732432,0.0006801642838865518,-0.001245707478467375
1761916261288230000,2.75522998046875,0.09449673129618168,-0.007789740560762584,-0.006792984608374536
1761916261298285000,2.76528515625,0.08581716575622558,-0.00220190309160389,0.0007506631036754697
1761916261308341000,2.775341064453125,0.08821195193827151,0.001073337453091517,-0.00197642377265729
1761916261318396000,2.78539599609375,0.09748714528381824,0.00022385361744090912,-0.009411012486508115
1761916261328450800,2.795450927734375,0.09629004445374012,0.0012301263168454169,-0.005561232590023428
1761916261338506000,2.805506103515625,0.09673954178690909,0.0041567360869608815,-0.010797443609917535
1761916261348561200,2.81556103515625,0.10107844777405262,0.008604783270694315,-0.010304015803476795
1761916261358617000,2.8256171875,0.10571838253438472,-0.00587387873576954,-0.005248129786550999
1761916261368672000,2.835672119140625,0.09060323098897934,-0.008493724111653864,-0.005196043406287208
1761916261378727000,2.845726806640625,0.09599135376811027,-0.0023604363878723233,-0.0030513321283273396
1761916261388782000,2.855781982421875,0.08147825976908206,0.004807601211126894,-0.012640002736682072
1761916261398836700,2.865836669921875,0.10976210496723651,-0.003950975248636678,-0.010078152892040088
1761916261408892000,2.875891845703125,0.09180559251606464,0.0033664076931774613,-0.012171179648535325
1761916261418947800,2.88594775390625,0.08537059103250504,0.007431985764810815,-0.011835919812181964
1761916261429003000,2.8960029296875,0.09644552727639674,-0.0012311035643797366,-0.007305628571938723
1761916261439058200,2.90605810546875,0.09884265154600143,0.0080359156078659,-0.006357077409140766
1761916261449112800,2.91611279296875,0.09001461744606494,0.010146249692188575,-0.00657408116068691
1761916261459168000,2.92616796875,0.09555120878517627,-0.00365246722609736,-0.005079851414402947
1761916261469224000,2.936223876953125,0.08926526038348674,-0.003173506336426362,-0.007216625981079414
1761916261479279000,2.946279052734375,0.08492576987445354,-0.001632816233066842,-0.009854107478354126
1761916261489333800,2.956333740234375,0.08941431346535682,-0.0024079013919457793,-0.012514056535763665
1761916261499389000,2.966388916015625,0.0970440776914358,-0.004694103499827906,-0.009246688770269974
1761916261509444000,2.976444091796875,0.10856500413715839,-0.003416530445218086,-0.007141807179199531
1761916261519499000,2.9864990234375,0.09419804061055183,-0.006203603880479931,-0.008611468739807605
1761916261529555000,2.996554931640625,0.09419745608866215,-0.006622724341694265,-0.0067320299350656565
1761916261539609900,3.00660986328125,0.09883855989277363,-0.00086620664158836,-0.013884933897014706
1761916261549665000,3.0166650390625,0.08941022181212901,-0.011254713257588445,-0.00667207077560015
1761916261559720000,3.026719970703125,0.08940729920268058,-0.010918101714365183,-0.00536412084903568
1761916261569774800,3.03677490234375,0.10646481698751449,-0.000685214918339625,-0.0028211127021815626
1761916261579830800,3.046830810546875,0.10332184278666973,-0.005228621368482709,-0.004777543999580666
1761916261589886000,3.056885986328125,0.09494272149801254,0.0021752434135414657,-0.004565691347187385
1761916261599941000,3.066941162109375,0.0950923591017723,0.0008616217980161308,-0.011865036308811977
1761916261609995800,3.076995849609375,0.09748714528381824,-0.0028236425859853626,-0.006183903666166588
1761916261620051000,3.087051025390625,0.08925298542380332,0.0031950423147995024,-0.009118715009046718
1761916261630105900,3.09710595703125,0.10735972000062464,0.003672167440410703,-0.0031351014216430485
1761916261640162000,3.107162109375,0.09778349788188934,-0.006782664143759757,-0.017390914457663893
1761916261650217000,3.117217041015625,0.10167349105775356,-0.015514507860224694,-0.008115081791300325
1761916261660271900,3.12727197265625,0.09733107793927193,-0.0055489758966490626,-0.005695471695251762
1761916261670327000,3.1373271484375,0.0995756419956684,0.008318632406229152,-0.009650547730270773
1761916261680382000,3.1473818359375,0.10301438427269458,0.0108318116704002,-0.007370410036994144
1761916261690438100,3.157438232421875,0.08580489079654216,0.004074820824014023,-0.004109746006922796
1761916261700493300,3.167493408203125,0.08924655568301677,0.0018156619866844265,-0.005793278647074475
1761916261710548200,3.17754833984375,0.0964303297072649,0.0005385821224190295,-0.004490479819662868
1761916261720603100,3.18760302734375,0.09209259276390075,-0.0010869184538722038,-0.008167506098281591
1761916261730658300,3.197658203125,0.09359130688905716,0.005176635452918708,-0.014210110730770975
1761916261740714200,3.20771435546875,0.09134791187644005,-0.0022514595880638805,-0.0027307766707614064
1761916261750769200,3.21776904296875,0.0944914705991745,-0.01142716548135504,-0.007229805123060941
1761916261760824300,3.22782421875,0.10257248572409153,-0.008701101518329233,-0.0037613983601331707
1761916261770879200,3.237879150390625,0.08865501953065395,-0.0029908432458993044,-0.004411085307365283
1761916261780934400,3.247934326171875,0.09883154563009738,-0.00162598463348113,-0.012864386077085508
1761916261790990300,3.257990234375,0.10003040002584457,-0.003735323203960433,-0.008218880092492326
1761916261801045200,3.268045166015625,0.08820844480693339,-0.0026175255546346306,-0.005387236863141879
1761916261811100200,3.27810009765625,0.09479133032858371,-0.005890482810698449,-0.01514987579891458
1761916261821155300,3.2881552734375,0.10826046823263168,0.0036083540897350755,-0.0023301417143084106
1761916261831210200,3.298210205078125,0.10018003762960434,-0.006391354138078168,-0.011149170523881912
1761916261841265200,3.30826513671875,0.08342121053040027,-0.0064539162465836845,-0.005892811765102669
1761916261851321300,3.3183212890625,0.09150164113342761,-0.006631154243322089,-0.0067912949747871605
1761916261861376300,3.328376220703125,0.0947919148504734,-0.013045797925442457,-0.004217654227651656
1761916261871431400,3.338431396484375,0.09389292018413543,-0.00464636450111866,-0.009345938760507851
1761916261881486000,3.348486083984375,0.09209726893901825,-0.000011516907857730984,-0.00962586081358604
1761916261891541200,3.358541259765625,0.09538754265606403,-0.013425125232385472,-0.004038644398935139
1761916261901597200,3.36859716796875,0.08146832289695739,-0.004752948414441197,-0.002171389222331345
1761916261911652400,3.37865234375,0.10106967994570731,0.0049907209593802685,-0.005906986420927569
1761916261921707300,3.388707275390625,0.0943383258640766,0.0009161649968475103,-0.005390333002526313
1761916261931762200,3.39876220703125,0.10241875646710395,-0.007525134807825088,-0.00993102690577507
1761916261941817300,3.4088173828125,0.0928396117389202,-0.003575648263376206,-0.005184837025683373
1761916261951873300,3.418873291015625,0.09313771790266036,0.00391150175477378,-0.005100720672495663
1761916261961928200,3.42892822265625,0.10421148510277271,-0.004986939833406359,-0.004631879318039864
1761916261971983000,3.438983154296875,0.09718027129173278,-0.0014458696930669248,-0.00794251083652489
1761916261982038300,3.449038330078125,0.10137246228456497,-0.00012346198288723826,-0.010546364058833569
1761916261992093400,3.459093505859375,0.10346738873720168,-0.006067483345419168,-0.007821067280787974
1761916262002148000,3.469148193359375,0.09927753583192825,-0.0010981613670941442,-0.000027837854996323582
1761916262012204300,3.479204345703125,0.08685819924175739,-0.0025946013367734847,-0.00811547451694496
1761916262022259200,3.48925927734375,0.09793138191998005,-0.0017995054363273083,-0.010461206526029854
1761916262032314400,3.499314453125,0.0997287867307663,0.0025054252159781754,-0.01182836669338867
1761916262042369000,3.509369140625,0.09434241751730442,0.00159047492868267,-0.003966072353068739
1761916262052424200,3.519424072265625,0.09898176775574684,-0.0027215339183807373,-0.0099592483532615
1761916262062480100,3.529480224609375,0.1036240406036377,0.00019698387682437897,-0.004920560066308826
1761916262072535300,3.539535400390625,0.09794014974832534,0.004972144123073667,-0.011418616848718375
1761916262082590500,3.549590576171875,0.10138532176613807,0.0058074533028993755,-0.002932884247275069
1761916262092645000,3.55964501953125,0.09016425504982471,-0.012670973263680933,-0.0029954280894715335
1761916262102700300,3.5697001953125,0.09195873725116252,-0.007046292649162933,-0.00982399546788074
1761916262112756200,3.579756103515625,0.08791793742775916,-0.005545322634838521,-0.00442105871210806
1761916262122811400,3.589811279296875,0.08986030366718768,-0.006385097927227616,-0.007518842064356431
1761916262132866000,3.599865966796875,0.09135317257344722,0.0057109432590194045,-0.008459337784862145
1761916262142921200,3.609921142578125,0.09180033181905746,-0.004240852440148592,-0.007058238815283402
1761916262152976400,3.619976318359375,0.10527005424499511,-0.0011444025284610688,-0.00681593622569926
1761916262163032300,3.6300322265625,0.10212824908792972,0.0031006054969970136,-0.00620919337105006
1761916262173087200,3.640087158203125,0.09015607174336909,-0.0035325580403208733,-0.0011112400443758815
1761916262183142100,3.65014208984375,0.08985796557962894,-0.001396212731907144,-0.0018437373036984353
1761916262193197300,3.660197265625,0.10287760615050792,-0.00013795629912056028,-0.003389304511575028
1761916262203252200,3.670252197265625,0.09195464559793472,0.0013901848499197512,-0.0023315573532599956
1761916262213308400,3.680308349609375,0.09404957205057143,0.0024898623206652697,-0.0001674563882406801
1761916262223363000,3.690363037109375,0.09973521647155284,-0.005748325260495767,-0.0068669905595015734
1761916262233418200,3.700418212890625,0.0982382559120655,-0.0017763802890665829,-0.002851790968235582
1761916262243473400,3.710473388671875,0.09808803378641605,-0.007228371217800304,-0.0058392366806510835
1761916262253528300,3.7205283203125,0.09300210882425308,0.0029212760078720745,-0.0043085656478069724
1761916262263584300,3.730584228515625,0.09988777668476104,0.0019258717623539267,0.0019917583391070364
1761916262273639200,3.74063916015625,0.09509820432066916,0.005781807404989376,-0.00031954167741350827
1761916262283694300,3.7506943359375,0.09719079268574714,0.00035342568070627746,-0.0004742116493172943
1761916262293749200,3.760749267578125,0.09285188669860363,-0.005485208211746066,-0.001416214340319857
1761916262303804200,3.77080419921875,0.09045710051655768,-0.006541530597954988,-0.0016987484755925833
1761916262313860000,3.780860107421875,0.09838730899393558,-0.00203492162739858,-0.013027038426045327
1761916262323915300,3.790915283203125,0.0944955622524023,-0.006716823232779279,-0.005212145157717168
1761916262333970400,3.800970458984375,0.09225333628356457,-0.0018279095469042658,-0.00017343860445544123
1761916262344025000,3.811025146484375,0.09419862513244151,0.00019611622714437544,-0.0033868750924710184
1761916262354080300,3.821080322265625,0.09644552727639674,0.002406814546557143,-0.008683136603375897
1761916262364136200,3.83113623046875,0.10258183807432651,-0.016220482438802718,-0.009152388949785381
1761916262374191400,3.84119140625,0.10228431643247604,-0.004263922788482159,-0.001817095891945064
1761916262384246300,3.851246337890625,0.09270634074807166,0.003978785704169422,-0.0016781714784447103
1761916262394301200,3.86130126953125,0.10452478883564471,0.001336655431240797,0.0002804061102680862
1761916262404356400,3.8713564453125,0.09779168118834496,-0.004748500568186864,0.0010429971137549728
1761916262414411300,3.881411376953125,0.0976455507159233,0.0007021751862950623,-0.010410499252099543
1761916262424467200,3.89146728515625,0.09330664472877978,0.005154999009845778,-0.002570042284252122
1761916262434522000,3.901522216796875,0.09480477433204651,-0.009010487127909436,-0.005465334467496722
1761916262444577300,3.911577392578125,0.08642156139016151,-0.007862540935492143,-0.0045043439482338726
1761916262454632200,3.921632080078125,0.09749474406838417,-0.009798897559242322,0.0007625362045597285
1761916262464688400,3.9316884765625,0.08881634757220745,0.006600558175658806,0.00034409159678034485
1761916262474743000,3.941742919921875,0.10093582443296908,0.00399980109273456,-0.0009767908765934408
1761916262484798200,3.951798095703125,0.09031330813169479,-0.002409791954932734,-0.007218160351039842
1761916262494853400,3.961853271484375,0.10393091459572315,-0.00011522387750446795,-0.007489981296053156
1761916262504908300,3.971908203125,0.10258476068377494,-0.005651057164790109,0.006191429385496303
1761916262514963200,3.981963134765625,0.09165946204364299,-0.005896282363822683,-0.005401630714675411
1761916262525019100,3.99201904296875,0.08671966755390166,-0.00787161015793681,-0.005588138863258063
1761916262535074300,4.00207421875,0.09659633392393588,-0.0023700718658976254,-0.0012049553429707884
1761916262545127200,4.012127197265625,0.10856734222471713,0.005699097557598724,-0.00225817245664075
1761916262555183000,4.02218310546875,0.09016191696226596,0.010401192567637189,-0.002355696280673146
1761916262565238300,4.03223828125,0.10048983423113822,0.0005868599772453308,-0.00234016078482382
1761916262575293200,4.042293212890625,0.10168693506121634,-0.008994558906415477,-0.007152858296176418
1761916262585348000,4.05234814453125,0.08223229300677776,0.002826382532343268,-0.0053390594730153675
1761916262595403300,4.0624033203125,0.1045300495326519,0.0023919457709882406,-0.004576185341738164
1761916262605459200,4.072459228515625,0.11156126334369182,0.005768299469444901,0.001462546833232045
1761916262615514400,4.082514404296875,0.07280044779479503,-0.008944920211564749,-0.010928212116425856
1761916262625569300,4.0925693359375,0.08851064262390136,-0.008172529333271086,-0.005401676380448043
1761916262635624200,4.102624267578125,0.10272504593729972,-0.0016340126763097942,-0.003409698845632374
1761916262645679400,4.112679443359375,0.08521686177551746,0.0040445809493772685,0.0008667272313963621
1761916262655735300,4.1227353515625,0.0892541544675827,0.0029440723615698516,0.0029692342022899537
1761916262665790200,4.132790283203125,0.09613748424053191,0.0007341777597554027,-0.0050574386531952766
1761916262675845000,4.14284521484375,0.09523907409608363,-0.0017568992704618722,-0.004356578641152009
1761916262685900300,4.152900390625,0.09703297177553176,-0.0046434327585157,0.00199272645348683
1761916262695955200,4.162955078125,0.08940028494000435,0.000053931277478113765,0.006518852975266054
1761916262706013400,4.173013427734375,0.08206687331199645,0.005136842298647389,0.000611766089638695
1761916262716068600,4.183068603515625,0.09284136530458927,0.004937894793599844,-0.005910694481665269
1761916262726123500,4.19312353515625,0.09448796346783638,0.0031550847637467085,-0.012703998750448225
1761916262736178400,4.203178466796875,0.09239245249330998,0.011471150753553956,-0.0023968868075869977
1761916262746233300,4.2132333984375,0.09658230539858341,-0.00022259324211627244,-0.003299205942172557
1761916262756289500,4.22328955078125,0.09343991571962833,0.0029410127548035233,-0.003605595877068117
1761916262766344400,4.233344482421875,0.09598433950543403,-0.009815529033634812,-0.0046985056803096085
1761916262776399400,4.2433994140625,0.09598317046165465,-0.00542572397631593,-0.0012935012761037797
1761916262786454500,4.25345458984375,0.09403963517844677,-0.0021782116887625307,0.0009388060869183391
1761916262796509400,4.263509521484375,0.10391513250470161,0.00439351311805658,-0.008168793873069808
1761916262806565600,4.273565673828125,0.09957681103944778,0.0009975414036773145,-0.009243364302022382
1761916262816620500,4.28362060546875,0.08850421288311482,-0.0022780644671991468,-0.002193984646629542
1761916262826675500,4.293675537109375,0.09732990889549255,0.004375776531966403,-0.0011636095524299888
1761916262836730400,4.30373046875,0.09373685283958912,-0.0016853501379024236,0.0003901866276748478
1761916262846785500,4.31378564453125,0.0919423706382513,-0.0031051081421785056,-0.0022922391230240464
1761916262856841500,4.323841552734375,0.09284194982647895,0.004535186611069366,-0.0034940617939922957
1761916262866896400,4.333896484375,0.0892494782924652,0.000762472272478044,-0.005981165901990607
1761916262876951600,4.34395166015625,0.1000245548069477,-0.0005595975109841674,-0.006619180677738041
1761916262887006500,4.35400634765625,0.09044599460065364,0.0026660043388605117,-0.0024956984064076096
1761916262897061600,4.3640615234375,0.09463701654970645,0.0015717610950581728,0.0019963979816064238
1761916262907117600,4.37411767578125,0.09403905065655707,0.0023741635191254318,0.0017199191277846692
1761916262917172500,4.38417236328125,0.09463701654970645,-0.002494264501146972,-0.0020499182671308517
1761916262927227400,4.394227294921875,0.08835048362612724,-0.0060067387346643955,-0.003558368335012346
1761916262937282600,4.404282470703125,0.09852408711612223,0.0015987952324561774,0.003274601223878562
1761916262947337500,4.41433740234375,0.10046703787744045,0.007816217575734481,-0.005290087498445064
1761916262957393400,4.424393310546875,0.09657646017968655,0.006540936942910775,-0.0055069725189823655
1761916262967448600,4.434448486328125,0.09867430924177169,0.0001433174608275294,-0.007170841477438807
1761916262977503500,4.44450341796875,0.09298866482079028,-0.004163311958219856,-0.008827568309055641
1761916262987558700,4.45455859375,0.09568272621035576,-0.0006602083412464708,0.00031431751302443445
1761916262997614300,4.4646142578125,0.09792553670108317,-0.004008431923761963,-0.0018363942474592476
1761916263007669500,4.47466943359375,0.09134265117943287,0.005204181046970189,0.001594566581910476
1761916263017724400,4.484724365234375,0.09134148213565349,0.0013912077632267027,0.007154347000364214
1761916263027779600,4.494779541015625,0.09523030626773833,0.0006143964381422847,-0.003367430606484413
1761916263037834500,4.50483447265625,0.09747487032413482,0.002891830717679113,-0.00453079356374219
1761916263047890400,4.514890380859375,0.09522855270206927,0.005299933039024472,0.004274772976059466
1761916263057945600,4.524945556640625,0.09298515768945216,0.010284224257618189,-0.005183485318813473
1761916263068000500,4.53500048828125,0.09777356100976467,-0.002215411027148366,-0.004646565430518239
1761916263078055400,4.545055419921875,0.09418284304141998,-0.0017437840605620293,0.003137366443965584
1761916263088110300,4.5551103515625,0.09433072707951068,0.00000896875774487853,0.00499893166529946
1761916263098166500,4.56516650390625,0.09597907880842685,0.0007110800119582563,-0.009259009395726025
1761916263108223500,4.575223388671875,0.09657938278913497,0.00907578918277286,-0.007012481711106374
1761916263118278400,4.5852783203125,0.08984276801049709,-0.000546153507521376,0.0015139299605973064
1761916263128333600,4.59533349609375,0.10106500377058983,0.0016781988779082894,-0.005949026331212371
1761916263138388500,4.605388427734375,0.10420680892765521,0.002304112223908305,-0.00619181297798641
1761916263148443400,4.615443359375,0.10046528431177139,-0.0011664956292603164,-0.006502595960209146
1761916263158499600,4.62549951171875,0.09073708650171756,-0.009590789500204845,-0.006855537583725526
1761916263168554500,4.635554443359375,0.10151274753808974,0.0010752919481601566,0.0020560374806635083
1761916263178609700,4.645609619140625,0.0994189901292324,-0.002394612652109936,-0.0019497001625131815
1761916263188664300,4.655664306640625,0.10046820692121981,-0.00004333681822754442,-0.006467725576227531
1761916263198720500,4.665720458984375,0.09074293172061443,0.013039212921028956,0.000810457866359502
1761916263208775400,4.675775390625,0.09268822056949139,-0.012985016782069578,-0.0063449120473116636
1761916263218830600,4.68583056640625,0.11034311972558497,0.003580077843321487,-0.002729297099728137
1761916263228885500,4.695885498046875,0.09717442607283591,-0.001750113336648792,-0.003831184793869033
1761916263238940400,4.7059404296875,0.08520400229394436,0.0022954905260354277,0.0015220402018167078
1761916263248996600,4.71599658203125,0.09373217666447162,-0.0004942497903481126,0.008250289010908454
1761916263259051500,4.726051513671875,0.1018108537018299,0.00029300986351445314,-0.00040251638628542423
1761916263269106400,4.7361064453125,0.1031570076137781,0.004169257641816511,-0.0009926277665421367
1761916263279161300,4.746161376953125,0.0982166286021471,0.004699775188788772,0.000011389043694362043
1761916263289216500,4.756216552734375,0.09477613275945186,-0.007109658475266769,0.00040066235591657457
1761916263299272400,4.7662724609375,0.09043547320663929,0.004326731492159888,-0.005909013981232419
1761916263309327600,4.77632763671875,0.09402619117498397,0.003567812016792595,-0.0011125826180912555
1761916263319382500,4.786382568359375,0.09402852926254272,0.0024329171021934596,-0.005557241401495412
1761916263329437400,4.7964375,0.0962730933189392,0.007440223870193586,-0.009215636044880375
1761916263339493600,4.80649365234375,0.09223229349553584,-0.002710994258057326,-0.006605800606356934
1761916263349548500,4.816548583984375,0.09387772261500359,0.006288039894076064,-0.0009896594913210719
1761916263359603500,4.826603515625,0.10509820480942726,0.006402021662564948,0.002606547502893954
1761916263369658400,4.836658447265625,0.10405249514877796,0.0013639452969655393,-0.005851977431215346
1761916263379713500,4.846713623046875,0.1000116953253746,-0.0035288865122012794,-0.004994986142544075
1761916263389769500,4.85676953125,0.10330255356431006,-0.000860407088464126,0.00029165815664455294
1761916263399824400,4.866824462890625,0.09477262562811374,-0.00588259176518768,-0.0031491299469955263
1761916263409879600,4.876879638671875,0.09192892663478851,-0.012804362985538317,-0.006884316153638065
1761916263419934500,4.8869345703125,0.11392448534369468,-0.0033596217593643814,-0.006925926805660128
1761916263429990700,4.89699072265625,0.09880874927639961,0.004022761843213811,-0.006588694207929074
1761916263440045600,4.907045654296875,0.09252513896226883,0.004306647685356438,-0.009875826119817794
1761916263450100500,4.9171005859375,0.10210486821234226,0.005608158737979829,-0.0035603136969264595
1761916263460155400,4.9271552734375,0.10150982492864132,0.002092917158640921,0.0025312629101332277
1761916263470210600,4.93721044921875,0.09313011911809443,-0.0017568992704618722,0.0019925072577781974
1761916263480266500,4.9472666015625,0.10255495006740092,-0.004369237193325534,0.0034500034565571693
1761916263490321400,4.9573212890625,0.0950707317918539,-0.00625905126160942,0.0030889789912849665
1761916263500376600,4.96737646484375,0.0973147113263607,-0.006176651941472664,0.0084457019851543
1761916263510431500,4.977431396484375,0.1083855559170246,-0.010805389454355463,-0.0007762816021218895
1761916263520486700,4.987486572265625,0.1023988827228546,-0.0038619909240864216,-0.008880275743827224
1761916263530542300,4.997542236328125,0.09730828158557414,-0.0011767886944115161,-0.006844778727693483
1761916263540597500,5.007597412109375,0.10105155976712703,0.0039237493149936195,0.0006192552763503045
1761916263550652400,5.01765234375,0.08803133467435836,0.013723724586470051,0.0019822050594724716
1761916263560707600,5.02770751953125,0.09282207608222962,-0.0004809793168213218,0.001651347403600812
1761916263570763500,5.037763427734375,0.09835925194323063,0.001176806960720569,-0.00391615966358222
1761916263580818400,5.047818359375,0.10479542247056961,0.0009705529320519417,-0.0045239345646928995
1761916263590873600,5.05787353515625,0.09731354228258132,-0.00010301284990273415,0.005168607410090044
1761916263600928500,5.067928466796875,0.09701485159695147,0.011339907323010266,-0.0015345434903632849
1761916263610983700,5.077983642578125,0.09671440734565258,0.0007746741669252514,-0.001696720915287733
1761916263621039400,5.088039306640625,0.09222411018908024,-0.0008201024775393306,-0.0006506824610754847
1761916263631094500,5.098094482421875,0.08863163865506649,-0.006570692760357633,-0.004521048487862572
1761916263641149400,5.1081494140625,0.09311901320219039,0.005633466709172353,-0.005662364010093734
1761916263651204600,5.11820458984375,0.10179916326403617,0.004742783213453367,0.00023793694172054527
1761916263661260500,5.128260498046875,0.08803133467435836,0.000047793797636404634,-0.0028980047301389276
1761916263671315500,5.1383154296875,0.10539105027616023,0.0006908409415278584,0.0004483008899260312
1761916263681370600,5.14837060546875,0.10643968254625796,0.005898702649772167,-0.000581845875410363
1761916263691425500,5.158425537109375,0.12035773326158523,0.0016760525865945964,-0.003278692877106368
1761916263701482000,5.16848193359375,0.09237140970528125,0.0033713121971581128,0.0005309468052349984
1761916263711538000,5.178537841796875,0.08952712619006634,0.0012538999180775135,-0.002543574402434751
1761916263721592800,5.1885927734375,0.1095797341376543,-0.000036879677977412937,0.0061079158205073324
1761916263731648000,5.19864794921875,0.1118237136721611,-0.002724091201648116,0.0030252661053091286
1761916263741703000,5.208702880859375,0.09566168342232703,-0.007247523442842066,-0.006638734761578962
1761916263751759000,5.218759033203125,0.09865443549752234,-0.0031534864617045965,0.0009062829236499964
1761916263761813800,5.228813720703125,0.09730652801990508,-0.007489250643691048,-0.0016673212908674031
1761916263771869000,5.238868896484375,0.08832534918487071,0.005715318040037528,-0.0042497663989663126
1761916263781924000,5.248924072265625,0.09027005351185798,0.01077326814988628,0.0011575360046699643
1761916263791980000,5.25897998046875,0.0881733734935522,0.010367582558980211,0.005982508475705981
1761916263802035000,5.269034912109375,0.09670154786407947,0.007086524194851517,-0.0026170049648266283
1761916263812089900,5.27908984375,0.09386018695831298,-0.00025050416234880684,-0.011159353991178796
1761916263822145000,5.28914501953125,0.09820201555490493,0.007310706605855375,-0.0033094442083965985
1761916263832200000,5.299199951171875,0.09131810126006602,-0.00028128289310261605,-0.0003806698806583881
1761916263842256000,5.309255859375,0.09700433020293713,-0.009778000901686026,-0.008961953544756398
1761916263852310800,5.319310791015625,0.10763035363554954,-0.009348477777466177,-0.006886371113406494
1761916263862366000,5.329365966796875,0.09505962587594985,-0.0012183354143518953,-0.009933940382068976
1761916263872421000,5.339421142578125,0.0952098480015993,0.0016815233461558818,-0.004517102965107187
1761916263882477000,5.34947705078125,0.10403963566720485,0.005445552054792642,0.0015504260460846126
1761916263892532000,5.359531982421875,0.10014613536000251,-0.0013326642427127808,0.0001208955664653331
1761916263902587000,5.3695869140625,0.09804945534169673,-0.0006419785648118704,0.004997570825275033
1761916263912642000,5.37964208984375,0.10029168131053447,0.0020322730125859377,0.0066524436265230176
1761916263922697000,5.389697021484375,0.09625321957468987,0.008320605167606845,0.0003823595142457634
1761916263932753000,5.3997529296875,0.10358487763702869,-0.0030729959708638488,-0.004099361610226333
1761916263942807800,5.409807861328125,0.08997019378244876,-0.019739002820616587,-0.006557623216230422
1761916263952863000,5.419863037109375,0.09595686697661876,-0.0042587351567111905,0.008090349208842962
1761916263962918100,5.429918212890625,0.10343757812082767,-0.0029366471069399267,0.0021683752813376487
1761916263972974000,5.43997412109375,0.08667524389028548,0.0007551018167752772,-0.0022951708656270054
1761916263983029000,5.450029052734375,0.08846797252595424,0.0002426039836835116,0.004752427824633196
1761916263993084000,5.460083984375,0.10208674803376197,0.012086296110367403,-0.00387318817153573
1761916264003139000,5.47013916015625,0.1037321771532297,0.003500464135315269,-0.004621641051815823
1761916264013195000,5.480195068359375,0.09385258817374706,0.004011674193618819,0.0045254598014988
1761916264023250000,5.49025,0.0905564692378044,-0.0027183829800691453,-0.0038117311747279015
1761916264033304800,5.500304931640625,0.0880120454519987,-0.004398180160019547,-0.005428372591128572
1761916264043360000,5.510360107421875,0.10223054041862487,0.005545523564238101,-0.0018575101007241755
1761916264053415200,5.520415283203125,0.10013502944409847,0.0017045845613349229,-0.004875159155158326
1761916264063470800,5.530470947265625,0.09205050718784331,0.0006208444452378898,0.004216238588700071
1761916264073526000,5.540526123046875,0.10342238055169582,-0.008232662022672593,-0.008322742325766012
1761916264083581000,5.550580810546875,0.10162731382846832,-0.010522225131420418,-0.0010831829936709255
1761916264093636000,5.560635986328125,0.08815817592442035,0.0007368811734952032,-0.0006085055534727871
1761916264103692000,5.570692138671875,0.09997954662144183,-0.004020149761019274,-0.0013124343054369092
1761916264113747000,5.580746826171875,0.0917459712833166,-0.0014318320345599203,-0.007459896685043349
1761916264123801900,5.5908017578125,0.09728256262242793,-0.009790522456541656,-0.004127025935286656
1761916264133857000,5.60085693359375,0.10267477705478667,-0.006003076339699327,-0.013643535489728674
1761916264143913000,5.610912841796875,0.08741232599318027,-0.001486795358499512,-0.013485056992387398
1761916264153967900,5.6209677734375,0.08217325629591941,-0.022143598010623825,-0.0057470374857075505
1761916264164023000,5.63102294921875,0.10222644876539706,-0.0012682024380657822,0.005104620529478416
1761916264174078000,5.641077880859375,0.10671206974685192,0.02380353057947941,0.008172547599580138
1761916264184133000,5.651133056640625,0.09937748907506465,0.016941755051212384,0.002543437405116856
1761916264194188800,5.661188720703125,0.08695639891922473,0.0010625877302139998,-0.006015972353890538
1761916264204244000,5.671243896484375,0.0965349591255188,-0.0015134367702528833,-0.006806154617201536
1761916264214299000,5.681298828125,0.1026689318358898,-0.0004563928648363799,0.001238410088000819
1761916264224354000,5.69135400390625,0.09922434433996677,-0.0067967840006574985,0.0033334370053373277
1761916264234410000,5.701409912109375,0.08994856647253036,-0.0022076569789554923,-0.007909887208556756
1761916264244465000,5.71146484375,0.09608663083612919,0.0036887075832579283,-0.0032711671577766535
1761916264254520000,5.72152001953125,0.08965221387445926,-0.003220185889210552,-0.0022457878991030155
1761916264264575000,5.731574951171875,0.09369301369786262,0.0038195126223843543,-0.0021786409470252693
1761916264274631000,5.741630859375,0.1010270098477602,-0.005632041937066241,0.0069556460904888805
1761916264284685800,5.751685791015625,0.09863222366571425,-0.002236618211958557,0.0005296864299103618
1761916264294741000,5.761740966796875,0.09893266791701316,-0.0012558178805280476,-0.008286958626331761
1761916264304796000,5.7717958984375,0.10297229869663714,0.004891955026332289,-0.003130744906933978
1761916264314852000,5.78185205078125,0.09728431618809699,0.012398312068451196,0.0013825769321992993
1761916264324907000,5.791906982421875,0.09099895230829715,-0.00010710450313054025,-0.004007482075691223
1761916264334962000,5.8019619140625,0.09922902051508425,0.0002668707752600312,0.0036774372705724086
1761916264345016800,5.812016845703125,0.09773089091181754,-0.0025381036428734657,-0.0010849456924945115
1761916264355072000,5.822072021484375,0.09039806380569934,0.002280996209802106,-0.0068368146169465035
1761916264365128000,5.8321279296875,0.10580956794917583,0.00522410959014669,-0.0030336138085462153
1761916264375182800,5.842182861328125,0.08845102139115334,-0.007687832822557538,-0.011402560763061046
1761916264385238000,5.852238037109375,0.09398702820837497,-0.0063585935127921395,-0.0018137988231610505
1761916264395293000,5.86229296875,0.10356617293655872,0.003002396686375141,-0.003724317752756178
1761916264405349000,5.87234912109375,0.10012684613764286,-0.0026609537044074384,-0.0023755243591498582
1761916264415403800,5.88240380859375,0.11434826371371745,0.0034822617583442476,-0.014778439537482336
1761916264425459000,5.892458984375,0.10297814391553402,0.010422819877555594,-0.0023590390152297912
1761916264435513900,5.902513916015625,0.09175415458977222,0.006816895206924528,0.007018646590411663
1761916264445570000,5.912570068359375,0.09848784675896168,-0.005284397543175146,0.0007492565978784114
1761916264455625000,5.922625,0.10821546004712582,-0.006651475512143224,0.0006342519160825759
1761916264465680000,5.932679931640625,0.09384966556429862,-0.00864336171541363,-0.0066814413921441876
1761916264475735000,5.942735107421875,0.09160393246412277,-0.0013926051358692348,0.0030404271418228743
1761916264485791000,5.952791015625,0.10626666406691074,0.006025607831915841,0.00460852584191598
1761916264495846100,5.96284619140625,0.11135375807285308,0.0018322203958407043,0.002830876044370234
1761916264505900800,5.97290087890625,0.09608955344557761,-0.006620879444479942,0.008685218962607905
1761916264515956000,5.9829560546875,0.09698971715569496,-0.010422472817683591,-0.0015816157687921076
1761916264526012000,5.993011962890625,0.0969920552432537,-0.006176158751128241,0.0014356953589245677
1761916264536067000,6.003067138671875,0.10956044491529464,0.0029825868742074818,-0.006381636461662128
1761916264546121700,6.013121826171875,0.08471709555983543,-0.003568588334927335,-0.007102534614736214
1761916264556177000,6.023177001953125,0.09833470202386378,0.0014262425439897923,0.009503558741323649
1761916264566232000,6.033232177734375,0.10806523792147636,-0.0015498323910403996,0.0006707754010334611
1761916264576288000,6.0432880859375,0.10297989748120308,0.000320984715828672,-0.010810293958336114
1761916264586343200,6.05334326171875,0.09759235922396182,-0.002664926626626402,-0.0029788057482335716
1761916264596397800,6.063397705078125,0.08801438353955746,0.002845553023694083,0.004305359910568222
1761916264606453000,6.073452880859375,0.09893675957024096,-0.006484283985383808,0.00790637094406411
1761916264616509000,6.083509033203125,0.10552198317945002,-0.00295449329088442,0.0021084709207993
1761916264626564000,6.093564208984375,0.09220365192294121,0.0038894817192107437,-0.005980773176345974
1761916264636618800,6.10361865234375,0.0896592281371355,0.0027379918628372252,-0.0044026828052010384
1761916264646674000,6.113673828125,0.10192951164543627,-0.010547423504758626,0.0010113050675485283
1761916264656729900,6.123729736328125,0.1116582939773798,-0.005500743707595393,-0.006407793816225603
1761916264666785000,6.133784912109375,0.08876490964591503,0.00023731588721275328,-0.006422342931386083
1761916264676840200,6.143840087890625,0.0862216549038887,0.00022504092752933502,-0.000042286505457013844
1761916264686894800,6.153894775390625,0.11151099446117878,-0.005133819224499165,0.005472485727490857
1761916264696951000,6.163950927734375,0.09475216736197471,-0.005639247995987534,0.008959953383915125
1761916264707002600,6.174002685546875,0.08712123409211635,-0.002162676192913204,0.0002650076117366552
1761916264717057500,6.1840576171875,0.1029869117438793,0.012002170624025166,-0.007915102239791303
1761916264727112400,6.194112548828125,0.10643208376169204,0.00888143565445207,-0.0056391475312877444
1761916264737168600,6.204168701171875,0.08009586549997329,0.0038936921034473924,-0.0017864358922000973
1761916264747223600,6.2142236328125,0.09925006330311298,0.0017113065630663185,-0.005055612022290006
1761916264757278700,6.22427880859375,0.1043383263528347,0.0004374689686577767,-0.00922606610734947
1761916264767333600,6.234333740234375,0.09611001171171665,-0.003112642994662747,-0.008427253013011067
1761916264777389600,6.2443896484375,0.10688801083564757,-0.007735370891867205,0.00072494414052926
1761916264787444500,6.254444580078125,0.09386837026476859,0.01018918465161696,-0.0017539401283953337
1761916264797499600,6.264499755859375,0.09326981984972953,-0.002815998135646805,-0.0036607601304072886
1761916264807554600,6.274554443359375,0.1026999114960432,0.001603033016156405,-0.008327637696592137
1761916264817610500,6.284610595703125,0.10689444057643413,0.004105864416249096,-0.0025624526328407228
1761916264827665700,6.294665771484375,0.09387538452744483,-0.010347937143594025,-0.0018816307618282734
1761916264837720600,6.304720458984375,0.10704641626775264,-0.006793934456445276,-0.0039355036848690355
1761916264847775500,6.314775390625,0.10106091211736201,-0.006081521003926172,-0.001282121365563944
1761916264857830400,6.324830322265625,0.10091127451360225,-0.006873465966060757,0.0013425645822193473
1761916264867886600,6.334886474609375,0.09821896668970584,-0.0046706221595406525,-0.0004044982808176428
1761916264877941500,6.34494140625,0.09687105921208858,-0.004881123105064034,0.0009390983478631824
1761916264887996700,6.35499658203125,0.10031272409856319,-0.00858406014307402,0.005190700510889291
1761916264898051600,6.365051513671875,0.09926526087224483,-0.01086146702314727,0.0027399920236784964
1761916264908107500,6.375107421875,0.09687339729964732,-0.002374821106251329,-0.00047469570650719104
1761916264918162700,6.38516259765625,0.10824760875105857,-0.002831716294586658,0.0013115118568297476
1761916264928217600,6.395217529296875,0.10375848063826561,0.006400806953012943,-0.003795127099798992
1761916264938272500,6.4052724609375,0.11019231307804583,0.001983392369560897,0.0025985559926833958
1761916264948328400,6.415328369140625,0.1012140568524599,0.005964196500880643,-0.004037749349791556
1761916264958383600,6.425383544921875,0.1021118824750185,0.0053669064611662175,0.002084085398213938
1761916264968438500,6.4354384765625,0.09433189612329006,0.0014000760562717914,0.0021061237000860275
1761916264978493700,6.44549365234375,0.10166530775129795,0.000512351702619344,-0.0015950689054094254
1761916264988549400,6.45554931640625,0.10151625466942786,-0.004467692599119618,-0.004546694385772571
1761916264998604500,6.4656044921875,0.09986907198429107,0.0008720975262578577,-0.0001622596233151853
1761916265008659700,6.47565966796875,0.09986848746240139,-0.008562752493564038,-0.0005747859469614923
1761916265018714600,6.485714599609375,0.0962777694940567,-0.00980461491397582,-0.003639288084115833
1761916265028770600,6.4957705078125,0.09777882170677185,-0.0029156773841474202,0.002285188327729702
1761916265038825500,6.505825439453125,0.109453477409482,0.000790346660092473,-0.0030536884821951386
1761916265048880600,6.515880615234375,0.0871586434930563,0.005905168923176825,0.0003236698632594198
1761916265058935600,6.525935546875,0.09209785346090793,0.0042744259161874645,0.004116632405435666
1761916265068991700,6.53599169921875,0.09673311204612255,-0.0061754098324570805,0.007724749033153057
1761916265079046400,6.54604638671875,0.08550795367658137,-0.008887737531075253,0.001029023387329653
1761916265089101600,6.5561015625,0.10077274282574653,-0.0011644772021099925,0.00036290589510463175
1761916265099156700,6.56615673828125,0.11139935078024864,0.003682670568116009,-0.004842298065172508
1761916265109212700,6.576212646484375,0.09568798690736294,-0.00047641273955814536,0.004243227060325444
1761916265119267600,6.586267578125,0.09089841454327106,0.0027936858391389248,0.007910206868965179
1761916265129322500,6.596322509765625,0.09927870487570763,0.007774451660085469,-0.005839273213269189
1761916265139377700,6.606377685546875,0.12142507023215293,0.0026737401207443325,0.0032363789721857753
1761916265149433600,6.61643359375,0.10571545992493629,0.005609227317059412,0.007161279064649716
1761916265159488800,6.62648876953125,0.08835574432313442,-0.002526194009371102,-0.00006761274295859039
1761916265169543400,6.63654345703125,0.10167115297019481,-0.01067780841877684,0.008288301200047135
1761916265179598600,6.6465986328125,0.08925064733624458,0.0034865817404352126,-0.010754599982034414
1761916265189654500,6.656654541015625,0.09164484899640082,0.0023388821431901304,0.004121317713707685
1761916265199709700,6.666709716796875,0.0917944866001606,0.005344192305859178,-0.0033308979883790012
1761916265209764600,6.6767646484375,0.10451368291974067,-0.005300855487631633,-0.00501483248732984
1761916265219819500,6.686819580078125,0.09673252752423286,-0.008653472117474302,-0.01496699351267889
1761916265229875500,6.69687548828125,0.10616028108298778,-0.0019117336391471325,0.011179419531673193
1761916265239930600,6.7069306640625,0.09747954649925232,-0.011657969429390505,-0.0030611594025976956
1761916265249985500,6.716985595703125,0.09314005599021911,0.0016344054019544272,0.0006516688417643309
1761916265260040400,6.72704052734375,0.09508709840476512,-0.003683501685177907,0.0011936028318945318
1761916265270096600,6.7370966796875,0.10870879652202128,0.007304724389640614,-0.0025192802113946527
1761916265280151600,6.747151611328125,0.08476677992045879,-0.006909130934486165,-0.017203228132147343
1761916265290206700,6.757206787109375,0.10302315210103988,0.011842879275931044,0.010006695091025903
1761916265300261400,6.767261474609375,0.09000175796449184,-0.010603501073550433,0.004272398355882614
1761916265310317600,6.777317626953125,0.09209843798279761,0.003920662308763713,0.001841581879230216
1761916265320372500,6.78737255859375,0.09763736740946768,-0.012719899572478606,-0.0049193270904477684
1761916265330427600,6.797427734375,0.0937462051898241,0.015881048750830812,0.0027620211923960595
1761916265340482600,6.807482666015625,0.08162322119772433,-0.010366276517882942,-0.0038066622739657756
1761916265350538500,6.81753857421875,0.09763444480001926,0.00047647667163982984,-0.003349054699577391
1761916265360593700,6.82759375,0.11304887155294417,-0.013771947642369196,0.0005219232485629618
1761916265370648600,6.837648681640625,0.1015279451072216,-0.003298968480154872,-0.006462601876538247
1761916265380703700,6.847703857421875,0.08611410287618637,-0.012525445579458028,-0.0007809669103939086
1761916265390759400,6.857759521484375,0.08955518324077129,-0.007245431950455531,0.0020198427892755715
1761916265400814600,6.867814697265625,0.09583996259868144,-0.007968257199134677,0.0032137378821149466
1761916265410869500,6.877869384765625,0.10077741900086402,-0.00625827494347468,0.0004644757065922022
1761916265420925700,6.88792578125,0.09224573749899864,-0.007832794251199812,0.000010092135751619934
1761916265430980600,6.897980712890625,0.09718144033551215,0.005053557062521577,0.0010952935565728694
1761916265441035500,6.908035400390625,0.10107143351137637,-0.0010350421361625193,0.0037899851338006555
1761916265451090700,6.918090576171875,0.10316694448590279,-0.012976815209304913,0.0013473777546547353
1761916265461146600,6.928146728515625,0.09000117344260215,0.006710895815491676,-0.003227017488796264
1761916265471201500,6.938201416015625,0.08940145398378371,0.005010083246976137,-0.006657832187693565
1761916265481256400,6.94825634765625,0.09463993915915489,5.662555806338787e-7,0.006222272048331797
1761916265491311600,6.9583115234375,0.10316811352968215,-0.005847209924552589,0.0016783998073078691
1761916265501367600,6.968367431640625,0.0928396117389202,-0.0019323563020676373,0.005392177899740636
1761916265511422700,6.978422607421875,0.09867489376366138,-0.0024451555292587727,-0.004630883804196491
1761916265521477400,6.988477294921875,0.09119476714134216,-0.006762078013457357,-0.00014592040986753999
1761916265531532500,6.998532470703125,0.0980810195237398,-0.0024050701140426096,0.00040008696718141435
1761916265541588500,7.00858837890625,0.10601005895733832,-0.00031737711979076263,-0.003190229142364114
1761916265551643600,7.0186435546875,0.10122224015891551,-0.0033174996506888416,0.0009622508945874869
1761916265561698600,7.028698486328125,0.08970189823508262,-0.002105210384633392,-0.0036549879767466334
1761916265571753500,7.03875341796875,0.1003249990582466,-0.007562297613592818,-0.00693731584935449
1761916265581809400,7.048809326171875,0.09448737894594669,-0.008452971976157277,-0.002270155155379325
1761916265591864600,7.058864501953125,0.09882862302064895,-0.011008282482158393,-0.008106176965637132
1761916265601919700,7.068919677734375,0.10511515594422817,-0.0046478897379245605,-0.007114499047165736
1761916265611974400,7.078974365234375,0.09509060553610324,-0.0018713924956042318,-0.0023570845201611517
1761916265622030600,7.089030517578125,0.09419219539165496,0.003390884547308087,-0.0006333842664025724
1761916265632085500,7.09908544921875,0.08446692019104957,0.0032078835300635546,-0.004668631131853908
1761916265642140700,7.109140625,0.08880407261252403,-0.0055442631889134645,0.0018785620219074189
1761916265652195600,7.119195556640625,0.09838263281881808,0.0007792224778793752,0.001649721702095121
1761916265662251500,7.12925146484375,0.09105039023458956,0.007999245992442592,-0.002800106446770951
1761916265672306400,7.139306396484375,0.08805705363750457,0.0013348744661081581,-0.0010429057822097091
1761916265682361600,7.149361572265625,0.09912789822816848,0.0032703269075602293,0.0009188958100508898
1761916265692416800,7.159416748046875,0.10092530303895472,-0.004642208915809169,-0.0007049790647346526
1761916265702473000,7.169472900390625,0.1004781437933445,-0.00035656748586334285,-0.0053951644412707535
1761916265712528000,7.17952783203125,0.10182663579285144,0.003249384584231302,0.0038509580734185874
1761916265722582800,7.189582763671875,0.09434417108297348,0.0019202000733930615,0.003028206981066614
1761916265732638000,7.199637939453125,0.08895955543518066,-0.005207112789573147,-0.0015661259387154132
1761916265742694000,7.20969384765625,0.09285071765482425,0.009948051105812192,-0.005188170627085492
1761916265752748800,7.219748779296875,0.10362520964741706,0.0055085251552518455,0.0030492589022498577
1761916265762803700,7.2298037109375,0.1054185228049755,0.0009738591339904815,0.00039005876351147885
1761916265772859000,7.23985888671875,0.09972995577454566,0.00017171243824996054,-0.005156213719397783
1761916265782914800,7.249914794921875,0.10002864646017551,0.0051947373651899395,-0.0014362068155780435
1761916265792970000,7.259969970703125,0.10362111799418926,-0.003651179451309144,-0.004868510218663141
1761916265803025000,7.27002490234375,0.09538988074362277,-0.0004159329902846366,0.0023500245917122808
1761916265813079800,7.280079833984375,0.09209551537334919,0.004856481854151934,0.00048002946875058114
1761916265823135700,7.2901357421875,0.09254325914084911,-0.006690410149889066,-0.00540564016951248
1761916265833191000,7.30019091796875,0.09793021287620067,-0.005991194105660543,-0.00670079454658553
1761916265843245800,7.310245849609375,0.10092471851706504,0.005294215684290975,-0.0011111578459851443
1761916265853300700,7.32030078125,0.09509060553610324,-0.002856193148717284,0.0021033106884919108
1761916265863357000,7.33035693359375,0.09224573749899864,-0.002182650401862338,0.005753823419520631
1761916265873411800,7.340411865234375,0.09344459189474583,0.0015574585750699043,0.00308343516648747
1761916265883466800,7.350466796875,0.09972995577454566,-0.0066881177281029516,-0.008495925201894714
1761916265893522700,7.360522705078125,0.09883271467387676,-0.00956583772203885,-0.00796945364237763
1761916265903577900,7.370577880859375,0.09374269805848598,-0.0011097422070335597,-0.002779036259278655
1761916265913632800,7.3806328125,0.10047872831523418,-0.009535680045792833,-0.001517546689789742
1761916265923688000,7.39068798828125,0.09868366159200667,-0.001343514430290088,0.0036524580929428335
1761916265933743600,7.40074365234375,0.08866086474955082,0.003760238449508324,-0.000026184754027053712
1761916265943798800,7.410798828125,0.09599252281188965,-0.005120064693782478,-0.005997249387111514
1761916265953854000,7.42085400390625,0.10048281996846198,0.004719256207393482,-0.0013584836705587803
1761916265963908900,7.430908935546875,0.09868658420145511,-0.003687511140014976,0.0022535054146777837
1761916265973965000,7.440965087890625,0.09584405425190926,-0.006836905948491767,-0.008428193727927281
1761916265984019700,7.451019775390625,0.09734159933328627,-0.0033716683901846406,-0.0019090850243344902
1761916265994075000,7.461074951171875,0.09419745608866215,-0.001003998543927446,-0.00046199148856103416
1761916266004129800,7.4711298828125,0.09524375027120113,0.0031051812074147163,0.002255432510282844
1761916266014186000,7.48118603515625,0.09180033181905746,-0.001556106868200004,0.0013279241355136037
1761916266024240600,7.49124072265625,0.09464227724671363,-0.0035375447426922615,0.000008393369009718299
1761916266034295800,7.5012958984375,0.1042161612778902,-0.0030022870885208245,-0.001161645924206823
1761916266044351000,7.51135107421875,0.09823007260560988,-0.0015261501213535665,-0.003214550732867792
1761916266054407000,7.521406982421875,0.10361877990663051,-0.004393586183292791,0.0024654676649253815
1761916266064461800,7.5314619140625,0.09329612333476543,-0.0021694347272627054,-0.0025402134015690536
1761916266074516700,7.541516845703125,0.09539221883118153,0.0028800672146491704,-0.003114414826640859
1761916266084572000,7.551572021484375,0.10362170251607894,0.00028779483227990565,0.0003394793537445366
1761916266094627800,7.5616279296875,0.10466799669861793,-0.0034614746986422686,0.002826199869252741
1761916266104683000,7.57168310546875,0.10840835227072239,-0.006575642930110916,-0.004262753744702786
1761916266114737700,7.581737548828125,0.0983779566437006,0.0036624406308401374,-0.002176512922020629
1761916266124792800,7.591792724609375,0.0820651197463274,0.0024255831791087984,0.0016921086722519248
1761916266134848800,7.601848876953125,0.1048088664740324,-0.001551293695764616,-0.0016218290481716394
1761916266144904000,7.611904052734375,0.09867197115421295,-0.0035009938582777973,-0.008955469005042687
1761916266154958800,7.621958740234375,0.09388532139956951,0.0006937178852036594,-0.0032691669969353823
1761916266165013800,7.632013671875,0.09373626831769943,-0.0007727562044747173,0.0030047347739338873
1761916266175069700,7.642069580078125,0.10570961470603943,0.003814480254240334,-0.003534777396870777
1761916266185124900,7.652124755859375,0.10107377159893512,-0.0036151217572391032,-0.005627977683302015
1761916266195180000,7.662179931640625,0.09344517641663551,-0.0030873167571611702,-0.00009387969537638127
1761916266205235700,7.672235595703125,0.09254676627218723,-0.002182202877290547,0.0016027316220570355
1761916266215291000,7.682290771484375,0.09987842433452605,-0.00845889939344488,-0.00655302010634914
1761916266225345800,7.692345703125,0.09988017790019511,0.00030865495721809564,-0.0010529796516522765
1761916266235401000,7.70240087890625,0.09389525827169418,0.007849316127737984,-0.006439988185930997
1761916266245457000,7.712456787109375,0.09629121349751948,-0.0039386454900261015,-0.0058223220784682774
1761916266255511800,7.72251171875,0.10197919600605965,-0.007601424047583714,0.0018902707260102032
1761916266265566700,7.732566650390625,0.11081073723733424,-0.001714347903523594,-0.008155057608662173
1761916266275622000,7.742621826171875,0.09764321262836456,-0.005375445960648357,-0.007690554502606391
1761916266285677800,7.752677734375,0.0919552301198244,0.0018295900473371148,-0.0001659037519712001
1761916266295732700,7.762732666015625,0.09404898752868175,-0.0048412934181746095,0.0065673134931828825
1761916266305788000,7.772787841796875,0.10033084427714348,-0.0007468454450834542,-0.004939237367315217
1761916266315842800,7.7828427734375,0.1027215388059616,-0.007197218027710914,0.0026505693077109754
1761916266325899000,7.79289892578125,0.09568798690736294,-0.005524836969235912,0.0031743191871792076
1761916266335953700,7.80295361328125,0.09793255096375941,-0.007734347978560254,0.00006986863212659955
1761916266346008800,7.8130087890625,0.09164894064962864,-0.002018116623070091,0.014238962365919722
1761916266356063700,7.823063720703125,0.09688567225933074,-0.004244752297131345,-0.007277160529280081
1761916266366120000,7.833119873046875,0.1010749406427145,-0.002906041906122118,-0.004823739495174959
1761916266376174800,7.8431748046875,0.09344225380718707,-0.0054124443696346135,0.008638356746733189
1761916266386229800,7.853229736328125,0.09089958358705043,0.00361182468845509,-0.004263776658009737
1761916266396285000,7.863284912109375,0.09419277991354465,0.0020288480796385555,-0.009516299491887911
1761916266406340900,7.8733408203125,0.10721358952820301,0.0033333822064101695,-0.004467491669720039
1761916266416395800,7.883395751953125,0.10601590417623519,-0.0013166172902099788,-0.00235305679901503
1761916266426450700,7.89345068359375,0.09688625678122043,-0.002544451185269281,0.002407736995164305
1761916266436505900,7.903505859375,0.10257248572409153,-0.00961644453126937,-0.0031714696429669853
1761916266446561800,7.913561767578125,0.10317337422668933,0.0015540245089679956,-0.00447520005214028
1761916266456617000,7.923616943359375,0.10092881017029284,-0.0003732263597194105,-0.003836692086048424
1761916266466671900,7.933671875,0.09030278673768043,-0.004670439496450126,-0.0005137856078799814
1761916266476727800,7.943727783203125,0.09823533330261706,-0.008249731888482346,-0.003340496933786198
1761916266486782700,7.95378271484375,0.1015273605853319,-0.003690269352681935,0.00027508148117922243
1761916266496838000,7.963837890625,0.09614040684998035,-0.005452100526588038,-0.0004224266631528735
1761916266506892800,7.973892822265625,0.10481880334615706,-0.0018559209318365901,0.0007880725046154111
1761916266516949000,7.983948974609375,0.09598901568055153,0.0074016454254742705,0.0004137227668892592
1761916266527003600,7.994003662109375,0.10391688607037067,-0.002669091345090419,-0.0029938754532020536
1761916266537058800,8.004058837890625,0.09553834930360317,-0.0009888923063408582,0.0036777934635989365
1761916266547113000,8.014113037109375,0.10182312866151333,-0.0017273717818781732,-0.004510326164448634
1761916266557167900,8.02416796875,0.10346972682476042,-0.015128257622150703,-0.004808952917996794
1761916266567222800,8.034222900390626,0.08356617195904255,-0.00906186112212017,0.002464983607735485
1761916266577278000,8.04427783203125,0.08655950855612754,-0.0047161144022364165,0.006462629276001826
1761916266587334000,8.054333984375,0.09389233566224575,-0.008724153600353748,-0.0006329367418307811
1761916266597388800,8.064388916015625,0.10346738873720168,-0.008600874280557036,0.0009977423330768942
1761916266607443700,8.074443603515626,0.09104571405947208,0.0007792042115703225,0.0008327884291764348
1761916266617499000,8.084498779296876,0.09583470190167427,0.0069980330606456845,-0.00003198430715128779
1761916266627554800,8.094554931640625,0.09852642520368099,0.0018330971786752342,-0.005802165206428617
1761916266637609700,8.104609619140625,0.10046937596499919,0.005614305350976064,0.00010993578103370964
1761916266647665000,8.114664794921875,0.1006172600030899,0.0021804310453124344,0.0022360793558415023
1761916266657719800,8.1247197265625,0.09597615619897842,0.0004826506840996444,0.004019574372284114
1761916266667775700,8.134775634765624,0.09672551326155662,-0.004866939316084608,-0.0033581787209492173
1761916266677831000,8.144830810546875,0.09238134657740592,-0.0053045544152148065,-0.005078554506460204
1761916266687885800,8.1548857421875,0.0992617537409067,-0.002737160745775327,0.004578377298824489
1761916266697940700,8.164940673828125,0.09716858085393905,-0.007941012999182567,0.0009061185268685221
1761916266707996200,8.17499609375,0.10824293257594107,-0.0020386844870634376,0.000274396494589746
1761916266718051000,8.185051025390624,0.09867138663232326,-0.0014829320341348648,-0.005240640599839389
1761916266728106200,8.195106201171875,0.10615735847353934,-0.0035073048680555074,-0.0017904270807281135
1761916266738161200,8.2051611328125,0.10585632970035075,-0.007019249378610402,-0.005308837864687666
1761916266748217000,8.215217041015626,0.09223696967065334,-0.001591671371925622,-0.002551976904598996
1761916266758272300,8.225272216796874,0.09013970513045787,-0.00406092929597944,-0.004401605092966929
1761916266768327200,8.2353271484375,0.09447919563949107,-0.005816814786288887,-0.0009012688218150288
1761916266778383400,8.24538330078125,0.0917898104250431,-0.007975691586919128,-0.0017610457226168363
1761916266788438000,8.25543798828125,0.0907441007643938,0.0014610033301170914,-0.009637395987752824
1761916266798493200,8.2654931640625,0.10241641837954521,-0.0031018658723216503,-0.004986273113125935
1761916266808548000,8.275548095703124,0.10226736529767513,-0.0035325397740118203,-0.0027872560983523724
1761916266818604300,8.285604248046875,0.09074702337384223,-0.0015186883341055362,-0.003756375125143677
1761916266828659200,8.2956591796875,0.09763152219057082,0.004453983734175562,-0.0010305120915174483
1761916266838714000,8.305714111328125,0.09419336443543433,0.0034375367006286976,-0.001589077556040138
1761916266848769300,8.315769287109376,0.09090192167460918,-0.0016604805581271647,0.002271863055275753
1761916266858825200,8.3258251953125,0.10242226359844207,0.0025429076821543274,-0.004309405898023397
1761916266868880400,8.33588037109375,0.087903324380517,0.0037520734093617644,0.005904904061695561
1761916266878935000,8.34593505859375,0.09523556696474551,-0.004753459871094674,-0.0015381054206285625
1761916266888990200,8.355990234375,0.0997241105556488,-0.011130474956566468,-0.002042346882028505
1761916266899046100,8.366046142578124,0.09179331755638122,-0.0010799589901231228,-0.0050165769198443734
1761916266909101300,8.376101318359375,0.08161854502260685,-0.005311806139908731,-0.004172947436245158
1761916266919156200,8.38615625,0.09792904383242129,-0.0004528218014165759,0.003210230750776827
1761916266929211100,8.396211181640625,0.09822831903994082,-0.0011400277474429457,-0.005413266353541985
1761916266939267000,8.40626708984375,0.10211889673769474,-0.010857576299319043,-0.003143832717370242
1761916266949322200,8.416322265625,0.0991273137062788,-0.0011157883553300052,-0.0020138879725243894
1761916266959377400,8.42637744140625,0.10212123482525348,0.0027157708978746086,0.003064648267626762
1761916266969432000,8.43643212890625,0.10197335078716277,0.0038419345167465505,-0.004639532901532948
1761916266979488300,8.44648828125,0.10197510435283183,-0.00636362588093616,-0.00569873223141767
1761916266989543200,8.456543212890624,0.09778583596944808,0.0035226303013507275,-0.008468096480052917
1761916266999598300,8.466598388671875,0.09898176775574684,0.00019783326019532976,-0.0009244122353848069
1761916267009654300,8.476654296875,0.0888052416563034,-0.0015662081371061504,0.0022309282566886396
1761916267019709200,8.486709228515625,0.09553834930360317,0.0035124377008993175,-0.006566765503911301
1761916267029764000,8.49676416015625,0.09838321734070778,-0.0013459347162395716,0.0002694919906090945
1761916267039819300,8.5068193359375,0.09479016128480434,-0.0005932897180318832,0.002037140983948484
1761916267049875200,8.516875244140625,0.09240063579976558,-0.0027054960990324614,-0.0025261118109803646
1761916267059930000,8.52693017578125,0.10302432114481926,-0.014015565406205131,-0.004057769224513322
1761916267069985000,8.536985107421875,0.09194996942281722,0.00046918841432780025,-0.0016003204692620783
1761916267080040200,8.547040283203126,0.09479074580669403,-0.005129015185218304,-0.006105641665030271
1761916267090096000,8.55709619140625,0.10451543648540973,-0.0026512816937640307,-0.0062052387151401486
1761916267100151300,8.5671513671875,0.10017477693259716,0.0027545685383025555,-0.0014296583437826483
1761916267110206200,8.577206298828125,0.10361585729718208,0.003545992910629138,-0.0007297207803465426
1761916267120261000,8.58726123046875,0.09897358444929122,0.003048829643987119,0.006966030487185344
1761916267130317300,8.5973173828125,0.0859516057908535,-0.006192625828739255,0.003844656196795404
1761916267140372200,8.607372314453125,0.09163608116805552,-0.014859021359868347,-0.0033424148962367325
1761916267150427100,8.61742724609375,0.09747194771468638,-0.010570987043436616,0.0012533793282695114
1761916267160482000,8.62748193359375,0.10256254885196685,-0.0011281637797132134,-0.005689809139445424
1761916267170538200,8.637538330078126,0.09283785817325114,-0.008310102039901538,0.006420717229880392
1761916267180593200,8.64759326171875,0.08879588930606841,0.0010306673551443964,-0.011634871681593358
1761916267190648300,8.6576484375,0.10031856931746005,0.00029680925579741595,-0.0037260073863435534
1761916267200704000,8.6677041015625,0.10735212121605872,0.002769976169988513,-0.0051817774189170445
1761916267210759200,8.67775927734375,0.10705343053042889,0.00241496132039465,0.002784004695340991
1761916267220814300,8.687814453125,0.10092004234194756,-0.005814686761284247,0.0035471345549449324
1761916267230869200,8.697869140625,0.11020166542828082,-0.006713133438350632,0.0027792554549872874
1761916267240925400,8.707925537109375,0.09793196644186973,-0.0007107877510134131,-0.0024887846084311604
1761916267250980000,8.71797998046875,0.12052724460959434,0.0006663458210881799,-0.0018788086170796305
1761916267261035300,8.72803515625,0.10676116958558558,0.00008561419053003192,-0.002639280728716403
1761916267271090200,8.738090087890624,0.10047755927145481,-0.0007245422817301005,-0.0008163122184108942
1761916267281146400,8.748146484375,0.10990472830832004,-0.0027368319522123783,0.0003375248586758971
1761916267291201000,8.758200927734375,0.10601765774190425,-0.007233184390235692,-0.005940477698575705
1761916267301256200,8.768256103515625,0.101833065533638,0.0009560768821276724,0.0013616711414884775
1761916267311312100,8.77831201171875,0.10437865836322308,-0.007310916668409481,-0.004153713012812659
1761916267321367300,8.7883671875,0.08866437188088894,-0.001186826031235978,-0.0005329743655398488
1761916267331422200,8.798422119140625,0.08985738105773926,-0.002170402841642499,0.009856518631149083
1761916267341477000,8.80847705078125,0.10511983211934565,-0.004356962233642116,-0.002401745645795017
1761916267351533000,8.818532958984376,0.09868599967956543,-0.0017158000750932842,0.002284722536848858
1761916267361588200,8.828588134765624,0.09330079950988292,-0.00004793079495429992,-0.005943436840642243
1761916267371643400,8.838643310546875,0.10497370164692402,0.003751753748953342,-0.001298350981157273
1761916267381698000,8.848697998046875,0.11066226867735385,0.000038614977337419985,-0.010749110956164076
1761916267391754200,8.858754150390626,0.09105857354104518,-0.004108768759388476,0.0018033230949193238
1761916267401809200,8.86880908203125,0.09031097004413605,-0.003306631196802482,0.0004914276455994695
1761916267411864300,8.8788642578125,0.08821896620094775,-0.008917100622877478,0.0024204320799559352
1761916267421919200,8.888919189453125,0.0946522141188383,-0.008766120445402339,0.012067582276742905
1761916267431975200,8.89897509765625,0.09584989947080612,0.0016290077076293527,0.00044664778895676135
1761916267442030000,8.909030029296876,0.09973989264667034,0.005080317205283791,-0.007289024497009813
1761916267452085200,8.919085205078124,0.10198737931251525,0.0035382571287453173,-0.00398670414914377
1761916267462141200,8.92914111328125,0.08762158482968807,0.004459143966482952,0.00027805888955481346
1761916267472196000,8.939196044921875,0.0826835439056158,0.0039688305657356975,0.0026421120066195724
1761916267482251300,8.949251220703125,0.09076338998675346,0.011443815222056583,-0.006293327990546822
1761916267492306200,8.95930615234375,0.08956512011289595,-0.0018822792157996446,-0.0035154607750475407
1761916267502362400,8.9693623046875,0.10587561892271041,-0.014939383986545726,0.002597240818431601
1761916267512417300,8.979417236328125,0.09255962575376034,0.009546639831224456,0.0070466214427258814
1761916267522472200,8.98947216796875,0.08851999497413635,-0.0051300015659071505,0.004735549755068496
1761916267532527000,8.999527099609375,0.10019289711117745,-0.0038457795748021452,-0.00995128424251452
1761916267542583300,9.009583251953124,0.11037117677628994,0.00033438305351883173,0.00013941760384477675
1761916267552638200,9.01963818359375,0.09929857861995696,0.006622724341694265,-0.000658920566458255
1761916267562693000,9.029693115234375,0.09076689711809158,0.005270743477158248,-0.004201168883731589
1761916267572748300,9.039748291015625,0.09271277048885822,-0.0011307301961351185,-0.007511836934834718
1761916267582804200,9.04980419921875,0.1063292079091072,0.0010593454603571445,-0.0016917616123799234
1761916267592859400,9.059859375,0.09749708215594291,0.007903978057578205,0.007955004991916939
1761916267602914000,9.0699140625,0.09809504804909229,0.0018071681529749184,0.007153607214847579
1761916267612969200,9.07996923828125,0.09973930812478064,-0.005382515022251754,-0.00021008995356969535
1761916267623025200,9.090025146484376,0.0971972224265337,-0.003477978308871388,-0.0009858235664200038
1761916267633080300,9.100080322265624,0.09555471591651439,-0.00042760516176931556,-0.0015052443306427447
1761916267643135200,9.11013525390625,0.08807283572852612,0.004157411940395832,0.0024771581027191133
1761916267653191200,9.120191162109375,0.08223696918189526,-0.008537727650161833,0.0007209255525376647
1761916267663246000,9.13024609375,0.09764788880348205,0.00041600605552084743,0.003989023970393464
1761916267673301200,9.14030126953125,0.10198679479062557,-0.0036585042412392793,0.014919912101095542
1761916267683356200,9.150356201171874,0.09959259313046932,-0.004608936833869665,-0.000990518007846549
1761916267693412400,9.160412353515625,0.09704583125710486,-0.0013734711771365255,0.0000667359601240605
1761916267703467000,9.170467041015625,0.1036281322568655,0.0037431137847714125,-0.0003249211054295301
1761916267713522400,9.1805224609375,0.09644611179828644,0.0009748272483702748,-0.0028308669112157075
1761916267723577300,9.190577392578126,0.09375146588683128,-0.008329747455287724,0.004268242770573124
1761916267733633300,9.20063330078125,0.09794248783588409,0.0018632639880757779,-0.00300077098486945
1761916267743688400,9.2106884765625,0.10602350296080112,0.0009302117885090411,-0.004123847597511485
1761916267753743400,9.220743408203125,0.1021335097849369,-0.0043007294012233615,0.0028622118975501504
1761916267763799600,9.230799560546876,0.08492460083067417,-0.0025987203894648698,0.00563044363502413
1761916267773854200,9.240854248046874,0.10018938997983932,0.004892831809166819,0.00041525713684968646
1761916267783909400,9.250909423828125,0.10138532176613807,-0.0017976514059584586,0.003825065580336377
1761916267793964300,9.26096435546875,0.09779460379779338,-0.0025657131690066306,-0.005811636287672445
1761916267804020500,9.2710205078125,0.09809095639586449,-0.004944397599622607,-0.0006635602089576423
1761916267814075400,9.281075439453126,0.09809037187397479,-0.009614800563454628,-0.004370451902877539
1761916267824130300,9.29113037109375,0.09120645757913588,0.0004859842855017632,-0.0040826022716704755
1761916267834185500,9.301185546875,0.0886614492714405,0.012544479073490947,-0.00464646496581845
1761916267844241400,9.311241455078125,0.09315057738423346,-0.00035202830806374546,0.0011425119654741138
1761916267854296300,9.32129638671875,0.1063204400807619,0.006899842516332864,-0.0019227116908878087
1761916267864351200,9.331351318359374,0.10691899049580096,0.004314191670995206,-0.0013456698547583072
1761916267874406400,9.341406494140625,0.09434943177998065,-0.002990541851799935,0.0012183445475064218
1761916267884462300,9.35146240234375,0.10317688135802745,0.004446065289201215,-0.005029025409463793
1761916267894517500,9.361517578125,0.09779051214456558,-0.002116699893027544,-0.010120987386768683
1761916267904572200,9.371572265625,0.09539514144062995,0.0024036088093183933,0.004953293292131275
1761916267914628400,9.38162841796875,0.10421966840922832,-0.0015276662250049411,0.001946220430638641
1761916267924683300,9.391683349609375,0.09988017790019511,-0.004979916437575593,-0.009305561084346846
1761916267934738400,9.401738525390625,0.09135317257344722,0.007191436740895733,-0.0006155746150761842
1761916267944793300,9.41179345703125,0.08970832797586917,-0.0014610672621987759,-0.0008283040503039955
1761916267954849500,9.421849609375,0.10033259784281254,-0.011056322874967009,-0.002501589291077107
1761916267964904200,9.431904296875,0.09688976391255855,-0.006681715386779978,-0.005513950249040499
1761916267974959400,9.44195947265625,0.1012315925091505,0.00034019173979759216,-0.0037503107105381784
1761916267985014500,9.4520146484375,0.10736731878519058,-0.008958053687773644,0.0006343341144733131
1761916267995070500,9.462070556640626,0.09794131879210471,-0.007087811969639733,0.004499521642643958
1761916268005125400,9.47212548828125,0.10467267287373543,0.006000637787440791,-0.00916165910162963
1761916268015180300,9.48218017578125,0.10362637869119644,-0.0018541764993220567,-0.003017557722888887
1761916268025236500,9.492236572265625,0.09958499434590339,0.005402315701264888,-0.0012530962004791944
1761916268035291400,9.50229150390625,0.09404781848490237,0.004272763682063668,-0.001277125530038029
1761916268045346300,9.51234619140625,0.10392156224548817,0.0006727755618747323,0.00026024923822842537
1761916268055401200,9.522401123046874,0.09793547357320785,0.004013857017550617,-0.0054477166124153875
1761916268065457400,9.53245751953125,0.10048106640279292,-0.0006361424790695309,0.004397915298538282
1761916268075512300,9.54251220703125,0.10183014292418956,0.0013134298192802815,0.0030212475173175333
1761916268085567500,9.5525673828125,0.09689034843444824,0.0021407748883590103,0.0062785596796777095
1761916268095622400,9.562622314453124,0.10407178437113761,0.0014807492102030663,0.004804696867987513
1761916268105678300,9.57267822265625,0.10601648869812488,-0.0008160290906205772,-0.004966572898812592
1761916268115733500,9.5827333984375,0.10362579416930674,0.012181390515295787,-0.0006046787617262452
1761916268125788400,9.592788330078125,0.10542027637064456,0.0000054616264067590235,0.004372223734855652
1761916268135844400,9.60284423828125,0.091650109693408,0.0051503776336554435,0.005884126135148108
1761916268145899300,9.612899169921874,0.09239479058086872,-0.0033491734305862333,0.003212039115373045
1761916268155954400,9.622954345703125,0.10212123482525348,0.00013051277818158268,-0.007682718256022781
1761916268166009300,9.63300927734375,0.09463818559348583,0.00246910266042687,-0.004319068775512278
1761916268176065500,9.6430654296875,0.097480131021142,0.0049566268935333935,-0.006110345239611343
1761916268186120200,9.6531201171875,0.09329086263775825,-0.0013834537150338292,-0.00573008635090664
1761916268196175400,9.66317529296875,0.10107377159893512,-0.003198220652574673,0.0023110260218847543
1761916268206230500,9.67323046875,0.09494038341045379,0.00996856417087838,-0.001265900883125141
1761916268216286500,9.683286376953125,0.08910276329815388,-0.0014965130349155514,-0.004371237354166805
1761916268226341000,9.693341064453126,0.10167232201397418,-0.003762722667539492,-0.004261529901996255
1761916268236396300,9.703396240234374,0.09837971020936966,-0.008800515905348584,-0.005783962829457596
1761916268246451500,9.713451416015625,0.08820201506614685,-0.0017261296728625893,-0.0007734685905277729
1761916268256507400,9.72350732421875,0.10750760403871536,-0.0007490556684788316,0.004187131225224584
1761916268266562600,9.7335625,0.1055628997117281,-0.0026703243209514767,0.004351400142535567
1761916268276617200,9.7436171875,0.10406418558657168,0.011903751750849187,0.0050130880548153066
1761916268286673400,9.75367333984375,0.10166998392641544,0.008906487897317857,-0.0029288839255925264
1761916268296728300,9.763728271484375,0.09688508773744106,-0.004704606627533212,0.00789390418813564
1761916268306783500,9.773783447265625,0.09898059871196746,0.004016551298135891,0.005338575415825471
1761916268316838100,9.783838134765626,0.09210019154846667,-0.0035902156448457388,0.0028894834969658404
1761916268326894300,9.793894287109374,0.0988350527614355,-0.0015541797725949435,0.006941608431981876
1761916268336949200,9.80394921875,0.09808803378641605,-0.006374138141795992,0.001289574019657448
1761916268347004400,9.81400439453125,0.09823767139017581,-0.0015823281548451632,0.0047467104698996985
1761916268357059600,9.8240595703125,0.09389584279358386,0.0038196952854748813,-0.002100415478507057
1761916268367115300,9.834115234375,0.08416998307108879,0.00104986524595879,-0.000989787355484441
1761916268377170400,9.84417041015625,0.09105039023458956,-0.0055591228313278404,0.0023418047526385633
1761916268387225300,9.854225341796875,0.0937415290147066,0.010802320714434608,-0.002812116544973105
1761916268397281500,9.864281494140625,0.09688508773744106,0.0009205489110201597,-0.006174724845867604
1761916268407336400,9.87433642578125,0.09703647890686988,-0.008735003787931054,-0.0037115130701102315
1761916268417391400,9.884391357421874,0.09718670103251933,-0.0032959819386247542,-0.0005525558488443493
1761916268427446300,9.8944462890625,0.10182780483663081,-0.004950781674636528,-0.0033000553255435076
1761916268437502500,9.90450244140625,0.10377484725117683,-0.0074252363636158406,-0.006950421926099806
1761916268447557400,9.914557373046875,0.10706745905578136,0.005394981778180226,-0.005542774484725669
1761916268457612300,9.9246123046875,0.09733984576761721,-0.0034047669421881435,-0.002173142788000405
1761916268467667500,9.93466748046875,0.0968915174782276,-0.009176043820008636,0.001764689851272851
1761916268477723400,9.944723388671875,0.10721534309387207,-0.010703719178168102,0.006758726145746186
1761916268487778300,9.9547783203125,0.09793722713887691,-0.006753328451421112,-0.0007575312358792871
1761916268497833200,9.964833251953126,0.09988251598775386,-0.0028430048735812305,-0.007981856466224417
1761916268507889200,9.97488916015625,0.10272855306863785,0.0046808604257646946,0.0008194905561860651
1761916268517944300,9.9849443359375,0.10288403589129447,0.011236876206798477,0.0037810163760557767
1761916268527999500,9.99499951171875,0.09016600861549377,0.00273812886015512,0.003000889715878293
1761916268538054400,10.005054443359375,0.09346388111710548,-0.004190738821262493,-0.0005256495756097138
1761916268548110600,10.015110595703124,0.0954103390097618,-0.000802667285548523,-0.0007890314858406782
1761916268558165200,10.025165283203124,0.09795359375178814,-0.00007159479833208024,0.007287745855376124
1761916268568220400,10.035220458984375,0.0960118120342493,-0.00532830975013785,0.004324840929172933
1761916268578275300,10.045275390625,0.10038754290044308,0.00996440858556889,-0.002944574685068801
1761916268588331500,10.05533154296875,0.20757482894361018,0.024522583835339173,-0.03368194138202816
1761916268598386200,10.06538623046875,0.06586509557366371,-0.023445309992646796,-0.018058840314485132
1761916268608441300,10.07544140625,-0.0770499219328165,-0.009174125857558101,0.04032492306046188
1761916268618497300,10.085497314453125,0.14189093515574933,0.02763031319286674,0.014840773317124694
1761916268628552400,10.095552490234375,0.24846622678041458,-0.0062385290633887045,-0.03975765369967557
1761916268638607400,10.105607421875,0.05739420434832573,-0.016874900360079482,-0.010634142806986347
1761916268648662300,10.115662353515624,-0.011899696630239485,0.005226758204959332,0.0287645231208764
1761916268658718500,10.125718505859375,0.08009177384674548,-0.006677221874753013,0.021010365330148488
1761916268668773400,10.1357734375,0.06747311529219151,-0.020477701491862534,0.000861959724733606
1761916268678828500,10.14582861328125,-0.006074935999512672,-0.0020502561938483266,0.014764100484875961
1761916268688884200,10.15588427734375,0.04104278900623321,0.005789543186873197,0.019120715658646075
