time,seconds_elapsed,z,y,x
1761916258617324300,0.08432421875,-0.00108284130692482,0.012237757444381714,0.013937121257185936
1761916258627379500,0.09437939453125,0.0012221246724948287,0.021673336625099182,0.017470603808760643
1761916258637435400,0.104435302734375,-0.000627973407972604,-0.00033902039285749197,0.00939003936946392
1761916258647490600,0.114490478515625,-0.00039707732503302395,-0.01960592530667782,0.004573978949338198
1761916258657545500,0.12454541015625,-0.002242914168164134,-0.007527158595621586,0.011240137740969658
1761916258667600400,0.134600341796875,0.00022370553051587194,0.016461797058582306,0.015380287542939186
1761916258677655600,0.144655517578125,-0.0010793792316690087,0.0076059880666434765,0.009347163140773773
1761916258687711500,0.15471142578125,-0.001374723738990724,-0.011111773550510406,0.008957009762525558
1761916258697766100,0.16476611328125,-0.00034674355993047357,-0.011530422605574131,0.014056696556508541
1761916258707821000,0.174821044921875,0.0013627394801005721,0.0017781927017495036,0.013703295029699802
1761916258717876200,0.184876220703125,-0.0011254518758505583,0.011700864881277084,0.011967979371547699
1761916258727931100,0.19493115234375,0.00021731393644586205,0.0030013825744390488,0.009274724870920181
1761916258737986000,0.204986083984375,-0.00028628981090150774,-0.010549313388764858,0.00984224397689104
1761916258748042000,0.2150419921875,-0.0004929511342197657,-0.002984072081744671,0.010389789938926697
1761916258758097200,0.22509716796875,-0.0024141555186361074,0.006712497677654028,0.011052384972572327
1761916258768152000,0.235152099609375,-0.0012024171883240342,0.006645918358117342,0.012416455894708633
1761916258778207000,0.24520703125,-0.0012325108982622623,-0.0029768813401460648,0.01137143187224865
1761916258788262100,0.25526220703125,-0.000731836655177176,-0.0060384515672922134,0.010658237151801586
1761916258798317300,0.2653173828125,-0.0010586065473034978,0.001980859087780118,0.01079618837684393
1761916258808373200,0.275373291015625,-0.00034221619716845453,0.009127984754741192,0.012807673774659634
1761916258818428200,0.28542822265625,-0.001894839107990265,0.002763828495517373,0.010483001358807087
1761916258828483000,0.295483154296875,-0.0024825986474752426,-0.0031763522420078516,0.009160741232335567
1761916258838538200,0.305538330078125,0.0014748586108908057,0.000040746363083599135,0.014280135743319988
1761916258848593200,0.31559326171875,-0.002968092914670706,0.005628058221191168,0.013067864812910557
1761916258858649000,0.325649169921875,0.00022317290131468326,0.0028748824261128902,0.014133928343653679
1761916258868704000,0.3357041015625,0.0013068130938336253,-0.00455640209838748,0.01327106449753046
1761916258878759200,0.34575927734375,-0.0022807312197983265,-0.0018367822049185634,0.010760768316686153
1761916258888814300,0.355814453125,-0.0003534014686010778,0.0001954760227818042,0.010151970200240612
1761916258898869000,0.365868896484375,0.0008258462767116725,0.0025979136116802692,0.01080045010894537
1761916258908924200,0.375924072265625,-0.0009171926649287343,0.001204814063385129,0.011950402520596981
1761916258918980000,0.38597998046875,0.00033449303009547293,-0.0027060380671173334,0.01212670374661684
1761916258929035300,0.39603515625,-0.0007299724384211004,-0.0006519418093375862,0.011498996987938881
1761916258939090000,0.40608984375,-0.0009952232940122485,0.0014096111990511417,0.010210826061666012
1761916258949145000,0.41614501953125,0.003742806613445282,-0.00018189390539191663,0.010785003192722797
1761916258959200300,0.4262001953125,-0.0023960459511727095,-0.0015824503498151898,0.011537346057593822
1761916258969256200,0.436256103515625,0.0006005428149364889,-0.0007166566210798919,0.013247628696262836
1761916258979311000,0.44631103515625,-0.00033103092573583126,-0.002323075430467725,0.012086223810911179
1761916258989366000,0.456365966796875,-0.0013257216196507215,0.00230842805467546,0.00947978813201189
1761916258999421200,0.466421142578125,0.0017411747248843312,0.0009978864109143615,0.01167663000524044
1761916259009476000,0.47647607421875,0.00043809000635519624,-0.000969923275988549,0.01079538930207491
1761916259019531000,0.486531005859375,-0.0001227717293659225,0.0016437029698863626,0.013508085161447525
1761916259029587000,0.4965869140625,-0.0008149272762238979,0.0030663637444376945,0.010565558448433876
1761916259039642000,0.50664208984375,-0.0031521173659712076,0.0016282566357403994,0.01324123702943325
1761916259049697300,0.516697265625,0.0011427623685449362,-0.00033955302205868065,0.010265421122312546
1761916259059752200,0.526752197265625,0.0013752563390880823,-0.0024802018888294697,0.010394051671028137
1761916259069807000,0.53680712890625,-0.001686846255324781,-0.0010839065071195364,0.009445167146623135
1761916259079862000,0.546862060546875,0.00007643271965207532,0.0011124024167656898,0.01082521677017212
1761916259089918200,0.556918212890625,-0.000520647969096899,0.0016610135789960623,0.009502424858510494
1761916259099973000,0.56697314453125,-0.0016684704460203648,-0.0026133600622415543,0.01206997875124216
1761916259110028000,0.577028076171875,-0.00030652983696199954,-0.0033747577108442783,0.010271545499563217
1761916259120083200,0.587083251953125,0.0014082795241847634,-0.0013038836186751723,0.009545568376779556
1761916259130138000,0.59713818359375,0.0001597896625753492,0.0013486248208209872,0.008213987573981285
1761916259140194300,0.6071943359375,-0.0006340986583381891,0.0007097324123606086,0.012262791395187378
1761916259150249000,0.6172490234375,0.002144377212971449,-0.0007621967233717442,0.010551177896559238
1761916259160304000,0.62730419921875,-0.0015821839915588498,-0.0008737831376492977,0.01323777437210083
1761916259170359000,0.637359130859375,-0.002276203827932477,-0.0008735168376006186,0.014635401777923107
1761916259180414200,0.647414306640625,0.00008894957863958552,0.0038663772866129875,0.011012171395123005
1761916259190469000,0.65746923828125,-0.0000953411654336378,-0.0007041397620923817,0.013947507366538048
1761916259200525000,0.667525146484375,-0.0004689826746471226,-0.002822417998686433,0.014003699645400047
1761916259210580200,0.677580322265625,-0.00020426444825716317,0.0035337484441697598,0.011214304715394974
1761916259220635100,0.68763525390625,0.00004261057620169595,0.0031880701426416636,0.010830543003976345
1761916259230690000,0.69768994140625,0.0011238539591431618,-0.002156894188374281,0.013132845982909203
1761916259240745000,0.707744873046875,-0.0012743226252496243,-0.002555303042754531,0.010760235600173473
1761916259250800000,0.717800048828125,-0.000648479734081775,0.0012514194240793586,0.008641159161925316
1761916259260856000,0.72785595703125,0.0006090649403631687,0.0018125474452972412,0.012370649725198746
1761916259270911200,0.7379111328125,0.00018322547839488834,0.004682902246713638,0.0071178306825459
1761916259280966100,0.747966064453125,-0.0013171994360163808,-0.004026167094707489,0.012613263912498951
1761916259291021000,0.75802099609375,-0.0013371731620281935,-0.0028602350503206253,0.009767942130565643
1761916259301076200,0.768076171875,-0.0005499427788890898,0.0039017973467707634,0.01025823038071394
1761916259311132200,0.778132080078125,-0.000045273736759554595,0.006677077617496252,0.014875885099172592
1761916259321187000,0.78818701171875,0.001377919572405517,0.0021915151737630367,0.010186324827373028
1761916259331242000,0.798241943359375,0.0010221211705356836,-0.0040887510403990746,0.010977017693221569
1761916259341297200,0.808297119140625,0.0002442118711769581,-0.0031313446816056967,0.01224761176854372
1761916259351352300,0.818352294921875,-0.0010551444720476866,0.0011134676169604063,0.009582586586475372
1761916259361407000,0.828406982421875,-0.0001030643325066194,0.004449343308806419,0.008730640634894371
1761916259371463200,0.838463134765625,-0.0014213290996849537,-0.0014298511669039726,0.011747736483812332
1761916259381518000,0.84851806640625,-0.0011467571603134274,-0.0039175101555883884,0.012047075666487217
1761916259391573200,0.8585732421875,-0.002153431996703148,0.0004223773430567235,0.01025556679815054
1761916259401628000,0.8686279296875,-0.00037950044497847557,0.004419249482452869,0.011624698527157307
1761916259411683000,0.87868310546875,-0.0015238607302308083,-0.0012199940392747521,0.015539544634521008
1761916259421739000,0.888739013671875,-0.0020815266761928797,-0.004254133440554142,0.01088833436369896
1761916259431794200,0.898794189453125,-0.000222373942960985,-0.001790975802578032,0.009394034743309021
1761916259441849300,0.908849365234375,-0.001071123406291008,0.002669286448508501,0.011623899452388287
1761916259451904000,0.918904052734375,-0.0022117553744465113,0.002840793924406171,0.014803446829319
1761916259461959200,0.928959228515625,-0.00019893812714144588,-0.0007624630234204233,0.010752246715128422
1761916259472014000,0.93901416015625,0.0004215783847030252,-0.004861334338784218,0.011550395749509335
1761916259482070300,0.9490703125,0.00045060686534270644,0.003111371072009206,0.009740778245031834
1761916259492125000,0.959125,-0.0010269149206578732,0.00458729499951005,0.011054781265556812
1761916259502180000,0.96918017578125,-0.0007379619055427611,-0.00040000680019147694,0.014020743779838085
1761916259512235300,0.9792353515625,-0.0018572885310277343,-0.0008868326549418271,0.010733870789408684
1761916259522290200,0.989290283203125,0.00046099317842163146,-0.0013824469642713666,0.010702977888286114
1761916259532345000,0.999344970703125,0.0003206445835530758,0.0006167881074361503,0.01278610248118639
1761916259542401000,1.009401123046875,-0.002228533150628209,0.0030192257836461067,0.012672651559114456
1761916259552456200,1.019456298828125,-0.00028282770654186606,-0.0035923379473388195,0.011285677552223206
1761916259562511000,1.029510986328125,-0.0004141215467825532,-0.0025925873778760433,0.01121883187443018
1761916259572566000,1.03956591796875,0.001181644620373845,0.0016413062112405896,0.010962902568280697
1761916259582621200,1.04962109375,0.0023547669406980276,0.0014879080699756742,0.010392453521490097
1761916259592677000,1.059677001953125,-0.0014421016676351428,-0.0017270599491894245,0.01028832420706749
1761916259602732300,1.069732177734375,-0.001059139147400856,0.0007102650706656277,0.013931527733802795
1761916259612787000,1.079786865234375,-0.00045833003241568804,-0.0021105550695210695,0.008085090667009354
1761916259622842000,1.089842041015625,0.0001054611784638837,-0.001698830397799611,0.012986904941499233
1761916259632897000,1.09989697265625,-0.0006490123341791332,-0.0007086671539582312,0.013925403356552124
1761916259642952200,1.1099521484375,-0.0010966897243633866,0.0022623552940785885,0.012325641699135303
1761916259653008100,1.120008056640625,0.0011848403373733163,-0.00407543545588851,0.011651596054434776
1761916259663063000,1.13006298828125,0.0005941512063145638,0.0018373148050159216,0.010783405043184757
1761916259673118200,1.1401181640625,-0.0010863033821806312,0.003061303636059165,0.012232963927090168
1761916259683173000,1.150173095703125,-0.001531850197352469,0.0014652712270617485,0.012898221611976624
1761916259693228000,1.16022802734375,0.000028229507734067738,-0.0002788329729810357,0.01107235811650753
1761916259703284000,1.170283935546875,-0.0012796488590538502,-0.0020210728980600834,0.009771936573088169
1761916259713339100,1.180339111328125,-0.00008495483780279756,0.0015880429418757558,0.012242285534739494
1761916259723393800,1.190393798828125,-0.0010468886466696858,0.00014860439114272594,0.01040576957166195
1761916259733449000,1.200448974609375,0.00152332813013345,-0.003114833263680339,0.01050297450274229
1761916259743504100,1.210504150390625,-0.0009603358921594918,-0.0026019082870334387,0.008926383219659328
1761916259753558800,1.220558837890625,0.0010655306978151202,0.003129746997728944,0.012084359303116798
1761916259763615000,1.230614990234375,-0.0007699198904447258,0.003662378992885351,0.010742658749222755
1761916259773670000,1.240669921875,0.0017156084068119526,-0.0032200280111283064,0.011173558421432972
1761916259783725000,1.25072509765625,0.0015534218400716782,-0.0052200620993971825,0.008538627065718174
1761916259793780000,1.260780029296875,0.00017656758427619934,-0.00044314999831840396,0.011351191438734531
1761916259803835000,1.2708349609375,-0.0010543455136939883,0.0027057717088609934,0.014024206437170506
1761916259813890000,1.28089013671875,-0.002800047630444169,-0.00020133497309871018,0.010272078216075897
1761916259823946000,1.290946044921875,-0.0010961571242660284,-0.004036553204059601,0.010910438373684883
1761916259834001200,1.301001220703125,-0.001047421246767044,-0.0008471515611745417,0.011657188646495342
1761916259844055800,1.311055908203125,-0.0002463423879817128,0.0010495517635717988,0.013137905858457088
1761916259854111000,1.321111083984375,-0.000934236915782094,0.0033595776185393333,0.010245447047054768
1761916259864166100,1.331166259765625,-0.0005659217131324112,0.001773132593370974,0.012046542949974537
1761916259874222000,1.34122216796875,-0.0025960493367165327,-0.0007843009079806507,0.010362892411649227
1761916259884277000,1.351277099609375,-0.00004474110755836591,-0.00045912896166555583,0.01267132069915533
1761916259894332000,1.361331787109375,-0.0002436792419757694,0.0029177593532949686,0.010026801377534866
1761916259904387000,1.371386962890625,-0.0000697748182574287,0.00014194648247212172,0.009884055703878403
1761916259914442000,1.38144189453125,0.00046685212873853743,-0.0012884372845292091,0.012734970077872276
1761916259924497000,1.391496826171875,-0.0010258496040478349,-0.0022394522093236446,0.010556770488619804
1761916259934552800,1.401552734375,0.0019068233668804169,0.002701244316995144,0.010419351048767567
1761916259944608000,1.41160791015625,-0.001273523666895926,0.0015454323729500175,0.011946408078074455
1761916259954663000,1.421662841796875,0.00044661210267804563,-0.0008085357258096337,0.011984757147729397
1761916259964718000,1.431718017578125,0.0016319850692525506,0.003620034782215953,0.012811136431992054
1761916259974773000,1.44177294921875,-0.00004793690095539205,-0.00032437301706522703,0.012001801282167435
1761916259984829000,1.451828857421875,-0.0024919197894632816,-0.0007861651247367263,0.010876616463065147
1761916259994884000,1.461884033203125,-0.00475374236702919,0.0005632585380226374,0.014377341605722904
1761916260004939000,1.47193896484375,-0.00002956108801299706,0.000009853695701167453,0.010719222947955132
1761916260014994000,1.481993896484375,0.0007001450285315514,0.0024676851462572813,0.012430837377905846
1761916260025049000,1.492049072265625,0.0005459480453282595,-0.0014136058744043112,0.01059272326529026
1761916260035104000,1.50210400390625,-0.0007861651247367263,0.00245090713724494,0.011670238338410854
1761916260045160000,1.512159912109375,0.000056459015468135476,0.0013662016717717052,0.010517888702452183
1761916260055214800,1.52221484375,-0.0011241203173995018,-0.0028626318089663982,0.014957644045352936
1761916260065270000,1.53227001953125,0.000483363721286878,-0.002148372121155262,0.01194134820252657
1761916260075325000,1.542324951171875,0.0011534150689840317,0.002549710450693965,0.011828429996967316
1761916260085380000,1.552380126953125,-0.0004170510219410062,0.002513491315767169,0.012338425032794476
1761916260095435000,1.56243505859375,-0.0018122810870409012,-0.0018660769565030932,0.009558618068695068
1761916260105491000,1.572490966796875,0.00010120012302650139,-0.0021795309148728848,0.013586116023361683
1761916260115546000,1.582546142578125,-0.0006969492533244193,0.001886050682514906,0.0127557422965765
1761916260125601000,1.59260107421875,-0.001592037733644247,0.0032061797101050615,0.012042282149195671
1761916260135656000,1.602656005859375,-0.0007395598222501576,0.0019494339358061552,0.01245400682091713
1761916260145710800,1.6127109375,0.0000798948312876746,-0.0033571808598935604,0.011579690501093864
1761916260155767000,1.62276708984375,-0.0001448759576305747,0.002284193178638816,0.011492605321109295
1761916260165822000,1.632822021484375,-0.001933721243403852,0.0010575412306934595,0.010892062447965145
1761916260175877000,1.642877197265625,-0.001047687605023384,0.0018354506464675069,0.01031708624213934
1761916260185932000,1.65293212890625,0.0006013417732901871,-0.0015073491958901286,0.012626046314835548
1761916260195987000,1.662987060546875,-0.0012423646403476596,0.0015313175972551107,0.012095279060304165
1761916260206042000,1.6730419921875,-0.001005343277938664,0.0026940538082271814,0.012249475345015526
1761916260216098000,1.68309814453125,-0.00022450447431765497,-0.0020519655663520098,0.013617008924484253
1761916260226153000,1.693153076171875,0.0009803095599636436,-0.0003374225052539259,0.01053599826991558
1761916260236207900,1.703207763671875,-0.003099386813119054,-0.00034168356796726584,0.010605506598949432
1761916260246263000,1.713262939453125,-0.0003070624661631882,-0.0015006912872195244,0.011094463057816029
1761916260256318200,1.723318115234375,0.0011914982460439205,-0.0005251753609627485,0.01034478284418583
1761916260266374000,1.733373779296875,-0.0023118900135159492,0.0005645901546813548,0.010510165244340897
1761916260276429000,1.743428955078125,-0.0006026733317412436,0.00016005597717594355,0.009384713135659695
1761916260286484000,1.75348388671875,-0.0011880361707881093,-0.0013289173366501927,0.010408698581159115
1761916260296539100,1.7635390625,-0.0011089402250945568,-0.002624545246362686,0.01014105137437582
1761916260306593800,1.77359375,0.001600559800863266,0.0028727517928928137,0.01125158928334713
1761916260316649000,1.78364892578125,-0.00013022858183830976,0.0017233315156772733,0.01293151080608368
1761916260326705000,1.793704833984375,0.0006972155533730984,-0.004283694550395012,0.010455037467181683
1761916260336760000,1.803760009765625,-0.0013371731620281935,-0.004238154739141464,0.011987420730292797
1761916260346815200,1.813815185546875,-0.0017193368403241038,0.0021584921050816774,0.01056156400591135
1761916260356870000,1.823869873046875,0.00011531487689353526,0.002496180823072791,0.012440690770745277
1761916260366925000,1.833925048828125,-0.00032091091270558536,-0.003946804907172918,0.0133261913433671
1761916260376980000,1.84397998046875,0.00020266656065359712,-0.002133724745362997,0.01170592475682497
1761916260387036200,1.8540361328125,-0.0016397082945331931,0.0019353191601112485,0.011773834936320782
1761916260397090800,1.8640908203125,-0.0013693973887711763,0.0036019254475831985,0.012510465458035469
1761916260407146000,1.87414599609375,-0.002186188939958811,-0.004325506277382374,0.008348743431270123
1761916260417201200,1.884201171875,-0.0018700717482715845,-0.004220311529934406,0.012794891372323036
1761916260427256000,1.894256103515625,-0.0012250541476532817,-0.0003028014034498483,0.01028619334101677
1761916260437312000,1.90431201171875,0.0017217335989698768,0.0011653993278741837,0.012714996002614498
1761916260447367000,1.914366943359375,-0.0028908613603562117,0.00392869533970952,0.013919011689722538
1761916260457422000,1.924422119140625,-0.0005906891310587525,-0.0009733853512443602,0.010358365252614021
1761916260467477000,1.93447705078125,-0.0003507383225951344,-0.0010514160385355353,0.009471798315644264
1761916260477532000,1.944531982421875,-0.0003534014686010778,-0.00015046859334688634,0.0095096156001091
1761916260487587000,1.954587158203125,0.0002873550693038851,0.003388339886441827,0.011895009316504002
1761916260497643000,1.96464306640625,0.0006609965930692852,0.00013928332191426307,0.013026585802435875
1761916260507698200,1.9746982421875,-0.0005752427969127893,-0.001770469476468861,0.009701362811028957
1761916260517752800,1.9847529296875,0.00017177389236167073,-0.00170815153978765,0.011130415834486485
1761916260527808000,1.99480810546875,-0.0006311691831797361,0.0007568703731521964,0.012521917000412941
1761916260537863000,2.00486279296875,0.0006828344776295125,0.002549710450693965,0.010222810320556164
1761916260547918000,2.01491796875,0.0006641923682764173,0.0009805759182199836,0.011825500056147575
1761916260557974000,2.02497412109375,0.001449292292818427,-0.000678307143971324,0.012503008358180523
1761916260568029000,2.03502880859375,-0.001979261403903365,0.0019371833186596632,0.011754128150641918
1761916260578084000,2.045083984375,0.001312139444053173,0.0018485001055523753,0.008874185383319855
1761916260588139000,2.055138916015625,-0.002746784361079335,0.004553206264972687,0.014344850555062294
1761916260598194000,2.06519384765625,-0.0011443602852523327,0.0017960357945412397,0.01179514080286026
1761916260608249900,2.075249755859375,-0.00005912217602599412,-0.0013406352372840047,0.012222311459481716
1761916260618305000,2.085304931640625,0.000055926382628967986,-0.0023307986557483673,0.0104150902479887
1761916260628360000,2.09535986328125,-0.0011238539591431618,0.006586263421922922,0.011846805922687054
1761916260638415000,2.1054150390625,0.0005121259018778801,-0.0005278385360725224,0.012953083030879498
1761916260648470000,2.115469970703125,-0.0005941512063145638,-0.00672235107049346,0.009486446157097816
1761916260658525000,2.12552490234375,-0.0006418218254111707,0.00036751621519215405,0.012885171920061111
1761916260668581000,2.1355810546875,0.001118793967179954,0.002159024588763714,0.01242178212851286
1761916260678636000,2.145635986328125,0.0009776464430615306,0.0030178942251950502,0.0098052266985178
1761916260688691000,2.15569091796875,0.0016327840276062489,-0.0008498146780766547,0.010721620172262192
1761916260698745900,2.165745849609375,0.0027614317368716,-0.003028546692803502,0.011405786499381065
1761916260708801000,2.175801025390625,0.0005219795857556164,0.005868807900696993,0.014131265692412853
1761916260718857000,2.18585693359375,0.0004410194815136492,0.005793440621346235,0.011816712096333504
1761916260728912000,2.195911865234375,-0.0007819040911272168,0.0002479403046891093,0.010807639919221401
1761916260738967000,2.205967041015625,-0.0005720470217056572,-0.00020266656065359712,0.013937121257185936
1761916260749022000,2.21602197265625,-0.000835966260638088,-0.0009784454014152288,0.009192433208227158
1761916260759076900,2.226076904296875,-0.0022477079182863235,0.00007297061529243365,0.010220679454505444
1761916260769131800,2.2361318359375,0.00009880327706923708,0.0038221688009798527,0.011814048513770103
1761916260779188000,2.24618798828125,0.0014144048327580094,-0.00017070861940737814,0.012321380898356438
1761916260789243000,2.256242919921875,-0.0001978728687390685,-0.001933721243403852,0.011405520141124725
1761916260799298000,2.266298095703125,-0.0017603494925424457,-0.0007832356495782733,0.014301175251603127
1761916260809353000,2.27635302734375,-0.0033992587123066187,0.003269562730565667,0.010320814326405525
1761916260819408000,2.286407958984375,0.0014479606179520488,0.002989398315548897,0.01173628494143486
1761916260829464000,2.296464111328125,0.0013424995122477412,-0.0013036173768341541,0.012235627509653568
1761916260839519000,2.30651904296875,0.00025300029665231705,-0.0017398431664332747,0.0131496237590909
1761916260849574000,2.316573974609375,0.0012381036067381501,0.0015760586829856038,0.009590042755007744
1761916260859628800,2.32662890625,-0.0001179780374513939,0.0038389465771615505,0.010281932540237904
1761916260869684000,2.33668408203125,0.0013901700731366873,0.0026043052785098553,0.008195611648261547
1761916260879739100,2.3467392578125,-0.0018988338997587562,-0.0031502533238381147,0.012003399431705475
1761916260889795000,2.356795166015625,-0.001957689644768834,0.0007637945818714797,0.01104519423097372
1761916260899850000,2.36685009765625,-0.0006828344776295125,-0.001463673310354352,0.009550095535814762
1761916260909905000,2.37690478515625,-0.0008756473544053733,0.0014865765115246177,0.010349043644964695
1761916260919960000,2.3869599609375,-0.0011563445441424847,0.001958488719537854,0.01290487963706255
1761916260930015000,2.397014892578125,-0.0009978864109143615,-0.0019286612514406443,0.010874751955270767
1761916260940070000,2.40706982421875,-0.0009446232579648495,-0.000800279900431633,0.008449411019682884
1761916260950125800,2.417125732421875,-0.0020516992080956697,0.00033396040089428425,0.012223643250763416
1761916260960181000,2.427180908203125,-0.00033156355493701994,0.0008556736283935606,0.011020959354937077
1761916260970236200,2.437236083984375,0.0012282498646527529,0.0012266519479453564,0.012442820705473423
1761916260980290800,2.447290771484375,-0.0023635553661733866,-0.000835966260638088,0.010204434394836426
1761916260990346000,2.457345947265625,-0.00005219795639277436,-0.0016445019282400608,0.010116017423570156
1761916261000402000,2.46740185546875,0.0013904364313930273,0.0009957558941096067,0.01008219551295042
1761916261010457000,2.47745703125,0.0007270429632626474,0.002633333671838045,0.013009808026254177
1761916261020511700,2.48751171875,-0.0008167914929799736,0.00038402783684432507,0.010730674490332603
1761916261030567000,2.49756689453125,0.0004058657505083829,-0.0014833806781098247,0.01158741395920515
1761916261040622000,2.5076220703125,-0.0013555489713326097,0.003744937013834715,0.010101369582116604
1761916261050677000,2.517677001953125,0.000687361869495362,0.0017539578257128596,0.012810603715479374
1761916261060733000,2.52773291015625,-0.0009885653853416443,0.0012980246683582664,0.011112838052213192
1761916261070787800,2.537787841796875,0.000824248360004276,-0.0020815266761928797,0.010965299792587757
1761916261080843000,2.547843017578125,0.00025486451340839267,0.0021840583067387342,0.011319765821099281
1761916261090898000,2.55789794921875,-0.00036272252327762544,-0.0001459412305848673,0.009789247065782547
1761916261100952800,2.567952880859375,-0.000056459015468135476,0.0018250643042847514,0.012428972870111465
1761916261111008800,2.5780087890625,0.001202150946483016,0.000580036488827318,0.010792726650834084
1761916261121064000,2.58806396484375,0.0005731122801080346,0.00042024682625196874,0.014010624028742313
1761916261131119000,2.598119140625,-0.0007747135823592544,0.0013004215434193611,0.010763431899249554
1761916261141173800,2.608173828125,-0.0020532971248030663,0.00140987744089216,0.011268367059528828
1761916261151229000,2.61822900390625,0.0005448827287182212,0.00014540860138367862,0.010344250127673149
1761916261161284000,2.6282841796875,-0.0008295746520161629,-0.0000351537273672875,0.013177854008972645
1761916261171340000,2.638340087890625,-0.0011672634864225984,-0.00006870955257909372,0.011532552540302277
1761916261181395000,2.64839501953125,0.001139566651545465,-0.00030173614504747093,0.01101589947938919
1761916261191449900,2.658449951171875,-0.0007227819296531379,-0.00145222176797688,0.010072341188788414
1761916261201505000,2.668505126953125,0.00020746025256812572,0.002703907433897257,0.012092615477740765
1761916261211560000,2.678559814453125,0.0006617955514229834,-0.0004748416249640286,0.009155681356787682
1761916261221616000,2.6886162109375,-0.0011619371362030506,0.0010793792316690087,0.010805509984493256
1761916261231670800,2.6986708984375,-0.0013728595804423094,-0.0011835087789222598,0.010424943640828133
1761916261241726000,2.708725830078125,0.00042530681821517646,-0.0024019049014896154,0.010900052264332771
1761916261251780900,2.71878076171875,-0.0009041432058438659,0.00004234426160110161,0.010210559703409672
1761916261261836000,2.7288359375,0.0017361147329211235,-0.0003432814555708319,0.010569021105766296
1761916261271891000,2.738890869140625,-0.0018002968281507492,-0.00011691277177305892,0.011450793594121933
1761916261281947000,2.74894677734375,-0.00021678130724467337,0.0016769925132393837,0.011665976606309414
1761916261292002000,2.759001953125,0.0022082931827753782,0.0012572783743962646,0.012238556519150734
1761916261302057000,2.769056884765625,0.0006362291751429439,0.000040746363083599135,0.010588728822767735
1761916261312111900,2.77911181640625,0.000538491178303957,0.0013438310706987977,0.010514159686863422
1761916261322167000,2.7891669921875,0.0005536712124012411,0.0003579288604669273,0.010963701643049717
1761916261332223000,2.799222900390625,-0.0006849650526419282,0.0024770060554146767,0.010188189335167408
1761916261342278000,2.80927783203125,-0.0003206445835530758,-0.00023622238950338215,0.012311527505517006
1761916261352333000,2.8193330078125,-0.000975782226305455,0.0010721886064857244,0.013190103694796562
1761916261362388000,2.829387939453125,0.00043888893560506403,0.0005659217131324112,0.010572482831776142
1761916261372443000,2.83944287109375,-0.0011883024126291275,0.0006969492533244193,0.01142922230064869
1761916261382499000,2.8494990234375,0.0035340148024260998,0.0003294330381322652,0.012045743875205517
1761916261392554000,2.859553955078125,-0.0018897791160270572,0.0014146711910143495,0.010928281582891941
1761916261402609000,2.86960888671875,0.0006463492172770202,0.0010455570882186294,0.012020976282656193
1761916261412664000,2.8796640625,-0.0009683253592811525,0.0018423747969791293,0.01022547297179699
1761916261422719000,2.889718994140625,0.000059388490626588464,0.00010439591278554872,0.011785286478698254
1761916261432774100,2.899774169921875,-0.00046605319948866963,0.0013145363191142678,0.01266839075833559
1761916261442829800,2.909829833984375,0.00205276464112103,-0.0011619371362030506,0.013223660178482533
1761916261452885000,2.919885009765625,-0.0014743260107934475,0.00047377636656165123,0.011946408078074455
1761916261462940000,2.92993994140625,-0.0018421085551381111,-0.0011108045000582933,0.01227264478802681
1761916261472995000,2.9399951171875,0.000009853695701167453,-0.002163019496947527,0.008370847441256046
1761916261483050000,2.950050048828125,0.0015190670965239406,0.0007392935222014785,0.012383166700601578
1761916261493106000,2.96010595703125,-0.0012405004817992449,-0.001246625673957169,0.010671286843717098
1761916261503160800,2.970160888671875,-0.00045380264054983854,-0.0005896238726563752,0.011575429700314999
1761916261513216000,2.980216064453125,0.001079911831766367,0.000319845654303208,0.011988219805061817
1761916261523271000,2.99027099609375,-0.0012266519479453564,-0.0022093583829700947,0.008104532025754452
1761916261533325800,3.000325927734375,0.0006793724023737013,0.0010165285784751177,0.013340839184820652
1761916261543381000,3.010381103515625,0.0020575581584125757,-0.001044491771608591,0.010036388412117958
1761916261553437000,3.02043701171875,0.0003475425182841718,-0.0009190568816848099,0.011083011515438557
1761916261563492000,3.0304921875,0.0009464874165132642,-0.0009944243356585503,0.00863077212125063
1761916261573547000,3.040547119140625,0.0005813680472783744,0.0015425028977915645,0.011418303474783897
1761916261583602000,3.050601806640625,-0.001187503570690751,0.002688993699848652,0.011468636803328991
1761916261593657000,3.060656982421875,-0.0009739180095493793,-0.0005518069956451654,0.009890447370707989
1761916261603713000,3.070713134765625,0.0014165353495627642,0.0011683288030326366,0.011649465188384056
1761916261613768000,3.080767822265625,-0.00022450447431765497,-0.00098190747667104,0.00914369709789753
1761916261623822800,3.09082275390625,0.002615756820887327,-0.0019054916920140386,0.012865465134382248
1761916261633878000,3.1008779296875,-0.0017803232185542583,0.002064482541754842,0.013215670362114906
1761916261643933200,3.11093310546875,-0.0011696603614836931,0.0008591357618570328,0.009069661609828472
1761916261653987800,3.12098779296875,-0.0008466189028695226,0.0005749764968641102,0.013456420041620731
1761916261664043800,3.131043701171875,0.0004676510870922357,0.0012367720482870936,0.011885421350598335
1761916261674099000,3.141098876953125,-0.0010546117555350065,-0.00032144354190677404,0.010521883144974709
1761916261684154000,3.151154052734375,0.0015640745405107737,-0.0023643544409424067,0.008206796832382679
1761916261694208800,3.161208740234375,-0.0014152037911117077,-0.0018738001817837358,0.010103234089910984
1761916261704264200,3.17126416015625,-0.0007134608458727598,-0.0007651261985301971,0.014433267526328564
1761916261714320100,3.181320068359375,-0.00043223105603829026,0.001065264455974102,0.01107555441558361
1761916261724375300,3.191375244140625,-0.0024016385432332754,-0.00028815402765758336,0.010453706607222557
1761916261734430200,3.20143017578125,0.0003206445835530758,0.0008207862265408039,0.010431335307657719
1761916261744485000,3.211485107421875,-0.0005629922379739583,-0.0005278385360725224,0.011020426638424397
1761916261754540300,3.221540283203125,-0.0017188041238114238,0.0002300971100339666,0.013163206167519093
1761916261764596200,3.23159619140625,-0.001017593895085156,0.00042770366417244077,0.011123757809400558
1761916261774651400,3.2416513671875,0.00048123320448212326,-0.0014442323008552194,0.010607902891933918
1761916261784706300,3.251706298828125,-0.0011544802691787481,-0.00027750138542614877,0.011175689287483692
1761916261794761200,3.26176123046875,-0.00079735042527318,-0.000565122754778713,0.012056129984557629
1761916261804816100,3.271816162109375,-0.0007174555794335902,0.001008805469609797,0.011862251907587051
1761916261814871300,3.281871337890625,-0.0029089709278196096,0.0022248048335313797,0.01435044314712286
1761916261824927200,3.29192724609375,0.0011060107499361038,-0.00023302659974433482,0.010773551650345325
1761916261834982100,3.301982177734375,-0.0023529028985649347,0.00022024342615623027,0.011375959031283855
1761916261845037300,3.312037353515625,-0.00105354655534029,0.0002639192680362612,0.010927748866379261
1761916261855092200,3.32209228515625,-0.000669518718495965,-0.0028509139083325863,0.009623865596950054
1761916261865147400,3.3321474609375,-0.001606152392923832,-0.0009273127070628107,0.010435330681502819
1761916261875203000,3.342203125,-0.00023382554354611784,-0.0007073355955071747,0.010634268634021282
1761916261885258200,3.35225830078125,-0.0012442287988960743,-0.003910053055733442,0.01179514080286026
1761916261895313200,3.362313232421875,-0.0017281252657994628,-0.00036671728594228625,0.008303469978272915
1761916261905368300,3.372368408203125,-0.0011020160745829344,-0.0017614146927371621,0.011700065806508064
1761916261915423200,3.38242333984375,0.0009126652730628848,-0.00013928332191426307,0.013906761072576046
1761916261925479200,3.392479248046875,-0.0001395496365148574,-0.0015102786710485816,0.013613280840218067
1761916261935534300,3.402534423828125,-0.00047883635852485895,-0.0017014936311170459,0.010841995477676392
1761916261945589200,3.41258935546875,-0.0005776396137662232,-0.0012772521004080772,0.011889682151377201
1761916261955644200,3.42264404296875,-0.0015970977256074548,0.00287434970960021,0.01028885692358017
1761916261965699000,3.432698974609375,-0.0007518103811889887,-0.00011611382069531828,0.011901666410267353
1761916261975755300,3.44275537109375,0.0008913599886000156,-0.0010306433541700244,0.010584200732409954
1761916261985810200,3.45281005859375,-0.004254932515323162,-0.00014807176194153726,0.011589543893933296
1761916261995865300,3.462865234375,0.0009334379574283957,-0.000627973407972604,0.00845340546220541
1761916262005920300,3.472920166015625,0.002082858234643936,0.0003483414766378701,0.01082788035273552
1761916262015975200,3.48297509765625,0.000550475378986448,0.0036767602432519197,0.01031442265957594
1761916262026030300,3.4930302734375,-0.0014231932582333684,0.000060986389144090936,0.01233443059027195
1761916262036086300,3.503086181640625,0.0009113337146118283,-0.0007552724564447999,0.00944996066391468
1761916262046141200,3.51314111328125,0.00036192359402775764,-0.0004415521107148379,0.012977051548659801
1761916262056196000,3.523196044921875,0.0011675298446789384,0.0018301242962479591,0.014996526762843132
1761916262066251300,3.533251220703125,-0.0011488876771181822,0.0012953615514561534,0.010417487472295761
1761916262076306400,3.543306396484375,-0.0006996124284341931,0.0020149475894868374,0.010787666775286198
1761916262086362000,3.553362060546875,-0.00036724991514347494,0.0031523837242275476,0.012079832144081593
1761916262096417300,3.563417236328125,0.0004884237423539162,0.0016226640436798334,0.009305617772042751
1761916262106472200,3.57347216796875,-0.00037816885742358863,0.001639441936276853,0.011445467360317707
1761916262116527400,3.58352734375,0.0018311894964426756,-0.0021880532149225473,0.011480621062219143
1761916262126582300,3.593582275390625,-0.0007502124644815922,0.000532365869730711,0.010616958141326904
1761916262136638200,3.60363818359375,0.0016812535468488932,-0.0005310343112796545,0.01131257601082325
1761916262146693000,3.613693115234375,0.0006921555614098907,-0.0000857537888805382,0.01085610967129469
1761916262156748300,3.623748291015625,-0.0005153216770850122,-0.00013448962999973446,0.013136841356754303
1761916262166803500,3.633803466796875,-0.0010436928132548928,0.0006966829532757401,0.009401757270097733
1761916262176858000,3.643858154296875,-0.002656769473105669,-0.002662628423422575,0.012981845065951347
1761916262186914300,3.653914306640625,0.0003400856803636998,-0.004632302559912205,0.011697135865688324
1761916262196969200,3.66396923828125,0.0004396878939587623,-0.0011350392596796155,0.011935222893953323
1761916262207024400,3.6740244140625,-0.0007400924805551767,-0.0006082659820094705,0.01158661488443613
1761916262217079000,3.6840791015625,0.0011885687708854675,-0.0016010924009606242,0.013115535490214825
1761916262227134200,3.69413427734375,-0.0011371697764843702,-0.002837864449247718,0.011415373533964157
1761916262237190100,3.704190185546875,-0.0008703210623934865,-0.00022077605535741895,0.012402607128024101
1761916262247245300,3.714245361328125,-0.0011462245602160692,0.0012128035305067897,0.011982360854744911
1761916262257300200,3.72430029296875,-0.0002412823960185051,-0.00012543488992378116,0.014994129538536072
1761916262267355100,3.734355224609375,-0.0008902947301976383,0.0010311759542673826,0.012182630598545074
1761916262277410300,3.744410400390625,0.000874582096002996,-0.0020093549974262714,0.012265454977750778
1761916262287466200,3.75446630859375,-0.002490588231012225,0.0009203884401358664,0.009210542775690556
1761916262297521400,3.764521484375,-0.002728142309933901,-0.0012141350889578462,0.00857271533459425
1761916262307576000,3.774576171875,0.0016964336391538382,0.0035694348625838757,0.009551427327096462
1761916262317631200,3.78463134765625,-0.00014061490946915,-0.0022383867762982845,0.012839632108807564
1761916262327686400,3.794686279296875,0.0006580671179108322,-0.001434112200513482,0.011352789588272572
1761916262337742300,3.804742431640625,-0.0008580705034546554,-0.0016969662392511964,0.013342970050871372
1761916262347797200,3.81479736328125,0.0004572647449094802,0.00015632755821570754,0.013342170976102352
1761916262357852200,3.82485205078125,0.0001549959706608206,-0.001008539111353457,0.012253737077116966
1761916262367907300,3.8349072265625,0.001160339335910976,0.0014884406700730324,0.012507801875472069
1761916262377962200,3.844962158203125,-0.0027955202385783195,-0.0014314490836113691,0.01092455256730318
1761916262388018200,3.85501806640625,0.000015978966985130683,-0.0020397149492055178,0.012570919468998909
1761916262398073000,3.865072998046875,-0.0006572681595571339,-0.0015062838792800903,0.010270747356116772
1761916262408128300,3.875128173828125,-0.0022181468084454536,0.0023704797495156527,0.01318344660103321
1761916262418183400,3.885183349609375,0.00005166532355360687,0.0021827267482876778,0.012674782425165176
1761916262428238000,3.895238037109375,-0.0022796657867729664,0.0006466155173256993,0.013128585182130337
1761916262438294300,3.905294189453125,-0.0022088258992880583,-0.00009614011651137844,0.0073716300539672375
1761916262448349200,3.91534912109375,-0.00199390877969563,0.0013920343481004238,0.011863050982356071
1761916262458404400,3.925404296875,0.0032178976107388735,0.001567802974022925,0.012662265449762344
1761916262468459000,3.935458984375,0.00008974852971732616,-0.0011925635626539588,0.010929347015917301
1761916262478514200,3.94551416015625,-0.0007089334540069103,-0.000046072687837295234,0.012980246916413307
1761916262488570000,3.955570068359375,0.0008050735923461616,-0.0007539408979937434,0.011622301302850246
1761916262498625300,3.965625244140625,-0.0004748416249640286,0.0014769891276955605,0.011711250990629196
1761916262508680400,3.975680419921875,0.00044607947347685695,-0.0034384073223918676,0.009680324234068394
1761916262518735000,3.985735107421875,-0.0003283677506260574,-0.0024490428622812033,0.011897405609488487
1761916262528790300,3.995790283203125,-0.00018242653459310532,0.0012144014472141862,0.01170166302472353
1761916262538846200,4.00584619140625,0.0006705839768983424,-0.0003438140847720206,0.01233229972422123
1761916262548898300,4.015898193359375,-0.0021787320729345083,0.0013345100451260805,0.013652162626385689
1761916262558953200,4.025953125,-0.0007840346079319715,0.0003235740587115288,0.013529124669730663
1761916262569008400,4.03600830078125,0.0017217335989698768,0.0013424995122477412,0.013277988880872726
1761916262579064000,4.04606396484375,-0.0008250473183579743,-0.0007574030314572155,0.012027900665998459
1761916262589119200,4.056119140625,-0.0018687400734052062,0.002546248259022832,0.011950402520596981
1761916262599174100,4.066174072265625,0.00024048343766480684,-0.00023196132679004222,0.009383114986121655
1761916262609229300,4.076229248046875,-0.0010460896883159876,-0.0028309402987360954,0.009988718666136265
1761916262619284200,4.0862841796875,-0.0012490225490182638,-0.0014207963831722736,0.010271811857819557
1761916262629340200,4.096340087890625,-0.000003462109361862531,-0.0007355650886893272,0.009648365899920464
1761916262639395300,4.106395263671875,0.0005568669876083732,-0.0014780544443055987,0.012192483991384506
1761916262649450200,4.1164501953125,-0.0006487460341304541,-0.0021113541442900896,0.010952782817184925
1761916262659505200,4.126505126953125,0.0025385250337421894,0.0024506407789885998,0.01212830189615488
1761916262669560300,4.136560302734375,-0.0008053398923948407,0.0008474178612232208,0.012249475345015526
1761916262679616300,4.1466162109375,0.0005147890187799931,0.0026791400741785765,0.01272911112755537
1761916262689671200,4.156671142578125,-0.0005091963685117662,-0.000746750389225781,0.010468886233866215
1761916262699726300,4.166726318359375,0.0006380933918990195,-0.00036378781078383327,0.012134160846471786
1761916262709783600,4.176783447265625,0.0010295780375599861,-0.0009249158320017159,0.011755192652344704
1761916262719838500,4.18683837890625,0.0011728560784831643,0.0005387574783526361,0.011744273826479912
1761916262729894400,4.196894287109375,-0.0033936661202460527,0.0009435579413548112,0.011758921667933464
1761916262739949600,4.206949462890625,-0.00026551715563982725,-0.0008064051507972181,0.011652128770947456
1761916262750004500,4.21700439453125,-0.0010189254535362124,0.0003608583356253803,0.012152803130447865
1761916262760059600,4.2270595703125,0.0000852211524033919,0.001202150946483016,0.013371998444199562
1761916262770114300,4.2371142578125,-0.000949150591623038,-0.0008162588928826153,0.011902731843292713
1761916262780170500,4.24717041015625,0.00038828887045383453,0.0004655205411836505,0.014755509793758392
1761916262790225400,4.257225341796875,0.0003475425182841718,-0.0007084008539095521,0.012547217309474945
1761916262800280600,4.267280517578125,-0.0009259810904040933,0.0004727110790554434,0.010675814002752304
1761916262810335500,4.27733544921875,0.0006463492172770202,-0.0008551410282962024,0.011748269200325012
1761916262820391400,4.287391357421875,-0.00227913330309093,-0.00027377295191399753,0.010307764634490013
1761916262830446600,4.297446533203125,-0.00030120351584628224,0.0009595369338057935,0.01185213215649128
1761916262840501500,4.30750146484375,0.0009395632077939808,-0.00023302659974433482,0.01245134323835373
1761916262850556400,4.317556396484375,-0.0016892430139705539,0.004459729418158531,0.010728278197348118
1761916262860611300,4.327611328125,-0.0009382316493429244,-0.0002436792419757694,0.01209660992026329
1761916262870667500,4.33766748046875,-0.0007779093575663865,-0.001502555445767939,0.014357101172208786
1761916262880722400,4.347722412109375,-0.0013725932221859694,-0.0013944311067461967,0.00814953912049532
1761916262890777600,4.357777587890625,-0.0003073287953156978,-0.001469532260671258,0.013078783638775349
1761916262900832500,4.36783251953125,-0.00039947417099028826,-0.00025832661776803434,0.010865431278944016
1761916262910887400,4.377887451171875,0.00021278657368384302,-0.001208009896799922,0.009878463111817837
1761916262920943600,4.387943603515625,-0.001210939371958375,-0.000678307143971324,0.01128221582621336
1761916262930998500,4.39799853515625,-0.0020516992080956697,-0.0011291803093627095,0.010131729766726494
1761916262941053400,4.408053466796875,0.0005912217311561108,0.0003832288784906268,0.011713380925357342
1761916262951108400,4.4181083984375,-0.000358461489668116,-0.002927346620708704,0.013757357373833656
1761916262961163500,4.42816357421875,-0.0007283745799213648,0.0005675196298398077,0.013657488860189915
1761916262971219500,4.438219482421875,0.001249821507371962,-0.0011259844759479165,0.011553059332072735
1761916262981274600,4.448274658203125,-0.001418665866367519,-0.0008934905636124313,0.012835371308028698
1761916262991329500,4.45832958984375,-0.00353428116068244,0.0005720470217056572,0.010120544582605362
1761916263001384400,4.468384521484375,0.00259418529458344,-0.0019771307706832886,0.009354352951049805
1761916263011439600,4.478439697265625,0.0016556872287765145,-0.00005885586142539978,0.010422014631330967
1761916263021495600,4.48849560546875,0.00026738137239590287,0.001365402713418007,0.008836634457111359
1761916263031550500,4.498550537109375,-0.001050350721925497,0.0003403519804123789,0.010860903188586235
1761916263041605400,4.50860546875,0.0006327670416794717,0.002679938916116953,0.009226255118846893
1761916263051660500,4.51866064453125,0.0010820423485711217,-0.0008833705214783549,0.012056396342813969
1761916263061715700,4.5287158203125,0.00046685212873853743,-0.00021491710504051298,0.012288624420762062
1761916263071771400,4.538771484375,-0.0013765880139544606,-0.0007310376968234777,0.010464891791343689
1761916263081826600,4.54882666015625,-0.0006988134700804949,0.00005725796290789731,0.010865963064134121
1761916263091881500,4.558881591796875,-0.0014927018200978637,0.0016381103778257966,0.011470234952867031
1761916263101939500,4.568939453125,-0.0012937636347487569,0.0007773766992613673,0.013740046881139278
1761916263111994600,4.57899462890625,0.0008026767172850668,-0.000821318884845823,0.009401490911841393
1761916263122049500,4.589049560546875,0.00005326322207110934,0.000517718493938446,0.010209494270384312
1761916263132105500,4.59910546875,-0.0007725830073468387,0.0021318604703992605,0.00917485635727644
1761916263142160400,4.609160400390625,-0.0013512879377231002,-0.0005675196298398077,0.011344000697135925
1761916263152215600,4.619215576171875,0.0005747101386077702,0.00026738137239590287,0.011317635886371136
1761916263162270500,4.6292705078125,-0.0005901564727537334,-0.00014647385978605598,0.012131763622164726
1761916263172325400,4.639325439453125,-0.0004743089957628399,-0.00023622238950338215,0.012716327793896198
1761916263182381300,4.64938134765625,0.0004719121498055756,0.0013054815353825688,0.011993812397122383
1761916263192436500,4.6594365234375,0.0017933726776391268,0.00011638013529591262,0.014281733892858028
1761916263202491600,4.66949169921875,-0.0011017497163265944,-0.0007209177128970623,0.012475311756134033
1761916263212546600,4.679546630859375,0.00019281286222394556,-0.0012191950809210539,0.01119113527238369
1761916263222602500,4.6896025390625,0.0006301039247773588,-0.001377919572405517,0.012225506827235222
1761916263232657400,4.699657470703125,-0.0006620618514716625,0.0025691515766084194,0.009268599562346935
1761916263242712600,4.709712646484375,0.0011012171162292361,0.0019185412675142288,0.01158501673489809
1761916263252767500,4.719767578125,-0.0017121462151408195,0.0011294466676190495,0.009639577940106392
1761916263262822400,4.729822509765625,0.0004945489927195013,0.0015211976133286953,0.011376491747796535
1761916263272878300,4.73987841796875,0.0006452839006669819,-0.0019062906503677368,0.012165053747594357
1761916263282933500,4.74993359375,-0.0012250541476532817,0.0015273229219019413,0.010572749190032482
1761916263292988400,4.759988525390625,-0.001785383210517466,-0.001303084660321474,0.012547483667731285
1761916263303043600,4.770043701171875,0.00037763622822239995,0.001612277701497078,0.010296845808625221
1761916263313099300,4.780099365234375,0.00023941817926242948,0.001982190879061818,0.011629758402705193
1761916263323154400,4.790154541015625,-0.00009054747351910919,-0.0003328951424919069,0.015410647727549076
1761916263333209600,4.800209716796875,0.0006101301987655461,-0.0004069310089107603,0.012737632729113102
1761916263343264500,4.810264404296875,-0.0028551749419420958,0.001204547705128789,0.008175638504326344
1761916263353319400,4.8203193359375,-0.0035601137205958366,0.0011515507940202951,0.010372745804488659
1761916263363375400,4.830375244140625,0.0015195996966212988,0.00009640643111197278,0.013465475291013718
1761916263373430500,4.840430419921875,0.003811516100540757,-0.000687361869495362,0.011121360585093498
1761916263383485400,4.8504853515625,-0.0010439591715112329,0.00019387812062632293,0.012864133343100548
1761916263393540400,4.860540283203125,0.0004809668753296137,-0.004259992390871048,0.012575446628034115
1761916263403595500,4.870595458984375,-0.0013518205378204584,-0.0013662016717717052,0.010687265545129776
1761916263413651500,4.8806513671875,-0.0023646207991987467,-0.0003552656853571534,0.011318168602883816
1761916263423706600,4.89070654296875,-0.0006034722900949419,0.0006468818173743784,0.006899717729538679
1761916263433761500,4.900761474609375,0.0003707120195031166,0.0019896477460861206,0.011206315830349922
1761916263443816400,4.91081640625,-0.0007424892974086106,-0.0014860439114272594,0.011594071984291077
1761916263453872400,4.920872314453125,0.000022636868379777297,0.0034618431236594915,0.013961887918412685
1761916263463927600,4.930927490234375,0.001398425898514688,-0.0009627327090129256,0.009240636602044106
1761916263473982500,4.940982421875,-0.00033449303009547293,-0.0033449302427470684,0.011203652247786522
1761916263484037400,4.951037353515625,0.0006535397260449827,-0.0034466630313545465,0.010732006281614304
1761916263494092500,4.961092529296875,-0.00046365635353140533,0.0021489046048372984,0.01321300771087408
1761916263504148500,4.9711484375,-0.0021521004382520914,-0.0011970909545198083,0.009157812222838402
1761916263514203600,4.98120361328125,-0.002379534300416708,-0.001281779375858605,0.012051869183778763
1761916263524258300,4.99125830078125,0.0005182511522434652,-0.000895621080417186,0.011039335280656815
1761916263534313500,5.0013134765625,-0.0012540825409814715,-0.00020905814017169178,0.013933125883340836
1761916263544369400,5.011369384765625,-0.0016503608785569668,-0.0008977515972219408,0.00993199273943901
1761916263554424600,5.021424560546875,-0.0029265477787703276,0.0022985744290053844,0.01206917967647314
1761916263564479500,5.0314794921875,0.00045034053619019687,0.0006860303110443056,0.01116397138684988
1761916263574534400,5.041534423828125,0.0012500877492129803,-0.000031425301131093875,0.012254801578819752
1761916263584589600,5.051589599609375,0.0007062703371047974,-0.0016016251174733043,0.010566890239715576
1761916263594645500,5.0616455078125,-0.0004527373821474612,-0.0019166769925504923,0.009512278251349926
1761916263604700700,5.07170068359375,-0.0008498146780766547,-0.0006532734259963036,0.009155148640275002
1761916263614755300,5.08175537109375,0.0015038870042189956,0.0014966964954510331,0.01136796921491623
1761916263624810500,5.091810546875,-0.0006641923682764173,0.0002657834847923368,0.00899882148951292
1761916263634866400,5.101866455078125,-0.000010386328540334944,-0.0024000408593565226,0.012083028443157673
1761916263644921600,5.111921630859375,0.0014125406742095947,0.0018383801216259599,0.012284629046916962
1761916263654976500,5.1219765625,0.0015307849971577525,-0.0007499461644329131,0.011448396369814873
1761916263665031400,5.132031494140625,-0.0003664509567897767,-0.0008527441532351077,0.011665976606309414
1761916263675086600,5.142086669921875,-0.0008964200387708843,0.0024051007349044085,0.011389806866645813
1761916263685142500,5.152142578125,0.0001371527905575931,-0.0007965514669194818,0.012625513598322868
1761916263695197700,5.16219775390625,0.001056476030498743,-0.0007235808880068362,0.009517072699964046
1761916263705254000,5.17225390625,-0.00011584750609472394,-0.0015014902455732226,0.010704842396080494
1761916263715308800,5.182308837890625,0.00021678130724467337,0.00105328019708395,0.010812966153025627
1761916263725365000,5.192364990234375,-0.002111886627972126,-0.0024711471050977707,0.01136690378189087
1761916263735420000,5.202419921875,-0.0013046825770288706,-0.0020482372492551804,0.011246529407799244
1761916263745475000,5.21247509765625,0.0009022789890877903,0.0008327704854309559,0.012321647256612778
1761916263755530000,5.222530029296875,0.00032650353386998177,-0.0021582257468253374,0.011872638016939163
1761916263765585000,5.2325849609375,-0.00033955302205868065,0.0012088088551536202,0.012258796952664852
1761916263775641000,5.24264111328125,-0.0024205471854656935,-0.0015371765475720167,0.010877947323024273
1761916263785696000,5.252696044921875,-0.0009390306076966226,0.000963797967415303,0.010881409980356693
1761916263795751000,5.2627509765625,-0.0010900318156927824,-0.0011827098205685616,0.011869442649185658
1761916263805805800,5.272805908203125,-0.00038535939529538155,-0.0015640745405107737,0.01142842322587967
1761916263815862000,5.282862060546875,-0.00025832661776803434,0.0025885924696922302,0.012165320105850697
1761916263825917000,5.2929169921875,-0.0030799456872045994,-0.0012279836228117347,0.010881942696869373
1761916263835971800,5.302971923828125,-0.004563859198242426,0.0024868599139153957,0.011348527856171131
1761916263846027000,5.313027099609375,-0.0009768474847078323,0.0018229337874799967,0.011847072280943394
1761916263856082000,5.32308203125,-0.002549976808950305,-0.00006604639202123508,0.012065717950463295
1761916263866137900,5.333137939453125,-0.00233825552277267,-0.00022290658671408892,0.011984490789473057
1761916263876193000,5.343193115234375,-0.0006450176006183028,-0.00012170646368758753,0.01284282747656107
1761916263886248000,5.353248046875,-0.00046312372433021665,-0.0009235842735506594,0.01161537691950798
1761916263896302800,5.363302734375,0.00032197617110796273,-0.00443842401728034,0.0097423754632473
1761916263906359000,5.373359130859375,-0.0012386362068355083,-0.0021731394808739424,0.010778877884149551
1761916263916414000,5.3834140625,-0.001764077926054597,0.003709516953676939,0.014615161344408989
1761916263926468900,5.39346875,0.0003888215287588537,-0.00008309062832267955,0.01338557992130518
1761916263936524000,5.40352392578125,-0.0009060074225999415,-0.0002516687090974301,0.010309895500540733
1761916263946580000,5.413580078125,-0.0006146575906313956,0.0018660769565030932,0.010305101983249187
1761916263956635000,5.423634765625,-0.003123888047412038,0.0007928230334073305,0.010787666775286198
1761916263966690000,5.43368994140625,-0.00018961707246489823,-0.0022082931827753782,0.009410013444721699
1761916263976745000,5.443744873046875,-0.0026879284996539354,-0.0022391858510673046,0.00942093227058649
1761916263986799900,5.4537998046875,0.0014602112350985408,0.00038402783684432507,0.010691259987652302
1761916263996856000,5.46385595703125,-0.0022160164080560207,-0.0003051982494071126,0.008724781684577465
1761916264006911000,5.473910888671875,-0.0005685848882421851,-0.0009712548344396055,0.012830844148993492
1761916264016966000,5.4839658203125,0.0015560849569737911,-0.003716174978762865,0.010997523553669453
1761916264027021000,5.49402099609375,0.0007582019316032529,-0.0037023264449089766,0.009688845835626125
1761916264037077000,5.504076904296875,0.0005872269975952804,0.0012695288751274347,0.012982111424207687
1761916264047132000,5.5141318359375,0.0012937636347487569,0.0002932140196207911,0.012281167320907116
1761916264057186800,5.524186767578125,0.0026027073618024588,-0.002217081608250737,0.012141617946326733
1761916264067242000,5.534241943359375,-0.0011952266795560718,-0.001674595638178289,0.013339241035282612
1761916264077298000,5.5442978515625,-0.00009374327055411413,0.0016144082183018327,0.010644122026860714
1761916264087353000,5.55435302734375,0.0005821670056320727,-0.00047936898772604764,0.01254215743392706
1761916264097408000,5.564407958984375,0.0004676510870922357,0.00046072687837295234,0.009515740908682346
1761916264107463000,5.574462890625,0.0005163869354873896,-0.0015592807903885841,0.012687832117080688
1761916264117518800,5.584518798828125,-0.0011153318919241428,0.0014231932582333684,0.009771936573088169
1761916264127574000,5.594573974609375,0.000538491178303957,0.0035446672700345516,0.008410262875258923
1761916264137629000,5.60462890625,-0.0006154565489850938,-0.0007981493836268783,0.011834555305540562
1761916264147683800,5.614683837890625,0.0005808354471810162,-0.0009390306076966226,0.011678759939968586
1761916264157739000,5.624739013671875,0.00005752427750849165,0.00017310546536464244,0.011661183089017868
1761916264167795000,5.634794921875,0.00016964336100500077,-0.0019718045368790627,0.00905581284314394
1761916264177850000,5.64485009765625,-0.0032027175184339285,-0.0031763522420078516,0.01136823557317257
1761916264187904800,5.65490478515625,-0.0010974886827170849,-0.0035723643377423286,0.01185053400695324
1761916264197960000,5.6649599609375,-0.0011403656098991632,-0.0008500810363329947,0.011021492071449757
1761916264208016000,5.675015869140625,-0.0009318400407209992,-0.00003382214708835818,0.009601760655641556
1761916264218071000,5.685071044921875,-0.00015899071877356619,-0.0007073355955071747,0.010203102603554726
1761916264228126000,5.6951259765625,0.0012551478575915098,-0.00041438787593506277,0.011240670457482338
1761916264238180900,5.705180908203125,0.00038935415796004236,-0.0015701997326686978,0.010194581001996994
1761916264248236800,5.71523681640625,0.0016783240716904402,-0.0022772690281271935,0.01124919205904007
1761916264258292000,5.7252919921875,0.0008391620358452201,0.0012591425329446793,0.01224308367818594
1761916264268347100,5.73534716796875,-0.0020820593927055597,-0.0003350256592966616,0.013616742566227913
1761916264278401800,5.74540185546875,-0.0006894923863001168,-0.0026112294290214777,0.011799401603639126
1761916264288457000,5.75545703125,-0.0022599585354328156,-0.0002697782183531672,0.014224209822714329
1761916264298513000,5.765512939453125,0.001017327536828816,-0.00112465291749686,0.010574347339570522
1761916264308568000,5.775568115234375,0.0006950850365683436,-0.002941727638244629,0.01142868958413601
1761916264318623000,5.785623046875,-0.00004261057620169595,-0.0036277580074965954,0.009619071148335934
1761916264328678000,5.795677978515625,0.00020506340661086142,-0.0001757686259225011,0.011305118910968304
1761916264338733800,5.80573388671875,-0.001047154888510704,0.000609863898716867,0.011469435878098011
1761916264348789000,5.8157890625,-0.00015153386630117893,-0.0031337416730821133,0.012427108362317085
1761916264358844200,5.82584423828125,-0.0007198524544946849,-0.0031380027066916227,0.010882209055125713
1761916264368898800,5.83589892578125,0.0005693838465958834,-0.0003480751474853605,0.011300325393676758
1761916264378955000,5.845955078125,0.0026343988720327616,-0.0024501082953065634,0.011795672588050365
1761916264389010000,5.856010009765625,-0.0002695118892006576,-0.00012889699428342283,0.01329902745783329
1761916264399065000,5.866065185546875,-0.0002258360618725419,0.002039981307461858,0.013826332986354828
1761916264409119700,5.87611962890625,-0.0020213392563164234,0.0027206854429095984,0.011524563655257225
1761916264419176000,5.886176025390625,-0.0010037453612312675,0.0001233043585671112,0.01203881949186325
1761916264429230800,5.89623095703125,-0.0033249566331505775,0.00045912896166555583,0.010746387764811516
1761916264439286000,5.9062861328125,0.001255946815945208,-0.00009667274571256712,0.010329869575798512
1761916264449341200,5.916341064453125,-0.0006215817993506789,-0.0004290352517273277,0.011480621062219143
1761916264459395800,5.926395751953125,-0.0003632551815826446,0.0005033374181948602,0.009851299226284027
1761916264469452000,5.9364521484375,0.0006836334359832108,-0.000264718197286129,0.011916314251720905
1761916264479507000,5.9465068359375,-0.0011193265672773123,0.0014809839194640517,0.012695022858679295
1761916264489562000,5.95656201171875,-0.00010359696898376569,0.0002561961009632796,0.013260145671665668
1761916264499616800,5.96661669921875,0.0037710361648350954,-0.0023608922492712736,0.01040603592991829
1761916264509673000,5.9766728515625,0.0009829727932810783,-0.0006625944515690207,0.014056163839995861
1761916264519727900,5.986727783203125,-0.0008295746520161629,0.0018122810870409012,0.010994594544172287
1761916264529783000,5.996782958984375,0.00011424961121520028,0.001567802974022925,0.013008209876716137
1761916264539838000,6.006837890625,-0.0002609897928778082,0.00006444849714171141,0.011187673546373844
1761916264549894000,6.016893798828125,-0.0001597896625753492,-0.0010439591715112329,0.009766077622771263
1761916264559948800,6.02694873046875,0.00032730249222368,0.0002271676348755136,0.014128335751593113
1761916264570004000,6.03700390625,0.0007360977469943464,0.0019712718203663826,0.013126720674335957
1761916264580059100,6.04705908203125,-0.001794171635992825,0.0010343717876821756,0.010800981894135475
1761916264590114800,6.05711474609375,0.0027302727103233337,-0.0013451626291498542,0.010792460292577744
1761916264600170000,6.067169921875,0.00025353292585350573,0.0013869742397218943,0.010944526642560959
1761916264610225000,6.077224853515625,-0.0020908478181809187,0.0014101437991485,0.012618057429790497
1761916264620280000,6.087280029296875,0.00037257623625919223,0.003623230615630746,0.01028566062450409
1761916264630336000,6.0973359375,-0.00029108350281603634,0.001580319833010435,0.011713913641870022
1761916264640391000,6.107390869140625,-0.002370745874941349,-0.0005033374181948602,0.010297911241650581
1761916264650445800,6.11744580078125,-0.0010546117555350065,-0.0003683151735458523,0.012300608679652214
1761916264660501000,6.1275009765625,0.0008785768295638263,0.0013116068439558148,0.0117338877171278
1761916264670557000,6.137556884765625,0.002794188680127263,-0.00003302319601061754,0.00920548290014267
1761916264680611800,6.14761181640625,-0.0019014970166608691,0.0007163903210312128,0.01107368990778923
1761916264690667000,6.1576669921875,-0.0005169195355847478,-0.0020274645648896694,0.012518455274403095
1761916264700718600,6.167718505859375,0.0021257351618260145,-0.0013108078856021166,0.012035091407597065
1761916264710773500,6.1777734375,0.0008231831016018987,0.0004218447138555348,0.01158768031746149
1761916264720829400,6.187829345703125,-0.00018109494703821838,0.0018666095566004515,0.012526710517704487
1761916264730884600,6.197884521484375,0.0018953717080876231,-0.0012538161827251315,0.011010306887328625
1761916264740939500,6.207939453125,-0.0007965514669194818,0.0006756439688615501,0.011570902541279793
1761916264750994700,6.21799462890625,0.0003832288784906268,0.002552107209339738,0.011802596971392632
1761916264761050400,6.22805029296875,0.0006929545197635889,0.0009395632077939808,0.012919792905449867
1761916264771105500,6.23810546875,0.0003557983145583421,0.0024224112275987864,0.012121111154556274
1761916264781160700,6.24816064453125,-0.00003914846820407547,-0.003619768423959613,0.01521969959139824
1761916264791215600,6.258215576171875,-0.0013486248208209872,-0.00007696535612922162,0.012113654054701328
1761916264801271600,6.268271484375,0.00015659387281630188,-0.000004793690095539205,0.011977034620940685
1761916264811326500,6.278326416015625,-0.0006447513005696237,0.002435993403196335,0.013509949669241905
1761916264821381600,6.288381591796875,0.0015243934467434883,-0.0011416971683502197,0.01061988715082407
1761916264831436500,6.2984365234375,-0.001312405802309513,-0.00039707732503302395,0.01224494818598032
1761916264841492700,6.30849267578125,-0.0019068233668804169,-0.0005917543894611299,0.011961321346461773
1761916264851547400,6.31854736328125,0.0016325177857652307,-0.0019118833588436246,0.011631888337433338
1761916264861602600,6.3286025390625,0.0002817624481394887,0.0009536779834888875,0.010294449515640736
1761916264871657700,6.33865771484375,-0.0008809737046249211,-0.0005289037944748998,0.00917166005820036
1761916264881713700,6.348713623046875,-0.001461010193452239,-0.0016200009267777205,0.013428190723061562
1761916264891768600,6.3587685546875,-0.002915895078331232,0.00009800432599149644,0.012554939836263657
1761916264901823500,6.368823486328125,0.0010575412306934595,-0.0011861718958243728,0.011738947592675686
1761916264911878700,6.378878662109375,-0.0014149374328553677,0.0004724447790067643,0.013030581176280975
1761916264921934600,6.3889345703125,0.0010942928493022919,-0.001773398951627314,0.01486283540725708
1761916264931989800,6.39898974609375,-0.0016860472969710827,0.000532632227987051,0.01104732509702444
1761916264942044400,6.40904443359375,0.00018562232435215265,0.0013337110867723823,0.009661415591835976
1761916264952099600,6.419099609375,-0.0028104339726269245,-0.0006234460161067545,0.01073813159018755
1761916264962155500,6.429155517578125,0.0001174454009742476,0.0021904499735683203,0.013072391971945763
1761916264972210700,6.439210693359375,0.002558765234425664,0.0014892396284267306,0.012714996002614498
1761916264982265600,6.449265625,0.0009704558760859072,-0.0009297095239162445,0.009245163761079311
1761916264992320500,6.459320556640625,-0.0005126585019752383,-0.0010785802733153105,0.010366886854171753
1761916265002376400,6.46937646484375,0.00044048685231246054,0.0002849582233466208,0.010293384082615376
1761916265012431600,6.479431640625,-0.0011329087428748608,-0.0010037453612312675,0.010731739923357964
1761916265022486800,6.48948681640625,-0.003206712193787098,0.0010841728653758764,0.01142789050936699
1761916265032541400,6.49954150390625,-0.0006242449744604528,0.001820536912418902,0.014628743752837181
1761916265042597600,6.50959765625,-0.00031318774563260376,-0.0009315737406723201,0.013231649063527584
1761916265052652500,6.519652587890625,-0.001752360025420785,0.0018458369886502624,0.012290221638977528
1761916265062707700,6.529707763671875,-0.000041545314161339775,0.00015712650201749057,0.010010023601353168
1761916265072762400,6.539762451171875,0.0005033374181948602,-0.0010029464028775692,0.012529107742011547
1761916265082818600,6.549818603515625,-0.001478320686146617,0.0037758296821266413,0.011779427528381348
1761916265092873500,6.55987353515625,0.0015590144321322441,0.0004135889175813645,0.014220214448869228
1761916265102928600,6.5699287109375,0.001547030289657414,-0.0014879080699756742,0.011801797896623611
1761916265112983600,6.579983642578125,0.0006181196658872068,-0.0012876383261755109,0.010361027903854847
1761916265123039500,6.59003955078125,-0.002216815249994397,-0.001511610229499638,0.012292352505028248
1761916265133094700,6.6000947265625,-0.0021204089280217886,0.00018668759730644524,0.011035074479877949
1761916265143149600,6.610149658203125,-0.0007880293414928019,0.0034029872622340918,0.011963452212512493
1761916265153204700,6.620204833984375,-0.00008894957863958552,-0.0019201391842216253,0.011856659315526485
1761916265163260400,6.630260498046875,0.0008034756756387651,-0.0026288062799721956,0.01119326613843441
1761916265173315600,6.640315673828125,0.0004111920716241002,0.0006418218254111707,0.013205017894506454
1761916265183370500,6.65037060546875,0.00003062635369133204,-0.0014178669080138206,0.01206704881042242
1761916265193425700,6.66042578125,0.0014817827614024282,-0.0020879183430224657,0.0141373910009861
1761916265203481600,6.670481689453125,0.0022889869287610054,0.002487925114110112,0.011696070432662964
1761916265213536500,6.68053662109375,-0.0007070692372508347,0.0031582426745444536,0.010235327295958996
1761916265223591700,6.690591796875,0.0002234392159152776,0.0014863101532682776,0.012123774737119675
1761916265233646600,6.700646484375,-0.0004921521758660674,-0.0004894890007562935,0.008786034770309925
1761916265243702500,6.71070263671875,-0.0031755531672388315,0.002715891692787409,0.00827816966921091
1761916265253757400,6.72075732421875,-0.0003171824791934341,-0.0020663465838879347,0.011559983715415001
1761916265263812600,6.7308125,-0.0018458369886502624,0.00034354778472334146,0.013577328063547611
1761916265273867500,6.740867431640625,-0.00003728425508597866,0.000550475378986448,0.01074132788926363
1761916265283923700,6.750923828125,-0.001942509668879211,0.001856223214417696,0.010647851042449474
1761916265293978600,6.760978515625,-0.002139050979167223,-0.003087668912485242,0.011464376002550125
1761916265304033500,6.771033447265625,-0.0017816547770053148,0.004225904121994972,0.01058926060795784
1761916265314088700,6.781088623046875,-0.0021547635551542044,0.001127582392655313,0.013861753046512604
1761916265324144600,6.79114453125,0.0007131945458240807,-0.0013496900210157037,0.011481153778731823
1761916265334199600,6.801199462890625,0.00010439591278554872,-0.002034388715401292,0.009968478232622147
1761916265344254500,6.81125439453125,-0.0013635384384542704,0.0005083974683657289,0.011388209648430347
1761916265354309600,6.8213095703125,0.000988032785244286,-0.0003203782835043967,0.012255867011845112
1761916265364365600,6.831365478515625,-0.002005093963816762,-0.001359277404844761,0.010566623881459236
1761916265374420700,6.841420654296875,-0.0015986956423148513,0.0012306467397138476,0.010206565260887146
1761916265384475400,6.851475341796875,0.0012037487467750907,-0.0014596786350011826,0.012928581796586514
1761916265394530600,6.861530517578125,0.00020186760229989886,0.0005669869715347886,0.013886254280805588
1761916265404586500,6.87158642578125,-0.0005363606614992023,0.0016972325975075364,0.009485913440585136
1761916265414641700,6.8816416015625,-0.0010455570882186294,-0.0026618295814841986,0.010379137471318245
1761916265424696600,6.891696533203125,-0.0017390442080795765,-0.003641340183094144,0.011010040529072285
1761916265434751500,6.90175146484375,-0.0008226504432968795,0.0003094593121204525,0.012926450930535793
1761916265444807400,6.911807373046875,0.0010066748363897204,0.0016982977977022529,0.011504589579999447
1761916265454862600,6.921862548828125,-0.0015374429058283567,0.0000013315805063029984,0.012999421916902065
1761916265464917800,6.931917724609375,-0.002397910226136446,0.002695651724934578,0.011366104707121849
1761916265474972400,6.941972412109375,0.0027276095934212208,-0.0036754286848008633,0.010850783437490463
1761916265485028600,6.952028564453125,-0.00037710359902121127,-0.0015456987312063575,0.012094213627278805
1761916265495083500,6.96208349609375,0.0036663739010691643,-0.0016860472969710827,0.010449711233377457
1761916265505138700,6.972138671875,0.000529702752828598,-0.0013134710025042295,0.012614594772458076
1761916265515193300,6.982193359375,-0.00098190747667104,0.0020793962758034468,0.010447847656905651
1761916265525249500,6.99224951171875,0.0000066579027588886674,-0.00025220136740244925,0.01323750801384449
1761916265535304400,7.002304443359375,-0.0029792783316224813,2.6631610694494157e-7,0.012766927480697632
1761916265545359600,7.012359619140625,-0.00041811628034338355,0.0005315669695846736,0.008432100526988506
1761916265555414800,7.022414794921875,-0.00003462109452812001,0.00088976213010028,0.0117927435785532
1761916265565470500,7.032470458984375,0.00010093380114994943,0.0011195929255336523,0.007791344076395035
1761916265575525600,7.042525634765625,-0.0006125270738266408,-0.002120675053447485,0.013346165418624878
1761916265585580500,7.05258056640625,0.001549959764815867,-0.00032144354190677404,0.01227584108710289
1761916265595635700,7.0626357421875,-0.001065264455974102,0.0006514092092402279,0.011390073224902153
1761916265605691600,7.072691650390625,0.0012918994762003422,0.0038000645581632853,0.012774384580552578
1761916265615746600,7.08274658203125,0.0016407734947279096,0.0018900453578680754,0.015482020564377308
1761916265625801500,7.092801513671875,-0.0013667342718690634,0.00028762139845639467,0.01543355081230402
1761916265635856600,7.102856689453125,0.0005872269975952804,-0.0003430151555221528,0.011296063661575317
1761916265645912600,7.11291259765625,-0.0010463559301570058,0.0011017497163265944,0.012179700657725334
1761916265655967500,7.122967529296875,-0.00023089606838766485,-0.0018136126454919577,0.013104350306093693
1761916265666022700,7.133022705078125,0.00008202536264434457,-0.00031425300403498113,0.007964449934661388
1761916265676077600,7.14307763671875,-0.0011225224006921053,-0.0005539375124499202,0.009630256332457066
1761916265686133500,7.153133544921875,0.00029827404068782926,-0.00010572749306447804,0.012356800958514214
1761916265696188700,7.163188720703125,-0.0003462109307292849,0.0034000577870756388,0.008374310098588467
1761916265706243800,7.173243896484375,-0.0004293015517760068,0.0019150790758430958,0.012162390165030956
1761916265716299800,7.1832998046875,-0.001044758129864931,-0.0021225393284112215,0.011195662431418896
1761916265726355000,7.19335498046875,-0.0012562130577862263,0.0015331818722188473,0.012175439856946468
1761916265736409900,7.203409912109375,-0.000672181835398078,0.0008849684381857514,0.012594887986779213
1761916265746464800,7.21346484375,0.00034700988908298314,0.0012146678054705262,0.01191152073442936
1761916265756520700,7.223520751953125,-0.0002868224401026964,0.00014221279707271606,0.01064838282763958
1761916265766575900,7.233575927734375,0.0004617921367753297,-0.0008362325606867671,0.011403122916817665
1761916265776630800,7.243630859375,0.0010775149567052722,-0.0010042780777439475,0.010537595488131046
1761916265786686000,7.25368603515625,-0.0012668657582253218,0.0006285060080699623,0.01221725158393383
1761916265796741600,7.26374169921875,0.00014141385327093303,-0.001113201375119388,0.010275008156895638
1761916265806796800,7.273796875,-0.001210673013702035,-0.0019353191601112485,0.010588196106255054
1761916265816852000,7.28385205078125,0.0016855146968737245,0.002038117265328765,0.013016732409596443
1761916265826907000,7.293906982421875,0.0006476807757280767,0.002406165935099125,0.011206582188606262
1761916265836962800,7.303962890625,0.001589108258485794,0.0016468988033011556,0.01203935220837593
1761916265847017700,7.314017822265625,0.0007629956235177815,0.0011659319279715419,0.010991664603352547
1761916265857073000,7.324072998046875,0.0024921861477196217,-0.00023808660625945777,0.008621451444923878
1761916265867127800,7.3341279296875,-0.0007933556917123497,0.0002002697146963328,0.013015933334827423
1761916265877184000,7.34418408203125,-0.0006567355012521148,-0.0009147958480753005,0.010459299199283123
1761916265887238700,7.35423876953125,-0.00022370553051587194,-0.000934236915782094,0.011472098529338837
1761916265897293800,7.3642939453125,-0.00033449303009547293,0.0026312030386179686,0.008900816552340984
1761916265907349000,7.374348876953125,-0.002808036981150508,0.001868207473307848,0.01122176181524992
1761916265917405000,7.384405029296875,0.001636246219277382,0.0002878876985050738,0.010674482211470604
1761916265927459800,7.3944599609375,0.00072597770486027,0.0017688715597614646,0.009586314670741558
1761916265937514800,7.4045146484375,0.0016437029698863626,0.0014689996605738997,0.010247045196592808
1761916265947570000,7.41456982421875,0.001303084660321474,0.001062068622559309,0.012460663914680481
1761916265957625900,7.4246259765625,-0.0015214639715850353,0.0012740562669932842,0.012551744468510151
1761916265967681000,7.434680908203125,0.000371777277905494,-0.0016594156622886658,0.012446816079318523
1761916265977735700,7.444735595703125,0.0002993392990902066,0.001862348522990942,0.014189855195581913
1761916265987790800,7.454790771484375,-0.001648496720008552,-0.0008402272942475975,0.0092321140691638
1761916265997846800,7.4648466796875,-0.00014407701382879168,0.00210629403591156,0.010439857840538025
1761916266007902000,7.47490185546875,0.001900964416563511,-0.0003587277897167951,0.009492837823927402
1761916266017956600,7.48495654296875,-0.0005129248020239174,0.0008876316132955253,0.012655341066420078
1761916266028011800,7.49501171875,-0.0001699096756055951,-0.002019741339609027,0.009699765592813492
1761916266038067700,7.505067626953125,0.001442900625988841,0.0017259946325793862,0.011593006551265717
1761916266048123000,7.515122802734375,-0.0021145499777048826,-0.00040719733806326985,0.015272163785994053
1761916266058177800,7.525177734375,-0.0006130596739239991,0.0008945558220148087,0.012821522541344166
1761916266068233700,7.535233642578125,-0.001044491771608591,0.0009076052810996771,0.010545318946242332
1761916266078289000,7.545288818359375,0.001184574095532298,-0.0011142665753141046,0.010851049795746803
1761916266088343800,7.55534375,-0.001454618526622653,-0.0033899378031492233,0.013873737305402756
1761916266098399000,7.56539892578125,0.002415220718830824,0.0014447649009525776,0.013637781143188477
1761916266108455000,7.575454833984375,-0.0013052152935415506,-0.0030013825744390488,0.010121077299118042
1761916266118509800,7.585509765625,-0.0003222425002604723,-0.0016056197928264737,0.011196461506187916
1761916266128564700,7.595564697265625,0.00003888214996550232,-0.002031459240242839,0.010386860929429531
1761916266138620000,7.605619873046875,-0.0017555557424202561,-0.0001805623178370297,0.010093114338815212
1761916266148675800,7.61567578125,0.00045673211570829153,0.0013574132462963462,0.010910172015428543
1761916266158730800,7.625730712890625,-0.0024202808272093534,0.0006354302167892456,0.01095411367714405
1761916266168786000,7.635785888671875,0.001761148450896144,0.0014719291357323527,0.013187174685299397
1761916266178840800,7.6458408203125,-0.00041332258842885494,-0.002426672261208296,0.015000254847109318
1761916266188896800,7.655896728515625,0.0003067961661145091,-0.00014647385978605598,0.01215440034866333
1761916266198951700,7.66595166015625,-0.002371544949710369,-0.0022082931827753782,0.011167965829372406
1761916266209006800,7.6760068359375,0.0015939018921926618,-0.00239258399233222,0.01025636587291956
1761916266219061800,7.686061767578125,0.000477504770969972,-0.00021172130072955042,0.011333880946040154
1761916266229118000,7.696117919921875,-0.0004207794554531574,-0.0014436995843425393,0.012147476896643639
1761916266239172900,7.7061728515625,-0.000428502622526139,0.0011582087026908994,0.011128817684948444
1761916266249227800,7.716227783203125,-0.0004822984628845006,-0.00036698358599096537,0.010526410304009914
1761916266259283000,7.726282958984375,-0.0033787523861974478,0.003769171889871359,0.013139504007995129
1761916266269339000,7.7363388671875,-0.00070520507870242,0.000734766130335629,0.011294999159872532
1761916266279393800,7.746393798828125,0.0013909690314903855,-0.001520665013231337,0.0117338877171278
1761916266289448700,7.75644873046875,0.0003211772127542645,-0.0018109495285898447,0.011997007764875889
1761916266299503900,7.76650390625,0.0013691311469301581,0.00017470336752012372,0.01218609232455492
1761916266309559800,7.776559814453125,0.0002892192860599607,-0.0011289139511063695,0.01182230468839407
1761916266319615000,7.786614990234375,-0.0010777813149616122,0.0014660701854154468,0.008598814718425274
1761916266329669600,7.796669677734375,-0.00047084689140319824,-0.00013315805699676275,0.009910155087709427
1761916266339725800,7.806725830078125,0.0005944175645709038,-0.0021789984311908484,0.011634285561740398
1761916266349780700,7.81678076171875,0.00048123320448212326,0.001603489276021719,0.011411112733185291
1761916266359836000,7.8268359375,0.0023307986557483673,-0.001315335277467966,0.011919509619474411
1761916266369890800,7.836890869140625,-0.001330249011516571,-0.003632019041106105,0.01176264975219965
1761916266379946800,7.84694677734375,-0.0006074670236557722,-0.0014732606941834092,0.01152616087347269
1761916266390001700,7.857001708984375,0.0005906891310587525,-0.0018136126454919577,0.01221538707613945
1761916266400056800,7.867056884765625,0.00035952674807049334,0.0022836606949567795,0.011503524146974087
1761916266410112000,7.877112060546875,-0.00003462109452812001,0.0013142699608579278,0.012209528125822544
1761916266420168000,7.88716796875,0.00012596751912496984,-0.0002324939559912309,0.009442503564059734
1761916266430222800,7.897222900390625,-0.00010439591278554872,0.002638926263898611,0.010927748866379261
1761916266440277800,7.90727783203125,0.0002921487612184137,0.004752677399665117,0.012019644491374493
1761916266450333000,7.9173330078125,0.0018847191240638494,0.0015813850332051516,0.011027883738279343
1761916266460388900,7.927388916015625,0.0005347627447918057,-0.001142496126703918,0.010667824186384678
1761916266470443800,7.93744384765625,0.0010809770319610834,-0.003210440743714571,0.010790329426527023
1761916266480498700,7.947498779296875,0.00000852211542223813,-0.0026080335956066847,0.01104599330574274
1761916266490553900,7.957553955078125,-0.0010154632618650794,0.002008556155487895,0.009370865300297737
1761916266500609800,7.96760986328125,-0.0023758059833198786,0.002919357270002365,0.010922955349087715
1761916266510665000,7.9776650390625,0.0011656655697152019,-0.0013627394801005721,0.009818010032176971
1761916266520720000,7.987719970703125,-0.0011534150689840317,-0.0021291973534971476,0.010121610015630722
1761916266530774800,7.99777490234375,-0.0005102616851218045,0.0011805793037638068,0.012236958369612694
1761916266540831000,8.0078310546875,-0.000004793690095539205,-0.0007872303831391037,0.011274226009845734
1761916266550882800,8.0178828125,0.0003451456723269075,0.00008468852320220321,0.011682488955557346
1761916266560938800,8.027938720703125,0.00036192359402775764,-0.0023209447972476482,0.010419351048767567
1761916266570994000,8.037993896484375,-0.0005699164466932416,0.0009432916413061321,0.010513094253838062
1761916266581048800,8.048048828125,-0.000838895735796541,0.0029912625905126333,0.012925918214023113
1761916266591103700,8.058103759765626,-0.0016245282022282481,-0.00159443449229002,0.009368734434247017
1761916266601160000,8.068159912109374,0.000847950461320579,-0.0025481125339865685,0.011374360881745815
1761916266611214800,8.07821484375,-0.00061279337387532,0.00011771172285079956,0.010716826654970646
1761916266621270000,8.08827001953125,0.0016189356101676822,0.002567820018157363,0.010920025408267975
1761916266631324700,8.09832470703125,0.0006570018595084548,0.0001483380765421316,0.011904862709343433
1761916266641380900,8.108380859375,-0.0024138891603797674,-0.002189384773373604,0.011836951598525047
1761916266651435800,8.118435791015624,0.00007776429993100464,-0.002139583695679903,0.011067031882703304
1761916266661491000,8.128490966796875,0.0002580603177193552,-0.0011195929255336523,0.011167433112859726
1761916266671545900,8.1385458984375,-0.0020628846250474453,-0.0025070998817682266,0.00971281435340643
1761916266681601800,8.148601806640626,-0.0009012137306854129,0.0006269080913625658,0.010850783437490463
1761916266691656700,8.15865673828125,0.00021891183860134333,0.00002663161103555467,0.012739230878651142
1761916266701712000,8.1687119140625,-0.00017496968212071806,0.0006607302348129451,0.01378132589161396
1761916266711766300,8.178766357421875,-0.0009616674506105483,0.000056459015468135476,0.013079849071800709
1761916266721822200,8.188822265625,-0.00008175904804375023,0.0021736719645559788,0.011632154695689678
1761916266731877000,8.198877197265626,0.0015792545164003968,0.0006825681775808334,0.010998855344951153
1761916266741932000,8.20893212890625,-0.0007344998302869499,0.0013009541435167193,0.01088700257241726
1761916266751987200,8.2189873046875,0.001169394003227353,-0.0023132218047976494,0.01079858560115099
1761916266762043100,8.229043212890625,0.0011771172285079956,-0.00013662016135640442,0.011991947889328003
1761916266772098300,8.239098388671875,-0.00010333064710721374,-0.0002463423879817128,0.013771472498774529
1761916266782153200,8.2491533203125,0.000571248063351959,-0.0006934871198609471,0.010128268040716648
1761916266792209200,8.259209228515624,-0.0004117247008252889,0.0013102752855047584,0.010885404422879219
1761916266802264300,8.269264404296875,0.0005691175465472043,-0.0010487528052181005,0.011716310866177082
1761916266812319200,8.2793193359375,-0.0009555422002449632,-0.0015094797126948833,0.01209581084549427
1761916266822374100,8.2893740234375,0.001279116258956492,0.0010783139150589705,0.01124972477555275
1761916266832430000,8.29943017578125,0.0001728391507640481,0.0024077638518065214,0.013943778350949287
1761916266842485200,8.3094853515625,0.003022687742486596,0.001026382320560515,0.009462211281061172
1761916266852540200,8.3195400390625,0.0012607404496520758,-0.0005547364708036184,0.011407383717596531
1761916266862595000,8.329594970703125,-0.000025300030756625347,-0.002642122097313404,0.009221461601555347
1761916266872651000,8.339651123046876,-0.0021819279063493013,0.0013230583863332868,0.012745089828968048
1761916266882706200,8.3497060546875,-0.00029827404068782926,0.000794420950114727,0.011153851635754108
1761916266892761300,8.35976123046875,-0.000011185276889591478,0.001207477180287242,0.010100836865603924
1761916266902816300,8.369816162109375,-0.00024181502521969378,0.00012889699428342283,0.012760535813868046
1761916266912872200,8.3798720703125,-0.0013323795283213258,-0.0003608583356253803,0.010425209999084473
1761916266922927000,8.389927001953126,0.00005273058923194185,-0.0006580671179108322,0.011372762732207775
1761916266932982300,8.399982177734374,-0.001698830397799611,-0.0011768508702516556,0.011683021672070026
1761916266943037200,8.410037109375,-0.001805889536626637,0.0003765709698200226,0.011767176911234856
1761916266953093400,8.42009326171875,-0.00003222424857085571,0.0002892192860599607,0.009358081966638565
1761916266963148000,8.43014794921875,0.0008149272762238979,0.0005494101205840707,0.00749014038592577
1761916266973203200,8.440203125,-0.001517469179816544,-0.0009859022684395313,0.011217501014471054
1761916266983259100,8.450259033203125,0.0007355650886893272,0.0011041465913876891,0.010659834370017052
1761916266993314300,8.460314208984375,-0.00024234765442088246,-0.0006996124284341931,0.010305101983249187
1761916267003369200,8.470369140625,-0.000565122754778713,-0.00358754419721663,0.013293434865772724
1761916267013424000,8.480424072265626,-0.0003736414946615696,0.00007323692989302799,0.011897405609488487
1761916267023480000,8.49047998046875,0.0014112089993432164,-0.0007760451408103108,0.012627644464373589
1761916267033535200,8.50053515625,0.00044022052315995097,0.001463673310354352,0.009180981665849686
1761916267043590400,8.51059033203125,-0.0024676851462572813,0.0025683525018393993,0.012891030870378017
1761916267053645000,8.52064501953125,-0.002284459536895156,0.0003400856803636998,0.008136489428579807
1761916267063701200,8.530701171875,-0.003212837502360344,-0.00019760655413847417,0.010632936842739582
1761916267073756200,8.540756103515625,0.0013510215794667602,-0.000577107013668865,0.011388476006686687
1761916267083811300,8.550811279296875,0.00007696535612922162,-0.0021113541442900896,0.011699266731739044
1761916267093866000,8.560865966796875,-0.0014514228096231818,-0.0006261091912165284,0.012141351588070393
1761916267103922200,8.570922119140626,0.0015030881622806191,0.0020607539918273687,0.010251572355628014
1761916267113978000,8.58097802734375,0.00027031084755435586,-0.0014927018200978637,0.01101643219590187
1761916267124033300,8.591033203125,0.00012436961696948856,-0.0018224010709673166,0.009807356633245945
1761916267134088200,8.601088134765625,-0.0024141555186361074,0.00019334549142513424,0.011663047596812248
1761916267144144400,8.611144287109376,-0.00043302998528815806,0.0007233145297504961,0.009218265302479267
1761916267154199000,8.621198974609374,-0.00040959418402053416,-0.0012490225490182638,0.011927233077585697
1761916267164254200,8.631254150390625,0.0018213358707726002,0.0012013519881293178,0.011957060545682907
1761916267174309400,8.641309326171875,-0.0012628709664568305,0.0015624766238033772,0.011117632500827312
1761916267184365300,8.651365234375,-0.0005203816690482199,-0.0012218583142384887,0.011440673843026161
1761916267194420200,8.661420166015626,-0.0023821976501494646,0.0008468852029182017,0.011846006847918034
1761916267204475100,8.67147509765625,-0.0024085629265755415,-0.0007890945998951793,0.010734936222434044
1761916267214530300,8.6815302734375,-0.0013084110105410218,0.0016335829859599471,0.011652661487460136
1761916267224586200,8.691586181640625,0.0013739247806370258,0.0007970841252245009,0.012680907733738422
1761916267234641400,8.701641357421876,-0.003999002743512392,0.001341700553894043,0.011401791125535965
1761916267244696000,8.711696044921876,0.0006878945278003812,0.002375007141381502,0.010201238095760345
1761916267254752300,8.721752197265625,-0.00020293287525419146,-0.0014325142838060856,0.010566357523202896
1761916267264807200,8.73180712890625,0.000529702752828598,-0.00028096348978579044,0.011635084636509418
1761916267274862300,8.7418623046875,0.00006604639202123508,-0.0022498385515064,0.012375443242490292
1761916267284917000,8.7519169921875,-0.0008697884040884674,0.0017515610670670867,0.013250024989247322
1761916267294973200,8.76197314453125,-0.00046339002437889576,0.0024652881547808647,0.013194365426898003
1761916267305028000,8.772028076171875,0.0013214604696258903,0.0004801679460797459,0.01233096793293953
1761916267315083300,8.782083251953125,-0.0009741843095980585,-0.00205249828286469,0.010338124819099903
1761916267325138200,8.79213818359375,-0.0013251889031380415,-0.0017560884589329362,0.011100588366389275
1761916267335194000,8.802194091796874,0.0005083974683657289,-0.0019049590919166803,0.012226572260260582
1761916267345249300,8.812249267578125,0.0008612662786617875,-0.000604004948399961,0.013500362634658813
1761916267355304200,8.82230419921875,0.0009840379934757948,0.001677525113336742,0.009427590295672417
1761916267365359400,8.832359375,0.0028216191567480564,-0.0005153216770850122,0.010865164920687675
1761916267375415000,8.8424150390625,0.0017544905422255397,0.0006143912323750556,0.015240205451846123
1761916267385470200,8.85247021484375,-0.001278849900700152,-0.0022181468084454536,0.011181814596056938
1761916267395525000,8.862525146484375,0.00021651499264407903,0.0033489251509308815,0.013908358290791512
1761916267405581300,8.872581298828125,0.0004921521758660674,0.0017243968322873116,0.011448929086327553
1761916267415636200,8.88263623046875,-0.0015126754296943545,0.00016724651504773647,0.012435630895197392
1761916267425691100,8.892691162109376,-0.0008072041091509163,-0.0008098672842606902,0.012253470718860626
1761916267435746300,8.902746337890624,-0.00021305288828443736,0.000060986389144090936,0.012060390785336494
1761916267445802200,8.91280224609375,0.000720118754543364,0.00347409350797534,0.011480354703962803
1761916267455857200,8.922857177734375,-0.0009946906939148903,-0.0004572647449094802,0.01170699018985033
1761916267465912000,8.932912109375,-0.002229332225397229,0.00034221619716845453,0.011071559973061085
1761916267475967200,8.94296728515625,-0.0024852619972079992,-0.0018575548892840743,0.010130664333701134
1761916267486023200,8.953023193359375,0.00010652644414221868,-0.003917776048183441,0.010598848573863506
1761916267496078300,8.963078369140625,-0.002002697205170989,0.0006556702428497374,0.009254218079149723
1761916267506133200,8.97313330078125,-0.0008404936525039375,0.0010436928132548928,0.010333331301808357
1761916267516188200,8.983188232421876,-0.0017595505341887474,0.002603239845484495,0.012506737373769283
1761916267526244000,8.993244140625,-0.003412574529647827,0.0014093448407948017,0.008803078904747963
1761916267536299300,9.00329931640625,0.00037390782381407917,0.0007448861724697053,0.013134710490703583
1761916267546354200,9.013354248046875,0.00043116576853208244,0.0009800433181226254,0.010891263373196125
1761916267556410400,9.023410400390626,-0.0013203952694311738,-0.0005123922019265592,0.013486780226230621
1761916267566465000,9.033465087890624,0.0006034722900949419,0.0018269284628331661,0.012862268835306168
1761916267576520200,9.043520263671875,0.0019417107105255127,-0.00041012681322172284,0.010384730063378811
1761916267586575400,9.053575439453125,0.00010492854926269501,-0.002591255819424987,0.008312257938086987
1761916267596631300,9.06363134765625,-0.00039281626231968403,0.000013582121027866378,0.01182230468839407
1761916267606686200,9.073686279296876,0.0013888385146856308,-0.0017715347930788994,0.011373828165233135
1761916267616741000,9.0837412109375,-0.0003350256592966616,0.0003904194163624197,0.010881942696869373
1761916267626796300,9.09379638671875,0.0017012272728607059,-0.00033902039285749197,0.012418853119015694
1761916267636852200,9.103852294921875,0.0012737899087369442,0.0016756609547883272,0.009158877655863762
1761916267646907100,9.1139072265625,-0.0008993495139293373,-0.002566488226875663,0.009402289986610413
1761916267656962000,9.123962158203126,-0.0008551410282962024,-0.0007595335482619703,0.010692858137190342
1761916267667017200,9.134017333984374,0.0012996225850656629,-0.00027803401462733746,0.010664628818631172
1761916267677073200,9.1440732421875,-0.00012996226723771542,0.0012708604335784912,0.010982876643538475
1761916267687128300,9.15412841796875,0.0007731156656518579,0.00017603494052309543,0.013278787024319172
1761916267697183200,9.164183349609376,0.0005989448982290924,-0.002397377509623766,0.011255051009356976
1761916267707239400,9.174239501953124,-0.0022503710351884365,0.0013720606220886111,0.011351191438734531
1761916267717294300,9.18429443359375,0.001281779375858605,-0.000854075769893825,0.010689395479857922
1761916267727349200,9.194349365234375,-0.0017153420485556126,0.0006846986943855882,0.013319267891347408
1761916267737404400,9.204404296875,-0.0012519520241767168,-0.0018583538476377726,0.012021775357425213
1761916267747460400,9.21446044921875,-0.0034735610242933035,-0.00028815402765758336,0.011904329992830753
1761916267757515500,9.224515625,0.001073786523193121,0.0008905610884539783,0.010193249210715294
1761916267767570200,9.234570068359375,-0.00185089698061347,0.00046845004544593394,0.013832191936671734
1761916267777625300,9.244625244140625,0.0006562029011547565,0.0026557042729109526,0.012048939242959023
1761916267787681300,9.254681396484376,-0.002013616031035781,-0.0010980212828144431,0.013005280867218971
1761916267797736400,9.264736328125,-0.0000045273736759554595,-0.0011358382180333138,0.010605240240693092
1761916267807791400,9.274791259765625,-0.0006215817993506789,0.00005193164179218002,0.012301407754421234
1761916267817846300,9.28484619140625,0.000916393706575036,0.00044128578156232834,0.012960007414221764
1761916267827902200,9.294902099609375,-0.003400590270757675,-0.0018335863715037704,0.010775149799883366
1761916267837957400,9.304957275390626,0.00007137271313695237,0.00019813918333966285,0.010634801350533962
1761916267848012500,9.315012451171874,-0.0016290555940940976,0.00040959418402053416,0.010855576954782009
1761916267858068500,9.325068359375,0.000045806369598722085,-0.0004319647268857807,0.011930961161851883
1761916267868123400,9.335123291015625,0.00044368262751959264,-0.00018722022650763392,0.010332532227039337
1761916267878178300,9.34517822265625,0.0005070658517070115,-0.00210709311068058,0.010942130349576473
1761916267888233500,9.3552333984375,-0.0012335762148723006,-0.0017949705943465233,0.007232879288494587
1761916267898289400,9.365289306640625,0.0001382180635118857,-0.0003326288133393973,0.01242124941200018
1761916267908344300,9.37534423828125,0.0006769755273126066,-0.0025158883072435856,0.010271545499563217
1761916267918399200,9.385399169921875,0.0017409083666279912,-0.0010894992155954242,0.011876100674271584
1761916267928454400,9.395454345703126,0.0011486213188618422,0.00035686357296071947,0.01082867942750454
1761916267938510300,9.40551025390625,-0.00130894361063838,0.0009249158320017159,0.01149633340537548
1761916267948565500,9.4155654296875,-0.0011627360945567489,-0.0005139900604262948,0.012101403437554836
1761916267958620400,9.425620361328125,-0.0024383901618421078,0.0002793656021822244,0.01092481892555952
1761916267968676400,9.43567626953125,-0.0013526194961741567,0.000029294771593413316,0.009476326406002045
1761916267978731500,9.4457314453125,0.0015654060989618301,0.0022807312197983265,0.00914236530661583
1761916267988786400,9.455786376953125,0.0002918824611697346,0.0011201255256310105,0.012769324705004692
1761916267998841300,9.46584130859375,0.001127582392655313,-0.0003105245705228299,0.0091745899990201
1761916268008897300,9.475897216796875,0.00003488740912871435,0.0009752495680004358,0.01182150561362505
1761916268018952400,9.485952392578126,-0.0033159018494188786,-0.0008223841432482004,0.011264372617006302
1761916268029007400,9.49600732421875,-0.0009065400226972997,0.0015568839153274894,0.010642790235579014
1761916268039062300,9.506062255859375,-0.0018239989876747131,-0.000011185276889591478,0.011260909959673882
1761916268049118200,9.5161181640625,-0.00011371697473805398,-0.001978995045647025,0.012117915786802769
1761916268059173400,9.52617333984375,-0.001344630029052496,-0.0028756812680512667,0.010397247038781643
1761916268069228300,9.536228271484376,-0.0031641016248613596,0.0007776430575177073,0.011268899776041508
1761916268079284500,9.546284423828125,-0.000955009541939944,-0.0018540926976129413,0.011301656253635883
1761916268089339100,9.556339111328125,0.00038988678716123104,-0.002335858531296253,0.010751181282103062
1761916268099394300,9.566394287109375,-0.0003837615076918155,-0.000041545314161339775,0.011034541763365269
1761916268109449500,9.576449462890626,-0.0011073424248024821,0.000901480030734092,0.013360812328755856
1761916268119505400,9.58650537109375,0.0016000272007659078,-0.0016479641199111938,0.013047092594206333
1761916268129560600,9.596560546875,-0.0016932378057390451,-0.0003755057114176452,0.009877131320536137
1761916268139615200,9.606615234375,-0.000966727442573756,-0.0015028218040242791,0.008388957008719444
1761916268149670400,9.61667041015625,-0.0012897689593955874,-0.0026021746452897787,0.011289140209555626
1761916268159726300,9.626726318359376,0.0015478292480111122,0.000630902883131057,0.014271081425249577
1761916268169781500,9.636781494140624,0.001463406952098012,-0.002168612089008093,0.011346131563186646
1761916268179836200,9.646836181640625,-0.0002798982313834131,-0.0015369103057309985,0.00944969430565834
1761916268189891300,9.656891357421875,-0.00177925790194422,0.0012897689593955874,0.010514692403376102
1761916268199947300,9.666947265625,-0.0014977618120610714,-0.000041545314161339775,0.010874751955270767
1761916268210002400,9.67700244140625,-0.0004242415598127991,-0.0007835020078346133,0.010573015548288822
1761916268220057300,9.687057373046875,0.0010394317796453834,0.0013052152935415506,0.011509116739034653
1761916268230113300,9.69711328125,-0.001877262257039547,-0.000297475082334131,0.012809804640710354
1761916268240168400,9.70716845703125,0.0003528688393998891,-0.0014386395923793316,0.010328271426260471
1761916268250223400,9.717223388671876,-0.0005576659459620714,0.0036908749025315046,0.011544270440936089
1761916268260278500,9.727278564453124,-0.0011656655697152019,0.0000900148443179205,0.011451059952378273
1761916268270334500,9.73733447265625,-0.0015345134306699038,-0.0009273127070628107,0.011051852256059647
1761916268280389400,9.747389404296875,-0.0009888317435979843,-0.0004394215648062527,0.011916846968233585
1761916268290444300,9.7574443359375,-0.00023302659974433482,0.0009864348685368896,0.01369290892034769
1761916268300499500,9.76749951171875,0.00008681904728291556,-0.002368082758039236,0.012254003435373306
1761916268310555400,9.777555419921875,0.001642637769691646,-0.000660463934764266,0.011884888634085655
1761916268320610300,9.7876103515625,-0.0014759238110855222,-0.0010309095960110426,0.010427607223391533
1761916268330665500,9.79766552734375,-0.0012428972404450178,-0.0007334345718845725,0.011681956239044666
1761916268340721400,9.807721435546876,-0.00017736652807798237,0.0014242585748434067,0.010507768020033836
1761916268350776300,9.8177763671875,-0.0015297196805477142,0.00033688987605273724,0.009995908476412296
1761916268360831200,9.827831298828125,-0.0005209143273532391,-0.0033872744534164667,0.009188172407448292
1761916268370886400,9.837886474609375,-0.0003632551815826446,-0.0011094729416072369,0.011698467656970024
1761916268380942300,9.8479423828125,-0.0003438140847720206,-0.00046152580762282014,0.008793758228421211
1761916268390997500,9.85799755859375,0.0008210525847971439,0.004828044679015875,0.011447065509855747
1761916268401052400,9.868052490234374,-0.0003153182624373585,0.003822967642918229,0.009718406945466995
1761916268411108400,9.8781083984375,-0.0023289343807846308,0.0007305050967261195,0.013033776544034481
1761916268421163300,9.888163330078125,-0.003066896228119731,0.0013187973527237773,0.014311827719211578
1761916268431218400,9.898218505859376,-0.0006884271278977394,-0.0002772350562736392,0.01193975005298853
1761916268441273300,9.9082734375,-0.0004825647920370102,0.001722798915579915,0.012320049107074738
1761916268451329500,9.91832958984375,-0.0007294398383237422,-0.0008721852791495621,0.009526127018034458
1761916268461384200,9.92838427734375,-0.0011052117915824056,-0.0005573995877057314,0.010819890536367893
1761916268471439400,9.938439453125,-0.002089249901473522,-0.0004809668753296137,0.012022308073937893
1761916268481494500,9.94849462890625,0.0009041432058438659,0.0016562198288738728,0.008749815635383129
1761916268491550500,9.958550537109375,0.0008471515611745417,0.003594468580558896,0.008198541589081287
1761916268501605400,9.96860546875,-0.001680720946751535,0.0004958806093782187,0.014459100551903248
1761916268511660300,9.978660400390625,0.0003025351034011692,0.0031886028591543436,0.014450844377279282
1761916268521715500,9.988715576171876,-0.001606418751180172,0.0009957558941096067,0.011875567957758904
1761916268531771400,9.998771484375,-0.0006202502408996224,0.0016405072528868914,0.011839615181088448
1761916268541826300,10.008826416015625,-0.0012487561907619238,0.0018194715958088636,0.009610283188521862
1761916268551881200,10.018881103515625,-0.001255946815945208,-0.002073803450912237,0.011243066750466824
1761916268561937400,10.0289375,-0.0008940231637097895,-0.00029348034877330065,0.011999404989182949
1761916268571992300,10.038992431640626,0.0002324939559912309,0.014693724922835827,0.02129889652132988
1761916268582047500,10.049047607421874,-0.00039308256236836314,0.036323387175798416,0.02340918593108654
1761916268592102400,10.059102294921875,0.0017803232185542583,0.01122389268130064,0.0025209481827914715
1761916268602158300,10.069158447265625,0.0017603494925424457,-0.015178420580923557,0.012585300020873547
1761916268612213200,10.079213134765626,0.0003635214816313237,0.0038490667939186096,0.02599351666867733
1761916268622268400,10.089268310546874,-0.00019281286222394556,0.029890254139900208,0.012944294139742851
1761916268632324400,10.099324462890625,-0.0012551478575915098,0.015964850783348083,0.011228686198592186
1761916268642379300,10.109379150390625,0.0003382214636076242,-0.012295814231038094,0.01636938564479351
1761916268652434400,10.119434326171875,-0.0005898901727050543,-0.025535985827445984,0.0038930089212954044
1761916268662489300,10.1294892578125,-0.0009680590592324734,-0.02695252187550068,-0.00025246766745112836
1761916268672545500,10.139545654296874,0.0016106797847896814,-0.046484943479299545,-0.006926615722477436
1761916268682600200,10.14960009765625,-0.0018695390317589045,-0.023600134998559952,0.00583631731569767
1761916268692655400,10.1596552734375,0.000010120012120751198,0.044548824429512024,0.027224430814385414
