time,seconds_elapsed,z,y,x
1761914654729162500,0.00216259765625,-0.809967041015625,-0.5338897705078125,0.00091552734375
1761914654739217400,0.012217529296875,-0.8128814697265625,-0.5322265625,-0.0037841796875
1761914654749273300,0.0222734375,-0.818328857421875,-0.5339813232421875,-0.0052337646484375
1761914654759329300,0.032329345703125,-0.8225555419921875,-0.535736083984375,-0.0070953369140625
1761914654769384400,0.042384521484375,-0.8206939697265625,-0.532318115234375,-0.0121612548828125
1761914654779440400,0.0524404296875,-0.821197509765625,-0.5267181396484375,-0.016021728515625
1761914654789496300,0.062496337890625,-0.8236846923828125,-0.5274505615234375,-0.0203857421875
1761914654799551200,0.07255126953125,-0.8264617919921875,-0.5302734375,-0.0217742919921875
1761914654809607200,0.082607177734375,-0.8271636962890625,-0.5341796875,-0.01678466796875
1761914654819663400,0.092663330078125,-0.8298187255859375,-0.5380096435546875,-0.012420654296875
1761914654829718300,0.10271826171875,-0.8366546630859375,-0.5414886474609375,-0.0091705322265625
1761914654839774500,0.1127744140625,-0.8424224853515625,-0.5445709228515625,-0.0045013427734375
1761914654849830400,0.122830322265625,-0.8465118408203125,-0.5506591796875,0.0010528564453125
1761914654859885600,0.132885498046875,-0.8508758544921875,-0.5542755126953125,0.003204345703125
1761914654869941500,0.14294140625,-0.8527679443359375,-0.552886962890625,0.0038299560546875
1761914654879997200,0.1529970703125,-0.85186767578125,-0.55267333984375,0.0037078857421875
1761914654890052400,0.16305224609375,-0.8585968017578125,-0.554534912109375,0.002227783203125
1761914654900108300,0.1731083984375,-0.8673553466796875,-0.5540924072265625,0.0029449462890625
1761914654910164500,0.18316455078125,-0.8749542236328125,-0.5541229248046875,0.0048828125
1761914654920219400,0.193219482421875,-0.8780517578125,-0.5584869384765625,0.0069427490234375
1761914654930275300,0.203275390625,-0.87506103515625,-0.5591278076171875,0.0079498291015625
1761914654940331500,0.21333154296875,-0.8704071044921875,-0.5616455078125,0.007568359375
1761914654950386200,0.22338623046875,-0.8654327392578125,-0.5669097900390625,0.007354736328125
1761914654960442400,0.2334423828125,-0.8616485595703125,-0.5710296630859375,0.0096435546875
1761914654970498300,0.243498291015625,-0.86181640625,-0.57281494140625,0.014404296875
1761914654980553500,0.253553466796875,-0.8665618896484375,-0.5731048583984375,0.0191192626953125
1761914654990609400,0.263609375,-0.880279541015625,-0.5720062255859375,0.026123046875
1761914655000665300,0.273665283203125,-0.884246826171875,-0.5712738037109375,0.0348968505859375
1761914655010720300,0.28372021484375,-0.8801422119140625,-0.5708160400390625,0.0393218994140625
1761914655020776200,0.293776123046875,-0.8814697265625,-0.573272705078125,0.0415802001953125
1761914655030832400,0.303832275390625,-0.8808135986328125,-0.573211669921875,0.0433349609375
1761914655040887300,0.31388720703125,-0.883026123046875,-0.5780029296875,0.041534423828125
1761914655050943500,0.323943603515625,-0.8819580078125,-0.5884246826171875,0.031005859375
1761914655060995000,0.3339951171875,-0.875457763671875,-0.6104888916015625,0.0190277099609375
1761914655071050200,0.34405029296875,-0.8771514892578125,-0.6253814697265625,0.0223846435546875
1761914655081106200,0.354106201171875,-0.8901519775390625,-0.630828857421875,0.0228729248046875
1761914655091161900,0.364161865234375,-0.9007415771484375,-0.64324951171875,0.0145416259765625
1761914655101218000,0.374218017578125,-0.9064483642578125,-0.6613922119140625,0.0061187744140625
1761914655111273000,0.38427294921875,-0.9116668701171875,-0.672515869140625,0.003509521484375
1761914655121329200,0.3943291015625,-0.9115753173828125,-0.685333251953125,-0.0032196044921875
1761914655131384000,0.404384033203125,-0.9203033447265625,-0.677520751953125,-0.0017547607421875
1761914655141440300,0.414440185546875,-0.9184112548828125,-0.6567230224609375,0.0033416748046875
1761914655151496200,0.42449609375,-0.9262237548828125,-0.6303863525390625,0.0139617919921875
1761914655161552100,0.43455224609375,-0.9414825439453125,-0.587860107421875,0.021209716796875
1761914655171607000,0.44460693359375,-0.9581146240234375,-0.552734375,0.0289459228515625
1761914655181663000,0.4546630859375,-0.967803955078125,-0.5163726806640625,0.02862548828125
1761914655191719200,0.46471923828125,-0.96484375,-0.4814300537109375,0.021881103515625
1761914655201774000,0.474774169921875,-0.9418487548828125,-0.4497528076171875,0.003509521484375
1761914655211830000,0.484830078125,-0.9060516357421875,-0.4272308349609375,-0.0164794921875
1761914655221886200,0.49488623046875,-0.8622894287109375,-0.4138946533203125,-0.0404510498046875
1761914655231940900,0.50494091796875,-0.8229827880859375,-0.4080657958984375,-0.063995361328125
1761914655241997000,0.5149970703125,-0.7900848388671875,-0.403594970703125,-0.08135986328125
1761914655252053000,0.525052978515625,-0.76776123046875,-0.405242919921875,-0.101165771484375
1761914655262108200,0.535108154296875,-0.74713134765625,-0.40966796875,-0.12158203125
1761914655272164000,0.5451640625,-0.7350311279296875,-0.4216461181640625,-0.13726806640625
1761914655282220000,0.555219970703125,-0.7170257568359375,-0.4373016357421875,-0.143951416015625
1761914655292275200,0.565275146484375,-0.7009124755859375,-0.46337890625,-0.1454010009765625
1761914655302331000,0.575330810546875,-0.6950225830078125,-0.4884490966796875,-0.139923095703125
1761914655312387000,0.585386962890625,-0.700469970703125,-0.5046844482421875,-0.1264495849609375
1761914655322442000,0.59544189453125,-0.7126617431640625,-0.5213775634765625,-0.1100311279296875
1761914655332498200,0.605498291015625,-0.731658935546875,-0.539703369140625,-0.0979766845703125
1761914655342554000,0.61555419921875,-0.748809814453125,-0.55450439453125,-0.089752197265625
1761914655352609300,0.625609375,-0.76422119140625,-0.5640716552734375,-0.086090087890625
1761914655362665200,0.635665283203125,-0.7771759033203125,-0.5602874755859375,-0.0864715576171875
1761914655372721000,0.645720947265625,-0.78948974609375,-0.5402679443359375,-0.091888427734375
1761914655382776000,0.655776123046875,-0.79669189453125,-0.4998626708984375,-0.093414306640625
1761914655392832000,0.66583203125,-0.8120880126953125,-0.45721435546875,-0.09881591796875
1761914655402888000,0.675887939453125,-0.8264312744140625,-0.417816162109375,-0.10028076171875
1761914655412943000,0.685943115234375,-0.836944580078125,-0.3812255859375,-0.0952301025390625
1761914655422999000,0.6959990234375,-0.835052490234375,-0.3571929931640625,-0.086029052734375
1761914655433055200,0.70605517578125,-0.830322265625,-0.346221923828125,-0.0725860595703125
1761914655443110000,0.71610986328125,-0.8224639892578125,-0.3541259765625,-0.0628814697265625
1761914655453166000,0.726166015625,-0.810394287109375,-0.380279541015625,-0.0576019287109375
1761914655463222000,0.736221923828125,-0.8014984130859375,-0.4068450927734375,-0.048919677734375
1761914655473277200,0.746277099609375,-0.8013458251953125,-0.428466796875,-0.040008544921875
1761914655483333000,0.7563330078125,-0.805023193359375,-0.4417266845703125,-0.0260162353515625
1761914655493389000,0.76638916015625,-0.8001708984375,-0.463287353515625,-0.016571044921875
1761914655503444000,0.77644384765625,-0.8018798828125,-0.4816741943359375,-0.005950927734375
1761914655513500000,0.7865,-0.8035430908203125,-0.492279052734375,-0.001861572265625
1761914655523556000,0.79655615234375,-0.803314208984375,-0.4879302978515625,0.0063018798828125
1761914655533611000,0.806611083984375,-0.81280517578125,-0.4975128173828125,0.0054779052734375
1761914655543667200,0.816667236328125,-0.8206939697265625,-0.501708984375,0.0130157470703125
1761914655553723100,0.82672314453125,-0.8220977783203125,-0.50677490234375,0.0143890380859375
1761914655563778000,0.836778076171875,-0.824188232421875,-0.5164031982421875,0.0089263916015625
1761914655573834200,0.846834228515625,-0.8245849609375,-0.52899169921875,0.008087158203125
1761914655583890000,0.856889892578125,-0.8259429931640625,-0.5456695556640625,0.00958251953125
1761914655593945000,0.866945068359375,-0.8331146240234375,-0.555206298828125,0.0125579833984375
1761914655604001000,0.8770009765625,-0.8405303955078125,-0.5563201904296875,0.0162811279296875
1761914655614057000,0.887056884765625,-0.8492279052734375,-0.55169677734375,0.018646240234375
1761914655624112000,0.897112060546875,-0.855987548828125,-0.545928955078125,0.0184326171875
1761914655634168000,0.90716796875,-0.863433837890625,-0.5386962890625,0.01947021484375
1761914655644224300,0.917224365234375,-0.8694915771484375,-0.53363037109375,0.0177154541015625
1761914655654280200,0.9272802734375,-0.8761138916015625,-0.5295257568359375,0.0154266357421875
1761914655664335000,0.937335205078125,-0.8832855224609375,-0.5238800048828125,0.0144500732421875
1761914655674391000,0.94739111328125,-0.891357421875,-0.514984130859375,0.014678955078125
1761914655684447000,0.957447021484375,-0.89630126953125,-0.5025177001953125,0.014068603515625
1761914655694502100,0.967502197265625,-0.899078369140625,-0.492919921875,0.00897216796875
1761914655704558000,0.97755810546875,-0.903900146484375,-0.485382080078125,0.0016937255859375
1761914655714614300,0.9876142578125,-0.9091033935546875,-0.4750213623046875,-0.004913330078125
1761914655724669000,0.9976689453125,-0.9093780517578125,-0.4698486328125,-0.0131988525390625
1761914655734725000,1.00772509765625,-0.9039764404296875,-0.466400146484375,-0.0204925537109375
1761914655744781000,1.017781005859375,-0.8940277099609375,-0.46661376953125,-0.0290985107421875
1761914655754836000,1.0278359375,-0.881103515625,-0.4687652587890625,-0.03948974609375
1761914655764892200,1.03789208984375,-0.8689727783203125,-0.4792022705078125,-0.0594329833984375
1761914655774948000,1.047947998046875,-0.856201171875,-0.496917724609375,-0.0832672119140625
1761914655785003300,1.058003173828125,-0.8488311767578125,-0.505523681640625,-0.10870361328125
1761914655795059000,1.068058837890625,-0.8458404541015625,-0.5156402587890625,-0.12353515625
1761914655805115000,1.078114990234375,-0.846588134765625,-0.522369384765625,-0.13299560546875
1761914655815170000,1.088170166015625,-0.8485107421875,-0.5255584716796875,-0.1416778564453125
1761914655825226000,1.09822607421875,-0.8506317138671875,-0.5236968994140625,-0.1465911865234375
1761914655835282200,1.1082822265625,-0.854339599609375,-0.5198974609375,-0.1464691162109375
1761914655845337000,1.118337158203125,-0.8619842529296875,-0.5198822021484375,-0.1439208984375
1761914655855393300,1.128393310546875,-0.8756103515625,-0.5238800048828125,-0.141082763671875
1761914655865449200,1.13844921875,-0.891143798828125,-0.5245819091796875,-0.1396942138671875
1761914655875504000,1.148504150390625,-0.90484619140625,-0.5243377685546875,-0.141357421875
1761914655885560000,1.15856005859375,-0.9140625,-0.535736083984375,-0.1527099609375
1761914655895616000,1.168615966796875,-0.9148101806640625,-0.56256103515625,-0.1637725830078125
1761914655905671200,1.178671142578125,-0.9203948974609375,-0.579132080078125,-0.15802001953125
1761914655915727000,1.18872705078125,-0.9331512451171875,-0.5783233642578125,-0.1504364013671875
1761914655925783000,1.198782958984375,-0.9513702392578125,-0.57281494140625,-0.13848876953125
1761914655935838000,1.208837890625,-0.9702606201171875,-0.568084716796875,-0.1154937744140625
1761914655945894000,1.218893798828125,-0.9838409423828125,-0.564727783203125,-0.08502197265625
1761914655955950000,1.2289501953125,-0.992401123046875,-0.5542449951171875,-0.055328369140625
1761914655966005000,1.2390048828125,-0.9888153076171875,-0.5409393310546875,-0.036041259765625
1761914655976061200,1.249061279296875,-0.9836578369140625,-0.5401458740234375,-0.028594970703125
1761914655986117000,1.2591171875,-0.9776763916015625,-0.540283203125,-0.0228271484375
1761914655996172300,1.26917236328125,-0.96551513671875,-0.5488128662109375,-0.0140380859375
1761914656006228000,1.27922802734375,-0.954833984375,-0.549072265625,-0.0048675537109375
1761914656016284000,1.289283935546875,-0.9410400390625,-0.5303192138671875,0.0074615478515625
1761914656026339000,1.299339111328125,-0.9304351806640625,-0.500396728515625,0.0214996337890625
1761914656036395000,1.30939501953125,-0.92083740234375,-0.4673309326171875,0.03564453125
1761914656046451200,1.319451171875,-0.9154815673828125,-0.4307708740234375,0.05462646484375
1761914656056506000,1.329506103515625,-0.9151153564453125,-0.407684326171875,0.0755157470703125
1761914656066562300,1.339562255859375,-0.9064788818359375,-0.3895721435546875,0.09796142578125
1761914656076618500,1.349618408203125,-0.8941802978515625,-0.40069580078125,0.13409423828125
1761914656086673400,1.35967333984375,-0.8630828857421875,-0.4178314208984375,0.1505889892578125
1761914656096729600,1.3697294921875,-0.826385498046875,-0.4334716796875,0.170654296875
1761914656106785500,1.37978564453125,-0.7740936279296875,-0.4649658203125,0.18560791015625
1761914656116840400,1.38984033203125,-0.747314453125,-0.49188232421875,0.1972198486328125
1761914656126896400,1.399896484375,-0.72332763671875,-0.5213165283203125,0.2016143798828125
1761914656136952300,1.409952392578125,-0.7140960693359375,-0.5410308837890625,0.2087249755859375
1761914656147007500,1.420007568359375,-0.7126617431640625,-0.559326171875,0.214202880859375
1761914656157063400,1.4300634765625,-0.7071380615234375,-0.5809478759765625,0.2227783203125
1761914656167119600,1.44011962890625,-0.713958740234375,-0.5994720458984375,0.2377777099609375
1761914656177174500,1.450174560546875,-0.7283782958984375,-0.60784912109375,0.24658203125
1761914656187230500,1.46023046875,-0.744384765625,-0.59527587890625,0.2473907470703125
1761914656197286400,1.470286376953125,-0.7637786865234375,-0.562744140625,0.240570068359375
1761914656207341300,1.48034130859375,-0.7812347412109375,-0.520355224609375,0.224456787109375
1761914656217397500,1.4903974609375,-0.80255126953125,-0.481201171875,0.2086639404296875
1761914656227453400,1.500453369140625,-0.8199920654296875,-0.4430084228515625,0.191741943359375
1761914656237508600,1.510508544921875,-0.834808349609375,-0.4106597900390625,0.171539306640625
1761914656247564500,1.520564453125,-0.8383026123046875,-0.3945465087890625,0.139129638671875
1761914656257620200,1.5306201171875,-0.8301849365234375,-0.393829345703125,0.10589599609375
1761914656267675400,1.54067529296875,-0.8132171630859375,-0.396087646484375,0.0777740478515625
1761914656277731300,1.5507314453125,-0.786956787109375,-0.39727783203125,0.050537109375
1761914656287787500,1.56078759765625,-0.7687835693359375,-0.3989105224609375,0.0262451171875
1761914656297842400,1.570842529296875,-0.7599945068359375,-0.40887451171875,0.0107574462890625
1761914656307898600,1.580898681640625,-0.756988525390625,-0.4380340576171875,-0.0019989013671875
1761914656317954600,1.59095458984375,-0.7616119384765625,-0.4720458984375,-0.0083770751953125
1761914656328009500,1.601009521484375,-0.7725372314453125,-0.4980010986328125,-0.0125885009765625
1761914656338065400,1.6110654296875,-0.78387451171875,-0.5074005126953125,-0.0073394775390625
1761914656348121300,1.621121337890625,-0.78857421875,-0.509490966796875,0.0074310302734375
1761914656358177500,1.631177490234375,-0.7889404296875,-0.51629638671875,0.031280517578125
1761914656368232400,1.641232421875,-0.793670654296875,-0.522705078125,0.0481719970703125
1761914656378288400,1.651288330078125,-0.799407958984375,-0.5303955078125,0.054840087890625
1761914656388344600,1.661344482421875,-0.8066253662109375,-0.5321807861328125,0.056304931640625
1761914656398399200,1.671399169921875,-0.8229522705078125,-0.5298919677734375,0.0544281005859375
1761914656408455400,1.681455322265625,-0.836822509765625,-0.5277862548828125,0.0496368408203125
1761914656418510300,1.69151025390625,-0.84735107421875,-0.5216827392578125,0.047027587890625
1761914656428566500,1.70156640625,-0.8592376708984375,-0.511871337890625,0.043975830078125
1761914656438622500,1.71162255859375,-0.864471435546875,-0.5050048828125,0.04119873046875
1761914656448678400,1.721678466796875,-0.87176513671875,-0.5032501220703125,0.0379486083984375
1761914656458733600,1.731733642578125,-0.889923095703125,-0.5030059814453125,0.0362701416015625
1761914656468789200,1.741789306640625,-0.909423828125,-0.50054931640625,0.0359344482421875
1761914656478845400,1.751845458984375,-0.93609619140625,-0.4905242919921875,0.038421630859375
1761914656488900400,1.761900390625,-0.957305908203125,-0.4872894287109375,0.0384979248046875
1761914656498956500,1.77195654296875,-0.96728515625,-0.4879302978515625,0.03375244140625
1761914656509012500,1.782012451171875,-0.96923828125,-0.489349365234375,0.0265045166015625
1761914656519067600,1.792067626953125,-0.9688873291015625,-0.4962005615234375,0.0232696533203125
1761914656529123600,1.80212353515625,-0.9712677001953125,-0.503692626953125,0.0242156982421875
1761914656539179500,1.812179443359375,-0.9691925048828125,-0.509979248046875,0.0290374755859375
1761914656549234400,1.822234375,-0.9600067138671875,-0.5098114013671875,0.0348968505859375
1761914656559290400,1.832290283203125,-0.946685791015625,-0.5038604736328125,0.0437164306640625
1761914656569346300,1.84234619140625,-0.9394683837890625,-0.499542236328125,0.05462646484375
1761914656579401500,1.8524013671875,-0.9332427978515625,-0.497100830078125,0.0626373291015625
1761914656589457400,1.86245751953125,-0.924285888671875,-0.4987945556640625,0.0662841796875
1761914656599513600,1.872513671875,-0.9121246337890625,-0.49951171875,0.066070556640625
1761914656609568300,1.882568359375,-0.901519775390625,-0.50408935546875,0.0599822998046875
1761914656619624400,1.89262451171875,-0.8810882568359375,-0.5349884033203125,0.047607421875
1761914656629680400,1.902680419921875,-0.8643035888671875,-0.5757904052734375,0.0433502197265625
1761914656639735600,1.912735595703125,-0.8639678955078125,-0.5898284912109375,0.044189453125
1761914656649791500,1.92279150390625,-0.8694610595703125,-0.5967559814453125,0.034088134765625
1761914656659847400,1.932847412109375,-0.878509521484375,-0.6173095703125,0.0248870849609375
1761914656669902600,1.942902587890625,-0.8979949951171875,-0.6385498046875,0.0214080810546875
1761914656679958300,1.952958251953125,-0.9197845458984375,-0.645843505859375,0.0218353271484375
1761914656690014500,1.963014404296875,-0.9420166015625,-0.6340179443359375,0.021575927734375
1761914656700069400,1.9730693359375,-0.9594573974609375,-0.6034393310546875,0.0248870849609375
1761914656710125600,1.98312548828125,-0.9778594970703125,-0.558868408203125,0.03106689453125
1761914656720181500,1.993181396484375,-0.9947662353515625,-0.511932373046875,0.038970947265625
1761914656730236400,2.003236328125,-1.00885009765625,-0.4707489013671875,0.0420989990234375
1761914656740292600,2.013292724609375,-1.0139617919921875,-0.4366302490234375,0.039154052734375
1761914656750348500,2.0233486328125,-1.003448486328125,-0.4116363525390625,0.0294342041015625
1761914656760403500,2.033403564453125,-0.981719970703125,-0.385284423828125,0.014984130859375
1761914656770459400,2.04345947265625,-0.9513702392578125,-0.3592681884765625,0.0013275146484375
1761914656780515300,2.053515380859375,-0.9293365478515625,-0.337890625,-0.01739501953125
1761914656790570500,2.063570556640625,-0.907073974609375,-0.330810546875,-0.0416259765625
1761914656800626400,2.07362646484375,-0.8775787353515625,-0.328338623046875,-0.0623931884765625
1761914656810682600,2.0836826171875,-0.8415374755859375,-0.3251953125,-0.084381103515625
1761914656820737300,2.0937373046875,-0.804534912109375,-0.32867431640625,-0.1032257080078125
1761914656830793500,2.10379345703125,-0.7765045166015625,-0.3460845947265625,-0.118438720703125
1761914656840849400,2.113849365234375,-0.753265380859375,-0.3704986572265625,-0.1202392578125
1761914656850904600,2.123904541015625,-0.7414398193359375,-0.4008636474609375,-0.1280975341796875
1761914656860960500,2.13396044921875,-0.740875244140625,-0.423126220703125,-0.12158203125
1761914656871016400,2.144016357421875,-0.750457763671875,-0.4431610107421875,-0.1061859130859375
1761914656881071600,2.154071533203125,-0.7634735107421875,-0.4597930908203125,-0.0887908935546875
1761914656891127300,2.164127197265625,-0.78131103515625,-0.476837158203125,-0.0716400146484375
1761914656901183500,2.17418359375,-0.800750732421875,-0.491302490234375,-0.0625
1761914656911238400,2.18423828125,-0.82391357421875,-0.4835052490234375,-0.0546875
1761914656921294300,2.19429443359375,-0.846893310546875,-0.4622344970703125,-0.052734375
1761914656931350500,2.2043505859375,-0.8631134033203125,-0.4359893798828125,-0.0514678955078125
1761914656941405400,2.214405517578125,-0.87249755859375,-0.4067230224609375,-0.0457000732421875
1761914656951461600,2.224461669921875,-0.8790130615234375,-0.37713623046875,-0.037628173828125
1761914656961517300,2.234517333984375,-0.8826751708984375,-0.354736328125,-0.03057861328125
1761914656971572500,2.244572509765625,-0.8845062255859375,-0.340423583984375,-0.02032470703125
1761914656981628400,2.25462841796875,-0.87945556640625,-0.3411407470703125,-0.016937255859375
1761914656991684400,2.264684326171875,-0.8637237548828125,-0.3557586669921875,-0.0167083740234375
1761914657001739500,2.274739501953125,-0.8405609130859375,-0.3686676025390625,-0.0175628662109375
1761914657011795500,2.28479541015625,-0.8257904052734375,-0.3845672607421875,-0.0191497802734375
1761914657021851600,2.2948515625,-0.82318115234375,-0.4098968505859375,-0.018829345703125
1761914657031906300,2.30490625,-0.8263397216796875,-0.4435272216796875,-0.0137481689453125
1761914657041962500,2.31496240234375,-0.8389434814453125,-0.4691925048828125,-0.00787353515625
1761914657052018400,2.325018310546875,-0.8494110107421875,-0.4866485595703125,-0.003753662109375
1761914657062073600,2.335073486328125,-0.8607177734375,-0.4967803955078125,-0.00030517578125
1761914657072129800,2.3451298828125,-0.871826171875,-0.4969482421875,0.002288818359375
1761914657082185500,2.355185546875,-0.8767547607421875,-0.488861083984375,0.0060272216796875
1761914657092240600,2.36524072265625,-0.877105712890625,-0.4779052734375,0.009521484375
1761914657102296600,2.375296630859375,-0.8764801025390625,-0.46923828125,0.0119781494140625
1761914657112352500,2.3853525390625,-0.8729095458984375,-0.4663848876953125,0.0150299072265625
1761914657122407700,2.39540771484375,-0.87017822265625,-0.4691162109375,0.0211181640625
1761914657132463600,2.405463623046875,-0.874755859375,-0.477447509765625,0.0273284912109375
1761914657142519800,2.415519775390625,-0.8810577392578125,-0.4859619140625,0.034912109375
1761914657152574500,2.425574462890625,-0.8853912353515625,-0.491058349609375,0.044647216796875
1761914657162630700,2.435630615234375,-0.88458251953125,-0.49517822265625,0.0514984130859375
1761914657172686600,2.4456865234375,-0.8785858154296875,-0.4954986572265625,0.0543060302734375
1761914657182741800,2.45574169921875,-0.8717193603515625,-0.4941864013671875,0.0533294677734375
1761914657192797700,2.465797607421875,-0.8698883056640625,-0.4958038330078125,0.0482177734375
1761914657202853600,2.475853515625,-0.872955322265625,-0.4942779541015625,0.04541015625
1761914657212908500,2.485908447265625,-0.879425048828125,-0.4939727783203125,0.044708251953125
1761914657222964500,2.495964599609375,-0.8802947998046875,-0.4945068359375,0.04473876953125
1761914657233020700,2.506020751953125,-0.8767242431640625,-0.49224853515625,0.04595947265625
1761914657243075600,2.51607568359375,-0.8756103515625,-0.4936676025390625,0.04376220703125
1761914657253131500,2.526131591796875,-0.8725738525390625,-0.4948883056640625,0.041107177734375
1761914657263187700,2.536187744140625,-0.869842529296875,-0.4947967529296875,0.0311279296875
1761914657273242600,2.54624267578125,-0.8714752197265625,-0.4929656982421875,0.0260162353515625
1761914657283298800,2.556298828125,-0.8749542236328125,-0.487396240234375,0.0187225341796875
1761914657293354500,2.5663544921875,-0.88385009765625,-0.4848785400390625,0.0097198486328125
1761914657303409700,2.57640966796875,-0.8858489990234375,-0.485443115234375,0.0020751953125
1761914657313465600,2.586465576171875,-0.8834228515625,-0.48956298828125,-0.007293701171875
1761914657323521500,2.596521484375,-0.875701904296875,-0.4954986572265625,-0.014739990234375
1761914657333576700,2.60657666015625,-0.8690338134765625,-0.4953155517578125,-0.0200042724609375
1761914657343632600,2.616632568359375,-0.86920166015625,-0.4943695068359375,-0.0257110595703125
1761914657353688800,2.626688720703125,-0.87646484375,-0.4893798828125,-0.03082275390625
1761914657363743500,2.636743408203125,-0.890655517578125,-0.4749908447265625,-0.0345611572265625
1761914657373799700,2.646799560546875,-0.9000396728515625,-0.4622955322265625,-0.0352020263671875
1761914657383855600,2.656855712890625,-0.902496337890625,-0.451904296875,-0.0304412841796875
1761914657393910500,2.66691064453125,-0.9073028564453125,-0.4425811767578125,-0.0279388427734375
1761914657403966700,2.676966796875,-0.9172210693359375,-0.4340667724609375,-0.0306549072265625
1761914657414022700,2.687022705078125,-0.9254150390625,-0.43511962890625,-0.0368499755859375
1761914657424077600,2.69707763671875,-0.9267120361328125,-0.4608306884765625,-0.04583740234375
1761914657434133500,2.707133544921875,-0.927001953125,-0.4955596923828125,-0.0467071533203125
1761914657444189400,2.717189453125,-0.9273223876953125,-0.50665283203125,-0.03753662109375
1761914657454244600,2.72724462890625,-0.9302520751953125,-0.5102691650390625,-0.0351715087890625
1761914657464300500,2.737300537109375,-0.9350738525390625,-0.54644775390625,-0.0429534912109375
1761914657474356700,2.747356689453125,-0.94024658203125,-0.591156005859375,-0.03265380859375
1761914657484411600,2.75741162109375,-0.95263671875,-0.6058197021484375,-0.005035400390625
1761914657494467600,2.767467529296875,-0.971588134765625,-0.5877532958984375,0.027618408203125
1761914657504523500,2.7775234375,-0.9981842041015625,-0.5584716796875,0.0467071533203125
1761914657514578700,2.78757861328125,-1.0201873779296875,-0.5373992919921875,0.0597076416015625
1761914657524634600,2.797634521484375,-1.027435302734375,-0.5269012451171875,0.06964111328125
1761914657534690600,2.807690673828125,-1.016845703125,-0.509307861328125,0.0718994140625
1761914657544745700,2.817745849609375,-0.9925384521484375,-0.4799041748046875,0.0754852294921875
1761914657554801700,2.8278017578125,-0.9641876220703125,-0.4481353759765625,0.0906219482421875
1761914657564857600,2.837857666015625,-0.9378204345703125,-0.4189300537109375,0.1152496337890625
1761914657574912500,2.84791259765625,-0.9096527099609375,-0.390045166015625,0.143402099609375
1761914657584968400,2.857968505859375,-0.88421630859375,-0.372650146484375,0.1694488525390625
1761914657595024600,2.868024658203125,-0.860626220703125,-0.369354248046875,0.185577392578125
1761914657605079600,2.87807958984375,-0.843841552734375,-0.3759918212890625,0.19818115234375
1761914657615135700,2.8881357421875,-0.8300018310546875,-0.3841400146484375,0.2071075439453125
1761914657625191700,2.898191650390625,-0.8097076416015625,-0.403900146484375,0.2091064453125
1761914657635246600,2.90824658203125,-0.7734832763671875,-0.4408416748046875,0.2071685791015625
1761914657645302500,2.918302490234375,-0.733917236328125,-0.478424072265625,0.212890625
1761914657655358500,2.9283583984375,-0.7080078125,-0.5055389404296875,0.223663330078125
1761914657665413600,2.93841357421875,-0.6964263916015625,-0.518218994140625,0.2397918701171875
1761914657675469600,2.948469482421875,-0.6978759765625,-0.5217437744140625,0.25836181640625
1761914657685525800,2.95852587890625,-0.7074737548828125,-0.504730224609375,0.27117919921875
1761914657695580700,2.96858056640625,-0.723419189453125,-0.497283935546875,0.2981719970703125
1761914657705636600,2.97863671875,-0.7300262451171875,-0.4876556396484375,0.310791015625
1761914657715692500,2.988692626953125,-0.751983642578125,-0.47210693359375,0.3252105712890625
1761914657725747700,2.998747802734375,-0.76763916015625,-0.4383544921875,0.343963623046875
1761914657735803600,3.0088037109375,-0.7869110107421875,-0.41802978515625,0.348297119140625
1761914657745859600,3.018859619140625,-0.8088226318359375,-0.37542724609375,0.360443115234375
1761914657755914800,3.028914794921875,-0.8259735107421875,-0.341094970703125,0.355499267578125
1761914657765970700,3.038970703125,-0.839263916015625,-0.3209075927734375,0.341033935546875
1761914657776026600,3.049026611328125,-0.841705322265625,-0.3095703125,0.3207855224609375
1761914657786081500,3.05908154296875,-0.8375396728515625,-0.30517578125,0.29266357421875
1761914657796137500,3.069137451171875,-0.830718994140625,-0.3037567138671875,0.2587738037109375
1761914657806193700,3.079193603515625,-0.821807861328125,-0.311309814453125,0.224395751953125
1761914657816248600,3.08924853515625,-0.8249359130859375,-0.3128509521484375,0.1943206787109375
1761914657826304800,3.0993046875,-0.8243408203125,-0.3204345703125,0.16204833984375
1761914657836360700,3.109360595703125,-0.81964111328125,-0.334197998046875,0.1312103271484375
1761914657846415600,3.11941552734375,-0.8136444091796875,-0.35540771484375,0.10345458984375
1761914657856471600,3.129471435546875,-0.8177490234375,-0.38330078125,0.08209228515625
1761914657866527500,3.139527587890625,-0.8265380859375,-0.4089508056640625,0.068634033203125
1761914657876582700,3.149582763671875,-0.83697509765625,-0.4290924072265625,0.069122314453125
1761914657886638600,3.159638671875,-0.84588623046875,-0.4482269287109375,0.08367919921875
1761914657896694800,3.16969482421875,-0.854400634765625,-0.4586181640625,0.10540771484375
1761914657906749700,3.179749755859375,-0.86273193359375,-0.458465576171875,0.125823974609375
1761914657916805600,3.1898056640625,-0.8718414306640625,-0.454010009765625,0.1380157470703125
1761914657926861600,3.199861572265625,-0.8865509033203125,-0.428131103515625,0.150360107421875
1761914657936916500,3.20991650390625,-0.9154510498046875,-0.41436767578125,0.1337127685546875
1761914657946972700,3.21997265625,-0.951751708984375,-0.4110870361328125,0.1131591796875
1761914657957028600,3.230028564453125,-0.99468994140625,-0.40447998046875,0.0972137451171875
1761914657967083800,3.240083740234375,-1.045745849609375,-0.39105224609375,0.0895233154296875
1761914657977139700,3.2501396484375,-1.09393310546875,-0.37017822265625,0.0804290771484375
1761914657987195600,3.260195556640625,-1.138580322265625,-0.3465728759765625,0.0662078857421875
1761914657997250600,3.27025048828125,-1.178863525390625,-0.3233489990234375,0.0574951171875
1761914658007306500,3.280306396484375,-1.213348388671875,-0.305145263671875,0.0501556396484375
1761914658017362700,3.29036279296875,-1.2389678955078125,-0.28460693359375,0.0406494140625
1761914658027417600,3.30041748046875,-1.25152587890625,-0.2601165771484375,0.030181884765625
1761914658037473800,3.310473876953125,-1.2477569580078125,-0.239990234375,0.0191497802734375
1761914658047529700,3.32052978515625,-1.235260009765625,-0.2296905517578125,0.001312255859375
1761914658057584600,3.330584716796875,-1.203094482421875,-0.2439117431640625,-0.017425537109375
1761914658067641000,3.34064111328125,-1.1463623046875,-0.281097412109375,-0.0371856689453125
1761914658077697000,3.350697021484375,-1.095123291015625,-0.312957763671875,-0.0450897216796875
1761914658087752200,3.360752197265625,-1.04290771484375,-0.338134765625,-0.0521697998046875
1761914658097808000,3.370807861328125,-1.0185394287109375,-0.366607666015625,-0.05126953125
1761914658107863800,3.38086376953125,-1.0244293212890625,-0.4011993408203125,-0.0402374267578125
1761914658117919000,3.3909189453125,-1.03631591796875,-0.4293365478515625,-0.0238189697265625
1761914658127975000,3.400974853515625,-1.04461669921875,-0.4319915771484375,-0.004241943359375
1761914658138031000,3.411031005859375,-1.044097900390625,-0.4144287109375,0.0049591064453125
1761914658148086000,3.4210859375,-1.0367279052734375,-0.3874359130859375,0.0152435302734375
1761914658158142200,3.43114208984375,-1.03131103515625,-0.3597564697265625,0.0220947265625
1761914658168198100,3.4411982421875,-1.024627685546875,-0.33160400390625,0.0216522216796875
1761914658178253000,3.451253173828125,-1.0136871337890625,-0.2977142333984375,0.0159759521484375
1761914658188309000,3.46130908203125,-1.0009002685546875,-0.2635345458984375,0.0094451904296875
1761914658198365000,3.471364990234375,-0.988006591796875,-0.231475830078125,0.0017852783203125
1761914658208420000,3.481420166015625,-0.9684600830078125,-0.2075347900390625,-0.007476806640625
1761914658218476000,3.49147607421875,-0.942962646484375,-0.1898956298828125,-0.021514892578125
1761914658228532000,3.501531982421875,-0.909210205078125,-0.184906005859375,-0.037689208984375
1761914658238587000,3.5115869140625,-0.873321533203125,-0.1838226318359375,-0.05413818359375
1761914658248642800,3.521642822265625,-0.839508056640625,-0.1954803466796875,-0.073455810546875
1761914658258699000,3.531698974609375,-0.80560302734375,-0.2242279052734375,-0.0896148681640625
1761914658268754000,3.54175390625,-0.774078369140625,-0.26446533203125,-0.1016387939453125
1761914658278810000,3.55181005859375,-0.7485504150390625,-0.301177978515625,-0.1022491455078125
1761914658288866000,3.561865966796875,-0.7393035888671875,-0.337677001953125,-0.1040191650390625
1761914658298921200,3.571921142578125,-0.744384765625,-0.3746490478515625,-0.103179931640625
1761914658308977000,3.581976806640625,-0.7555084228515625,-0.403839111328125,-0.09521484375
1761914658319032800,3.59203271484375,-0.778167724609375,-0.4226531982421875,-0.0797119140625
1761914658329088000,3.602087890625,-0.807373046875,-0.42913818359375,-0.05426025390625
1761914658339144000,3.61214404296875,-0.8296966552734375,-0.4291229248046875,-0.027099609375
1761914658349200100,3.6222001953125,-0.8454132080078125,-0.423248291015625,-0.0064849853515625
1761914658359255000,3.632255126953125,-0.84906005859375,-0.4036407470703125,0.003997802734375
1761914658369311000,3.64231103515625,-0.8456878662109375,-0.3744964599609375,0.0139923095703125
1761914658379367000,3.652366943359375,-0.839508056640625,-0.3576202392578125,0.0269775390625
1761914658389421800,3.662421875,-0.8363037109375,-0.3527374267578125,0.040008544921875
1761914658399478000,3.67247802734375,-0.8406829833984375,-0.3603515625,0.0540313720703125
1761914658409534000,3.682533935546875,-0.8394927978515625,-0.3730010986328125,0.0678863525390625
1761914658419589000,3.692589111328125,-0.8360748291015625,-0.3811492919921875,0.082244873046875
1761914658429645000,3.70264501953125,-0.8284454345703125,-0.3962554931640625,0.091949462890625
1761914658439701000,3.712700927734375,-0.8270721435546875,-0.410736083984375,0.098785400390625
1761914658449756000,3.722755859375,-0.8344573974609375,-0.4263458251953125,0.105499267578125
1761914658459811800,3.732811767578125,-0.842864990234375,-0.4424896240234375,0.107086181640625
1761914658469868000,3.742867919921875,-0.8564453125,-0.45257568359375,0.1050262451171875
1761914658479923000,3.7529228515625,-0.869476318359375,-0.453521728515625,0.098297119140625
1761914658489979100,3.762979248046875,-0.869293212890625,-0.449188232421875,0.0845947265625
1761914658500035000,3.77303515625,-0.863677978515625,-0.4438323974609375,0.067657470703125
1761914658510090000,3.783090087890625,-0.8515625,-0.4390411376953125,0.0482330322265625
1761914658520146000,3.79314599609375,-0.8451385498046875,-0.4404449462890625,0.0287322998046875
1761914658530201900,3.803201904296875,-0.8387603759765625,-0.43804931640625,0.0257415771484375
1761914658540257000,3.813257080078125,-0.8404541015625,-0.456146240234375,0.0148162841796875
1761914658550313000,3.82331298828125,-0.8480072021484375,-0.468109130859375,0.0151214599609375
1761914658560369000,3.833368896484375,-0.848663330078125,-0.4809722900390625,0.020416259765625
1761914658570424000,3.843424072265625,-0.8432464599609375,-0.485809326171875,0.02764892578125
1761914658580480000,3.85347998046875,-0.83538818359375,-0.482757568359375,0.033050537109375
1761914658590536000,3.863535888671875,-0.8289794921875,-0.4783172607421875,0.0420989990234375
1761914658600590800,3.8735908203125,-0.819000244140625,-0.472015380859375,0.04949951171875
1761914658610647000,3.88364697265625,-0.8170318603515625,-0.463897705078125,0.0545806884765625
1761914658620703000,3.893702880859375,-0.8169097900390625,-0.45867919921875,0.0546417236328125
1761914658630758100,3.903758056640625,-0.81298828125,-0.4501495361328125,0.0504608154296875
1761914658640814000,3.91381396484375,-0.815948486328125,-0.44140625,0.0428314208984375
1761914658650870000,3.9238701171875,-0.8170928955078125,-0.4425506591796875,0.035552978515625
1761914658660925000,3.933925048828125,-0.8178253173828125,-0.4488525390625,0.0311737060546875
1761914658670980900,3.94398095703125,-0.8276824951171875,-0.453369140625,0.0283050537109375
1761914658681034000,3.954033935546875,-0.8487548828125,-0.45660400390625,0.02880859375
1761914658691090200,3.964090087890625,-0.873077392578125,-0.4570770263671875,0.0335693359375
1761914658701144800,3.974144775390625,-0.896575927734375,-0.4517822265625,0.0388641357421875
1761914658711201000,3.984200927734375,-0.919891357421875,-0.4417724609375,0.0386810302734375
1761914658721257000,3.994257080078125,-0.94195556640625,-0.42718505859375,0.030303955078125
1761914658731312000,4.00431201171875,-0.965972900390625,-0.4192962646484375,0.02001953125
1761914658741368000,4.0143681640625,-0.98187255859375,-0.412811279296875,0.01007080078125
1761914658751424000,4.024424072265625,-0.9926910400390625,-0.4088592529296875,0.0025482177734375
1761914658761479000,4.03447900390625,-0.99652099609375,-0.4089202880859375,-0.0025634765625
1761914658771534800,4.044534912109375,-1.0014190673828125,-0.4105072021484375,-0.0115509033203125
1761914658781591000,4.054591064453125,-1.009246826171875,-0.4179229736328125,-0.02386474609375
1761914658791646000,4.06464599609375,-1.0119781494140625,-0.4263916015625,-0.040985107421875
1761914658801702100,4.0747021484375,-1.014617919921875,-0.42901611328125,-0.051055908203125
1761914658811758000,4.084758056640625,-1.017364501953125,-0.4265289306640625,-0.059234619140625
1761914658821813000,4.09481298828125,-1.024871826171875,-0.422088623046875,-0.063690185546875
1761914658831869000,4.104868896484375,-1.03289794921875,-0.417510986328125,-0.065643310546875
1761914658841924900,4.1149248046875,-1.03717041015625,-0.417999267578125,-0.069091796875
1761914658851980000,4.12497998046875,-1.0399017333984375,-0.410797119140625,-0.0728759765625
1761914658862036000,4.135035888671875,-1.04248046875,-0.4046478271484375,-0.0773773193359375
1761914658872092000,4.145091796875,-1.0399932861328125,-0.4093475341796875,-0.0986785888671875
1761914658882147000,4.15514697265625,-1.027984619140625,-0.4323272705078125,-0.1212158203125
1761914658892203000,4.165203125,-1.012359619140625,-0.4580535888671875,-0.1296844482421875
1761914658902259000,4.175259033203125,-1.00640869140625,-0.4710235595703125,-0.121246337890625
1761914658912313900,4.18531396484375,-1.0075531005859375,-0.4903717041015625,-0.1055755615234375
1761914658922370000,4.1953701171875,-1.010223388671875,-0.5251007080078125,-0.0877838134765625
1761914658932426000,4.205426025390625,-1.014556884765625,-0.55609130859375,-0.0590057373046875
1761914658942481200,4.215481201171875,-1.030029296875,-0.56512451171875,-0.0347900390625
1761914658952537000,4.225537109375,-1.0493927001953125,-0.5465850830078125,-0.01531982421875
1761914658962593000,4.235593017578125,-1.0652313232421875,-0.506011962890625,0.009002685546875
1761914658972648000,4.24564794921875,-1.0810089111328125,-0.449127197265625,0.0369720458984375
1761914658982703900,4.255703857421875,-1.105010986328125,-0.3959197998046875,0.065185546875
1761914658992760000,4.265760009765625,-1.11224365234375,-0.3240203857421875,0.082305908203125
1761914659002815000,4.27581494140625,-1.099517822265625,-0.252655029296875,0.1034393310546875
1761914659012871000,4.285870849609375,-1.0545196533203125,-0.1982574462890625,0.11981201171875
1761914659022927000,4.295927001953125,-0.98089599609375,-0.1782989501953125,0.111541748046875
1761914659032981800,4.305981689453125,-0.896575927734375,-0.18109130859375,0.101898193359375
1761914659043038000,4.316037841796875,-0.822998046875,-0.206390380859375,0.0939178466796875
1761914659053094000,4.326093994140625,-0.7746124267578125,-0.24346923828125,0.09228515625
1761914659063149000,4.336149169921875,-0.754791259765625,-0.2809600830078125,0.100555419921875
1761914659073203700,4.34620361328125,-0.755950927734375,-0.3226318359375,0.118865966796875
1761914659083260000,4.356260009765625,-0.77410888671875,-0.3574676513671875,0.1482391357421875
1761914659093314800,4.366314697265625,-0.7955322265625,-0.3926239013671875,0.1626129150390625
1761914659103371000,4.37637109375,-0.8052520751953125,-0.4247283935546875,0.175018310546875
1761914659113427000,4.386427001953125,-0.823638916015625,-0.426788330078125,0.202911376953125
1761914659123481900,4.39648193359375,-0.8384857177734375,-0.4190673828125,0.229339599609375
1761914659133537800,4.406537841796875,-0.851409912109375,-0.410125732421875,0.243377685546875
1761914659143593700,4.41659375,-0.86181640625,-0.3875579833984375,0.2407379150390625
1761914659153649000,4.42664892578125,-0.8683013916015625,-0.3567962646484375,0.228271484375
1761914659163704800,4.436704833984375,-0.866119384765625,-0.3283843994140625,0.2150115966796875
1761914659173760800,4.4467607421875,-0.8538970947265625,-0.30279541015625,0.1963653564453125
1761914659183815700,4.456815673828125,-0.8410491943359375,-0.279388427734375,0.173309326171875
1761914659193871600,4.46687158203125,-0.844085693359375,-0.258636474609375,0.1425628662109375
1761914659203927800,4.476927734375,-0.84539794921875,-0.2644805908203125,0.1139984130859375
1761914659213982700,4.486982666015625,-0.85345458984375,-0.280548095703125,0.0973968505859375
1761914659224039000,4.497038818359375,-0.8467864990234375,-0.292510986328125,0.09100341796875
1761914659234094800,4.5070947265625,-0.8367156982421875,-0.3128814697265625,0.0870819091796875
1761914659244150000,4.51714990234375,-0.823455810546875,-0.3442840576171875,0.08111572265625
1761914659254206000,4.5272060546875,-0.817596435546875,-0.3768157958984375,0.083740234375
1761914659264261600,4.53726171875,-0.8266448974609375,-0.39971923828125,0.0901641845703125
1761914659274316800,4.54731689453125,-0.84307861328125,-0.418243408203125,0.0934600830078125
1761914659284372700,4.557372802734375,-0.8480377197265625,-0.435211181640625,0.088165283203125
1761914659294429000,4.567428955078125,-0.844818115234375,-0.4398956298828125,0.07720947265625
1761914659304483800,4.57748388671875,-0.8482513427734375,-0.4271087646484375,0.066864013671875
1761914659314540000,4.5875400390625,-0.856903076171875,-0.409271240234375,0.051788330078125
1761914659324596000,4.597595947265625,-0.8668212890625,-0.393829345703125,0.039886474609375
1761914659334651600,4.607651611328125,-0.8746490478515625,-0.384796142578125,0.0309906005859375
1761914659344706800,4.617706787109375,-0.8800048828125,-0.3824920654296875,0.018280029296875
1761914659354762800,4.6277626953125,-0.881134033203125,-0.3863983154296875,0.0039215087890625
1761914659364818700,4.637818603515625,-0.8793487548828125,-0.3947906494140625,-0.0051116943359375
1761914659374873900,4.647873779296875,-0.8767547607421875,-0.4051971435546875,-0.0141448974609375
1761914659384929800,4.6579296875,-0.8761138916015625,-0.414642333984375,-0.02020263671875
1761914659394986000,4.667986083984375,-0.882171630859375,-0.414031982421875,-0.022369384765625
1761914659405040600,4.67804052734375,-0.8787841796875,-0.434844970703125,-0.0276031494140625
1761914659415096800,4.688096923828125,-0.874267578125,-0.4418792724609375,-0.02301025390625
1761914659425152800,4.69815283203125,-0.87054443359375,-0.4441680908203125,-0.0180206298828125
1761914659435208000,4.7082080078125,-0.8701324462890625,-0.444976806640625,-0.0128936767578125
1761914659445264000,4.718263916015625,-0.8755035400390625,-0.4449310302734375,-0.0093536376953125
1761914659455319800,4.72831982421875,-0.88800048828125,-0.4446258544921875,-0.0050048828125
1761914659465374700,4.738374755859375,-0.90606689453125,-0.4470367431640625,0.00830078125
1761914659475430700,4.7484306640625,-0.9334259033203125,-0.4528045654296875,0.022491455078125
1761914659485486800,4.75848681640625,-0.9528045654296875,-0.463775634765625,0.03582763671875
1761914659495541800,4.768541748046875,-0.955047607421875,-0.469940185546875,0.0456390380859375
1761914659505598000,4.778597900390625,-0.9448699951171875,-0.4690093994140625,0.048004150390625
1761914659515654000,4.78865380859375,-0.9404449462890625,-0.4684906005859375,0.0433807373046875
1761914659525708800,4.798708740234375,-0.9470367431640625,-0.4653472900390625,0.039825439453125
1761914659535765000,4.808764892578125,-0.960601806640625,-0.4621734619140625,0.0411224365234375
1761914659545820700,4.818820556640625,-0.967376708984375,-0.4547119140625,0.04400634765625
1761914659555875800,4.828875732421875,-0.9656982421875,-0.44256591796875,0.0460052490234375
1761914659565931800,4.838931884765625,-0.96160888671875,-0.4355316162109375,0.0474090576171875
1761914659575987700,4.84898779296875,-0.95904541015625,-0.4379730224609375,0.04998779296875
1761914659586043000,4.85904296875,-0.9497222900390625,-0.4432525634765625,0.0487823486328125
1761914659596098800,4.869098876953125,-0.9430694580078125,-0.4499969482421875,0.0419464111328125
1761914659606155000,4.879155029296875,-0.936920166015625,-0.4824981689453125,0.033233642578125
1761914659616209700,4.889209716796875,-0.9270172119140625,-0.5260772705078125,0.0399322509765625
1761914659626265900,4.899265869140625,-0.92840576171875,-0.5411834716796875,0.0562286376953125
1761914659636321800,4.90932177734375,-0.93994140625,-0.54937744140625,0.06158447265625
1761914659646377000,4.919376953125,-0.9563140869140625,-0.564697265625,0.0633544921875
1761914659656433000,4.929432861328125,-0.9724273681640625,-0.5885009765625,0.069732666015625
1761914659666488800,4.93948876953125,-0.9864501953125,-0.6079559326171875,0.074432373046875
1761914659676543700,4.949543701171875,-0.9953765869140625,-0.5983734130859375,0.072235107421875
1761914659686599700,4.959599609375,-0.9950408935546875,-0.5644989013671875,0.0681610107421875
1761914659696656000,4.96965576171875,-0.997039794921875,-0.5244293212890625,0.061492919921875
1761914659706710800,4.979710693359375,-1.0068206787109375,-0.4864044189453125,0.054107666015625
1761914659716766700,4.9897666015625,-1.00830078125,-0.449951171875,0.047088623046875
1761914659726823000,4.999822998046875,-0.9932098388671875,-0.4140625,0.0423431396484375
1761914659736878800,5.00987890625,-0.9709930419921875,-0.385223388671875,0.0388031005859375
1761914659746934000,5.01993408203125,-0.9400482177734375,-0.3682403564453125,0.0357818603515625
1761914659756989700,5.02998974609375,-0.9068603515625,-0.3599395751953125,0.034454345703125
1761914659767045600,5.040045654296875,-0.8765716552734375,-0.3548736572265625,0.0308990478515625
1761914659777100800,5.050100830078125,-0.8464813232421875,-0.3495635986328125,0.019073486328125
1761914659787156700,5.06015673828125,-0.815399169921875,-0.34344482421875,0.00323486328125
1761914659797213000,5.070212890625,-0.7842254638671875,-0.3471221923828125,-0.020843505859375
1761914659807267800,5.080267822265625,-0.747833251953125,-0.36871337890625,-0.043731689453125
1761914659817324000,5.090323974609375,-0.721038818359375,-0.4077301025390625,-0.0619049072265625
1761914659827380000,5.1003798828125,-0.711639404296875,-0.4504547119140625,-0.0687713623046875
1761914659837435000,5.110434814453125,-0.716064453125,-0.490570068359375,-0.0709381103515625
1761914659847490800,5.12049072265625,-0.723907470703125,-0.5311279296875,-0.073974609375
1761914659857546800,5.130546630859375,-0.744720458984375,-0.556854248046875,-0.0839080810546875
1761914659867602000,5.140601806640625,-0.78594970703125,-0.560455322265625,-0.101593017578125
1761914659877657900,5.150657958984375,-0.840484619140625,-0.545379638671875,-0.119232177734375
1761914659887713800,5.1607138671875,-0.890045166015625,-0.5086669921875,-0.134307861328125
1761914659897768700,5.170768798828125,-0.930755615234375,-0.4957733154296875,-0.1387939453125
1761914659907824600,5.18082470703125,-0.960418701171875,-0.4763641357421875,-0.142730712890625
1761914659917880800,5.190880859375,-0.9747161865234375,-0.4358978271484375,-0.1290435791015625
1761914659927935700,5.200935791015625,-0.9691009521484375,-0.4154052734375,-0.13055419921875
1761914659937992000,5.210991943359375,-0.9459228515625,-0.389556884765625,-0.1295166015625
1761914659948048000,5.2210478515625,-0.9144439697265625,-0.373504638671875,-0.1248779296875
1761914659958103000,5.23110302734375,-0.8875732421875,-0.36700439453125,-0.11328125
1761914659968158700,5.24115869140625,-0.8658294677734375,-0.3703155517578125,-0.0952911376953125
1761914659978214700,5.251214599609375,-0.8503570556640625,-0.3822784423828125,-0.0767974853515625
1761914659988269800,5.261269775390625,-0.8343353271484375,-0.4023590087890625,-0.0560455322265625
1761914659998325800,5.27132568359375,-0.8135528564453125,-0.426300048828125,-0.03253173828125
1761914660008382000,5.2813818359375,-0.7928466796875,-0.455230712890625,-0.0182952880859375
1761914660018436900,5.291436767578125,-0.7757720947265625,-0.4888153076171875,-0.010406494140625
1761914660028492800,5.301492919921875,-0.7681884765625,-0.5131378173828125,-0.0001220703125
1761914660038548700,5.311548828125,-0.7626800537109375,-0.52215576171875,0.0093536376953125
1761914660048603600,5.321603759765625,-0.7587738037109375,-0.520233154296875,0.0164642333984375
1761914660058659800,5.331659912109375,-0.75701904296875,-0.5122222900390625,0.022491455078125
1761914660068716800,5.341716796875,-0.7605743408203125,-0.5065460205078125,0.02117919921875
1761914660078771700,5.351771728515625,-0.76220703125,-0.50775146484375,0.016510009765625
1761914660088827600,5.36182763671875,-0.762359619140625,-0.511962890625,0.0174560546875
1761914660098883600,5.371883544921875,-0.763458251953125,-0.5157012939453125,0.0207672119140625
1761914660108938800,5.381938720703125,-0.7632904052734375,-0.5228424072265625,0.026885986328125
1761914660118994700,5.39199462890625,-0.7642059326171875,-0.531097412109375,0.03631591796875
1761914660129050600,5.402050537109375,-0.767242431640625,-0.5369720458984375,0.0438232421875
1761914660139105800,5.412105712890625,-0.767425537109375,-0.5391845703125,0.05133056640625
1761914660149161700,5.42216162109375,-0.7677154541015625,-0.5379180908203125,0.0553436279296875
1761914660159217700,5.4322177734375,-0.7686767578125,-0.53436279296875,0.057342529296875
1761914660169272600,5.4422724609375,-0.7670135498046875,-0.536376953125,0.059295654296875
1761914660179328800,5.452328857421875,-0.7770233154296875,-0.5451507568359375,0.0631256103515625
1761914660189384700,5.462384765625,-0.7950286865234375,-0.55560302734375,0.068023681640625
1761914660199440000,5.47243994140625,-0.812286376953125,-0.56243896484375,0.07293701171875
1761914660209495800,5.482495849609375,-0.824981689453125,-0.56390380859375,0.0715179443359375
1761914660219551700,5.4925517578125,-0.8374481201171875,-0.5631256103515625,0.06463623046875
1761914660229607700,5.502607666015625,-0.8510894775390625,-0.56427001953125,0.05621337890625
1761914660239662600,5.51266259765625,-0.8653564453125,-0.5678863525390625,0.056365966796875
1761914660249718800,5.52271875,-0.88055419921875,-0.5727081298828125,0.0555419921875
1761914660259774700,5.532774658203125,-0.898193359375,-0.571136474609375,0.0527496337890625
1761914660269829600,5.54282958984375,-0.91082763671875,-0.555999755859375,0.0513153076171875
1761914660279885800,5.5528857421875,-0.92352294921875,-0.540496826171875,0.0448760986328125
1761914660289941800,5.562941650390625,-0.924530029296875,-0.535003662109375,0.0345611572265625
1761914660299996700,5.57299658203125,-0.9239654541015625,-0.529083251953125,0.0271148681640625
1761914660310052600,5.583052490234375,-0.923736572265625,-0.534759521484375,0.0166168212890625
1761914660320108500,5.593108642578125,-0.9170074462890625,-0.56787109375,-0.0004730224609375
1761914660330163700,5.603163818359375,-0.9041748046875,-0.6104888916015625,-0.003082275390625
1761914660340219600,5.6132197265625,-0.8944091796875,-0.617340087890625,-0.00244140625
1761914660350275800,5.62327587890625,-0.8938446044921875,-0.60137939453125,-0.0055999755859375
1761914660360330500,5.63333056640625,-0.8976898193359375,-0.59027099609375,-0.0073394775390625
1761914660370386700,5.64338671875,-0.90496826171875,-0.5999755859375,-0.000640869140625
1761914660380442600,5.653442626953125,-0.911956787109375,-0.607879638671875,0.017242431640625
1761914660390497800,5.663497802734375,-0.9156494140625,-0.5919342041015625,0.034454345703125
1761914660400553700,5.6735537109375,-0.9178924560546875,-0.5636749267578125,0.04486083984375
1761914660410609700,5.683609619140625,-0.918548583984375,-0.534332275390625,0.0499267578125
1761914660420664800,5.693664794921875,-0.922515869140625,-0.5131683349609375,0.0526275634765625
1761914660430720800,5.703720703125,-0.9221954345703125,-0.5078277587890625,0.052093505859375
1761914660440776700,5.713776611328125,-0.9125823974609375,-0.490814208984375,0.0563507080078125
1761914660450831600,5.72383154296875,-0.8968963623046875,-0.4625701904296875,0.0544891357421875
1761914660460887600,5.733887451171875,-0.8883514404296875,-0.426025390625,0.0483551025390625
1761914660470943700,5.74394384765625,-0.87860107421875,-0.3906097412109375,0.0394287109375
1761914660480998700,5.75399853515625,-0.8727569580078125,-0.3702392578125,0.0269012451171875
1761914660491054800,5.764054931640625,-0.865478515625,-0.3555145263671875,0.0173797607421875
1761914660501110800,5.77411083984375,-0.852081298828125,-0.3515777587890625,0.012115478515625
1761914660511165700,5.784165771484375,-0.82940673828125,-0.359619140625,0.0102691650390625
1761914660521221600,5.7942216796875,-0.8050994873046875,-0.3824310302734375,0.0156707763671875
1761914660531277600,5.804277587890625,-0.795318603515625,-0.415496826171875,0.026397705078125
1761914660541332700,5.814332763671875,-0.784149169921875,-0.4474945068359375,0.0432891845703125
1761914660551388700,5.824388671875,-0.767425537109375,-0.4727783203125,0.0610198974609375
1761914660561444900,5.83444482421875,-0.7525634765625,-0.4938507080078125,0.0751953125
1761914660571499500,5.84449951171875,-0.7393341064453125,-0.512481689453125,0.0874481201171875
1761914660581555700,5.8545556640625,-0.72784423828125,-0.5242156982421875,0.0970611572265625
1761914660591611600,5.864611572265625,-0.7298431396484375,-0.5177459716796875,0.1033782958984375
1761914660601666800,5.874666748046875,-0.75244140625,-0.5016021728515625,0.1069793701171875
1761914660611722800,5.88472265625,-0.779937744140625,-0.482208251953125,0.109039306640625
1761914660621778700,5.89477880859375,-0.803497314453125,-0.4632415771484375,0.1048736572265625
1761914660631833900,5.904833740234375,-0.823974609375,-0.447662353515625,0.09722900390625
1761914660641889800,5.914889892578125,-0.8346405029296875,-0.4389801025390625,0.0893402099609375
1761914660651945500,5.924945556640625,-0.838958740234375,-0.4311370849609375,0.0760040283203125
1761914660662000600,5.935000732421875,-0.8475189208984375,-0.4139862060546875,0.0614166259765625
1761914660672056600,5.945056640625,-0.863250732421875,-0.387115478515625,0.04925537109375
1761914660682112800,5.95511279296875,-0.8878326416015625,-0.3599853515625,0.0399017333984375
1761914660692167700,5.965167724609375,-0.9096832275390625,-0.347686767578125,0.03173828125
1761914660702224000,5.975223876953125,-0.9202423095703125,-0.3497772216796875,0.0195159912109375
1761914660712279800,5.98527978515625,-0.914459228515625,-0.3595428466796875,0.0086822509765625
1761914660722334700,5.995334716796875,-0.9029998779296875,-0.3684844970703125,0.005279541015625
1761914660732390700,6.005390625,-0.8843994140625,-0.3886566162109375,-0.0047760009765625
1761914660742446600,6.015446533203125,-0.8688201904296875,-0.4111175537109375,-0.00299072265625
1761914660752501800,6.025501708984375,-0.8707733154296875,-0.4337158203125,0.000213623046875
1761914660762557700,6.0355576171875,-0.872314453125,-0.4527130126953125,0.010986328125
1761914660772614000,6.04561376953125,-0.8729095458984375,-0.4647216796875,0.0248870849609375
1761914660782668500,6.05566845703125,-0.8743133544921875,-0.4716796875,0.0363311767578125
1761914660792724700,6.065724853515625,-0.8774566650390625,-0.4757537841796875,0.039794921875
1761914660802780700,6.07578076171875,-0.8776397705078125,-0.4803009033203125,0.039337158203125
1761914660812835600,6.085835693359375,-0.8800048828125,-0.4808502197265625,0.035186767578125
1761914660822891800,6.095891845703125,-0.8890380859375,-0.480560302734375,0.0297393798828125
1761914660832947700,6.10594775390625,-0.8925323486328125,-0.4815521240234375,0.0293426513671875
1761914660843003000,6.1160029296875,-0.8935394287109375,-0.4825439453125,0.02667236328125
1761914660853058800,6.126058837890625,-0.8876953125,-0.468841552734375,0.01983642578125
1761914660863114500,6.136114501953125,-0.8817291259765625,-0.4493255615234375,0.0127105712890625
1761914660873169700,6.146169677734375,-0.88287353515625,-0.4362640380859375,0.0023193359375
1761914660883225600,6.1562255859375,-0.8907928466796875,-0.4258880615234375,-0.008697509765625
1761914660893281800,6.16628173828125,-0.8987579345703125,-0.4177703857421875,-0.0146636962890625
1761914660903336700,6.176336669921875,-0.909881591796875,-0.40924072265625,-0.02130126953125
1761914660913393000,6.186392822265625,-0.92156982421875,-0.3974761962890625,-0.030364990234375
1761914660923448800,6.19644873046875,-0.93304443359375,-0.3894500732421875,-0.04095458984375
1761914660933504500,6.20650439453125,-0.9436798095703125,-0.391357421875,-0.04815673828125
1761914660943559700,6.2165595703125,-0.951904296875,-0.39337158203125,-0.0537261962890625
1761914660953615600,6.22661572265625,-0.9619140625,-0.3965606689453125,-0.0554351806640625
1761914660963671800,6.236671875,-0.9715118408203125,-0.4046630859375,-0.0530548095703125
1761914660973726700,6.246726806640625,-0.979248046875,-0.4131622314453125,-0.044921875
1761914660983782700,6.25678271484375,-0.9854583740234375,-0.4195556640625,-0.0301055908203125
1761914660993838800,6.2668388671875,-0.9888153076171875,-0.4201812744140625,-0.0123138427734375
1761914661003893500,6.2768935546875,-0.9929351806640625,-0.4200439453125,0.0062255859375
1761914661013949700,6.28694970703125,-0.995208740234375,-0.42303466796875,0.0328216552734375
1761914661024005600,6.297005615234375,-0.9966888427734375,-0.4273834228515625,0.058563232421875
1761914661034060800,6.307060791015625,-0.9917449951171875,-0.4321746826171875,0.0849151611328125
1761914661044116700,6.31711669921875,-0.9818572998046875,-0.43585205078125,0.106903076171875
1761914661054172700,6.327172607421875,-0.974822998046875,-0.453582763671875,0.127288818359375
1761914661064227600,6.3372275390625,-0.962493896484375,-0.447723388671875,0.1403045654296875
1761914661074283000,6.347282958984375,-0.9593353271484375,-0.45794677734375,0.1476593017578125
1761914661084339000,6.3573388671875,-0.9555816650390625,-0.4750213623046875,0.1501007080078125
1761914661094393900,6.367393798828125,-0.9596710205078125,-0.4916229248046875,0.1568756103515625
1761914661104450000,6.377449951171875,-0.96453857421875,-0.5010528564453125,0.16485595703125
1761914661114506000,6.387506103515625,-0.972076416015625,-0.5062713623046875,0.172027587890625
1761914661124561200,6.39756103515625,-0.97509765625,-0.5221710205078125,0.1721954345703125
1761914661134617000,6.4076171875,-0.9688262939453125,-0.544342041015625,0.1627044677734375
1761914661144673000,6.417673095703125,-0.95733642578125,-0.5745697021484375,0.157257080078125
1761914661154728000,6.42772802734375,-0.94720458984375,-0.6021575927734375,0.15338134765625
1761914661164783900,6.437783935546875,-0.9532928466796875,-0.6190948486328125,0.1563262939453125
1761914661174840000,6.447840087890625,-0.978607177734375,-0.6171417236328125,0.160614013671875
1761914661184895000,6.45789501953125,-1.007080078125,-0.5870208740234375,0.1660003662109375
1761914661194951200,6.467951171875,-1.02825927734375,-0.5363311767578125,0.169769287109375
1761914661205007000,6.478007080078125,-1.0343017578125,-0.478271484375,0.166595458984375
1761914661215062000,6.48806201171875,-1.0318603515625,-0.4199981689453125,0.1590728759765625
1761914661225118000,6.498117919921875,-1.0263519287109375,-0.36456298828125,0.1544036865234375
1761914661235174000,6.508173828125,-1.0156402587890625,-0.3153533935546875,0.14520263671875
1761914661245229000,6.51822900390625,-1.0004425048828125,-0.267669677734375,0.1350250244140625
1761914661255285000,6.528284912109375,-0.973846435546875,-0.2477874755859375,0.113922119140625
1761914661265341000,6.5383408203125,-0.9426422119140625,-0.2422943115234375,0.0843963623046875
1761914661275396000,6.54839599609375,-0.90631103515625,-0.242431640625,0.054931640625
1761914661285451800,6.55845166015625,-0.8714752197265625,-0.2492523193359375,0.024322509765625
1761914661295508000,6.568508056640625,-0.839080810546875,-0.2639617919921875,-0.000335693359375
1761914661305563000,6.57856298828125,-0.8134765625,-0.2744903564453125,-0.019073486328125
1761914661315619000,6.588619140625,-0.7888031005859375,-0.282440185546875,-0.0373382568359375
1761914661325675000,6.598675048828125,-0.7678985595703125,-0.294281005859375,-0.0525970458984375
1761914661335730200,6.608730224609375,-0.7591705322265625,-0.3138427734375,-0.066162109375
1761914661345786000,6.6187861328125,-0.76556396484375,-0.3372650146484375,-0.07843017578125
1761914661355841800,6.628841796875,-0.774322509765625,-0.354248046875,-0.0881805419921875
1761914661365897000,6.63889697265625,-0.7823333740234375,-0.3720245361328125,-0.0993194580078125
1761914661375953000,6.648952880859375,-0.782257080078125,-0.3910980224609375,-0.1174163818359375
1761914661386009000,6.659009033203125,-0.7774200439453125,-0.4048309326171875,-0.1266937255859375
1761914661396064000,6.66906396484375,-0.78155517578125,-0.41229248046875,-0.13031005859375
1761914661406120000,6.679119873046875,-0.7912445068359375,-0.419403076171875,-0.129913330078125
1761914661416176000,6.689176025390625,-0.8022918701171875,-0.4217681884765625,-0.12835693359375
1761914661426232000,6.699232177734375,-0.8170013427734375,-0.418487548828125,-0.134796142578125
1761914661436287000,6.709286865234375,-0.8347930908203125,-0.4068756103515625,-0.1373443603515625
1761914661446343000,6.719343017578125,-0.849090576171875,-0.3875274658203125,-0.1284332275390625
1761914661456398800,6.72939892578125,-0.856475830078125,-0.39111328125,-0.123077392578125
1761914661466454000,6.7394541015625,-0.8606414794921875,-0.388397216796875,-0.1077880859375
1761914661476510000,6.749510009765625,-0.860870361328125,-0.406585693359375,-0.090789794921875
1761914661486566100,6.759566162109375,-0.862518310546875,-0.4344940185546875,-0.072906494140625
1761914661496620800,6.769620849609375,-0.862640380859375,-0.451416015625,-0.0561370849609375
1761914661506677000,6.779677001953125,-0.8610382080078125,-0.4534149169921875,-0.0440673828125
1761914661516733000,6.78973291015625,-0.852935791015625,-0.456695556640625,-0.0334930419921875
1761914661526788000,6.7997880859375,-0.8461761474609375,-0.4660797119140625,-0.0222930908203125
1761914661536844000,6.809843994140625,-0.845184326171875,-0.475799560546875,-0.01080322265625
1761914661546900000,6.81989990234375,-0.8560028076171875,-0.486846923828125,-0.0002593994140625
1761914661556955100,6.829955078125,-0.86444091796875,-0.5021820068359375,0.00897216796875
1761914661567010800,6.8400107421875,-0.867584228515625,-0.50787353515625,0.0148773193359375
1761914661577067000,6.85006689453125,-0.8686981201171875,-0.5050048828125,0.0168914794921875
1761914661587122000,6.860121826171875,-0.867889404296875,-0.4987640380859375,0.01611328125
1761914661597177900,6.870177734375,-0.870086669921875,-0.4902496337890625,0.020111083984375
1761914661607234000,6.880234130859375,-0.8753204345703125,-0.4803314208984375,0.0274505615234375
1761914661617289000,6.8902890625,-0.8780670166015625,-0.473236083984375,0.031036376953125
1761914661627345200,6.90034521484375,-0.8811798095703125,-0.468536376953125,0.0335693359375
1761914661637401000,6.910401123046875,-0.8840789794921875,-0.4647674560546875,0.038330078125
1761914661647456000,6.9204560546875,-0.87890625,-0.464111328125,0.0425262451171875
1761914661657512000,6.930511962890625,-0.8724212646484375,-0.4646759033203125,0.047576904296875
1761914661667567900,6.94056787109375,-0.8657989501953125,-0.46258544921875,0.0514678955078125
1761914661677623000,6.950623046875,-0.8665771484375,-0.459716796875,0.0559234619140625
1761914661687679000,6.960678955078125,-0.8702850341796875,-0.46246337890625,0.0614166259765625
1761914661697735200,6.970735107421875,-0.8733367919921875,-0.4641876220703125,0.067596435546875
1761914661707789800,6.980789794921875,-0.8744659423828125,-0.461700439453125,0.070159912109375
1761914661717846000,6.990845947265625,-0.8713836669921875,-0.4630889892578125,0.06976318359375
1761914661727902000,7.00090185546875,-0.87109375,-0.46380615234375,0.067535400390625
1761914661737957000,7.01095703125,-0.876556396484375,-0.4598236083984375,0.064483642578125
1761914661748013000,7.021012939453125,-0.8762664794921875,-0.4561767578125,0.0534210205078125
1761914661758069000,7.031069091796875,-0.8731231689453125,-0.4563140869140625,0.037139892578125
1761914661768125200,7.041125244140625,-0.870697021484375,-0.46051025390625,0.0208892822265625
1761914661778179800,7.051179931640625,-0.8642425537109375,-0.4638519287109375,0.010040283203125
1761914661788235800,7.06123583984375,-0.8646392822265625,-0.457794189453125,0.0054779052734375
1761914661798292000,7.0712919921875,-0.8762969970703125,-0.4540252685546875,0.0022430419921875
1761914661808347000,7.081346923828125,-0.8836669921875,-0.4524688720703125,-0.0047149658203125
1761914661818403000,7.091403076171875,-0.8875885009765625,-0.4454345703125,-0.0215911865234375
1761914661828459000,7.101458984375,-0.893585205078125,-0.43719482421875,-0.0374298095703125
1761914661838514200,7.11151416015625,-0.9036102294921875,-0.4374542236328125,-0.049407958984375
1761914661848570000,7.121570068359375,-0.9156494140625,-0.438568115234375,-0.057281494140625
1761914661858625800,7.131625732421875,-0.9280242919921875,-0.4362335205078125,-0.058746337890625
1761914661868681000,7.141680908203125,-0.9378662109375,-0.4315948486328125,-0.0615234375
1761914661878737000,7.15173681640625,-0.9509735107421875,-0.42510986328125,-0.0677032470703125
1761914661888793000,7.16179296875,-0.9655609130859375,-0.4154815673828125,-0.075164794921875
1761914661898848000,7.171847900390625,-0.982757568359375,-0.403839111328125,-0.0831146240234375
1761914661908904200,7.181904296875,-0.993560791015625,-0.406005859375,-0.0944976806640625
1761914661918960000,7.191960205078125,-0.9908294677734375,-0.423004150390625,-0.1056365966796875
1761914661929015000,7.20201513671875,-0.9811553955078125,-0.4431915283203125,-0.110595703125
1761914661939071000,7.212071044921875,-0.9759368896484375,-0.451080322265625,-0.1075439453125
1761914661949127000,7.222126953125,-0.97637939453125,-0.458831787109375,-0.1032562255859375
1761914661959182000,7.23218212890625,-0.97894287109375,-0.472747802734375,-0.10223388671875
1761914661969238000,7.242238037109375,-0.979217529296875,-0.485015869140625,-0.10321044921875
1761914661979294000,7.2522939453125,-0.9774017333984375,-0.4796295166015625,-0.09796142578125
1761914661989350100,7.26235009765625,-0.979095458984375,-0.4541473388671875,-0.0920257568359375
1761914661999404800,7.27240478515625,-0.9738616943359375,-0.43194580078125,-0.089263916015625
1761914662009461000,7.2824609375,-0.966827392578125,-0.4171295166015625,-0.0860748291015625
1761914662019517000,7.292516845703125,-0.9559326171875,-0.40484619140625,-0.0809478759765625
1761914662029572000,7.302572021484375,-0.944122314453125,-0.3882598876953125,-0.07763671875
1761914662039628000,7.3126279296875,-0.93438720703125,-0.369598388671875,-0.0754852294921875
1761914662049684000,7.32268408203125,-0.9206085205078125,-0.3528594970703125,-0.0767822265625
1761914662059739000,7.33273876953125,-0.909698486328125,-0.343994140625,-0.076416015625
1761914662069798700,7.342798583984375,-0.90008544921875,-0.3406982421875,-0.0746917724609375
1761914662079854800,7.352854736328125,-0.8929595947265625,-0.34130859375,-0.0747833251953125
1761914662089909800,7.36290966796875,-0.89111328125,-0.3388671875,-0.0693206787109375
1761914662099965700,7.372965576171875,-0.8846588134765625,-0.3474273681640625,-0.0672760009765625
1761914662110022000,7.38302197265625,-0.8764801025390625,-0.3682708740234375,-0.05517578125
1761914662120076500,7.39307666015625,-0.873199462890625,-0.3803863525390625,-0.038177490234375
1761914662130132700,7.4031328125,-0.863800048828125,-0.3935546875,-0.0242462158203125
1761914662140188700,7.413188720703125,-0.848876953125,-0.40240478515625,-0.011505126953125
1761914662150243800,7.423243896484375,-0.83648681640625,-0.4033355712890625,0.00335693359375
1761914662160299800,7.4332998046875,-0.8324127197265625,-0.4006500244140625,0.0207977294921875
1761914662170355700,7.443355712890625,-0.834442138671875,-0.4008026123046875,0.0382843017578125
1761914662180412000,7.453411865234375,-0.83935546875,-0.402618408203125,0.0537872314453125
1761914662190466600,7.463466552734375,-0.8465728759765625,-0.3999786376953125,0.066497802734375
1761914662200522800,7.473522705078125,-0.8506622314453125,-0.39886474609375,0.0825042724609375
1761914662210578700,7.48357861328125,-0.853607177734375,-0.3978118896484375,0.09661865234375
1761914662220633900,7.4936337890625,-0.8504180908203125,-0.4010467529296875,0.1081085205078125
1761914662230689800,7.503689697265625,-0.843658447265625,-0.4077301025390625,0.12158203125
1761914662240745700,7.513745849609375,-0.839691162109375,-0.4117584228515625,0.1363677978515625
1761914662250801000,7.52380078125,-0.84515380859375,-0.4136962890625,0.1468353271484375
1761914662260856600,7.533856689453125,-0.8521881103515625,-0.410400390625,0.154327392578125
1761914662270912800,7.543912841796875,-0.8666229248046875,-0.404937744140625,0.1612396240234375
1761914662280967700,7.5539677734375,-0.880645751953125,-0.40252685546875,0.165924072265625
1761914662291023600,7.564023681640625,-0.8927764892578125,-0.3984222412109375,0.1685333251953125
1761914662301079800,7.574079833984375,-0.9041748046875,-0.3883819580078125,0.164520263671875
1761914662311134700,7.584134765625,-0.9201507568359375,-0.3747406005859375,0.1572418212890625
1761914662321191000,7.59419091796875,-0.9370880126953125,-0.3542633056640625,0.146942138671875
1761914662331246800,7.604246826171875,-0.9554443359375,-0.3330230712890625,0.134735107421875
1761914662341302500,7.614302490234375,-0.975006103515625,-0.3171234130859375,0.1196746826171875
1761914662351357700,7.624357666015625,-0.988616943359375,-0.3099212646484375,0.1023712158203125
1761914662361413600,7.63441357421875,-0.9839019775390625,-0.314300537109375,0.085906982421875
1761914662371469800,7.6444697265625,-0.9610748291015625,-0.3249359130859375,0.0741729736328125
1761914662381524700,7.654524658203125,-0.9362640380859375,-0.3424224853515625,0.0657958984375
1761914662391581000,7.664580810546875,-0.921539306640625,-0.3628387451171875,0.057647705078125
1761914662401636900,7.674636962890625,-0.91290283203125,-0.39093017578125,0.057098388671875
1761914662411691800,7.68469189453125,-0.9060211181640625,-0.4194488525390625,0.06231689453125
1761914662421747700,7.694747802734375,-0.8992767333984375,-0.4432220458984375,0.072113037109375
1761914662431803600,7.7048037109375,-0.890625,-0.4591217041015625,0.085723876953125
1761914662441858800,7.71485888671875,-0.877105712890625,-0.471160888671875,0.09942626953125
1761914662451914800,7.724914794921875,-0.8672637939453125,-0.4849700927734375,0.116363525390625
1761914662461970700,7.734970703125,-0.8614654541015625,-0.4992218017578125,0.127655029296875
1761914662472027000,7.74502685546875,-0.86346435546875,-0.5013427734375,0.1303863525390625
1761914662482081500,7.75508154296875,-0.8736114501953125,-0.4969024658203125,0.1312255859375
1761914662492137700,7.7651376953125,-0.8848419189453125,-0.4846343994140625,0.1267852783203125
1761914662502193700,7.775193603515625,-0.8906707763671875,-0.4688873291015625,0.119964599609375
1761914662512248800,7.785248779296875,-0.889495849609375,-0.4551544189453125,0.113128662109375
1761914662522304800,7.7953046875,-0.889068603515625,-0.4447021484375,0.1076812744140625
1761914662532360700,7.805360595703125,-0.88671875,-0.4373626708984375,0.0980682373046875
1761914662542416000,7.815415771484375,-0.8873443603515625,-0.4272308349609375,0.0858154296875
1761914662552471600,7.825471435546875,-0.8887481689453125,-0.4157257080078125,0.0732269287109375
1761914662562527700,7.83552783203125,-0.8903656005859375,-0.405975341796875,0.0620269775390625
1761914662572582700,7.845582763671875,-0.894378662109375,-0.3956451416015625,0.0566864013671875
1761914662582638800,7.855638916015625,-0.8992919921875,-0.386505126953125,0.0568084716796875
1761914662592694800,7.86569482421875,-0.904052734375,-0.3794097900390625,0.059661865234375
1761914662602750700,7.875750732421875,-0.90716552734375,-0.3757171630859375,0.0638275146484375
1761914662612806000,7.885805908203125,-0.90850830078125,-0.37548828125,0.0680084228515625
1761914662622861600,7.895861572265625,-0.90869140625,-0.3764495849609375,0.070404052734375
1761914662632917800,7.905917724609375,-0.9089813232421875,-0.3754119873046875,0.0697479248046875
1761914662642972700,7.91597265625,-0.91094970703125,-0.3731536865234375,0.0658416748046875
1761914662653028600,7.926028564453125,-0.90972900390625,-0.374725341796875,0.0640411376953125
1761914662663084800,7.936084716796875,-0.9066162109375,-0.38330078125,0.0611724853515625
1761914662673139700,7.9461396484375,-0.90435791015625,-0.3920135498046875,0.0574951171875
1761914662683196000,7.95619580078125,-0.9019317626953125,-0.399566650390625,0.0475616455078125
1761914662693251800,7.966251953125,-0.8982391357421875,-0.4036102294921875,0.0382080078125
1761914662703307500,7.9763076171875,-0.8976593017578125,-0.4018402099609375,0.02886962890625
1761914662713362700,7.98636279296875,-0.89703369140625,-0.4001617431640625,0.0169219970703125
1761914662723418600,7.996418701171875,-0.9028472900390625,-0.4011993408203125,0.0106658935546875
1761914662733474800,8.006474853515625,-0.9124908447265625,-0.4053802490234375,0.0040130615234375
1761914662743529700,8.01652978515625,-0.9195709228515625,-0.41064453125,-0.0006103515625
1761914662753586000,8.0265859375,-0.9213714599609375,-0.4174346923828125,-0.0035552978515625
1761914662763641900,8.036641845703125,-0.9221343994140625,-0.4197235107421875,-0.0012664794921875
1761914662773696800,8.04669677734375,-0.922119140625,-0.4243011474609375,0.0050506591796875
1761914662783752700,8.056752685546876,-0.9237060546875,-0.4321136474609375,0.0143890380859375
1761914662793808600,8.06680859375,-0.9281005859375,-0.4380950927734375,0.0231781005859375
1761914662803863800,8.07686376953125,-0.931427001953125,-0.445648193359375,0.0330810546875
1761914662813919700,8.086919677734375,-0.9346771240234375,-0.4635009765625,0.0483551025390625
1761914662823975700,8.0969755859375,-0.939422607421875,-0.487884521484375,0.0652618408203125
1761914662834031900,8.107031982421875,-0.955352783203125,-0.499725341796875,0.08587646484375
1761914662844086500,8.11708642578125,-0.9799041748046875,-0.4992828369140625,0.1024169921875
1761914662854142700,8.127142822265625,-0.9971771240234375,-0.49798583984375,0.108551025390625
1761914662864198700,8.13719873046875,-1.008392333984375,-0.4984893798828125,0.1109466552734375
1761914662874253800,8.14725390625,-1.0108489990234375,-0.5023040771484375,0.1043701171875
1761914662884309800,8.157309814453125,-1.00579833984375,-0.507354736328125,0.0934600830078125
1761914662894365700,8.16736572265625,-0.9962005615234375,-0.500762939453125,0.07965087890625
1761914662904420900,8.1774208984375,-0.9834442138671875,-0.4871063232421875,0.0678863525390625
1761914662914476500,8.1874765625,-0.9699554443359375,-0.4761962890625,0.0595550537109375
1761914662924532700,8.19753271484375,-0.9604644775390625,-0.4685821533203125,0.058197021484375
1761914662934588700,8.207588623046876,-0.9514007568359375,-0.458770751953125,0.0560760498046875
1761914662944643800,8.217643798828124,-0.9395751953125,-0.4444122314453125,0.0517578125
1761914662954699800,8.22769970703125,-0.923553466796875,-0.4296112060546875,0.044403076171875
1761914662964755700,8.237755615234375,-0.9074859619140625,-0.4149627685546875,0.0431671142578125
1761914662974811000,8.247810791015626,-0.8985137939453125,-0.4035186767578125,0.0443115234375
1761914662984866800,8.25786669921875,-0.88800048828125,-0.397735595703125,0.044952392578125
1761914662994922800,8.2679228515625,-0.87579345703125,-0.3857421875,0.041473388671875
1761914663004978700,8.277978759765626,-0.8610382080078125,-0.3710174560546875,0.0338592529296875
1761914663015033600,8.28803369140625,-0.8462066650390625,-0.361114501953125,0.02349853515625
1761914663025089800,8.29808984375,-0.8328399658203125,-0.3552398681640625,0.012298583984375
1761914663035145700,8.308145751953125,-0.8219146728515625,-0.352874755859375,0.00531005859375
1761914663045201000,8.318200927734376,-0.812408447265625,-0.3480682373046875,0.004486083984375
1761914663055256800,8.3282568359375,-0.8046722412109375,-0.3472747802734375,0.0025787353515625
1761914663065312500,8.3383125,-0.7985992431640625,-0.3491973876953125,0.0017852783203125
1761914663075364000,8.348364013671874,-0.79534912109375,-0.35052490234375,-0.0003814697265625
1761914663085420000,8.358419921875,-0.79632568359375,-0.353485107421875,-0.00299072265625
1761914663095476200,8.368476318359376,-0.798980712890625,-0.3553009033203125,-0.00244140625
1761914663105532200,8.3785322265625,-0.807586669921875,-0.3565521240234375,0.0000457763671875
1761914663115587000,8.388587158203125,-0.8193817138671875,-0.3578948974609375,-0.00128173828125
1761914663125643000,8.39864306640625,-0.825897216796875,-0.367645263671875,-0.0105438232421875
1761914663135699000,8.408698974609376,-0.8361053466796875,-0.3812103271484375,-0.0262908935546875
1761914663145754000,8.418754150390624,-0.843536376953125,-0.3877716064453125,-0.0465545654296875
1761914663155810000,8.42881005859375,-0.848480224609375,-0.39361572265625,-0.0538482666015625
1761914663165866200,8.4388662109375,-0.8648529052734375,-0.409210205078125,-0.04693603515625
1761914663175921000,8.4489208984375,-0.87841796875,-0.423980712890625,-0.043914794921875
1761914663185977000,8.45897705078125,-0.888580322265625,-0.4450531005859375,-0.04864501953125
1761914663196033000,8.469032958984375,-0.896820068359375,-0.4403839111328125,-0.05548095703125
1761914663206089000,8.4790888671875,-0.901702880859375,-0.4337005615234375,-0.0648040771484375
1761914663216144100,8.48914404296875,-0.89337158203125,-0.4133453369140625,-0.0723114013671875
1761914663226200000,8.499199951171875,-0.892303466796875,-0.4184722900390625,-0.0707244873046875
1761914663236256000,8.509256103515625,-0.8882904052734375,-0.4235687255859375,-0.07281494140625
1761914663246311200,8.519311279296875,-0.8816680908203125,-0.4174652099609375,-0.0712127685546875
1761914663256370200,8.5293701171875,-0.87542724609375,-0.4341278076171875,-0.0737762451171875
1761914663266426000,8.539426025390625,-0.861114501953125,-0.4481048583984375,-0.0787200927734375
1761914663276481000,8.54948095703125,-0.8582916259765625,-0.454193115234375,-0.0851287841796875
1761914663286537200,8.559537109375,-0.8578338623046875,-0.4528961181640625,-0.0921783447265625
1761914663296593200,8.56959326171875,-0.85968017578125,-0.4514923095703125,-0.091094970703125
1761914663306649000,8.579649169921876,-0.8649749755859375,-0.45306396484375,-0.0841827392578125
1761914663316704000,8.5897041015625,-0.8742218017578125,-0.453338623046875,-0.0765380859375
1761914663326760000,8.599760009765625,-0.8833160400390625,-0.45208740234375,-0.0680999755859375
1761914663336816000,8.609816162109375,-0.8889007568359375,-0.4537353515625,-0.05865478515625
1761914663346871000,8.61987109375,-0.896820068359375,-0.4528045654296875,-0.0455780029296875
1761914663356927200,8.62992724609375,-0.90301513671875,-0.448333740234375,-0.033233642578125
1761914663366983200,8.639983154296875,-0.9066162109375,-0.4480438232421875,-0.0215911865234375
1761914663377038800,8.650038818359375,-0.9107513427734375,-0.4476776123046875,-0.015625
1761914663387094000,8.660093994140626,-0.9092254638671875,-0.449981689453125,-0.01153564453125
1761914663397150000,8.67014990234375,-0.9069976806640625,-0.448394775390625,-0.0089569091796875
1761914663407206100,8.6802060546875,-0.905517578125,-0.4455108642578125,-0.004302978515625
1761914663417261000,8.690260986328125,-0.9032745361328125,-0.438507080078125,0.000091552734375
1761914663427317200,8.700317138671876,-0.8986968994140625,-0.4347991943359375,0.0023651123046875
1761914663437373200,8.710373291015625,-0.8922119140625,-0.436676025390625,0.0008697509765625
1761914663447429000,8.72042919921875,-0.89178466796875,-0.439605712890625,-0.003173828125
1761914663457484000,8.730484130859375,-0.89111328125,-0.439239501953125,-0.003326416015625
1761914663467540000,8.7405400390625,-0.8852386474609375,-0.4369659423828125,-0.001129150390625
1761914663477596200,8.75059619140625,-0.879180908203125,-0.435577392578125,0.0004119873046875
1761914663487651000,8.760651123046875,-0.873870849609375,-0.4417572021484375,-0.0029296875
1761914663497707000,8.77070703125,-0.8691558837890625,-0.444061279296875,-0.0062713623046875
1761914663507763200,8.78076318359375,-0.86810302734375,-0.4446563720703125,-0.009613037109375
1761914663517819100,8.790819091796875,-0.868011474609375,-0.446136474609375,-0.0128631591796875
1761914663527874000,8.8008740234375,-0.8729400634765625,-0.4528350830078125,-0.013702392578125
1761914663537930000,8.810929931640626,-0.8818511962890625,-0.4562530517578125,-0.0164031982421875
1761914663547986000,8.82098583984375,-0.89263916015625,-0.4542694091796875,-0.019012451171875
1761914663558041000,8.831041015625,-0.8950958251953125,-0.448577880859375,-0.028533935546875
1761914663568097000,8.841096923828125,-0.89349365234375,-0.448577880859375,-0.03564453125
1761914663578153200,8.8511533203125,-0.9006500244140625,-0.4484405517578125,-0.04022216796875
1761914663588209200,8.861209228515625,-0.901458740234375,-0.4583587646484375,-0.03887939453125
1761914663598264000,8.87126416015625,-0.9079437255859375,-0.4703521728515625,-0.0314483642578125
1761914663608320000,8.881320068359376,-0.9127044677734375,-0.4799957275390625,-0.0255584716796875
1761914663618376000,8.8913759765625,-0.9222412109375,-0.47442626953125,-0.020843505859375
1761914663628431000,8.90143115234375,-0.9290313720703125,-0.475433349609375,-0.021575927734375
1761914663638487000,8.911487060546875,-0.9466705322265625,-0.47113037109375,-0.02142333984375
1761914663648543200,8.921543212890626,-0.9637908935546875,-0.467132568359375,-0.0242462158203125
1761914663658599200,8.93159912109375,-0.9814605712890625,-0.4637451171875,-0.025848388671875
1761914663668654000,8.941654052734375,-1.005859375,-0.4608917236328125,-0.0241241455078125
1761914663678710000,8.9517099609375,-1.0266876220703125,-0.4800567626953125,-0.02984619140625
1761914663688766000,8.961765869140624,-1.037689208984375,-0.490814208984375,-0.0254669189453125
1761914663698821000,8.971821044921874,-1.0385589599609375,-0.4935455322265625,-0.0332794189453125
1761914663708877000,8.981876953125,-1.035003662109375,-0.4949493408203125,-0.0510101318359375
1761914663718933000,8.99193310546875,-1.047576904296875,-0.4918975830078125,-0.058837890625
1761914663728989200,9.0019892578125,-1.067718505859375,-0.4908599853515625,-0.0562286376953125
1761914663739044000,9.012044189453125,-1.076812744140625,-0.48223876953125,-0.0458526611328125
1761914663749100000,9.02210009765625,-1.0719146728515625,-0.4498443603515625,-0.030517578125
1761914663759156000,9.032156005859376,-1.0597076416015625,-0.4097442626953125,-0.01849365234375
1761914663769211100,9.042211181640624,-1.0397186279296875,-0.387481689453125,-0.0121307373046875
1761914663779267000,9.05226708984375,-1.01666259765625,-0.376861572265625,-0.005584716796875
1761914663789323000,9.062322998046875,-0.9960174560546875,-0.3624267578125,-0.004547119140625
1761914663799379200,9.072379150390624,-0.981903076171875,-0.342742919921875,-0.01019287109375
1761914663809434000,9.08243408203125,-0.958892822265625,-0.34368896484375,-0.0237274169921875
1761914663819490000,9.092489990234375,-0.9392852783203125,-0.336456298828125,-0.0237274169921875
1761914663829546000,9.1025458984375,-0.91387939453125,-0.328338623046875,-0.0157012939453125
1761914663839601200,9.11260107421875,-0.892913818359375,-0.3236846923828125,-0.008819580078125
1761914663849657000,9.122656982421875,-0.8849334716796875,-0.3111572265625,0.00677490234375
1761914663859713000,9.132713134765625,-0.878082275390625,-0.3126373291015625,0.0137786865234375
1761914663869769200,9.142769287109376,-0.8629913330078125,-0.336700439453125,0.0195159912109375
1761914663879824100,9.15282421875,-0.8514556884765625,-0.3666839599609375,0.0294342041015625
1761914663889880000,9.162880126953125,-0.8439483642578125,-0.388427734375,0.0463409423828125
1761914663899936000,9.17293603515625,-0.8442840576171875,-0.4009552001953125,0.064453125
1761914663909991000,9.182990966796876,-0.8560638427734375,-0.4081268310546875,0.0828399658203125
1761914663920047000,9.193047119140624,-0.85797119140625,-0.4180755615234375,0.0986175537109375
1761914663930103000,9.20310302734375,-0.8532867431640625,-0.431793212890625,0.111907958984375
1761914663940159000,9.213158935546875,-0.84503173828125,-0.45196533203125,0.12017822265625
1761914663950214100,9.223214111328126,-0.835357666015625,-0.4634552001953125,0.125274658203125
1761914663960270000,9.23327001953125,-0.831634521484375,-0.46435546875,0.127349853515625
1761914663970326300,9.243326171875,-0.8317413330078125,-0.44830322265625,0.126861572265625
1761914663980381000,9.253380859375,-0.8332977294921875,-0.428619384765625,0.126373291015625
1761914663990437000,9.26343701171875,-0.8228912353515625,-0.420501708984375,0.117523193359375
1761914664000493000,9.2734931640625,-0.8124237060546875,-0.4079742431640625,0.107269287109375
1761914664010549000,9.283549072265625,-0.803802490234375,-0.38922119140625,0.0948638916015625
1761914664020604200,9.293604248046876,-0.80194091796875,-0.3839263916015625,0.082977294921875
1761914664030660000,9.30366015625,-0.7986907958984375,-0.38482666015625,0.0700225830078125
1761914664040716300,9.31371630859375,-0.7931671142578125,-0.3856201171875,0.054473876953125
1761914664050772200,9.323772216796876,-0.78759765625,-0.39105224609375,0.03582763671875
1761914664060827100,9.3338271484375,-0.7890167236328125,-0.4011993408203125,0.0163421630859375
1761914664070883600,9.343883544921875,-0.793365478515625,-0.4134521484375,0.0025177001953125
1761914664080939500,9.353939453125,-0.7963714599609375,-0.4264068603515625,-0.0078887939453125
1761914664090994400,9.363994384765626,-0.7930450439453125,-0.4404296875,-0.013031005859375
1761914664101050400,9.37405029296875,-0.7855224609375,-0.4548797607421875,-0.01324462890625
1761914664111106300,9.384106201171875,-0.7779388427734375,-0.474853515625,-0.009979248046875
1761914664121162500,9.39416259765625,-0.776123046875,-0.500701904296875,-0.0032501220703125
1761914664131217400,9.404217529296876,-0.77850341796875,-0.5243682861328125,0.0070953369140625
1761914664141273600,9.414273681640625,-0.78277587890625,-0.5392913818359375,0.022674560546875
1761914664151329500,9.42432958984375,-0.7834320068359375,-0.54327392578125,0.0403900146484375
1761914664161384400,9.434384521484375,-0.7791290283203125,-0.54241943359375,0.0502777099609375
1761914664171440400,9.4444404296875,-0.7746124267578125,-0.53924560546875,0.0498504638671875
1761914664181496300,9.454496337890625,-0.780303955078125,-0.5361328125,0.0422210693359375
1761914664191552500,9.464552490234375,-0.7927703857421875,-0.531341552734375,0.0335540771484375
1761914664201607400,9.474607421875,-0.799774169921875,-0.5305023193359375,0.0274200439453125
1761914664211663400,9.484663330078124,-0.8044891357421875,-0.5274658203125,0.0195159912109375
1761914664221719600,9.494719482421875,-0.804962158203125,-0.52191162109375,0.0080718994140625
1761914664231774200,9.504774169921875,-0.804962158203125,-0.511566162109375,-0.0078125
1761914664241830400,9.514830322265626,-0.8140869140625,-0.502471923828125,-0.019775390625
1761914664251886300,9.52488623046875,-0.8299102783203125,-0.499420166015625,-0.0259552001953125
1761914664261942300,9.5349423828125,-0.8453369140625,-0.4968414306640625,-0.027557373046875
1761914664271997400,9.54499755859375,-0.8653717041015625,-0.4906768798828125,-0.02581787109375
1761914664282053400,9.555053466796876,-0.8853607177734375,-0.484619140625,-0.02392578125
1761914664292109600,9.565109619140625,-0.8990020751953125,-0.486968994140625,-0.0211181640625
1761914664302165500,9.57516552734375,-0.9102630615234375,-0.4901275634765625,-0.019134521484375
1761914664312220400,9.585220458984375,-0.9137420654296875,-0.4947052001953125,-0.019927978515625
1761914664322276400,9.5952763671875,-0.9105377197265625,-0.5022735595703125,-0.0154266357421875
1761914664332332300,9.605332275390625,-0.908294677734375,-0.5157928466796875,-0.0102081298828125
1761914664342388500,9.615388427734375,-0.910003662109375,-0.52239990234375,-0.0026397705078125
1761914664352443400,9.625443359375,-0.9124298095703125,-0.5177764892578125,0.0096282958984375
1761914664362499600,9.63549951171875,-0.9174957275390625,-0.5137176513671875,0.0216064453125
1761914664372555500,9.645555419921875,-0.9239349365234375,-0.51519775390625,0.032562255859375
1761914664382610400,9.6556103515625,-0.9233551025390625,-0.520843505859375,0.04241943359375
1761914664392666400,9.665666259765626,-0.91119384765625,-0.5290069580078125,0.04852294921875
1761914664402722300,9.675722412109375,-0.8984832763671875,-0.536712646484375,0.053558349609375
1761914664412778500,9.685778564453125,-0.8887786865234375,-0.540863037109375,0.0573272705078125
1761914664422833400,9.69583349609375,-0.879364013671875,-0.543914794921875,0.0605621337890625
1761914664432889300,9.705889404296874,-0.876708984375,-0.54205322265625,0.0562591552734375
1761914664442945500,9.715945556640625,-0.873626708984375,-0.5391845703125,0.04559326171875
1761914664453000400,9.72600048828125,-0.867218017578125,-0.550811767578125,0.0361175537109375
1761914664463056600,9.736056640625,-0.85760498046875,-0.59027099609375,0.0306549072265625
1761914664473112300,9.7461123046875,-0.846282958984375,-0.6219482421875,0.029876708984375
1761914664483168300,9.756168212890625,-0.84259033203125,-0.62530517578125,0.0289154052734375
1761914664493223400,9.766223388671875,-0.850372314453125,-0.63916015625,0.0242156982421875
1761914664503279400,9.776279296875,-0.8715972900390625,-0.6692352294921875,0.0295257568359375
1761914664513335600,9.78633544921875,-0.8944244384765625,-0.7015838623046875,0.0379180908203125
1761914664523391500,9.7963916015625,-0.9083099365234375,-0.705230712890625,0.0437164306640625
1761914664533446700,9.80644677734375,-0.9161376953125,-0.67236328125,0.0452423095703125
1761914664543502300,9.81650244140625,-0.92120361328125,-0.624786376953125,0.0500640869140625
1761914664553558300,9.826558349609375,-0.934295654296875,-0.5843505859375,0.0565185546875
1761914664563613400,9.836613525390625,-0.9488372802734375,-0.5497589111328125,0.06256103515625
1761914664573669400,9.84666943359375,-0.9530792236328125,-0.5142822265625,0.0644683837890625
1761914664583725600,9.8567255859375,-0.9419097900390625,-0.4790802001953125,0.0606689453125
1761914664593781500,9.866781494140625,-0.9225616455078125,-0.448516845703125,0.0493316650390625
1761914664603836400,9.87683642578125,-0.897735595703125,-0.420074462890625,0.03472900390625
1761914664613892600,9.886892578125,-0.8724822998046875,-0.4072418212890625,0.0158233642578125
1761914664623948300,9.8969482421875,-0.8436126708984375,-0.400543212890625,-0.0016021728515625
1761914664634004500,9.90700439453125,-0.819000244140625,-0.3905487060546875,-0.0201568603515625
1761914664644059400,9.917059326171875,-0.79901123046875,-0.38214111328125,-0.0379486083984375
1761914664654115300,9.927115234375,-0.7820281982421875,-0.3790740966796875,-0.0560150146484375
1761914664664171500,9.937171630859375,-0.764129638671875,-0.3815460205078125,-0.0687713623046875
1761914664674226400,9.947226318359375,-0.7510223388671875,-0.397705078125,-0.0822601318359375
1761914664684282600,9.95728271484375,-0.7324676513671875,-0.430419921875,-0.0956268310546875
1761914664694338600,9.967338623046874,-0.717620849609375,-0.4678802490234375,-0.1035614013671875
1761914664704394200,9.977394287109375,-0.706634521484375,-0.49822998046875,-0.107666015625
1761914664714449400,9.987449462890625,-0.704254150390625,-0.5166778564453125,-0.1077423095703125
1761914664724505300,9.99750537109375,-0.712677001953125,-0.5242462158203125,-0.1067352294921875
1761914664734561500,10.0075615234375,-0.72625732421875,-0.5306243896484375,-0.1093292236328125
1761914664744617500,10.017617431640625,-0.745635986328125,-0.5361328125,-0.118408203125
1761914664754672600,10.027672607421875,-0.7562408447265625,-0.53277587890625,-0.1334686279296875
1761914664764728600,10.037728515625,-0.76068115234375,-0.5188446044921875,-0.145263671875
1761914664774784500,10.047784423828125,-0.77117919921875,-0.50457763671875,-0.155181884765625
1761914664784839400,10.05783935546875,-0.78436279296875,-0.48480224609375,-0.1661529541015625
1761914664794895400,10.067895263671875,-0.80035400390625,-0.467742919921875,-0.172821044921875
1761914664804951600,10.07795166015625,-0.823333740234375,-0.442474365234375,-0.1710357666015625
1761914664815007500,10.088007568359375,-0.8460845947265625,-0.41815185546875,-0.1596527099609375
1761914664825062400,10.0980625,-0.8649444580078125,-0.4030303955078125,-0.1518096923828125
1761914664835118600,10.10811865234375,-0.8750152587890625,-0.37005615234375,-0.127288818359375
1761914664845174500,10.118174560546874,-0.87060546875,-0.3498382568359375,-0.106903076171875
1761914664855230200,10.128230224609375,-0.87030029296875,-0.35162353515625,-0.083282470703125
1761914664865285400,10.138285400390625,-0.868988037109375,-0.375335693359375,-0.0629119873046875
1761914664875341300,10.14834130859375,-0.864105224609375,-0.4044342041015625,-0.0426788330078125
1761914664885397500,10.1583974609375,-0.8646087646484375,-0.4190521240234375,-0.016815185546875
1761914664895453400,10.168453369140625,-0.8648681640625,-0.4297027587890625,0.00274658203125
1761914664905508600,10.178508544921876,-0.8588104248046875,-0.444610595703125,0.0095062255859375
1761914664915564500,10.188564453125,-0.85101318359375,-0.454864501953125,0.0064544677734375
1761914664925620500,10.198620361328125,-0.849578857421875,-0.4620361328125,-0.0000762939453125
1761914664935675400,10.20867529296875,-0.8550872802734375,-0.4692840576171875,-0.0129852294921875
1761914664945731300,10.2187314453125,-0.868072509765625,-0.4749603271484375,-0.02642822265625
1761914664955787500,10.22878759765625,-0.8827056884765625,-0.480133056640625,-0.0355224609375
1761914664965843500,10.238843505859375,-0.8915557861328125,-0.485870361328125,-0.040557861328125
1761914664975898600,10.248898681640625,-0.89453125,-0.4876708984375,-0.0432891845703125
1761914664985954600,10.25895458984375,-0.8974609375,-0.4892730712890625,-0.046478271484375
1761914664996010500,10.269010498046875,-0.8991546630859375,-0.4911346435546875,-0.0487213134765625
1761914665006066700,10.279066650390625,-0.8955078125,-0.4951019287109375,-0.0485076904296875
1761914665016121300,10.289121337890625,-0.89093017578125,-0.4985198974609375,-0.0453643798828125
1761914665026177300,10.29917724609375,-0.8868560791015625,-0.496917724609375,-0.0428619384765625
1761914665036233500,10.3092333984375,-0.8862457275390625,-0.491241455078125,-0.0455322265625
1761914665046288400,10.319288330078125,-0.8876953125,-0.48455810546875,-0.050537109375
1761914665056344600,10.329344482421876,-0.8963775634765625,-0.4769134521484375,-0.0543670654296875
1761914665066400500,10.339400390625,-0.908935546875,-0.4691009521484375,-0.0598907470703125
1761914665076460300,10.349460205078126,-0.9225006103515625,-0.4590301513671875,-0.0630035400390625
1761914665086515500,10.359515380859374,-0.936553955078125,-0.4477081298828125,-0.0579986572265625
1761914665096571100,10.369571044921875,-0.949859619140625,-0.43841552734375,-0.0503997802734375
1761914665106627300,10.37962744140625,-0.962554931640625,-0.428955078125,-0.0404205322265625
1761914665116683300,10.389683349609374,-0.980621337890625,-0.4232330322265625,-0.028778076171875
1761914665126738400,10.399738525390624,-0.995269775390625,-0.42578125,-0.0198822021484375
1761914665136794400,10.40979443359375,-1.00494384765625,-0.4226837158203125,-0.0131683349609375
1761914665146850300,10.419850341796876,-1.001800537109375,-0.420135498046875,-0.0102081298828125
1761914665156906200,10.42990625,-0.988677978515625,-0.4290008544921875,-0.010345458984375
1761914665166961400,10.43996142578125,-0.9708709716796875,-0.4598388671875,-0.0087432861328125
1761914665177017000,10.45001708984375,-0.95684814453125,-0.497100830078125,-0.0035247802734375
1761914665187073300,10.4600732421875,-0.94647216796875,-0.519500732421875,-0.0037078857421875
1761914665197128200,10.470128173828124,-0.936676025390625,-0.5277099609375,-0.012237548828125
1761914665207184400,10.480184326171875,-0.9257049560546875,-0.5416717529296875,-0.0222320556640625
1761914665217240300,10.490240234375,-0.9149322509765625,-0.565155029296875,-0.0206146240234375
1761914665227296300,10.500296142578126,-0.9132843017578125,-0.5687713623046875,-0.002227783203125
1761914665237351400,10.510351318359374,-0.922332763671875,-0.5359954833984375,0.0175628662109375
1761914665247407400,10.520407470703125,-0.9329376220703125,-0.486785888671875,0.02691650390625
1761914665257463300,10.53046337890625,-0.951171875,-0.442413330078125,0.0367889404296875
1761914665267519200,10.540519287109374,-0.9669952392578125,-0.4012603759765625,0.05126953125
1761914665277574400,10.550574462890625,-0.9734344482421875,-0.3597259521484375,0.0634002685546875
1761914665287630300,10.56063037109375,-0.9691009521484375,-0.317718505859375,0.07476806640625
1761914665297686300,10.570686279296876,-0.95562744140625,-0.2893829345703125,0.0791015625
1761914665307742500,10.580742431640624,-0.936492919921875,-0.2837677001953125,0.078033447265625
1761914665317797400,10.59079736328125,-0.91448974609375,-0.284027099609375,0.0755157470703125
1761914665327853600,10.600853515625,-0.89447021484375,-0.292327880859375,0.072235107421875
1761914665337909200,10.6109091796875,-0.88177490234375,-0.3158721923828125,0.072113037109375
1761914665347964200,10.620964111328124,-0.87554931640625,-0.347137451171875,0.073974609375
1761914665358020400,10.631020263671875,-0.875335693359375,-0.373931884765625,0.0781097412109375
1761914665368076300,10.641076171875,-0.8733978271484375,-0.3990631103515625,0.083831787109375
1761914665378132200,10.65113232421875,-0.8800201416015625,-0.419769287109375,0.0899658203125
1761914665388187400,10.6611875,-0.88525390625,-0.4407958984375,0.0992889404296875
1761914665398243300,10.671243408203125,-0.881622314453125,-0.4532623291015625,0.108673095703125
1761914665408299300,10.68129931640625,-0.882415771484375,-0.4561614990234375,0.1137237548828125
1761914665418355200,10.691355224609374,-0.8833770751953125,-0.4477386474609375,0.114990234375
1761914665428410400,10.701410400390625,-0.8835906982421875,-0.44146728515625,0.118377685546875
1761914665438466300,10.71146630859375,-0.881591796875,-0.429107666015625,0.1183624267578125
1761914665448522200,10.721522216796876,-0.8748626708984375,-0.411865234375,0.1079254150390625
1761914665458578400,10.731578369140625,-0.8704376220703125,-0.3839263916015625,0.10650634765625
1761914665468633300,10.74163330078125,-0.874664306640625,-0.3660736083984375,0.1054534912109375
1761914665478689500,10.751689453125,-0.8783111572265625,-0.3692626953125,0.105133056640625
1761914665488745200,10.7617451171875,-0.871246337890625,-0.37103271484375,0.1087493896484375
1761914665498800400,10.77180029296875,-0.82806396484375,-0.3538055419921875,0.1133270263671875
1761914665508856300,10.781856201171875,-0.8836822509765625,-0.358123779296875,0.1126251220703125
1761914665518912300,10.791912353515626,-0.933380126953125,-0.4034881591796875,0.10064697265625
1761914665528968400,10.801968505859374,-0.8994293212890625,-0.46453857421875,0.1007537841796875
1761914665539023400,10.8120234375,-0.90899658203125,-0.4944000244140625,0.0947418212890625
1761914665549079300,10.822079345703125,-0.9007568359375,-0.5161895751953125,0.0933990478515625
1761914665559135500,10.832135498046876,-0.859649658203125,-0.4514007568359375,0.10791015625
