time,seconds_elapsed,z,y,x
1761914654734189300,0.007189208984375,-0.2022111564874649,-0.06490655988454819,-0.19591650366783142
1761914654744245200,0.017245361328125,-0.2130608707666397,-0.08684568107128143,-0.2209787219762802
1761914654754301200,0.02730126953125,-0.21089093387126923,-0.1115662083029747,-0.24094364047050476
1761914654764356400,0.0373564453125,-0.20314618945121765,-0.12694862484931946,-0.24693255126476288
1761914654774412300,0.047412353515625,-0.19815249741077423,-0.13504330813884735,-0.24020487070083618
1761914654784468500,0.057468505859375,-0.19114306569099426,-0.1332363486289978,-0.22569917142391205
1761914654794523400,0.0675234375,-0.18935394287109375,-0.1350579559803009,-0.19784782826900482
1761914654804579300,0.077579345703125,-0.18159669637680054,-0.1251366138458252,-0.1683032512664795
1761914654814635300,0.08763525390625,-0.16732481122016907,-0.114671990275383,-0.1356036365032196
1761914654824690400,0.0976904296875,-0.15401913225650787,-0.10515491664409637,-0.10751207917928696
1761914654834746400,0.107746337890625,-0.15365293622016907,-0.10261079668998718,-0.08172788470983505
1761914654844802300,0.11780224609375,-0.1453300267457962,-0.10238922387361526,-0.05618257820606232
1761914654854857500,0.127857421875,-0.13600604236125946,-0.1021689772605896,-0.024014787748456
1761914654864913400,0.137913330078125,-0.12550225853919983,-0.10226298868656158,0.0025483788922429085
1761914654874969600,0.147969482421875,-0.10694136470556259,-0.10253063589334488,0.02846812643110752
1761914654885025300,0.158025390625,-0.09166573733091354,-0.11086180061101913,0.057146910578012466
1761914654895080400,0.16808056640625,-0.08084771037101746,-0.14512071013450623,0.08986171334981918
1761914654905136400,0.178136474609375,-0.08096915483474731,-0.1776440292596817,0.11588665843009949
1761914654915192300,0.1881923828125,-0.08017339557409286,-0.2059028297662735,0.13451680541038513
1761914654925247500,0.19824755859375,-0.08047140389680862,-0.22347649931907654,0.14765150845050812
1761914654935303400,0.208303466796875,-0.08214014023542404,-0.22648639976978302,0.15700054168701172
1761914654945359400,0.218359375,-0.07719571888446808,-0.21846894919872284,0.1669064313173294
1761914654955414300,0.228414306640625,-0.06663575023412704,-0.20585942268371582,0.1820952296257019
1761914654965470200,0.23847021484375,-0.0532379224896431,-0.19479265809059143,0.2000177800655365
1761914654975526400,0.2485263671875,-0.044922467321157455,-0.1944243460893631,0.21402546763420105
1761914654985581300,0.258581298828125,-0.03831729665398598,-0.2056325227022171,0.23783466219902039
1761914654995637500,0.268637451171875,-0.03883714601397514,-0.2170015573501587,0.2639046013355255
1761914655005693400,0.278693359375,-0.030346186831593513,-0.21191997826099396,0.28885629773139954
1761914655015748400,0.288748291015625,-0.01859978400170803,-0.21262331306934357,0.3160296082496643
1761914655025804300,0.29880419921875,0.00035446672700345516,-0.2114240974187851,0.34192323684692383
1761914655035860200,0.308860107421875,0.029622606933116913,-0.21046268939971924,0.3764279782772064
1761914655045915400,0.318915283203125,0.04650864750146866,-0.20730897784233093,0.41619935631752014
1761914655055971300,0.328971435546875,0.055800147354602814,-0.1782086193561554,0.45319172739982605
1761914655066023200,0.339023193359375,0.08352312445640564,-0.15082599222660065,0.47572046518325806
1761914655076078000,0.349078125,0.12071017175912857,-0.13784921169281006,0.47280803322792053
1761914655086134000,0.359134033203125,0.1514960527420044,-0.11917486041784286,0.4575004577636719
1761914655096190000,0.36918994140625,0.18703939020633698,-0.09249584376811981,0.43252772092819214
1761914655106245000,0.3792451171875,0.22622540593147278,-0.05094866827130318,0.41008925437927246
1761914655116301000,0.389301025390625,0.28080689907073975,0.003367300843819976,0.3789995014667511
1761914655126357000,0.39935693359375,0.34721681475639343,0.06642057001590729,0.3359420597553253
1761914655136412200,0.409412109375,0.3984839916229248,0.12462128698825836,0.27980953454971313
1761914655146468000,0.419468017578125,0.4334219992160797,0.18168644607067108,0.22639133036136627
1761914655156524300,0.429524169921875,0.44864463806152344,0.1962195783853531,0.17652443051338196
1761914655166579000,0.439578857421875,0.4524167478084564,0.16760310530662537,0.1368342787027359
1761914655176635100,0.44963525390625,0.4469316899776459,0.10289362818002701,0.12483593821525574
1761914655186691000,0.459691162109375,0.4229488670825958,0.009917612187564373,0.1463092714548111
1761914655196746000,0.46974609375,0.3841841518878937,-0.07986953109502792,0.20652468502521515
1761914655206802200,0.47980224609375,0.33641183376312256,-0.16189436614513397,0.2750377058982849
1761914655216858000,0.489858154296875,0.2851007282733917,-0.21199214458465576,0.3428625464439392
1761914655226913000,0.4999130859375,0.23489026725292206,-0.23786768317222595,0.3977747857570648
1761914655236969000,0.509968994140625,0.1869826763868332,-0.2539244294166565,0.4334302544593811
1761914655247025000,0.52002490234375,0.13970623910427094,-0.2618768811225891,0.4671725034713745
1761914655257080000,0.530080078125,0.09077118337154388,-0.2574629485607147,0.4983772933483124
1761914655267136000,0.540135986328125,0.03725149855017662,-0.2569250166416168,0.5429301261901855
1761914655277192200,0.550192138671875,-0.018975289538502693,-0.224058136343956,0.5919772982597351
1761914655287247000,0.5602470703125,-0.06436673551797867,-0.17233075201511383,0.6279659271240234
1761914655297303000,0.570302978515625,-0.10531603544950485,-0.12129873037338257,0.6362699270248413
1761914655307359000,0.58035888671875,-0.13273674249649048,-0.07348380237817764,0.6140130758285522
1761914655317414100,0.5904140625,-0.1466355174779892,-0.04421406611800194,0.5584904551506042
1761914655327470000,0.600469970703125,-0.15374189615249634,-0.025138642638921738,0.475425124168396
1761914655337526000,0.610526123046875,-0.16084960103034973,-0.011151188053190708,0.36582431197166443
1761914655347581200,0.620581298828125,-0.1717326045036316,-0.01221485435962677,0.24367843568325043
1761914655357637000,0.63063720703125,-0.16666914522647858,-0.028198082000017166,0.10406168550252914
1761914655367693300,0.640693359375,-0.1504310518503189,-0.045689456164836884,-0.03972557559609413
1761914655377748000,0.650748046875,-0.1443963199853897,-0.053340453654527664,-0.1879427433013916
1761914655387804000,0.660803955078125,-0.1491791009902954,-0.08364429324865341,-0.32654428482055664
1761914655397860000,0.670860107421875,-0.16520920395851135,-0.11170416325330734,-0.45671746134757996
1761914655407916000,0.680916015625,-0.20788022875785828,-0.15138445794582367,-0.5691981911659241
1761914655417971200,0.69097119140625,-0.2630302906036377,-0.18039214611053467,-0.6619086861610413
1761914655428027100,0.701027099609375,-0.31943631172180176,-0.19916050136089325,-0.7299208045005798
1761914655438083000,0.7110830078125,-0.37204334139823914,-0.20480667054653168,-0.7729590535163879
1761914655448138000,0.721137939453125,-0.3998914659023285,-0.19486509263515472,-0.7895039319992065
1761914655458194000,0.73119384765625,-0.40846630930900574,-0.17063646018505096,-0.7796822190284729
1761914655468250000,0.74125,-0.40111759305000305,-0.14634709060192108,-0.7538096308708191
1761914655478305000,0.751304931640625,-0.40116313099861145,-0.1306016892194748,-0.7342409491539001
1761914655488361200,0.761361328125,-0.3929760456085205,-0.10963381826877594,-0.7072258591651917
1761914655498417200,0.771417236328125,-0.3849615156650543,-0.0831524133682251,-0.6753406524658203
1761914655508472000,0.78147216796875,-0.38591867685317993,-0.05897144228219986,-0.6390987634658813
1761914655518528000,0.791528076171875,-0.39980384707450867,-0.019356653094291687,-0.6009675860404968
1761914655528584000,0.801583984375,-0.3996398150920868,-0.008374043740332127,-0.5431115031242371
1761914655538639000,0.81163916015625,-0.3914641737937927,0.006854177452623844,-0.4784454107284546
1761914655548695000,0.821695068359375,-0.36029720306396484,0.031507592648267746,-0.40848496556282043
1761914655558751200,0.831751220703125,-0.31786584854125977,0.05976293236017227,-0.33926382660865784
1761914655568806100,0.84180615234375,-0.264045774936676,0.10150931030511856,-0.2798236608505249
1761914655578862000,0.851862060546875,-0.18573658168315887,0.14703978598117828,-0.23815584182739258
1761914655588918000,0.86191796875,-0.10064565390348434,0.19825290143489838,-0.21617864072322845
1761914655598973000,0.871972900390625,-0.0070738885551691055,0.24146509170532227,-0.2096235305070877
1761914655609029000,0.882029052734375,0.0837007537484169,0.27521026134490967,-0.20172646641731262
1761914655619085000,0.8920849609375,0.1632738709449768,0.2992932200431824,-0.18602925539016724
1761914655629140200,0.90214013671875,0.2380692958831787,0.31563252210617065,-0.1700577437877655
1761914655639196200,0.912196044921875,0.30956611037254333,0.3353028893470764,-0.16426298022270203
1761914655649252000,0.922252197265625,0.3817920982837677,0.35299479961395264,-0.16536791622638702
1761914655659307000,0.93230712890625,0.44925662875175476,0.3576473593711853,-0.1670268028974533
1761914655669363000,0.942363037109375,0.5074759721755981,0.3518690764904022,-0.18890973925590515
1761914655679419100,0.952419189453125,0.5554126501083374,0.3315931260585785,-0.21541191637516022
1761914655689474000,0.96247412109375,0.5962663292884827,0.30505791306495667,-0.2460654228925705
1761914655699530200,0.9725302734375,0.6284780502319336,0.28461283445358276,-0.25640860199928284
1761914655709586200,0.982586181640625,0.6476570963859558,0.2590336799621582,-0.23055598139762878
1761914655719641000,0.99264111328125,0.6710302829742432,0.24225950241088867,-0.1739121377468109
1761914655729697000,1.002697021484375,0.6851645112037659,0.23273470997810364,-0.09410598874092102
1761914655739753000,1.0127529296875,0.6963137984275818,0.2352745682001114,-0.0036701022181659937
1761914655749808000,1.02280810546875,0.6875597238540649,0.24825933575630188,0.07613125443458557
1761914655759864000,1.032864013671875,0.676196813583374,0.25706589221954346,0.14398114383220673
1761914655769920000,1.042919921875,0.6701594591140747,0.2763146758079529,0.18751317262649536
1761914655779975200,1.05297509765625,0.6597294211387634,0.30804330110549927,0.20900994539260864
1761914655790030800,1.06303076171875,0.6498874425888062,0.3431277871131897,0.22097818553447723
1761914655800087000,1.073087158203125,0.6428117156028748,0.36705124378204346,0.22408582270145416
1761914655810142000,1.083141845703125,0.6310538649559021,0.4020228087902069,0.2315802276134491
1761914655820198100,1.0931982421875,0.5998136401176453,0.4318068027496338,0.25630447268486023
1761914655830254000,1.103254150390625,0.5524184107780457,0.45232513546943665,0.2813680171966553
1761914655840309200,1.113309326171875,0.508303701877594,0.456185907125473,0.30513808131217957
1761914655850365200,1.123365234375,0.47043275833129883,0.44201603531837463,0.31437551975250244
1761914655860421000,1.133421142578125,0.4400056004524231,0.4141348600387573,0.31900620460510254
1761914655870476000,1.14347607421875,0.41492849588394165,0.37450382113456726,0.32233890891075134
1761914655880532000,1.153531982421875,0.37339088320732117,0.3490924835205078,0.32843780517578125
1761914655890588200,1.163588134765625,0.34312406182289124,0.34968236088752747,0.3304689824581146
1761914655900643000,1.17364306640625,0.3446729779243469,0.3427640199661255,0.3204086422920227
1761914655910699000,1.183698974609375,0.36219683289527893,0.33554765582084656,0.2817784249782562
1761914655920755200,1.193755126953125,0.3694595396518707,0.31786319613456726,0.22896499931812286
1761914655930811100,1.20381103515625,0.3535309135913849,0.2771911323070526,0.18212001025676727
1761914655940866000,1.213865966796875,0.3339601457118988,0.2023341953754425,0.14817188680171967
1761914655950922000,1.223921875,0.3041580319404602,0.10100863873958588,0.10916430503129959
1761914655960978000,1.23397802734375,0.2494010329246521,-0.004198207054287195,0.05253484845161438
1761914655971033000,1.244033203125,0.17562508583068848,-0.08352898061275482,-0.013889450579881668
1761914655981089000,1.254089111328125,0.08815941959619522,-0.13966868817806244,-0.07417435944080353
1761914655991145200,1.264145263671875,0.025056883692741394,-0.15721066296100616,-0.11580117046833038
1761914656001199900,1.274199951171875,0.0003382214636076242,-0.14957644045352936,-0.12904906272888184
1761914656011256000,1.284256103515625,0.009534383192658424,-0.12224654853343964,-0.1124810054898262
1761914656021312000,1.29431201171875,0.0340447872877121,-0.07532884180545807,-0.07031118124723434
1761914656031367200,1.3043671875,0.06445489078760147,-0.022962573915719986,-0.0006772418855689466
1761914656041423000,1.314423095703125,0.08859963715076447,0.022603578865528107,0.09826931357383728
1761914656051479000,1.32447900390625,0.09513450413942337,0.04360872879624367,0.21056656539440155
1761914656061534500,1.334534423828125,0.11232733726501465,0.0686725378036499,0.34862643480300903
1761914656071590400,1.34459033203125,0.1303422898054123,0.05433807149529457,0.4934834837913513
1761914656081646300,1.354646240234375,0.13756930828094482,0.037764422595500946,0.6062638163566589
1761914656091701500,1.364701416015625,0.15331125259399414,0.0406172014772892,0.6969399452209473
1761914656101757400,1.37475732421875,0.18670356273651123,0.09755318611860275,0.7372186183929443
1761914656111813600,1.384813720703125,0.22628186643123627,0.1444208323955536,0.7427686452865601
1761914656121868300,1.394868408203125,0.2793631851673126,0.21837282180786133,0.7198401689529419
1761914656131924500,1.404924560546875,0.3428391218185425,0.2951227128505707,0.6616852879524231
1761914656141980400,1.41498046875,0.4159460663795471,0.3630136251449585,0.5781539082527161
1761914656152035600,1.42503564453125,0.5046038031578064,0.4469812214374542,0.4820185601711273
1761914656162091500,1.435091552734375,0.6005710363388062,0.5242408514022827,0.3743927776813507
1761914656172147500,1.4451474609375,0.6999072432518005,0.5801565647125244,0.2538847327232361
1761914656182202400,1.455202392578125,0.7699978947639465,0.610666036605835,0.11545602232217789
1761914656192258300,1.46525830078125,0.8067404627799988,0.6164549589157104,-0.031495608389377594
1761914656202314500,1.475314453125,0.7957568168640137,0.6144029498100281,-0.16747021675109863
1761914656212369400,1.485369384765625,0.7612086534500122,0.5826762318611145,-0.3002336025238037
1761914656222425300,1.49542529296875,0.7147111892700195,0.5134129524230957,-0.42251157760620117
1761914656232481500,1.5054814453125,0.6773699522018433,0.4191408157348633,-0.5293064713478088
1761914656242536400,1.515536376953125,0.6510555148124695,0.3046536445617676,-0.6114788055419922
1761914656252592600,1.525592529296875,0.6499164700508118,0.21706493198871613,-0.6519266366958618
1761914656262648300,1.5356484375,0.6645822525024414,0.16150687634944916,-0.6540132164955139
1761914656272703500,1.545703369140625,0.6733805537223816,0.16012123227119446,-0.6284958720207214
1761914656282759400,1.555759521484375,0.6801287531852722,0.19093959033489227,-0.588992714881897
1761914656292815400,1.5658154296875,0.6924511790275574,0.23600055277347565,-0.5596920847892761
1761914656302870500,1.57587060546875,0.725286066532135,0.28850796818733215,-0.5219308137893677
1761914656312926500,1.585926513671875,0.7826582789421082,0.345345139503479,-0.47590288519859314
1761914656322982700,1.595982666015625,0.836905300617218,0.39165592193603516,-0.4237544536590576
1761914656333037300,1.606037353515625,0.8712829947471619,0.4209458827972412,-0.3643409311771393
1761914656343093500,1.616093505859375,0.886527419090271,0.44544297456741333,-0.31079569458961487
1761914656353149400,1.6261494140625,0.8936455249786377,0.4650917947292328,-0.25327566266059875
1761914656363204400,1.636204345703125,0.8963230848312378,0.4747753143310547,-0.20766638219356537
1761914656373260500,1.646260498046875,0.8941779136657715,0.46929290890693665,-0.19272418320178986
1761914656383316500,1.65631640625,0.8789252042770386,0.4440389573574066,-0.20664772391319275
1761914656393371400,1.666371337890625,0.8442425727844238,0.40372297167778015,-0.24790939688682556
1761914656403427300,1.67642724609375,0.7884740829467773,0.35948172211647034,-0.30085331201553345
1761914656413483300,1.686483154296875,0.7234021425247192,0.30460622906684875,-0.3574841022491455
1761914656423538400,1.696538330078125,0.665948748588562,0.25464800000190735,-0.40557998418807983
1761914656433594400,1.706594482421875,0.6061711311340332,0.2187107652425766,-0.4367333948612213
1761914656443650600,1.716650634765625,0.5411495566368103,0.20257414877414703,-0.44765713810920715
1761914656453705500,1.72670556640625,0.4856977164745331,0.1818329095840454,-0.4292195439338684
1761914656463761700,1.73676171875,0.4360068738460541,0.15920910239219666,-0.4005442261695862
1761914656473817300,1.7468173828125,0.3867202699184418,0.12470384687185287,-0.36460405588150024
1761914656483872500,1.75687255859375,0.3492373526096344,0.07202465832233429,-0.31686049699783325
1761914656493928400,1.766928466796875,0.31024840474128723,0.03454705700278282,-0.24586568772792816
1761914656503984400,1.776984375,0.28308841586112976,0.023254189640283585,-0.16557830572128296
1761914656514039600,1.78703955078125,0.2741319537162781,0.021813420578837395,-0.07782262563705444
1761914656524095500,1.797095458984375,0.2888810634613037,0.027175694704055786,0.02057185396552086
1761914656534151700,1.807151611328125,0.3208736181259155,0.04313948005437851,0.12594088912010193
1761914656544206300,1.817206298828125,0.3500474989414215,0.06775427609682083,0.24283207952976227
1761914656554262300,1.82726220703125,0.38169994950294495,0.09660910069942474,0.3548526167869568
1761914656564318500,1.837318359375,0.4141732156276703,0.12425057590007782,0.4631037414073944
1761914656574373400,1.847373291015625,0.43794992566108704,0.13118357956409454,0.552543580532074
1761914656584429600,1.8574296875,0.45229876041412354,0.1300581395626068,0.6140527725219727
1761914656594485500,1.867485595703125,0.46629419922828674,0.11870002001523972,0.6509639024734497
1761914656604540400,1.87754052734375,0.4711448848247528,0.09974390268325806,0.6738918423652649
1761914656614596400,1.887596435546875,0.4658108353614807,0.10166990011930466,0.6809103488922119
1761914656624652300,1.89765234375,0.4755585491657257,0.12305934727191925,0.6634818315505981
1761914656634707500,1.90770751953125,0.51316237449646,0.13708621263504028,0.6028088927268982
1761914656644763400,1.917763427734375,0.5409764051437378,0.156273752450943,0.5124979019165039
1761914656654819600,1.927819580078125,0.5523196458816528,0.1857602745294571,0.4072527289390564
1761914656664874500,1.93787451171875,0.569496750831604,0.21421243250370026,0.30028578639030457
1761914656674930400,1.947930419921875,0.6067788600921631,0.24212688207626343,0.18027842044830322
1761914656684986400,1.957986328125,0.6520150899887085,0.2626393437385559,0.0651630237698555
1761914656695041500,1.96804150390625,0.6973758935928345,0.281008243560791,-0.04434935376048088
1761914656705097500,1.978097412109375,0.7335341572761536,0.2978050708770752,-0.12352246791124344
1761914656715153400,1.9881533203125,0.7510055899620056,0.31572386622428894,-0.16803507506847382
1761914656725208600,1.99820849609375,0.764947235584259,0.314451664686203,-0.16176146268844604
1761914656735264500,2.008264404296875,0.7714136242866516,0.2924126982688904,-0.10372719168663025
1761914656745320400,2.018320556640625,0.7695842981338501,0.2779756784439087,-0.005284244194626808
1761914656755375400,2.028375244140625,0.7623139023780823,0.25948482751846313,0.11534203588962555
1761914656765431300,2.038431396484375,0.7316744923591614,0.25628983974456787,0.22711464762687683
1761914656775487500,2.048487548828125,0.6855913996696472,0.23872016370296478,0.318073570728302
1761914656785542400,2.05854248046875,0.6422132849693298,0.20755478739738464,0.3853040039539337
1761914656795598600,2.0685986328125,0.5954554080963135,0.1735621988773346,0.4238450229167938
1761914656805654500,2.078654541015625,0.549092173576355,0.164119690656662,0.4400487542152405
1761914656815709400,2.08870947265625,0.4945783019065857,0.18045152723789215,0.44282376766204834
1761914656825765400,2.098765380859375,0.44615858793258667,0.20013628900051117,0.444381982088089
1761914656835821300,2.1088212890625,0.4036470651626587,0.24987775087356567,0.45777982473373413
1761914656845876500,2.11887646484375,0.38081684708595276,0.30659669637680054,0.47776442766189575
1761914656855932400,2.128932373046875,0.3680672347545624,0.3618956208229065,0.4930717647075653
1761914656865988600,2.138988525390625,0.37185612320899963,0.41870883107185364,0.4818108379840851
1761914656876043500,2.14904345703125,0.381545752286911,0.4680798649787903,0.4356313645839691
1761914656886099500,2.159099365234375,0.416703999042511,0.4976382851600647,0.36062610149383545
1761914656896155400,2.1691552734375,0.4583025872707367,0.5203478336334229,0.2673339545726776
1761914656906210300,2.179210205078125,0.4835735857486725,0.5232272744178772,0.15526947379112244
1761914656916266500,2.1892666015625,0.4952712655067444,0.4919116795063019,0.026622556149959564
1761914656926322400,2.199322509765625,0.48626551032066345,0.44718337059020996,-0.10835336893796921
1761914656936377600,2.209377685546875,0.46844205260276794,0.39692577719688416,-0.24385526776313782
1761914656946433500,2.21943359375,0.43744656443595886,0.3472157418727875,-0.3829900026321411
1761914656956489500,2.229489501953125,0.4070926606655121,0.30501610040664673,-0.5091404914855957
1761914656966544400,2.23954443359375,0.3808368146419525,0.261663556098938,-0.6095794439315796
1761914656976600300,2.249600341796875,0.36579662561416626,0.22091160714626312,-0.6569392681121826
1761914656986656500,2.259656494140625,0.3618743121623993,0.20495633780956268,-0.6436213254928589
1761914656996711400,2.26971142578125,0.3633129596710205,0.2212706059217453,-0.5859577655792236
1761914657006767600,2.279767578125,0.34724611043930054,0.24970383942127228,-0.5228605270385742
1761914657016823600,2.289823486328125,0.32941198348999023,0.28492867946624756,-0.47724512219429016
1761914657026878500,2.29987841796875,0.3171215057373047,0.3150554299354553,-0.4611194133758545
1761914657036934400,2.309934326171875,0.3108825087547302,0.33583366870880127,-0.4607851803302765
1761914657046990300,2.319990234375,0.30568429827690125,0.35434690117836,-0.46583428978919983
1761914657057045500,2.33004541015625,0.3035913109779358,0.36809733510017395,-0.4736245572566986
1761914657067101700,2.340101806640625,0.30504778027534485,0.37839365005493164,-0.4572210907936096
1761914657077157400,2.350157470703125,0.31144577264785767,0.3948807418346405,-0.41063839197158813
1761914657087212500,2.360212646484375,0.31957054138183594,0.4129697382450104,-0.3273850679397583
1761914657097268500,2.3702685546875,0.3354179561138153,0.42963898181915283,-0.22647814452648163
1761914657107324700,2.38032470703125,0.36246928572654724,0.4497586488723755,-0.1333751082420349
1761914657117379600,2.390379638671875,0.4034486711025238,0.4822113811969757,-0.06366898864507675
1761914657127435800,2.400435791015625,0.4588184356689453,0.5109354257583618,-0.028137627989053726
1761914657137491700,2.41049169921875,0.5137853026390076,0.5271756649017334,-0.018567292019724846
1761914657147546600,2.420546630859375,0.5719159841537476,0.5223625302314758,-0.029265742748975754
1761914657157602600,2.4306025390625,0.6289201378822327,0.5103487372398376,-0.04611476510763168
1761914657167658500,2.440658447265625,0.6777372360229492,0.4952813684940338,-0.06115256994962692
1761914657177713700,2.450713623046875,0.7184878587722778,0.481363445520401,-0.07605322450399399
1761914657187769600,2.46076953125,0.7564399838447571,0.4689086377620697,-0.09514089673757553
1761914657197825800,2.47082568359375,0.7917487025260925,0.45419174432754517,-0.11390366405248642
1761914657207880400,2.48088037109375,0.8335158824920654,0.4320904314517975,-0.1269579529762268
1761914657217936600,2.4909365234375,0.8758739829063416,0.4128919541835785,-0.1368207037448883
1761914657227992600,2.50099267578125,0.9181056022644043,0.39859452843666077,-0.13283607363700867
1761914657238047500,2.511047607421875,0.9625798463821411,0.3901536166667938,-0.11685178428888321
1761914657248103700,2.521103759765625,0.9983628988265991,0.41098034381866455,-0.09168065339326859
1761914657258159600,2.53115966796875,1.0208239555358887,0.4205256402492523,-0.06353023648262024
1761914657268214800,2.54121484375,1.0438659191131592,0.43627291917800903,-0.0347856767475605
1761914657278270700,2.551270751953125,1.054051399230957,0.45465752482414246,-0.010015349835157394
1761914657288326400,2.561326416015625,1.0558674335479736,0.46968841552734375,0.023958595469594002
1761914657298381600,2.571381591796875,1.0522831678390503,0.4867272973060608,0.06659900397062302
1761914657308437500,2.5814375,1.0504250526428223,0.51787269115448,0.11058829724788666
1761914657318493700,2.59149365234375,1.0499608516693115,0.5671680569648743,0.14966405928134918
1761914657328548600,2.601548583984375,1.0547974109649658,0.6294008493423462,0.17668715119361877
1761914657338604800,2.611604736328125,1.0613535642623901,0.69898521900177,0.18788015842437744
1761914657348660700,2.62166064453125,1.0691111087799072,0.7565739750862122,0.18710356950759888
1761914657358715600,2.631715576171875,1.06974196434021,0.7974974513053894,0.17909438908100128
1761914657368771600,2.641771484375,1.0631067752838135,0.825931191444397,0.18687774240970612
1761914657378827500,2.65182763671875,1.06777822971344,0.8514338731765747,0.19792187213897705
1761914657388882700,2.661882568359375,1.0751993656158447,0.8660615682601929,0.21530991792678833
1761914657398938600,2.671938720703125,1.0766209363937378,0.8622844219207764,0.2500665485858917
1761914657408994600,2.68199462890625,1.0632188320159912,0.832121729850769,0.2921559512615204
1761914657419049500,2.692049560546875,1.0322257280349731,0.8088052272796631,0.33817723393440247
1761914657429105400,2.70210546875,1.0111029148101807,0.7841004133224487,0.3702225387096405
1761914657439161600,2.71216162109375,1.0055211782455444,0.7639027237892151,0.372501939535141
1761914657449216500,2.722216552734375,0.9721869230270386,0.7472073435783386,0.3444439172744751
1761914657459272700,2.732272705078125,0.9213634729385376,0.7398930191993713,0.3078654110431671
1761914657469328600,2.74232861328125,0.875540554523468,0.7408051490783691,0.2660926580429077
1761914657479383800,2.7523837890625,0.8607315421104431,0.7122824192047119,0.1994481235742569
1761914657489439700,2.762439697265625,0.8746292591094971,0.6530507802963257,0.10200812667608261
1761914657499495400,2.772495361328125,0.8713695406913757,0.5716767907142639,-0.01787593588232994
1761914657509550600,2.782550537109375,0.8354415893554688,0.45956864953041077,-0.12140659242868423
1761914657519606500,2.7926064453125,0.7948318719863892,0.3410806357860565,-0.20004653930664062
1761914657529662700,2.802662841796875,0.7587971687316895,0.24853098392486572,-0.2647794485092163
1761914657539717600,2.812717529296875,0.7342087626457214,0.20602107048034668,-0.30629974603652954
1761914657549773600,2.822773681640625,0.7363176941871643,0.1964736431837082,-0.29903358221054077
1761914657559829800,2.832829833984375,0.7450624704360962,0.20135627686977386,-0.24444542825222015
1761914657569884400,2.842884521484375,0.7384127974510193,0.2283351719379425,-0.15386679768562317
1761914657579940600,2.852940673828125,0.74933922290802,0.2549382746219635,-0.044199418276548386
1761914657589996500,2.86299658203125,0.7835707068443298,0.27749231457710266,0.08967049419879913
1761914657600051700,2.8730517578125,0.8367825150489807,0.28791913390159607,0.23970873653888702
1761914657610107600,2.883107666015625,0.8833507895469666,0.301151841878891,0.3853847086429596
1761914657620163600,2.89316357421875,0.9242867827415466,0.34786102175712585,0.5023832321166992
1761914657630218500,2.903218505859375,0.9812952280044556,0.42752736806869507,0.5920236110687256
1761914657640274400,2.9132744140625,1.057831048965454,0.5522701144218445,0.6496927738189697
1761914657650330600,2.92333056640625,1.1660280227661133,0.7012878060340881,0.6665822863578796
1761914657660385500,2.933385498046875,1.2871986627578735,0.8394736647605896,0.6460351943969727
1761914657670441700,2.943441650390625,1.3993966579437256,0.9602527618408203,0.5907256007194519
1761914657680497700,2.95349755859375,1.495699167251587,1.069959044456482,0.5105471611022949
1761914657690552800,2.963552734375,1.5856479406356812,1.139134168624878,0.41082268953323364
1761914657700608800,2.97360888671875,1.6426821947097778,1.211855411529541,0.3113946318626404
1761914657710664400,2.98366455078125,1.6925243139266968,1.2459183931350708,0.18731769919395447
1761914657720719600,2.9937197265625,1.716845154762268,1.244039535522461,0.03819159418344498
1761914657730775600,3.003775634765625,1.7253973484039307,1.2175953388214111,-0.15622182190418243
1761914657740831500,3.01383154296875,1.697360634803772,1.1448750495910645,-0.38820579648017883
1761914657750886700,3.02388671875,1.6422704458236694,1.0231190919876099,-0.6172925233840942
1761914657760942600,3.033942626953125,1.5774824619293213,0.8777291774749756,-0.8287344574928284
1761914657770998800,3.043998779296875,1.5202151536941528,0.7315269112586975,-0.9961172938346863
1761914657781053400,3.054053466796875,1.493526577949524,0.5992051362991333,-1.1177257299423218
1761914657791109600,3.064109619140625,1.4845447540283203,0.4916781187057495,-1.1994110345840454
1761914657801165600,3.07416552734375,1.4838896989822388,0.42437446117401123,-1.237328052520752
1761914657811220700,3.084220703125,1.481048345565796,0.36313772201538086,-1.2376620769500732
1761914657821276700,3.094276611328125,1.473948359489441,0.3233333230018616,-1.1978213787078857
1761914657831332600,3.10433251953125,1.4547924995422363,0.31454089283943176,-1.1436407566070557
1761914657841387500,3.114387451171875,1.4449238777160645,0.34561359882354736,-1.0902397632598877
1761914657851443500,3.124443359375,1.4444111585617065,0.3915483355522156,-1.0256648063659668
1761914657861499600,3.134499755859375,1.4486775398254395,0.43456795811653137,-0.9542649388313293
1761914657871554600,3.144554443359375,1.4563584327697754,0.48069098591804504,-0.889208972454071
1761914657881610800,3.15461083984375,1.472517728805542,0.5326077342033386,-0.8237535357475281
1761914657891666700,3.164666748046875,1.5074487924575806,0.5690965056419373,-0.7601780295372009
1761914657901721600,3.1747216796875,1.5434709787368774,0.6004853248596191,-0.7098008394241333
1761914657911777800,3.18477783203125,1.5755785703659058,0.6143923401832581,-0.6697857975959778
1761914657921833500,3.19483349609375,1.570183515548706,0.6370095014572144,-0.6394510865211487
1761914657931888600,3.204888671875,1.5295969247817993,0.6323713064193726,-0.608726978302002
1761914657941944600,3.214944580078125,1.455035924911499,0.6152522563934326,-0.5891985297203064
1761914657952000500,3.22500048828125,1.3755139112472534,0.5812210440635681,-0.5864169001579285
1761914657962055700,3.2350556640625,1.3127554655075073,0.5098494291305542,-0.5902017951011658
1761914657972111600,3.245111572265625,1.251227617263794,0.40135541558265686,-0.6019833087921143
1761914657982167800,3.255167724609375,1.193161129951477,0.2662367522716522,-0.6286231875419617
1761914657992222500,3.265222412109375,1.135176181793213,0.112673819065094,-0.6654658913612366
1761914658002278700,3.275278564453125,1.0832830667495728,-0.039934899657964706,-0.692939043045044
1761914658012334600,3.28533447265625,1.0336925983428955,-0.19052574038505554,-0.6740069389343262
1761914658022389800,3.2953896484375,0.9776656031608582,-0.3055788278579712,-0.5970386266708374
1761914658032445700,3.30544580078125,0.9218170046806335,-0.38292980194091797,-0.43088826537132263
1761914658042501600,3.315501708984375,0.8724830150604248,-0.4377232789993286,-0.19593462347984314
1761914658052556500,3.325556640625,0.8185572028160095,-0.43611979484558105,0.10637784004211426
1761914658062613000,3.335613037109375,0.7733715772628784,-0.3698238432407379,0.450843870639801
1761914658072669000,3.3456689453125,0.7599743008613586,-0.257554829120636,0.7605476975440979
1761914658082724000,3.35572412109375,0.7670758962631226,-0.05745450407266617,1.0072178840637207
1761914658092779800,3.36577978515625,0.7876205444335938,0.15963679552078247,1.179879903793335
1761914658102836000,3.3758359375,0.813591718673706,0.3435605466365814,1.3002904653549194
1761914658112891000,3.385890869140625,0.8442407250404358,0.4705382287502289,1.3667027950286865
1761914658122947000,3.395947021484375,0.8772484660148621,0.5370762348175049,1.3729718923568726
1761914658133003000,3.4060029296875,0.9081725478172302,0.5752622485160828,1.321961760520935
1761914658143059000,3.416058837890625,0.9317143559455872,0.5793227553367615,1.235090732574463
1761914658153114000,3.426114013671875,0.9290181994438171,0.5424004197120667,1.1260335445404053
1761914658163170000,3.436170166015625,0.9007375240325928,0.49996429681777954,1.000909686088562
1761914658173226000,3.44622607421875,0.8594990372657776,0.43319615721702576,0.8663561344146729
1761914658183281000,3.456281005859375,0.8131358027458191,0.3514501750469208,0.7203935980796814
1761914658193337000,3.466337158203125,0.765340268611908,0.2572389841079712,0.5928279161453247
1761914658203393000,3.47639306640625,0.7142347693443298,0.14986459910869598,0.4926786720752716
1761914658213448000,3.486447998046875,0.6541849970817566,0.052317533642053604,0.41796210408210754
1761914658223504100,3.496504150390625,0.5862978100776672,-0.011716310866177082,0.3923552632331848
1761914658233560000,3.50656005859375,0.5106544494628906,-0.03924647346138954,0.4085201323032379
1761914658243615000,3.516614990234375,0.4325072169303894,-0.02773549035191536,0.46444782614707947
1761914658253671000,3.5266708984375,0.36817750334739685,0.024824656546115875,0.5519151091575623
1761914658263726800,3.536726806640625,0.32611632347106934,0.1193905770778656,0.6547056436538696
1761914658273782000,3.546781982421875,0.30448639392852783,0.26587748527526855,0.7419646382331848
1761914658283838000,3.556837890625,0.30891895294189453,0.42314645648002625,0.811215877532959
1761914658293894100,3.56689404296875,0.3297070562839508,0.5669332146644592,0.8421130776405334
1761914658303948800,3.57694873046875,0.3516978621482849,0.6998792886734009,0.8351449370384216
1761914658314005000,3.5870048828125,0.3758969306945801,0.7945978045463562,0.7914714813232422
1761914658324061000,3.59706103515625,0.4147660434246063,0.8547316789627075,0.721770167350769
1761914658334116000,3.6071162109375,0.47876206040382385,0.8758715987205505,0.6286788582801819
1761914658344172000,3.617172119140625,0.55201655626297,0.8686981201171875,0.5427026748657227
1761914658354228000,3.62722802734375,0.6145406365394592,0.8571205735206604,0.4541211724281311
1761914658364283100,3.637283203125,0.6616112589836121,0.841995894908905,0.3617270588874817
1761914658374339000,3.647339111328125,0.7010294795036316,0.8443693518638611,0.2614811360836029
1761914658384395000,3.65739501953125,0.736112117767334,0.842585563659668,0.16638365387916565
1761914658394450000,3.667449951171875,0.7768288850784302,0.8168663382530212,0.07163210958242416
1761914658404505900,3.677505859375,0.8222267627716064,0.768317699432373,-0.01757686398923397
1761914658414562000,3.68756201171875,0.8681668043136597,0.696062445640564,-0.11283200979232788
1761914658424617000,3.697616943359375,0.9022337198257446,0.6223634481430054,-0.20670151710510254
1761914658434673200,3.707673095703125,0.919621467590332,0.554106593132019,-0.30197688937187195
1761914658444729000,3.71772900390625,0.9250940084457397,0.472096711397171,-0.4121159315109253
1761914658454784000,3.727783935546875,0.9260985255241394,0.3986733555793762,-0.5134848952293396
1761914658464840000,3.73783984375,0.9248309135437012,0.3244129717350006,-0.5992271900177002
1761914658474896000,3.747895751953125,0.9176914691925049,0.24439695477485657,-0.6573752164840698
1761914658484951000,3.757950927734375,0.9011790752410889,0.18959549069404602,-0.6762298345565796
1761914658495007000,3.768007080078125,0.888979971408844,0.15918326377868652,-0.6548686623573303
1761914658505063200,3.778063232421875,0.8823153972625732,0.1598796844482422,-0.5967371463775635
1761914658515117800,3.788117919921875,0.8889967203140259,0.1792304664850235,-0.5108211636543274
1761914658525174000,3.798174072265625,0.8917216658592224,0.23757366836071014,-0.41323232650756836
1761914658535230000,3.80822998046875,0.9122117757797241,0.28984805941581726,-0.3228813707828522
1761914658545284900,3.818284912109375,0.944430947303772,0.3233226537704468,-0.2572059631347656
1761914658555341000,3.828341064453125,0.9855517745018005,0.3539860248565674,-0.2293650060892105
1761914658565397000,3.83839697265625,1.0256688594818115,0.3893650770187378,-0.22967633605003357
1761914658575452200,3.8484521484375,1.0567172765731812,0.42396247386932373,-0.2646809220314026
1761914658585508000,3.858508056640625,1.0768563747406006,0.44755619764328003,-0.3076275885105133
1761914658595563800,3.868563720703125,1.091919183731079,0.4747425615787506,-0.3521804213523865
1761914658605619000,3.878618896484375,1.0981606245040894,0.48441967368125916,-0.3874760866165161
1761914658615675000,3.8886748046875,1.1071662902832031,0.4833195209503174,-0.41483980417251587
1761914658625731000,3.89873095703125,1.1125121116638184,0.4823514521121979,-0.4378194212913513
1761914658635786000,3.908785888671875,1.1104925870895386,0.46861860156059265,-0.45618003606796265
1761914658645842200,3.91884228515625,1.1078345775604248,0.4649333357810974,-0.4724421203136444
1761914658655898000,3.928898193359375,1.1105685234069824,0.4692133069038391,-0.4853658974170685
1761914658665953000,3.938953125,1.113588571548462,0.47909894585609436,-0.511447548866272
1761914658676006100,3.949006103515625,1.1257176399230957,0.47684645652770996,-0.5378040671348572
1761914658686062000,3.95906201171875,1.1479997634887695,0.4637271761894226,-0.5368320345878601
1761914658696117000,3.969116943359375,1.1670781373977661,0.43159961700439453,-0.49393248558044434
1761914658706173000,3.9791728515625,1.168363094329834,0.4049336314201355,-0.42951035499572754
1761914658716228900,3.989228759765625,1.1595454216003418,0.39508765935897827,-0.35842952132225037
1761914658726284000,3.999283935546875,1.1347590684890747,0.38967373967170715,-0.2746414244174957
1761914658736340000,4.009340087890625,1.1106483936309814,0.3954828679561615,-0.19895197451114655
1761914658746396200,4.019396240234375,1.082791805267334,0.39924514293670654,-0.1329391449689865
1761914658756450800,4.029450927734375,1.0626518726348877,0.42244473099708557,-0.07989456504583359
1761914658766507000,4.039507080078125,1.0485256910324097,0.45636406540870667,-0.04301697388291359
1761914658776563000,4.04956298828125,1.0421282052993774,0.5049907565116882,-0.0032690302468836308
1761914658786618000,4.0596181640625,1.0498253107070923,0.5584454536437988,0.03747120872139931
1761914658796674000,4.069674072265625,1.06777822971344,0.6040470004081726,0.08487627655267715
1761914658806730000,4.07972998046875,1.0869537591934204,0.6499958634376526,0.13150982558727264
1761914658816785200,4.08978515625,1.1216610670089722,0.6783707737922668,0.18036071956157684
1761914658826840800,4.0998408203125,1.1578103303909302,0.6961780190467834,0.22976848483085632
1761914658836897000,4.10989697265625,1.182545781135559,0.7096445560455322,0.29212987422943115
1761914658846952000,4.119951904296875,1.2096484899520874,0.7067155838012695,0.35717836022377014
1761914658857007900,4.1300078125,1.2215787172317505,0.6959803700447083,0.4275380074977875
1761914658867064000,4.14006396484375,1.2057693004608154,0.6795143485069275,0.49991315603256226
1761914658877119000,4.150118896484375,1.1627672910690308,0.6736111640930176,0.5606364011764526
1761914658887175200,4.160175048828125,1.119397759437561,0.6771819591522217,0.5785640478134155
1761914658897231000,4.170231201171875,1.0914582014083862,0.6756599545478821,0.5492817759513855
1761914658907286000,4.1802861328125,1.0514495372772217,0.6547195315361023,0.4720442295074463
1761914658917342000,4.190342041015625,0.997475266456604,0.6254020929336548,0.3691045343875885
1761914658927398000,4.20039794921875,0.9480323195457458,0.5891396999359131,0.2385803461074829
1761914658937453000,4.210453125,0.9115057587623596,0.5246123671531677,0.07735417783260345
1761914658947509000,4.220509033203125,0.8777621984481812,0.44600117206573486,-0.11276223510503769
1761914658957565200,4.230565185546875,0.8229284882545471,0.36920785903930664,-0.3115805387496948
1761914658967619800,4.240619873046875,0.7566983103752136,0.3061436712741852,-0.5003565549850464
1761914658977676000,4.250676025390625,0.6997902989387512,0.22967927157878876,-0.6402726769447327
1761914658987732000,4.26073193359375,0.6419121026992798,0.14046257734298706,-0.7068641781806946
1761914658997788000,4.270787841796875,0.6055111885070801,0.04879576712846756,-0.6363807320594788
1761914659007843000,4.280843017578125,0.5533545613288879,-0.017376061528921127,-0.4314499497413635
1761914659017899000,4.29089892578125,0.4993421733379364,-0.039731964468955994,-0.13419082760810852
1761914659027955000,4.300954833984375,0.4442403018474579,0.026072613894939423,0.18545614182949066
1761914659038009900,4.311009765625,0.407990425825119,0.16787394881248474,0.48367106914520264
1761914659048065800,4.321065673828125,0.3999767005443573,0.35862499475479126,0.7162230610847473
1761914659058122000,4.3311220703125,0.4381627142429352,0.5615267157554626,0.8747578859329224
1761914659068176000,4.34117578125,0.5211244225502014,0.7447586059570312,0.956750214099884
1761914659078231800,4.351231689453125,0.5981044173240662,0.8808245658874512,0.9612123370170593
1761914659088287700,4.361287841796875,0.6691077947616577,0.976850688457489,0.9244545698165894
1761914659098343000,4.371343017578125,0.7587106227874756,1.0440478324890137,0.8656535744667053
1761914659108398800,4.38139892578125,0.8342871069908142,1.0576715469360352,0.7785463929176331
1761914659118455000,4.391455078125,0.8947299718856812,1.0182760953903198,0.6608527898788452
1761914659128509700,4.401509765625,0.9445318579673767,0.9465809464454651,0.5257806777954102
1761914659138566000,4.41156591796875,0.9681400060653687,0.8499289751052856,0.36547625064849854
1761914659148621800,4.421621826171875,0.9767289757728577,0.7432610988616943,0.21632005274295807
1761914659158676700,4.4316767578125,0.9705286026000977,0.6518712639808655,0.08203654736280441
1761914659168733000,4.44173291015625,0.962660551071167,0.5814080238342285,-0.035538021475076675
1761914659178788900,4.451788818359375,0.9618818759918213,0.543938159942627,-0.14530766010284424
1761914659188843800,4.46184375,0.9511176347732544,0.5214295983314514,-0.23488014936447144
1761914659198899700,4.471899658203125,0.9580346345901489,0.5039883255958557,-0.27959543466567993
1761914659208955600,4.48195556640625,0.9733981490135193,0.46461614966392517,-0.2786595821380615
1761914659219010800,4.4920107421875,1.0026977062225342,0.4258010983467102,-0.24754294753074646
1761914659229066800,4.502066650390625,1.0353931188583374,0.4004606008529663,-0.2137562334537506
1761914659239123000,4.512123046875,1.056966781616211,0.4008299708366394,-0.18923437595367432
1761914659249177900,4.522177734375,1.0754765272140503,0.424022376537323,-0.18371550738811493
1761914659259233800,4.53223388671875,1.0993555784225464,0.42382317781448364,-0.2010103315114975
1761914659269289700,4.542289794921875,1.1220324039459229,0.38544464111328125,-0.2349078506231308
1761914659279345000,4.552344970703125,1.135933756828308,0.3442324697971344,-0.27971288561820984
1761914659289400800,4.56240087890625,1.1456180810928345,0.31574782729148865,-0.3338354825973511
1761914659299456800,4.572456787109375,1.1484850645065308,0.28746986389160156,-0.37951216101646423
1761914659309512000,4.582511962890625,1.1355026960372925,0.26546603441238403,-0.409005343914032
1761914659319568000,4.59256787109375,1.1041921377182007,0.2277016043663025,-0.41373857855796814
1761914659329624000,4.6026240234375,1.0525275468826294,0.18418395519256592,-0.39577797055244446
1761914659339678700,4.6126787109375,0.9954608678817749,0.14298857748508453,-0.38002777099609375
1761914659349734700,4.622734619140625,0.9325718879699707,0.11254891753196716,-0.3723661005496979
1761914659359790800,4.632790771484375,0.8662703633308411,0.08826275169849396,-0.363015741109848
1761914659369845800,4.642845703125,0.8154112100601196,0.08498386293649673,-0.3566302955150604
1761914659379902000,4.65290185546875,0.7720075249671936,0.09563331305980682,-0.32889533042907715
1761914659389958000,4.6629580078125,0.7322686314582825,0.10572776198387146,-0.2946862280368805
1761914659400012800,4.6730126953125,0.7022407054901123,0.13027997314929962,-0.22299019992351532
1761914659410068700,4.68306884765625,0.6902545690536499,0.17221570014953613,-0.13455621898174286
1761914659420124700,4.693124755859375,0.6813814640045166,0.21302253007888794,-0.04534883797168732
1761914659430179800,4.703179931640625,0.6694510579109192,0.24802178144454956,0.03449193015694618
1761914659440235800,4.71323583984375,0.6504606008529663,0.275301069021225,0.09976121783256531
1761914659450292000,4.7232919921875,0.6236438751220703,0.2855023145675659,0.14791755378246307
1761914659460347000,4.733346923828125,0.5889713764190674,0.2817946672439575,0.17766693234443665
1761914659470402800,4.74340283203125,0.5531167387962341,0.23978756368160248,0.19098034501075745
1761914659480458800,4.753458740234375,0.5226501822471619,0.1744636744260788,0.18993878364562988
1761914659490514000,4.763513916015625,0.4960246682167053,0.11301523447036743,0.1752152293920517
1761914659500569900,4.77356982421875,0.4732905924320221,0.0806698128581047,0.15491901338100433
1761914659510625800,4.783625732421875,0.44640064239501953,0.06698755919933319,0.13858850300312042
1761914659520681000,4.793680908203125,0.42229825258255005,0.05255348980426788,0.13255085051059723
1761914659530737000,4.80373681640625,0.3978179395198822,0.021040303632616997,0.14718066155910492
1761914659540792800,4.813792724609375,0.3808615803718567,-0.006819556467235088,0.18943597376346588
1761914659550847700,4.82384765625,0.35424330830574036,-0.026339195668697357,0.239637091755867
1761914659560903700,4.833903564453125,0.3229072093963623,-0.0314740352332592,0.29208725690841675
1761914659570960000,4.8439599609375,0.28714656829833984,-0.03540406376123428,0.34415552020072937
1761914659581015800,4.854015869140625,0.26296958327293396,-0.031554464250802994,0.4042539894580841
1761914659591071000,4.864071044921875,0.2302989810705185,-0.02034841477870941,0.46084246039390564
1761914659601127000,4.874126953125,0.17951516807079315,0.014658038504421711,0.5033693909645081
1761914659611182800,4.884182861328125,0.16823002696037292,0.05835491791367531,0.5221492052078247
1761914659621237800,4.89423779296875,0.20713986456394196,0.09580908715724945,0.5010582804679871
1761914659631293700,4.904293701171875,0.2445322424173355,0.13896481692790985,0.46044936776161194
1761914659641350000,4.914349853515625,0.24938905239105225,0.17117653787136078,0.4164169132709503
1761914659651404800,4.92440478515625,0.256658673286438,0.18854089081287384,0.37448650598526
1761914659661461000,4.9344609375,0.28509777784347534,0.20017915964126587,0.3180309534072876
1761914659671517000,4.944516845703125,0.32290029525756836,0.20908264815807343,0.2315802276134491
1761914659681571800,4.95457177734375,0.3661217987537384,0.22507067024707794,0.1442061811685562
1761914659691627800,4.964627685546875,0.40049946308135986,0.23915639519691467,0.06376912444829941
1761914659701683700,4.97468359375,0.417369544506073,0.23361195623874664,0.01369290892034769
1761914659711739000,4.98473876953125,0.42048996686935425,0.2063172161579132,0.012376242317259312
1761914659721794800,4.994794921875,0.40945035219192505,0.1740117371082306,0.04629239812493324
1761914659731850800,5.004850830078125,0.3926226496696472,0.1408732384443283,0.10840823501348495
1761914659741906000,5.014906005859375,0.3781939148902893,0.11703900247812271,0.19643636047840118
1761914659751961600,5.024961669921875,0.36370816826820374,0.09139436483383179,0.29274559020996094
1761914659762017800,5.035017822265625,0.33868005871772766,0.057975683361291885,0.37446361780166626
1761914659772072700,5.04507275390625,0.3071591556072235,0.024143951013684273,0.4273902177810669
1761914659782129000,5.05512890625,0.2671225070953369,-0.003768372815102339,0.4782975912094116
1761914659792184800,5.065184814453125,0.20523011684417725,-0.011606588959693909,0.5134156346321106
1761914659802240000,5.075239990234375,0.14472335577011108,0.028271852061152458,0.5536733269691467
1761914659812296000,5.0852958984375,0.10490244626998901,0.1034100130200386,0.5975337028503418
1761914659822352000,5.095351806640625,0.1000128835439682,0.19199500977993011,0.6342861652374268
1761914659832406800,5.10540673828125,0.13343875110149384,0.2827209234237671,0.6623066067695618
1761914659842462700,5.115462646484375,0.20688501000404358,0.3768759071826935,0.6734516620635986
1761914659852519000,5.125518798828125,0.2963933050632477,0.4574778079986572,0.6575637459754944
1761914659862573800,5.13557373046875,0.36051103472709656,0.5064551830291748,0.6092028617858887
1761914659872629800,5.145629638671875,0.3785659372806549,0.5084512233734131,0.5237913131713867
1761914659882686000,5.15568603515625,0.3517495095729828,0.4804723262786865,0.4111635684967041
1761914659892740600,5.16574072265625,0.3082755506038666,0.40075594186782837,0.2779756784439087
1761914659902796800,5.175796875,0.2527227997779846,0.31971487402915955,0.13403503596782684
1761914659912852700,5.185852783203125,0.21611206233501434,0.20552359521389008,0.0021494373213499784
1761914659922908000,5.195907958984375,0.17718596756458282,0.11119017004966736,-0.11941561102867126
1761914659932963800,5.2059638671875,0.13007678091526031,0.05419665947556496,-0.2036774903535843
1761914659943019800,5.216019775390625,0.07669850438833237,0.028328843414783478,-0.24306485056877136
1761914659953075000,5.226074951171875,0.030888406559824944,0.019930299371480942,-0.24108505249023438
1761914659963130600,5.236130615234375,-0.0010900318156927824,0.014481470920145512,-0.20792576670646667
1761914659973186800,5.246186767578125,-0.027226561680436134,-0.015320366248488426,-0.14105938374996185
1761914659983242800,5.25624267578125,-0.05331382155418396,-0.050887949764728546,-0.07477197796106339
1761914659993298000,5.2662978515625,-0.08346187323331833,-0.07165954262018204,-0.02124004065990448
1761914660003353900,5.276353759765625,-0.10973554849624634,-0.07452216744422913,0.004911934491246939
1761914660013409800,5.286409912109375,-0.1334848254919052,-0.05728166550397873,0.0038488004356622696
1761914660023465000,5.29646484375,-0.13676796853542328,-0.03374171629548073,-0.003498594742268324
1761914660033521000,5.30652099609375,-0.1298578679561615,-0.010694189928472042,-0.007511978503316641
1761914660043576800,5.316576904296875,-0.12034318596124649,0.01525938045233488,0.0058067562058568
1761914660053631700,5.3266318359375,-0.11111506819725037,0.03235287964344025,0.03248018026351929
1761914660063687700,5.336687744140625,-0.10026348382234573,0.04706737771630287,0.06989173591136932
1761914660073745000,5.346744873046875,-0.09672068059444427,0.06684906780719757,0.10065656900405884
1761914660083799600,5.356799560546875,-0.08703263849020004,0.07684125006198883,0.11960123479366302
1761914660093855700,5.366855712890625,-0.06908692419528961,0.0943206399679184,0.1099531352519989
1761914660103911700,5.37691162109375,-0.039325300604104996,0.11101440340280533,0.0892888680100441
1761914660113966600,5.386966552734375,-0.0010836402652785182,0.1305694580078125,0.04737204313278198
1761914660124022800,5.397022705078125,0.04608041048049927,0.1478448510169983,0.01070857048034668
1761914660134078700,5.40707861328125,0.10052154958248138,0.16586540639400482,-0.014226073399186134
1761914660144134000,5.4171337890625,0.15270964801311493,0.18535281717777252,-0.024562867358326912
1761914660154189600,5.427189453125,0.2028050422668457,0.20954443514347076,-0.02196868136525154
1761914660164245500,5.43724560546875,0.25195395946502686,0.24352557957172394,-0.01702532172203064
1761914660174300700,5.44730078125,0.3069985508918762,0.2779653072357178,-0.021856829524040222
1761914660184356600,5.457356689453125,0.36539074778556824,0.2951304316520691,-0.037574540823698044
1761914660194412800,5.467412841796875,0.4218130111694336,0.30950087308883667,-0.062190402299165726
1761914660204467700,5.4774677734375,0.47286128997802734,0.31765198707580566,-0.09259038418531418
1761914660214524000,5.48752392578125,0.5135019421577454,0.3352091610431671,-0.1208832785487175
1761914660224579800,5.497579833984375,0.5537130236625671,0.35901114344596863,-0.1383458971977234
1761914660234634800,5.507634765625,0.6018671989440918,0.38717859983444214,-0.14013366401195526
1761914660244690700,5.517690673828125,0.6549093723297119,0.4096176028251648,-0.12649428844451904
1761914660254746600,5.52774658203125,0.7056114673614502,0.41530877351760864,-0.10083047300577164
1761914660264801800,5.5378017578125,0.7492585182189941,0.4176137447357178,-0.07052556425333023
1761914660274857700,5.547857666015625,0.7783216238021851,0.4015596807003021,-0.03484559804201126
1761914660284913700,5.55791357421875,0.7946662306785583,0.39032408595085144,0.018742794170975685
1761914660294968600,5.567968505859375,0.8060171604156494,0.3857274651527405,0.0841553583741188
1761914660305024500,5.5780244140625,0.8064043521881104,0.3893056809902191,0.14674603939056396
1761914660315080700,5.588080810546875,0.7950319051742554,0.4101414382457733,0.2080024629831314
1761914660325135600,5.598135498046875,0.8172064423561096,0.44766005873680115,0.24583692848682404
1761914660335191800,5.60819189453125,0.8721727132797241,0.49102193117141724,0.25063541531562805
1761914660345247700,5.618247802734375,0.913192629814148,0.5245122313499451,0.226112499833107
1761914660355303000,5.628302978515625,0.9254831075668335,0.5389537811279297,0.1813330352306366
1761914660365358600,5.638358642578125,0.9155660271644592,0.5295581221580505,0.12173069268465042
1761914660375414500,5.64841455078125,0.9032400846481323,0.4875749945640564,0.026694994419813156
1761914660385469700,5.6584697265625,0.9050332307815552,0.4308643043041229,-0.10124246776103973
1761914660395525600,5.668525634765625,0.8928617835044861,0.36638331413269043,-0.23579227924346924
1761914660405581800,5.678581787109375,0.8444947600364685,0.3032536208629608,-0.345492422580719
1761914660415636700,5.68863671875,0.7883380055427551,0.23540213704109192,-0.4290757179260254
1761914660425692700,5.698692626953125,0.7597811818122864,0.1698412299156189,-0.4803466498851776
1761914660435748900,5.708748779296875,0.7597431540489197,0.12638403475284576,-0.49827584624290466
1761914660445803500,5.718803466796875,0.7812191247940063,0.11045673489570618,-0.47596707940101624
1761914660455859700,5.728859619140625,0.797391414642334,0.10728543996810913,-0.41649550199508667
1761914660465915600,5.73891552734375,0.7990668416023254,0.11667148768901825,-0.31952181458473206
1761914660475970800,5.748970703125,0.7806186079978943,0.12083587050437927,-0.20195655524730682
1761914660486026800,5.75902685546875,0.7500601410865784,0.13018250465393066,-0.06926189363002777
1761914660496082700,5.769082763671875,0.7163634300231934,0.14606772363185883,0.057789530605077744
1761914660506137600,5.7791376953125,0.6793835759162903,0.17647810280323029,0.17620405554771423
1761914660516193500,5.789193603515625,0.6571520566940308,0.22566108405590057,0.269468754529953
1761914660526249700,5.799249755859375,0.6571043729782104,0.26567721366882324,0.33935117721557617
1761914660536304600,5.8093046875,0.6730042099952698,0.3047527074813843,0.3681601881980896
1761914660546360800,5.81936083984375,0.6973681449890137,0.3501329720020294,0.3745163381099701
1761914660556416800,5.829416748046875,0.721396803855896,0.394621878862381,0.34847888350486755
1761914660566472000,5.839471923828125,0.746354877948761,0.43933847546577454,0.2981094419956207
1761914660576527600,5.849527587890625,0.7697672843933105,0.49095508456230164,0.2053574174642563
1761914660586583600,5.85958349609375,0.7927748560905457,0.537811815738678,0.07997206598520279
1761914660596639700,5.8696396484375,0.7960502505302429,0.5608385801315308,-0.061103835701942444
1761914660606694700,5.879694580078125,0.7707116007804871,0.555748462677002,-0.19353723526000977
1761914660616750600,5.88975048828125,0.726702868938446,0.532659649848938,-0.3146021366119385
1761914660626806800,5.899806884765625,0.6799865365028381,0.49222061038017273,-0.43300095200538635
1761914660636861700,5.90986181640625,0.6388774514198303,0.4479639232158661,-0.541695773601532
1761914660646917600,5.919917724609375,0.6179969310760498,0.4197927415370941,-0.640322744846344
1761914660656973600,5.9299736328125,0.5922412276268005,0.38829952478408813,-0.7321271896362305
1761914660667028700,5.94002880859375,0.5573751330375671,0.348589688539505,-0.8091532588005066
1761914660677084700,5.950084716796875,0.5033068060874939,0.2954881191253662,-0.8599328398704529
1761914660687140600,5.960140625,0.43939948081970215,0.22591115534305573,-0.8666083216667175
1761914660697195800,5.97019580078125,0.3940652906894684,0.16661560535430908,-0.8150702714920044
1761914660707251700,5.980251708984375,0.37496188282966614,0.11240536719560623,-0.7079627513885498
1761914660717308000,5.990307861328125,0.3478269577026367,0.11417530477046967,-0.5975267887115479
1761914660727362600,6.000362548828125,0.3342594802379608,0.1366174966096878,-0.4930776059627533
1761914660737418800,6.010418701171875,0.3468732535839081,0.17520084977149963,-0.4078764319419861
1761914660747474700,6.020474609375,0.353638231754303,0.2173008918762207,-0.3486061990261078
1761914660757529900,6.03052978515625,0.3665335178375244,0.24957174062728882,-0.3091330826282501
1761914660767585800,6.040585693359375,0.3762647211551666,0.27512505650520325,-0.27700310945510864
1761914660777641700,6.050641845703125,0.39589592814445496,0.27933469414711,-0.24147041141986847
1761914660787696600,6.060696533203125,0.40540581941604614,0.2719534933567047,-0.2013714611530304
1761914660797752600,6.070752685546875,0.40032556653022766,0.25175660848617554,-0.16259850561618805
1761914660807808500,6.08080859375,0.3850579261779785,0.21892063319683075,-0.13377271592617035
1761914660817863700,6.09086376953125,0.36153289675712585,0.17805282771587372,-0.1289696991443634
1761914660827919600,6.100919677734375,0.32856109738349915,0.12995027005672455,-0.1592692881822586
1761914660837975800,6.110975830078125,0.3012373447418213,0.08258835226297379,-0.21353119611740112
1761914660848030700,6.12103076171875,0.26805275678634644,0.029761090874671936,-0.28602537512779236
1761914660858086700,6.131086669921875,0.2293548882007599,-0.006868292577564716,-0.3722819685935974
1761914660868142600,6.141142578125,0.17412492632865906,-0.04111334681510925,-0.4497290849685669
1761914660878197800,6.15119775390625,0.11822357773780823,-0.07357701659202576,-0.5139538645744324
1761914660888253700,6.161253662109375,0.07095459848642349,-0.09798461943864822,-0.5541177988052368
1761914660898309600,6.1713095703125,0.03158189356327057,-0.11768508702516556,-0.5602867603302002
1761914660908364800,6.18136474609375,-0.004542287439107895,-0.13801433145999908,-0.5322444438934326
1761914660918420700,6.191420654296875,-0.04249792546033859,-0.1549309939146042,-0.46876800060272217
1761914660928477000,6.201476806640625,-0.07735896855592728,-0.15309473872184753,-0.3850853741168976
1761914660938531600,6.211531494140625,-0.09940887987613678,-0.14841637015342712,-0.2999925911426544
1761914660948587800,6.221587890625,-0.11257021874189377,-0.13900023698806763,-0.22679400444030762
1761914660958643700,6.231643798828125,-0.12383618950843811,-0.1325809508562088,-0.17928959429264069
1761914660968698600,6.24169873046875,-0.12906716763973236,-0.13065335154533386,-0.1462285816669464
1761914660978754800,6.2517548828125,-0.12375576049089432,-0.13703028857707977,-0.12701015174388885
1761914660988810800,6.261810791015625,-0.11989843845367432,-0.14916764199733734,-0.11601794511079788
1761914660998865700,6.27186572265625,-0.1200726106762886,-0.16155746579170227,-0.10677598416805267
1761914661008921600,6.281921630859375,-0.10654322057962418,-0.17065109312534332,-0.07943836599588394
1761914661018977500,6.2919775390625,-0.10413572192192078,-0.20217441022396088,-0.03773379698395729
1761914661029032700,6.30203271484375,-0.08915677666664124,-0.23193815350532532,0.01962323673069477
1761914661039088600,6.312088623046875,-0.07536133378744125,-0.2458323985338211,0.07604416459798813
1761914661049144800,6.322144775390625,-0.05678258836269379,-0.2556493580341339,0.1476733535528183
1761914661059199700,6.33219970703125,-0.05072949081659317,-0.2708059251308441,0.2057744711637497
1761914661069255000,6.3422548828125,-0.050985950976610184,-0.2740209102630615,0.2629251182079315
1761914661079310800,6.352310791015625,-0.05640575289726257,-0.2720602750778198,0.33366426825523376
1761914661089366000,6.362365966796875,-0.07263239473104477,-0.2809903919696808,0.4171338379383087
1761914661099422000,6.372421875,-0.07311202585697174,-0.2853430509567261,0.5200924277305603
1761914661109478000,6.382477783203125,-0.04757444187998772,-0.2796976864337921,0.6316759586334229
1761914661119533000,6.392532958984375,-0.011930961161851883,-0.2536375820636749,0.7446104884147644
1761914661129589000,6.402589111328125,0.05415751039981842,-0.18115940690040588,0.8390347361564636
1761914661139645200,6.412645263671875,0.1446637064218521,-0.05163922533392906,0.888759195804596
1761914661149699800,6.422699951171875,0.2789511978626251,0.12029498815536499,0.8864352703094482
1761914661159756000,6.432756103515625,0.44594791531562805,0.30790162086486816,0.8338857889175415
1761914661169812000,6.44281201171875,0.6347106695175171,0.44505763053894043,0.7524814605712891
1761914661179867100,6.4528671875,0.7996817827224731,0.5334609746932983,0.6587435603141785
1761914661189923000,6.462923095703125,0.9264407753944397,0.5642420649528503,0.5730576515197754
1761914661199979000,6.47297900390625,0.9894170761108398,0.5581884384155273,0.5084797143936157
1761914661210035200,6.48303515625,1.00912606716156,0.5312787890434265,0.4514846205711365
1761914661220089900,6.49308984375,1.0020886659622192,0.4643349051475525,0.3979969024658203
1761914661230146000,6.50314599609375,0.974998950958252,0.3937782049179077,0.34652653336524963
1761914661240202000,6.513201904296875,0.9420831203460693,0.30373111367225647,0.3113035559654236
1761914661250257000,6.5232568359375,0.9031327962875366,0.2293540984392166,0.3122654855251312
1761914661260313000,6.53331298828125,0.8699854612350464,0.1754743456840515,0.3517859876155853
1761914661270369000,6.543369140625,0.8501409292221069,0.1438319981098175,0.40533336997032166
1761914661280424000,6.553423828125,0.8370230197906494,0.13795067369937897,0.4692700207233429
1761914661290479900,6.56347998046875,0.8276944756507874,0.14758838713169098,0.5264124274253845
1761914661300535800,6.573535888671875,0.8196077942848206,0.1592825949192047,0.5728132128715515
1761914661310591000,6.583591064453125,0.8104614615440369,0.1775641292333603,0.6070142984390259
1761914661320647000,6.59364697265625,0.7852460741996765,0.20215310156345367,0.6342020034790039
1761914661330703000,6.603703125,0.7559779286384583,0.2252887785434723,0.6487907767295837
1761914661340758000,6.613758056640625,0.7243688702583313,0.24514557421207428,0.6473361849784851
1761914661350814200,6.623814208984375,0.6876042485237122,0.25668931007385254,0.6366510391235352
1761914661360870000,6.633869873046875,0.6501098275184631,0.28166231513023376,0.6200856566429138
1761914661370925000,6.643925048828125,0.62582927942276,0.32556718587875366,0.6156810522079468
1761914661380981000,6.65398095703125,0.6108700037002563,0.4024268090724945,0.6148466467857361
1761914661391037000,6.664036865234375,0.6258037090301514,0.49549442529678345,0.6114526987075806
1761914661401092000,6.674092041015625,0.66312175989151,0.5857316255569458,0.6035228967666626
1761914661411148000,6.68414794921875,0.7201339602470398,0.6689746379852295,0.5867074131965637
1761914661421204000,6.694203857421875,0.7704178690910339,0.7378208041191101,0.5569306015968323
1761914661431259000,6.7042587890625,0.7999606132507324,0.7756888270378113,0.5126364231109619
1761914661441314800,6.714314697265625,0.8070981502532959,0.7828998565673828,0.4469119906425476
1761914661451371000,6.72437109375,0.8248166441917419,0.7660907506942749,0.3703479766845703
1761914661461426000,6.734426025390625,0.8390073180198669,0.7474483847618103,0.26986315846443176
1761914661471482000,6.744482177734375,0.8625427484512329,0.7143857479095459,0.1535903513431549
1761914661481538000,6.7545380859375,0.8991071581840515,0.6689788699150085,0.027934428304433823
1761914661491593000,6.764593017578125,0.9369264245033264,0.606711208820343,-0.09317362308502197
1761914661501649000,6.77464892578125,0.953834056854248,0.5455402731895447,-0.20166254043579102
1761914661511704800,6.784704833984375,0.9469699859619141,0.4883672893047333,-0.29270243644714355
1761914661521760000,6.794760009765625,0.9326925277709961,0.4570154845714569,-0.3593975901603699
1761914661531816000,6.80481591796875,0.905195951461792,0.449683278799057,-0.41330474615097046
1761914661541872000,6.8148720703125,0.8863186240196228,0.4434804916381836,-0.4531267285346985
1761914661551927000,6.824927001953125,0.8852038383483887,0.445730060338974,-0.47167059779167175
1761914661561983200,6.834983154296875,0.8976882100105286,0.46903538703918457,-0.46499112248420715
1761914661572039000,6.845038818359375,0.9175103902816772,0.5126997828483582,-0.433810293674469
1761914661582094000,6.855093994140625,0.9498129487037659,0.5717103481292725,-0.387037456035614
1761914661592150000,6.86514990234375,0.9879605770111084,0.6376707553863525,-0.33329248428344727
1761914661602206000,6.8752060546875,1.0327818393707275,0.6924495697021484,-0.2865492105484009
1761914661612262000,6.885261962890625,1.0766468048095703,0.7423638701438904,-0.2463863343000412
1761914661622317000,6.895317138671875,1.1178005933761597,0.7926315665245056,-0.21412454545497894
1761914661632373000,6.905373046875,1.1540340185165405,0.839149534702301,-0.18045100569725037
1761914661642429000,6.915428955078125,1.1825164556503296,0.8780910968780518,-0.14472949504852295
1761914661652483800,6.92548388671875,1.2172411680221558,0.9227400422096252,-0.11706643551588058
1761914661662540000,6.9355400390625,1.2523608207702637,0.9707373976707458,-0.10064884275197983
1761914661672596000,6.945595947265625,1.2889076471328735,1.0104706287384033,-0.09885707497596741
1761914661682651100,6.955651123046875,1.3286707401275635,1.042392373085022,-0.11044128984212875
1761914661692707000,6.96570703125,1.3673769235610962,1.0556293725967407,-0.1306738555431366
1761914661702763000,6.975762939453125,1.405889630317688,1.0579545497894287,-0.14948828518390656
1761914661712818000,6.98581787109375,1.448159098625183,1.0638636350631714,-0.1588202714920044
1761914661722873900,6.995873779296875,1.4981995820999146,1.0702911615371704,-0.15972468256950378
1761914661732930000,7.005929931640625,1.551283359527588,1.0569926500320435,-0.15122653543949127
1761914661742985000,7.01598486328125,1.5825086832046509,1.033345103263855,-0.1353229433298111
1761914661753041200,7.026041259765625,1.6011537313461304,1.0111801624298096,-0.11733754724264145
1761914661763097000,7.03609716796875,1.6093029975891113,0.9982798099517822,-0.1119113564491272
1761914661773152000,7.046152099609375,1.6072152853012085,0.9930333495140076,-0.11590210348367691
1761914661783208000,7.0562080078125,1.6174839735031128,0.9928240776062012,-0.13493704795837402
1761914661793263900,7.066263916015625,1.6311120986938477,0.9850707650184631,-0.15851321816444397
1761914661803319000,7.076319091796875,1.649217128753662,0.9765356183052063,-0.16384485363960266
1761914661813375000,7.086375,1.6638131141662598,0.9741142988204956,-0.15769775211811066
1761914661823431000,7.096430908203125,1.6637076139450073,0.9880439639091492,-0.14642459154129028
1761914661833486000,7.106486083984375,1.6656948328018188,1.0096834897994995,-0.1308557540178299
1761914661843542000,7.1165419921875,1.6767256259918213,1.03572416305542,-0.11472152173519135
1761914661853598000,7.126597900390625,1.6924670934677124,1.0602248907089233,-0.09879129379987717
1761914661863652900,7.13665283203125,1.7185537815093994,1.0777312517166138,-0.08192522823810577
1761914661873709000,7.146708984375,1.7378164529800415,1.0854219198226929,-0.062003448605537415
1761914661883765000,7.156764892578125,1.7516963481903076,1.0783791542053223,-0.026092320680618286
1761914661893821000,7.166821044921875,1.7524046897888184,1.0466721057891846,0.017041567713022232
1761914661903876000,7.1768759765625,1.7484017610549927,1.0094085931777954,0.07555041462182999
1761914661913932000,7.18693212890625,1.7349839210510254,0.9814227819442749,0.13915576040744781
1761914661923988200,7.19698828125,1.7298780679702759,0.9612551927566528,0.18184490501880646
1761914661934043000,7.20704296875,1.71811842918396,0.9307907819747925,0.17748263478279114
1761914661944099000,7.21709912109375,1.701769232749939,0.887864887714386,0.14201146364212036
1761914661954155000,7.227155029296875,1.6641017198562622,0.8222757577896118,0.07707587629556656
1761914661964210000,7.2372099609375,1.6173182725906372,0.742388129234314,-0.011049188673496246
1761914661974266000,7.24726611328125,1.5697896480560303,0.6520867347717285,-0.12524260580539703
1761914661984322000,7.257322021484375,1.513540267944336,0.5609346628189087,-0.24089862406253815
1761914661994377000,7.267376953125,1.4382134675979614,0.4767859876155853,-0.331708699464798
1761914662004433000,7.277432861328125,1.3596504926681519,0.406391441822052,-0.3823588192462921
1761914662014488800,7.28748876953125,1.2803088426589966,0.3595464527606964,-0.3997173011302948
1761914662024544000,7.2975439453125,1.2151421308517456,0.33439475297927856,-0.39635905623435974
1761914662034600000,7.307599853515625,1.148861289024353,0.32362547516822815,-0.36631008982658386
1761914662044656000,7.31765625,1.084663987159729,0.3320746123790741,-0.30842041969299316
1761914662054711000,7.3277109375,1.0084749460220337,0.3415570557117462,-0.23126012086868286
1761914662064767000,7.33776708984375,0.9297276139259338,0.3549407720565796,-0.14383067190647125
1761914662074826800,7.34782666015625,0.8550206422805786,0.3662371039390564,-0.07732221484184265
1761914662084882700,7.357882568359375,0.7829459309577942,0.38070234656333923,-0.026148246601223946
1761914662094937900,7.367937744140625,0.7143090963363647,0.4014265239238739,0.01537362951785326
1761914662104993800,7.377993896484375,0.6577208638191223,0.4339405298233032,0.06368177384138107
1761914662115049700,7.3880498046875,0.6253603100776672,0.453157901763916,0.11721530556678772
1761914662125104600,7.398104736328125,0.6113126277923584,0.47700783610343933,0.17703363299369812
1761914662135160600,7.40816064453125,0.6148597002029419,0.5087189078330994,0.23062442243099213
1761914662145216800,7.418216796875,0.631955087184906,0.5411476492881775,0.274320513010025
1761914662155271700,7.428271728515625,0.6597262620925903,0.5626572370529175,0.3074893653392792
1761914662165328000,7.438327880859375,0.6807004809379578,0.5695385932922363,0.3258710503578186
1761914662175383800,7.4483837890625,0.6975148916244507,0.5578784346580505,0.3323630392551422
1761914662185438700,7.458438720703125,0.715562641620636,0.5322985053062439,0.3241160213947296
1761914662195494700,7.46849462890625,0.7391515374183655,0.5124691724777222,0.3087591826915741
1761914662205550600,7.478550537109375,0.7756781578063965,0.4843389689922333,0.2850794196128845
1761914662215605800,7.488605712890625,0.8172570466995239,0.4574037790298462,0.2494279444217682
1761914662225661700,7.49866162109375,0.8611453771591187,0.4397941529750824,0.19624966382980347
1761914662235718000,7.5087177734375,0.9125800728797913,0.42192327976226807,0.11869841814041138
1761914662245773800,7.51877392578125,0.9577166438102722,0.40240389108657837,0.026502979919314384
1761914662255828700,7.528828857421875,0.9844236373901367,0.383188933134079,-0.08134465664625168
1761914662265884700,7.538884765625,0.9883299469947815,0.35971689224243164,-0.1890394240617752
1761914662275940600,7.548940673828125,0.9772855639457703,0.32587477564811707,-0.2972828149795532
1761914662285995800,7.558995849609375,0.9580868482589722,0.3036741316318512,-0.4031940698623657
1761914662296051700,7.5690517578125,0.9386929273605347,0.29127684235572815,-0.5068504214286804
1761914662306107600,7.579107666015625,0.9115681052207947,0.2903335690498352,-0.6030020117759705
1761914662316162800,7.589162841796875,0.8867951035499573,0.2970103621482849,-0.6772538423538208
1761914662326218800,7.59921875,0.8556904196739197,0.2996556758880615,-0.714527428150177
1761914662336274700,7.609274658203125,0.8198762536048889,0.29305529594421387,-0.7014614343643188
1761914662346329600,7.61932958984375,0.7981131672859192,0.2849001884460449,-0.6405453681945801
1761914662356385800,7.6293857421875,0.792081356048584,0.29931640625,-0.5316503047943115
1761914662366441700,7.639441650390625,0.8008295893669128,0.35240304470062256,-0.3913664221763611
1761914662376497000,7.649496826171875,0.8229598999023438,0.43697598576545715,-0.2416704148054123
1761914662386552800,7.659552734375,0.8492061495780945,0.520404577255249,-0.10122515261173248
1761914662396608800,7.66960888671875,0.8708131909370422,0.589138925075531,0.01245081052184105
1761914662406665000,7.6796650390625,0.8860208988189697,0.6373855471611023,0.09700217843055725
1761914662416719600,7.6897197265625,0.9167551398277283,0.6565501689910889,0.14347487688064575
1761914662426775800,7.69977587890625,0.956010639667511,0.6579893231391907,0.16116757690906525
1761914662436831700,7.709831787109375,0.991869330406189,0.6618370413780212,0.15444523096084595
1761914662446886700,7.71988671875,1.0260554552078247,0.6564087271690369,0.13178598880767822
1761914662456942800,7.72994287109375,1.0602326393127441,0.6533471941947937,0.09389400482177734
1761914662466998800,7.739998779296875,1.086561679840088,0.6359687447547913,0.04307370260357857
1761914662477053700,7.7500537109375,1.100967526435852,0.6057367920875549,-0.0046208505518734455
1761914662487109600,7.760109619140625,1.0997861623764038,0.5604401230812073,-0.05145253986120224
1761914662497165600,7.77016552734375,1.0874743461608887,0.5175539255142212,-0.09875054657459259
1761914662507220700,7.780220703125,1.0748035907745361,0.48599520325660706,-0.13482332229614258
1761914662517276700,7.790276611328125,1.0675283670425415,0.4577960669994354,-0.1662965714931488
1761914662527332900,7.800332763671875,1.0603176355361938,0.4398881494998932,-0.18957605957984924
1761914662537388800,7.810388916015625,1.0506900548934937,0.4311370253562927,-0.20140394568443298
1761914662547443700,7.820443603515625,1.026914119720459,0.4273204505443573,-0.2060288041830063
1761914662557499600,7.830499755859375,1.0007200241088867,0.4235275685787201,-0.20752282440662384
1761914662567555600,7.8405556640625,0.9637992978096008,0.4203088581562042,-0.2105303406715393
1761914662577610800,7.85061083984375,0.9343005418777466,0.41715967655181885,-0.21843992173671722
1761914662587666700,7.860666748046875,0.8987936973571777,0.4141114354133606,-0.21735575795173645
1761914662597723000,7.870722900390625,0.8676325678825378,0.4139183461666107,-0.20633213222026825
1761914662607777800,7.88077783203125,0.8405226469039917,0.4190579950809479,-0.1760924756526947
1761914662617833700,7.890833740234375,0.8189561367034912,0.4207930266857147,-0.13040807843208313
1761914662627889700,7.9008896484375,0.8028671741485596,0.42408737540245056,-0.07392668724060059
1761914662637944600,7.910944580078125,0.7827277779579163,0.4212135374546051,-0.012192483991384506
1761914662648000800,7.921000732421875,0.7578293681144714,0.413145512342453,0.05034546181559563
1761914662658056700,7.931056640625,0.7410889863967896,0.39984992146492004,0.1015484631061554
1761914662668112600,7.941112548828125,0.7344185709953308,0.3891823887825012,0.13406965136528015
1761914662678167800,7.951167724609375,0.7335506677627563,0.36795273423194885,0.14539821445941925
1761914662688223700,7.9612236328125,0.7300938963890076,0.3540174663066864,0.13886015117168427
1761914662698280000,7.971280029296875,0.730429470539093,0.3371575176715851,0.13061286509037018
1761914662708334600,7.98133447265625,0.7299453020095825,0.32147708535194397,0.12728525698184967
1761914662718390800,7.991390869140625,0.7151514291763306,0.29647693037986755,0.1214689090847969
1761914662728446700,8.00144677734375,0.7001141309738159,0.2576123774051666,0.10669288784265518
1761914662738502000,8.011501953125,0.6884122490882874,0.2109023779630661,0.09716995805501938
1761914662748557800,8.021557861328125,0.6731048822402954,0.17435689270496368,0.08154865354299545
1761914662758613800,8.03161376953125,0.6591827273368835,0.13817118108272552,0.06975937634706497
1761914662768670000,8.041669921875,0.647340714931488,0.10741513967514038,0.061101436614990234
1761914662778724600,8.051724609375,0.6334896087646484,0.08206131309270859,0.05817888304591179
1761914662788780800,8.06178076171875,0.6120690107345581,0.056648898869752884,0.05854799970984459
1761914662798836700,8.071836669921876,0.5977153182029724,0.032224249094724655,0.06039942800998688
1761914662808891600,8.0818916015625,0.5817835330963135,0.020871194079518318,0.06707597523927689
1761914662818947800,8.09194775390625,0.5783397555351257,0.028729915618896484,0.07470060139894485
1761914662829003800,8.102003662109375,0.5882483124732971,0.03057841584086418,0.06992901861667633
1761914662839058700,8.11205859375,0.599610447883606,0.006697850301861763,0.05736928433179855
1761914662849114600,8.122114501953124,0.5913112163543701,-0.016750751063227654,0.04639572650194168
1761914662859170600,8.132170654296875,0.5823843479156494,-0.034996598958969116,0.04204412177205086
1761914662869226800,8.142226806640625,0.578539252281189,-0.032287899404764175,0.053936999291181564
1761914662879281700,8.15228173828125,0.5889948010444641,-0.006704507861286402,0.08796767145395279
1761914662889337900,8.162337890625,0.6140346527099609,0.044737376272678375,0.1429920494556427
1761914662899393800,8.172393798828125,0.6533644795417786,0.12412753701210022,0.21644867956638336
1761914662909448700,8.18244873046875,0.7124972939491272,0.21122515201568604,0.2986205220222473
1761914662919504600,8.192504638671876,0.7715334892272949,0.2934039235115051,0.3795180320739746
1761914662929560600,8.202560546875,0.8420481085777283,0.36032968759536743,0.4530090093612671
1761914662939615700,8.21261572265625,0.8912705183029175,0.40018895268440247,0.5005879998207092
1761914662949671700,8.222671630859375,0.924920916557312,0.43567079305648804,0.5303727984428406
1761914662959727900,8.232727783203124,0.9399645924568176,0.4643476903438568,0.5356343984603882
1761914662969783800,8.24278369140625,0.9451004862785339,0.46939679980278015,0.523021936416626
1761914662979839000,8.2528388671875,0.9568061232566833,0.4523341655731201,0.498106449842453
1761914662989894700,8.262894775390626,0.964374840259552,0.4320504665374756,0.47424614429473877
1761914662999950600,8.27295068359375,0.9559834599494934,0.40273386240005493,0.44986623525619507
1761914663010005800,8.283005859375,0.9392191171646118,0.3852555453777313,0.4298115670681
1761914663020061700,8.293061767578125,0.9095091819763184,0.37204065918922424,0.40759971737861633
1761914663030117600,8.30311767578125,0.8840517401695251,0.3706265389919281,0.3758593797683716
1761914663040172800,8.3131728515625,0.8559820652008057,0.37127500772476196,0.327896386384964
1761914663050228700,8.323228759765625,0.8309634923934937,0.36841529607772827,0.2836495637893677
1761914663060285000,8.333284912109375,0.7943088412284851,0.3712867200374603,0.24042485654354095
1761914663070337000,8.3433369140625,0.7554314732551575,0.36342722177505493,0.20721550285816193
1761914663080392200,8.35339208984375,0.7080556750297546,0.36312174797058105,0.18142864108085632
1761914663090448100,8.3634482421875,0.6675814986228943,0.36838096380233765,0.16619403660297394
1761914663100504000,8.373504150390625,0.6254494786262512,0.36966672539711,0.1710931807756424
1761914663110559000,8.38355908203125,0.5768148303031921,0.35716211795806885,0.1899462342262268
1761914663120615000,8.393614990234376,0.5355169773101807,0.3503955602645874,0.21252743899822235
1761914663130671000,8.403671142578125,0.495413213968277,0.3562721014022827,0.23352673649787903
1761914663140727000,8.41372705078125,0.44043996930122375,0.3758969306945801,0.25409671664237976
1761914663150782200,8.4237822265625,0.40367183089256287,0.4111936688423157,0.27078941464424133
1761914663160838100,8.433838134765624,0.40903782844543457,0.4360465407371521,0.27479881048202515
1761914663170894000,8.44389404296875,0.44420620799064636,0.4405805766582489,0.25420618057250977
1761914663180949000,8.453948974609375,0.5036138892173767,0.4310097098350525,0.21713471412658691
1761914663191005000,8.4640048828125,0.5623496174812317,0.4123587906360626,0.16657619178295135
1761914663201061000,8.47406103515625,0.6060206890106201,0.3790160119533539,0.11178778111934662
1761914663211116000,8.484115966796875,0.6198747158050537,0.3524424731731415,0.043049734085798264
1761914663221172000,8.494171875,0.6461760997772217,0.33159151673316956,-0.016467656940221786
1761914663231228200,8.504228271484376,0.659376859664917,0.2924608886241913,-0.06872766464948654
1761914663241284000,8.5142841796875,0.6607222557067871,0.2421705573797226,-0.129036545753479
1761914663251342000,8.524342041015625,0.6504275798797607,0.19225333631038666,-0.2015749216079712
1761914663261398000,8.53439794921875,0.6432274580001831,0.16907264292240143,-0.2743886709213257
1761914663271454200,8.5444541015625,0.619269609451294,0.15105023980140686,-0.34496110677719116
1761914663281509000,8.554509033203125,0.5884978771209717,0.15126462280750275,-0.40815606713294983
1761914663291565000,8.56456494140625,0.5463008880615234,0.17021992802619934,-0.45077356696128845
1761914663301621000,8.57462109375,0.5155658721923828,0.19739936292171478,-0.47405731678009033
1761914663311676000,8.584676025390625,0.48987650871276855,0.225834459066391,-0.4792443513870239
1761914663321732000,8.594732177734375,0.46642282605171204,0.2636587917804718,-0.4608089029788971
1761914663331788000,8.6047880859375,0.44504910707473755,0.3027350902557373,-0.41812029480934143
1761914663341844000,8.614843994140625,0.4411800503730774,0.33255505561828613,-0.35567235946655273
1761914663351899100,8.624899169921875,0.44630372524261475,0.34775131940841675,-0.3034765124320984
1761914663361955000,8.634955078125,0.45923495292663574,0.3510850667953491,-0.2659432590007782
1761914663372011300,8.64501123046875,0.46347230672836304,0.3500986099243164,-0.24211329221725464
1761914663382066000,8.65506591796875,0.46745482087135315,0.35160890221595764,-0.23074586689472198
1761914663392122000,8.6651220703125,0.4792978763580322,0.35351893305778503,-0.23430490493774414
1761914663402178000,8.675177978515626,0.4850415289402008,0.3394358456134796,-0.23573848605155945
1761914663412234000,8.68523388671875,0.49188584089279175,0.3172514736652374,-0.240458145737648
1761914663422289200,8.6952890625,0.4945293068885803,0.2914440929889679,-0.24516181647777557
1761914663432345000,8.705344970703125,0.4950115978717804,0.27024000883102417,-0.2531406581401825
1761914663442401300,8.7154013671875,0.49644383788108826,0.24987375736236572,-0.2602108120918274
1761914663452456000,8.7254560546875,0.49444833397865295,0.23550119996070862,-0.2675637900829315
1761914663462512000,8.73551220703125,0.49314579367637634,0.2385702282190323,-0.26337066292762756
1761914663472568000,8.745568115234375,0.49621081352233887,0.25537797808647156,-0.236836239695549
1761914663482624000,8.7556240234375,0.5057691931724548,0.289225697517395,-0.1930363029241562
1761914663492679200,8.76567919921875,0.5201084613800049,0.32492882013320923,-0.13290292024612427
1761914663502735000,8.775735107421875,0.5325754880905151,0.3635371923446655,-0.07432376593351364
1761914663512791000,8.785791015625,0.5378410816192627,0.3980903923511505,-0.029288379475474358
1761914663522846000,8.795845947265626,0.5468665361404419,0.41119900345802307,0.00027563716867007315
1761914663532902000,8.80590185546875,0.5552794933319092,0.4071267545223236,0.014540060423314571
1761914663542958000,8.8159580078125,0.5489307641983032,0.38976508378982544,0.02623852901160717
1761914663553014000,8.826013916015626,0.5350123047828674,0.37481409311294556,0.035355325788259506
1761914663563069200,8.836069091796874,0.5252139568328857,0.3847431540489197,0.0627392828464508
1761914663573125000,8.846125,0.5201595425605774,0.3962445557117462,0.07417569309473038
1761914663583181000,8.85618115234375,0.5242142081260681,0.41570425033569336,0.08199260383844376
1761914663593236000,8.866236083984376,0.5430358648300171,0.4349732995033264,0.09527778625488281
1761914663603292000,8.8762919921875,0.5792726874351501,0.4542175531387329,0.11250817030668259
1761914663613348000,8.88634814453125,0.6041777729988098,0.4681115448474884,0.12097515910863876
1761914663623404000,8.896404052734376,0.6350731253623962,0.4872063994407654,0.12351927161216736
1761914663633459200,8.906459228515626,0.6667397022247314,0.5048208236694336,0.12501384317874908
1761914663643515100,8.91651513671875,0.7010526657104492,0.5230682492256165,0.14139574766159058
1761914663653571000,8.926571044921875,0.7349384427070618,0.539765477180481,0.16828595101833344
1761914663663626000,8.9366259765625,0.7758744359016418,0.5334034562110901,0.20455020666122437
1761914663673682000,8.946681884765624,0.8225138187408447,0.49699538946151733,0.2429572492837906
1761914663683738000,8.956738037109375,0.8670645356178284,0.4462594985961914,0.2755282521247864
1761914663693794000,8.9667939453125,0.9067051410675049,0.3885940909385681,0.26652756333351135
1761914663703849000,8.976848876953126,0.9200643301010132,0.3565530478954315,0.21405796706676483
1761914663713905200,8.9869052734375,0.9143478870391846,0.31813934445381165,0.12415097653865814
1761914663723961000,8.996961181640625,0.8958383798599243,0.2442462295293808,0.014281467534601688
1761914663734016300,9.007016357421875,0.8704315423965454,0.14471271634101868,-0.09184576570987701
1761914663744072000,9.017072021484376,0.8372443318367004,0.04563299939036369,-0.18710996210575104
1761914663754128000,9.0271279296875,0.7844409942626953,-0.05188050866127014,-0.25513163208961487
1761914663764184000,9.03718408203125,0.7081603407859802,-0.11689359694719315,-0.2798023521900177
1761914663774239000,9.047239013671875,0.6236947178840637,-0.15519358217716217,-0.25916898250579834
1761914663784295200,9.057295166015624,0.542077362537384,-0.1792411208152771,-0.20543864369392395
1761914663794351000,9.06735107421875,0.4485436975955963,-0.1888098567724228,-0.13987880945205688
1761914663804406300,9.07740625,0.3797028660774231,-0.1621396392583847,-0.05752747505903244
1761914663814462200,9.087462158203126,0.33563101291656494,-0.1179058626294136,0.04163266345858574
1761914663824518000,9.097517822265624,0.30837008357048035,-0.05837143212556839,0.1531975418329239
1761914663834574000,9.107573974609375,0.30292871594429016,0.019727632403373718,0.2738882601261139
1761914663844629000,9.11762890625,0.3082406520843506,0.07172718644142151,0.39896124601364136
1761914663854685200,9.127685302734376,0.30281367897987366,0.11448130756616592,0.5175880193710327
1761914663864741000,9.1377412109375,0.2907460927963257,0.16091325879096985,0.6402774453163147
1761914663874796000,9.147796142578125,0.27042537927627563,0.1963692456483841,0.7489874362945557
1761914663884852200,9.157852294921875,0.26774862408638,0.2238360196352005,0.8178799152374268
1761914663894908200,9.167908203125,0.2776680886745453,0.2537188231945038,0.8410425186157227
1761914663904964000,9.177964111328125,0.2983320951461792,0.2577231526374817,0.8075881600379944
1761914663915019000,9.18801904296875,0.324198842048645,0.25053900480270386,0.747474730014801
1761914663925075000,9.198074951171876,0.35225337743759155,0.258931964635849,0.6805588006973267
1761914663935131100,9.208131103515624,0.37726151943206787,0.27796077728271484,0.6181843876838684
1761914663945186000,9.21818603515625,0.41063547134399414,0.2974966764450073,0.5518810153007507
1761914663955242200,9.2282421875,0.4428567886352539,0.3156985640525818,0.46673494577407837
1761914663965298200,9.238298095703126,0.46302518248558044,0.3166048526763916,0.3813915550708771
1761914663975353900,9.248353759765624,0.4670204520225525,0.2959384620189667,0.2884400486946106
1761914663985409000,9.258408935546875,0.4471242427825928,0.29208725690841675,0.20283326506614685
1761914663995465000,9.26846484375,0.418346643447876,0.29945674538612366,0.12583808600902557
1761914664005521200,9.278521240234374,0.38634398579597473,0.3093128502368927,0.049917224794626236
1761914664015577000,9.2885771484375,0.3558305501937866,0.3194988965988159,-0.014974954538047314
1761914664025632300,9.29863232421875,0.3245823383331299,0.3106590807437897,-0.07264011353254318
1761914664035688200,9.308688232421876,0.3058065176010132,0.2996045649051666,-0.10594560950994492
1761914664045744000,9.318744140625,0.28471216559410095,0.2910049557685852,-0.11282402276992798
1761914664055799000,9.328799072265625,0.27071085572242737,0.2858181595802307,-0.0998016968369484
1761914664065855500,9.33885546875,0.26456692814826965,0.2800809144973755,-0.07773793488740921
1761914664075911400,9.348911376953126,0.26537200808525085,0.275966614484787,-0.051482364535331726
1761914664085967600,9.358967529296875,0.2801181972026825,0.2836974859237671,-0.023623304441571236
1761914664096022300,9.369022216796875,0.29518184065818787,0.3018277585506439,-0.005321794655174017
1761914664106078500,9.379078369140625,0.3124191462993622,0.32459378242492676,0.013702495954930782
1761914664116134400,9.389134521484374,0.32783326506614685,0.3542928397655487,0.03880944848060608
1761914664126189600,9.399189453125,0.3526954650878906,0.37798938155174255,0.06039410084486008
1761914664136245500,9.40924560546875,0.3968338966369629,0.3705785870552063,0.06691618263721466
1761914664146301400,9.419301513671876,0.4345743656158447,0.34733399748802185,0.06130090728402138
1761914664156357600,9.429357666015624,0.4635343551635742,0.3080054819583893,0.04430168494582176
1761914664166412300,9.439412353515625,0.4729219973087311,0.26878753304481506,0.007616374175995588
1761914664176468500,9.449468505859375,0.4654281437397003,0.21923328936100006,-0.04862000048160553
1761914664186524400,9.4595244140625,0.44488850235939026,0.15720932185649872,-0.12739603221416473
1761914664196579600,9.46957958984375,0.41406989097595215,0.09282634407281876,-0.2029762864112854
1761914664206635500,9.479635498046875,0.37199434638023376,0.03338592126965523,-0.273094117641449
1761914664216691500,9.48969140625,0.3239341378211975,-0.01577416993677616,-0.33548054099082947
1761914664226747400,9.499747314453124,0.2687923014163971,-0.04783383384346962,-0.37613555788993835
1761914664236802300,9.50980224609375,0.2134379744529724,-0.06537207961082458,-0.39799317717552185
1761914664246858200,9.519858154296875,0.16142112016677856,-0.07553363591432571,-0.3973204493522644
1761914664256914400,9.52991455078125,0.1133984625339508,-0.08772745728492737,-0.3764689862728119
1761914664266970400,9.539970458984374,0.06695932894945145,-0.093900665640831,-0.3375657796859741
1761914664277025500,9.550025634765625,0.011630822904407978,-0.10407793521881104,-0.28046655654907227
1761914664287081500,9.56008154296875,-0.04502366855740547,-0.11369620263576508,-0.20633000135421753
1761914664297137400,9.570137451171876,-0.09650629758834839,-0.11634019017219543,-0.11771917343139648
1761914664307192600,9.580192626953124,-0.1332848221063614,-0.1118256002664566,-0.025853168219327927
1761914664317248300,9.590248291015625,-0.15254560112953186,-0.09424953907728195,0.05956745520234108
1761914664327304400,9.600304443359375,-0.14814099669456482,-0.06593134254217148,0.1437273472547531
1761914664337360400,9.6103603515625,-0.12645727396011353,-0.040582045912742615,0.21653257310390472
1761914664347415600,9.62041552734375,-0.10620446503162384,-0.017590444535017014,0.2808535099029541
1761914664357471500,9.630471435546875,-0.09461306035518646,-0.0035867453552782536,0.33065488934516907
1761914664367527400,9.64052734375,-0.09215229749679565,-0.009236374869942665,0.37138473987579346
1761914664377583600,9.65058349609375,-0.08978714048862457,-0.029102224856615067,0.3975178003311157
1761914664387638300,9.66063818359375,-0.09008461982011795,-0.043786630034446716,0.40197938680648804
1761914664397694500,9.670694580078125,-0.08387945592403412,-0.044972799718379974,0.396707147359848
1761914664407750400,9.68075048828125,-0.07201667129993439,-0.05669337138533592,0.38561001420021057
1761914664417805300,9.690805419921874,-0.05615195259451866,-0.07351123541593552,0.3709397315979004
1761914664427861500,9.700861572265625,-0.04556615278124809,-0.10308723896741867,0.3529857397079468
1761914664437917400,9.71091748046875,-0.049189917743206024,-0.1412724405527115,0.33952346444129944
1761914664447973400,9.720973388671876,-0.07083475589752197,-0.17517821490764618,0.3436836004257202
1761914664458028500,9.731028564453124,-0.09036798030138016,-0.1831810027360916,0.35254207253456116
1761914664468084200,9.741084228515625,-0.07254184782505035,-0.163800910115242,0.3403301537036896
1761914664478140400,9.751140380859376,-0.03002847172319889,-0.12843254208564758,0.3013979196548462
1761914664488195300,9.7611953125,-0.006159625016152859,-0.07540580630302429,0.2515257000923157
1761914664498251500,9.77125146484375,0.019049324095249176,-0.029884129762649536,0.21149973571300507
1761914664508307500,9.781307373046875,0.06820648163557053,-0.0011049455497413874,0.1737278550863266
1761914664518363400,9.79136328125,0.13912193477153778,0.018504709005355835,0.1188422292470932
1761914664528418600,9.80141845703125,0.20714546740055084,0.044081173837184906,0.04543193057179451
1761914664538474500,9.811474609375,0.25205621123313904,0.06613854318857193,-0.017619473859667778
1761914664548530400,9.821530517578125,0.2661459445953369,0.07737202197313309,-0.05746915191411972
1761914664558586400,9.83158642578125,0.27207493782043457,0.06371959298849106,-0.07648518681526184
1761914664568641500,9.8416416015625,0.27440840005874634,0.022368954494595528,-0.07462336868047714
1761914664578697500,9.851697509765625,0.2669949531555176,-0.018880747258663177,-0.04266490414738655
1761914664588753400,9.86175341796875,0.24768276512622833,-0.05162324756383896,0.012601279653608799
1761914664598808600,9.87180859375,0.20792044699192047,-0.08068738877773285,0.07886046171188354
1761914664608864500,9.881864501953125,0.1667594164609909,-0.10592430084943771,0.14927896857261658
1761914664618920400,9.89192041015625,0.12805144488811493,-0.12268650531768799,0.21619515120983124
1761914664628976400,9.901976318359376,0.0797150656580925,-0.1312115490436554,0.2632811665534973
1761914664639031300,9.91203125,0.0397612601518631,-0.1381051391363144,0.3038184642791748
1761914664649087500,9.92208740234375,-0.010145844891667366,-0.14680196344852448,0.3424724042415619
1761914664659143400,9.932143310546875,-0.06193554028868675,-0.1481175571680069,0.3946804702281952
1761914664669199400,9.942199462890626,-0.1175982654094696,-0.15545696020126343,0.4583992660045624
1761914664679254500,9.952254638671874,-0.1773657351732254,-0.14936499297618866,0.5278534293174744
1761914664689310500,9.962310546875,-0.21413493156433105,-0.12669801712036133,0.57114577293396
1761914664699366400,9.972366455078125,-0.23043054342269897,-0.08506589382886887,0.5671350359916687
1761914664709422300,9.98242236328125,-0.22221602499485016,-0.040590569376945496,0.5126584768295288
1761914664719477500,9.9924775390625,-0.21036309003829956,0.0027276095934212208,0.4388386011123657
1761914664729533400,10.002533447265625,-0.1908692866563797,0.029870014637708664,0.3485313653945923
1761914664739589400,10.01258935546875,-0.17132940888404846,0.0451166108250618,0.25311481952667236
1761914664749644500,10.02264453125,-0.16356895864009857,0.05615195259451866,0.15265318751335144
1761914664759700500,10.032700439453125,-0.1603047251701355,0.07515786588191986,0.05139714479446411
1761914664769756700,10.042756591796875,-0.15869057178497314,0.09580589085817337,-0.06270572543144226
1761914664779812400,10.052812255859376,-0.15221962332725525,0.10715441405773163,-0.1846819669008255
1761914664789867500,10.062867431640624,-0.13110342621803284,0.11498970538377762,-0.3231293261051178
1761914664799923500,10.07292333984375,-0.10536876320838928,0.09151659905910492,-0.4746647775173187
1761914664809979400,10.0829794921875,-0.08941590040922165,0.04490808770060539,-0.6301249265670776
1761914664820035600,10.09303564453125,-0.0660485252737999,-0.03368206322193146,-0.7812982201576233
1761914664830090500,10.103090576171875,-0.06840355694293976,-0.1155252605676651,-0.915361225605011
1761914664840146400,10.113146484375,-0.09814174473285675,-0.19421608746051788,-1.0084317922592163
1761914664850202600,10.12320263671875,-0.13917332887649536,-0.27117398381233215,-1.0720746517181396
1761914664860257300,10.13325732421875,-0.17855988442897797,-0.3364350199699402,-1.1090819835662842
1761914664870313500,10.1433134765625,-0.22142159938812256,-0.38851577043533325,-1.1208739280700684
1761914664880369400,10.153369384765625,-0.2712043523788452,-0.42801234126091003,-1.1033904552459717
1761914664890425300,10.16342529296875,-0.3264963626861572,-0.4513576030731201,-1.056490421295166
1761914664900480500,10.17348046875,-0.376051664352417,-0.4397299587726593,-0.9733323454856873
1761914664910536400,10.183536376953125,-0.4147580564022064,-0.38839274644851685,-0.8601320385932922
1761914664920592600,10.193592529296875,-0.4403499662876129,-0.3237367868423462,-0.7246386408805847
1761914664930648600,10.203648681640624,-0.4522359073162079,-0.2545132339000702,-0.5822011232376099
1761914664940703500,10.213703369140624,-0.4388798773288727,-0.17479151487350464,-0.4547608494758606
1761914664950759400,10.223759521484375,-0.4042332172393799,-0.10814884305000305,-0.3366243541240692
1761914664960815400,10.2338154296875,-0.35822978615760803,-0.0540509857237339,-0.22433750331401825
1761914664970870500,10.24387060546875,-0.2984711229801178,-0.005284510552883148,-0.1276644915342331
1761914664980926500,10.253926513671875,-0.23113468289375305,0.0378512404859066,-0.055278170853853226
1761914664990982700,10.263982666015625,-0.17155177891254425,0.07883249968290329,-0.010159160941839218
1761914665001038600,10.27403857421875,-0.11269379407167435,0.11764966696500778,0.02671150490641594
1761914665011093500,10.284093505859374,-0.04812491685152054,0.15075968205928802,0.04109577089548111
1761914665021149400,10.2941494140625,0.021162277087569237,0.18474134802818298,0.040710143744945526
1761914665031205400,10.304205322265625,0.09014720469713211,0.20729486644268036,0.029168272390961647
1761914665041261300,10.31426123046875,0.14742566645145416,0.22634978592395782,0.008567655459046364
1761914665051316500,10.32431640625,0.18977445363998413,0.24314500391483307,-0.004610997159034014
1761914665061372400,10.334372314453125,0.21959175169467926,0.25583869218826294,-0.01449904777109623
1761914665071432400,10.344432373046875,0.24508965015411377,0.26487666368484497,-0.009395898319780827
1761914665081488400,10.35448828125,0.2548442780971527,0.265956848859787,-0.0010689928894862533
1761914665091543600,10.36454345703125,0.27158915996551514,0.27634796500205994,0.017590977251529694
1761914665101599200,10.37459912109375,0.2840186655521393,0.283215194940567,0.05025571212172508
1761914665111655200,10.3846552734375,0.30225279927253723,0.28528153896331787,0.09767702221870422
1761914665121710300,10.39471044921875,0.33241790533065796,0.28199440240859985,0.15646123886108398
1761914665131766300,10.404766357421876,0.362157940864563,0.26206064224243164,0.23211286962032318
1761914665141822500,10.414822509765624,0.3917699158191681,0.24706757068634033,0.3273317813873291
1761914665151878400,10.42487841796875,0.3996105194091797,0.24797305464744568,0.4357413649559021
1761914665161933300,10.434933349609375,0.40148937702178955,0.25855857133865356,0.5365433096885681
1761914665171989500,10.444989501953126,0.4289476275444031,0.2629038095474243,0.5954306125640869
1761914665182045200,10.455045166015625,0.4770749509334564,0.2627842128276825,0.5792713761329651
1761914665192101000,10.46510107421875,0.5156172513961792,0.2571990489959717,0.5105029344558716
1761914665202156300,10.47515625,0.523767352104187,0.2630976736545563,0.4008403718471527
1761914665212212200,10.485212158203124,0.5322412848472595,0.2739769518375397,0.27233803272247314
1761914665222268400,10.495268310546875,0.5596265196800232,0.2652130126953125,0.12412381172180176
1761914665232324400,10.505324462890625,0.577639102935791,0.23285801708698273,-0.03862994909286499
1761914665242379500,10.515379638671876,0.5584853887557983,0.1876324862241745,-0.20944030582904816
1761914665252435200,10.525435302734374,0.5120723247528076,0.11511966586112976,-0.3558608889579773
1761914665262491100,10.5354912109375,0.46642497181892395,0.033011745661497116,-0.45644611120224
1761914665272546300,10.54554638671875,0.4430152475833893,-0.04732117801904678,-0.5146718621253967
1761914665282602200,10.555602294921876,0.4266226887702942,-0.10671259462833405,-0.5127149820327759
1761914665292658400,10.565658447265625,0.41488906741142273,-0.1442786157131195,-0.4404175877571106
1761914665302714400,10.57571435546875,0.40440261363983154,-0.1524454653263092,-0.30928274989128113
1761914665312769500,10.58576953125,0.3900441825389862,-0.12143535166978836,-0.13701005280017853
1761914665322825500,10.595825439453124,0.3969484269618988,-0.058577027171850204,0.05170793458819389
1761914665332881200,10.605881103515625,0.4175008237361908,0.01618749275803566,0.23282365500926971
1761914665342937300,10.615937255859375,0.44993388652801514,0.08558361232280731,0.3654725253582001
1761914665352992300,10.6259921875,0.48410969972610474,0.1467561572790146,0.4448605477809906
1761914665363048200,10.636048095703124,0.5193723440170288,0.20778781175613403,0.4657895267009735
1761914665373104400,10.6461044921875,0.5627049207687378,0.25616705417633057,0.43088480830192566
1761914665383160300,10.656160400390625,0.6201596856117249,0.297002911567688,0.3664450943470001
1761914665393215500,10.666215576171876,0.6724244952201843,0.3422308564186096,0.2936563789844513
1761914665403271400,10.676271484375,0.7271044850349426,0.3738718628883362,0.2134595513343811
1761914665413327000,10.6863271484375,0.7686449885368347,0.4059064984321594,0.1511961817741394
1761914665423382300,10.69638232421875,0.8096755146980286,0.43845218420028687,0.10631765425205231
1761914665433438200,10.706438232421876,0.8332157731056213,0.47946327924728394,0.09159649908542633
1761914665443494400,10.716494384765625,0.8529002070426941,0.5225798487663269,0.09866505861282349
1761914665453550300,10.72655029296875,0.8476585745811462,0.5648423433303833,0.1084713488817215
1761914665463605500,10.73660546875,0.8186578154563904,0.5995619893074036,0.09964776039123535
1761914665473661400,10.746661376953124,0.7787557244300842,0.6202848553657532,0.07204569876194
1761914665483717400,10.75671728515625,0.7393638491630554,0.6258004903793335,0.06315340101718903
1761914665493773300,10.766773193359375,0.6773667335510254,0.6544036269187927,0.1946837306022644
1761914665503828200,10.776828125,0.6106431484222412,0.604839026927948,0.2415897250175476
1761914665513884400,10.786884521484374,0.5958982706069946,0.548870325088501,0.12062788009643555
1761914665523940400,10.7969404296875,0.6026094555854797,0.49906760454177856,-0.007935953326523304
1761914665533996300,10.806996337890626,0.6182392835617065,0.4174422323703766,-0.13464969396591187
1761914665544051500,10.817051513671874,0.6379786133766174,0.38365045189857483,-0.2376125603914261
1761914665554107400,10.827107421875,0.602824330329895,0.3773464858531952,-0.21826016902923584
