time,seconds_elapsed,z,y,x
1761915556988800500,0.120800537109375,0.054168228039145463,-0.011848477899655699,0.14577157598137855
1761915556998855700,0.130855712890625,-0.05022153623998165,-0.009283668912947178,0.19274766402672974
1761915557008909600,0.14090966796875,-0.11267477754354477,0.003297214914485812,0.23444139122236518
1761915557018963500,0.15096337890625,-0.0711328068435192,0.05000957398973405,0.24045327192302793
1761915557029017300,0.161017333984375,0.024247137027978895,0.05048362124226987,0.20487028269264845
1761915557039071500,0.171071533203125,0.14946575432419776,0.0323057211253792,0.16910126937087624
1761915557049125400,0.18112548828125,0.18999124145805835,-0.006373772815614938,0.1519314137853682
1761915557059179500,0.191179443359375,0.12335399246811866,-0.05401676380448043,0.16959135444276033
1761915557069233400,0.2012333984375,0.10964753867685795,-0.07091529163531958,0.1952364486351609
1761915557079288600,0.21128857421875,0.12673954325318335,-0.06102174719572067,0.20925609656143931
1761915557089342700,0.2213427734375,0.14549743521511554,-0.1078568558678031,0.20643022548574952
1761915557099396400,0.231396240234375,0.1728168192952871,-0.16246508275941013,0.1649407704242505
1761915557109450500,0.241450439453125,0.2592541627764702,-0.17852577152661978,0.1311670408392325
1761915557119504400,0.25150439453125,0.3040980976313352,-0.164762107655406,0.12452155667645856
1761915557129558500,0.26155859375,0.2874380547314882,-0.15320691361390054,0.14571127889519556
1761915557139612400,0.2716123046875,0.23087796311974523,-0.15810338041856883,0.16531944927722214
1761915557149667600,0.28166748046875,0.17766659741401672,-0.210376442360878,0.15337503672242164
1761915557159721700,0.2917216796875,0.15697452251911162,-0.21470036997459827,0.1432718133212067
1761915557169775400,0.301775390625,0.1715016450434923,-0.17807598193250596,0.13516149903656913
1761915557179829500,0.31182958984375,0.1898310824602842,-0.09551328792758286,0.1206788549747318
1761915557189883400,0.32188330078125,0.17568623725175855,-0.054306686661764976,0.10338794855913147
1761915557199937500,0.3319375,0.09970599037706851,-0.04363317082561552,0.10462024856675416
1761915557209991400,0.341991455078125,0.01976268509030342,-0.023653920375183223,0.11658548471387475
1761915557220045600,0.352045654296875,-0.04712064761519432,0.019967194686457513,0.1420874349753838
1761915557230100500,0.3621005859375,-0.04664835392832756,0.07640300233140587,0.13559229166926814
1761915557240154600,0.372154541015625,-0.006377718338370323,0.10715469894781708,0.11482780912527814
1761915557250208500,0.38220849609375,0.020431378132104872,0.08661335763521492,0.1100875009967014
1761915557260262400,0.392262451171875,0.0009989479094743728,0.048113896436244245,0.11782773985993117
1761915557270316500,0.402316650390625,-0.07685761423110961,0.02500657709315419,0.1453236860834062
1761915557280370400,0.412370361328125,-0.17110709276795386,0.027547639878094193,0.17895879264902323
1761915557290424600,0.422424560546875,-0.16824176646471023,0.0077010028313845395,0.20202565211756154
1761915557300478500,0.432478515625,-0.08865852666199207,-0.03366049673520028,0.17422750807711854
1761915557310533600,0.44253369140625,0.0055932899624109265,-0.0650852703075856,0.11905472437161951
1761915557320587500,0.45258740234375,0.04945113638937473,-0.07075820137746631,0.09436856573871337
1761915557330641400,0.462641357421875,-0.10908405957520008,-0.04211977058798074,0.13284991589225828
1761915557340695600,0.472695556640625,-0.4655833755731582,-0.0013851707480847834,0.30157449743784964
1761915557350749400,0.48274951171875,-0.7436053671836853,0.09461180904321372,0.4962848033070564
1761915557360803600,0.492803466796875,-0.7562485756576061,0.19877879741713403,0.6479945371657609
1761915557370857500,0.502857421875,-0.4662824637532234,0.29584041076526046,0.8151697703775018
1761915557380912600,0.51291259765625,-0.12031798577308654,0.2926590042501688,1.0221212067257612
1761915557390966500,0.522966552734375,0.06391922220289707,0.11074541691616177,1.1429028644878416
1761915557401020400,0.5330205078125,0.4443184692263603,-0.1570486106686294,1.0648289332695304
1761915557411074300,0.54307421875,0.40745910338461394,-0.5175320278666913,0.5507153355441987
1761915557421128400,0.55312841796875,0.04800035305917263,-0.4362229871846735,0.02497004447504878
1761915557431182600,0.5631826171875,0.1462479613214731,0.046631841184943915,0.011472338063642382
1761915557441236500,0.573236572265625,-0.09885083485245703,0.4386518217667937,0.034439445218443866
1761915557451290600,0.58329052734375,-0.5020417593985795,0.7971829358533025,0.11465455318391322
1761915557461345500,0.593345458984375,-0.6275199044138193,1.082014607478678,0.16759572364613412
1761915557471399400,0.6033994140625,-0.3601660218119621,1.1584528272539376,0.10996829506382345
1761915557481453300,0.613453369140625,0.05764262615144253,1.0671744734823703,0.1823009792163968
1761915557491507500,0.623507568359375,0.2993687310218811,0.8987196487888693,0.24658888860121367
1761915557501561300,0.633561279296875,0.4256827423393726,0.5694152137085795,-0.028997254164516924
1761915557511615500,0.643615478515625,0.5500193161040544,0.25116905599832534,-0.4506539558582008
1761915557521669600,0.653669677734375,0.4891618195593357,0.13293722884953021,-0.6235121300771832
1761915557531723500,0.6637236328125,0.24082184950709343,0.04822042555063963,-0.5935868012823164
1761915557541778700,0.67377880859375,0.03820142810046673,0.03495440900325775,-0.2955722613483667
1761915557551832300,0.683832275390625,-0.2942921584099531,-0.12843816386461257,0.019077040913701056
1761915557561886500,0.693886474609375,-0.4821902269810438,-0.23613749108314513,0.22870237264633178
1761915557571940400,0.7039404296875,-0.2807762587547302,-0.3497749761790037,0.09692132809460162
1761915557581994500,0.713994384765625,0.23282968170940874,-0.3568088203385472,-0.18947320893332362
1761915557592048400,0.72404833984375,0.9907903219819069,-0.2563067111477256,-0.4981574653111398
1761915557602102500,0.7341025390625,2.1729963652670383,-0.4036903985008597,-1.0580753673560916
1761915557612157700,0.74415771484375,2.228779042765498,-0.3009665216073394,-0.9759829212114214
1761915557622211600,0.754211669921875,1.5835194835215807,-0.1609925259888172,-0.7618604241900145
1761915557632265500,0.764265380859375,1.5097785400062798,-0.25260142688900233,-0.7181469546698034
1761915557642319400,0.7743193359375,1.345201141268015,0.034034371548891065,-0.317149886906147
1761915557652373500,0.78437353515625,0.7914911539524793,0.41352644059956073,-0.038447950207442044
1761915557662427400,0.794427490234375,0.32758652524650095,0.5373077185690402,-0.010357727885246276
1761915557672481500,0.8044814453125,0.1681774690568447,0.5291273347228765,0.05887026825025677
1761915557682535400,0.814535400390625,0.20601006384491918,0.3309846432521939,-0.09121361797228456
1761915557692590600,0.824590576171875,0.2699929989337921,0.12530775688439608,-0.22812968732491135
1761915557702644500,0.83464453125,0.2751502355664968,0.03831687117367983,-0.21302754139155147
1761915557712698400,0.844698486328125,0.16295476597249506,0.029584990924596783,-0.19964783533662556
1761915557722752500,0.85475244140625,0.12978899395167826,0.015231471401453017,-0.12610621378570794
1761915557732806400,0.864806396484375,-0.00046878655552864073,-0.016806757894158364,-0.036977147002518175
1761915557742860500,0.874860595703125,-0.3015384762763977,0.01873480334728956,0.048614101043343544
1761915557752914400,0.88491455078125,-0.616731383895874,0.14126140508055687,0.13769582155346868
1761915557762968600,0.894968505859375,-0.7293412795096635,0.2779626626387238,0.19149046703986822
1761915557773023500,0.9050234375,-0.8536135558664798,0.30072803667634723,0.08648015970960259
1761915557783077400,0.915077392578125,-0.6752648214071989,0.14779489850252867,-0.08512275375127792
1761915557793131500,0.925131591796875,-0.389676193934679,-0.04525076209008693,-0.24379114764146506
1761915557803185400,0.935185302734375,-0.2867413046389818,-0.14905337413102387,-0.25605142121240493
1761915557813239600,0.945239501953125,-0.5143067822098731,-0.16330021840929984,-0.10543240519985556
1761915557823293400,0.95529345703125,-0.7573679350763559,-0.07195259879380464,0.03385755367726087
1761915557833347600,0.96534765625,-0.8713999724477529,0.026193887181580066,0.11615334037430584
1761915557843402800,0.97540283203125,-0.8618027075409889,0.0925891441091895,0.13853899437934158
1761915557853456400,0.985456298828125,-0.746649557185173,0.05983955167382955,0.08688274916112422
1761915557863510500,0.995510498046875,-0.5512170014560223,-0.0038856092616915703,-0.023700389865413306
1761915557873564400,1.005564453125,-0.347113063493371,-0.09176701407134533,-0.13008914594203233
1761915557883618600,1.01561865234375,0.19171324294507502,-0.08968275514319539,-0.3296857625480741
1761915557893672400,1.02567236328125,0.915579890435934,-0.013954437202960251,-0.4532872269712388
1761915557903726600,1.0357265625,1.056271971195936,-0.021796967396885154,-0.7322769676353782
1761915557913780500,1.045780517578125,1.2610469402879476,-0.11218012589439749,-0.792448966133967
1761915557923835400,1.05583544921875,0.9718950673758983,-0.36340558825507757,-0.41382162415385243
1761915557933889500,1.0658896484375,-0.0727583622187376,-0.41346798841059207,0.16255794867463408
1761915557943943400,1.075943359375,-0.551318123742938,-0.2735258492350578,0.5781193657005206
1761915557953997600,1.08599755859375,-0.7526578576892614,-0.11916662378087639,0.7975559338841587
1761915557964051500,1.096051513671875,-0.9162567667841911,-0.008546732940524816,0.8216334864988922
1761915557974105600,1.106105712890625,-1.0999164671331643,-0.03956073375493288,0.7786085837647319
1761915557984160000,1.116159912109375,-1.1116326238900422,-0.2758142524331808,0.6123243080433458
1761915557994214700,1.126214599609375,-0.664960285013914,0.20744638025835155,0.2557630692576989
1761915558004268800,1.136268798828125,0.3611480185866356,0.5232197181142866,0.6779087600447237
1761915558014323000,1.146322998046875,0.6832324392855167,0.3122808195650577,0.4565100980078801
1761915558024376800,1.156376953125,0.5401297902524471,0.008116963221132754,0.10106069292165339
1761915558034431000,1.166430908203125,0.41503509159684177,-0.05413783290088176,0.21781287597194313
1761915558044484900,1.17648486328125,0.49344227335751056,0.09890548764914274,0.3212105970064178
1761915558054539000,1.1865390625,0.7405763747513294,0.09826397487521171,0.28094507598299534
1761915558064593000,1.196593017578125,0.7122954521626234,-0.12421864647343754,0.26267547899466004
1761915558074647800,1.206647705078125,0.9145756818294525,-0.34058322333320973,0.21934657007893546
1761915558084701700,1.21670166015625,0.6600789427131414,-0.4125312920823693,0.14898787114676088
1761915558094755800,1.226755859375,0.17490765409469602,-0.23184052454158663,0.19931526064770294
1761915558104810000,1.23681005859375,-0.03663315587043762,0.0351559229247272,0.43046486204937096
1761915558114863900,1.24686376953125,-0.3883306245446205,0.19624533341675995,0.27637510118633507
1761915558124918000,1.25691796875,-0.3323293358594179,0.3309130393207073,0.19017627916876226
1761915558134972000,1.266971923828125,-0.23410452395081519,0.2849190576478839,0.10545859908703714
1761915558145026000,1.277026123046875,-0.20825228981375693,0.07983078482300042,0.07016359648518264
1761915558155080700,1.287080810546875,-0.237894563883543,-0.15595584699586032,0.09640254665119573
1761915558165134800,1.297134765625,-0.28225451461374756,-0.26658918183967467,0.16965433667637406
1761915558175188700,1.307188720703125,-0.4042851495236158,-0.25102394843921066,0.3359758026029914
1761915558185243000,1.317242919921875,-0.4601934992283582,-0.19052461768239737,0.34068799888193607
1761915558195297000,1.327297119140625,-0.18741992966532706,-0.14867109681516885,0.2429479930819012
1761915558205351000,1.337350830078125,0.08685819924175739,-0.07506459333449601,0.1653427205549553
1761915558215405000,1.347405029296875,0.3843710732638836,-0.03973009897246957,0.11036726778615265
1761915558225459000,1.357458984375,0.4658779746055603,-0.09856734173595905,0.06530369883123785
1761915558235513900,1.367513916015625,0.3899509192228317,-0.06284311740398407,0.06899280827329493
1761915558245567700,1.377567626953125,0.39833588573038575,0.0082435122102499,0.07879515816494823
1761915558255622000,1.387621826171875,0.4699456624358892,0.06321224297732114,-0.05286251573543995
1761915558265675800,1.39767578125,0.4391162244081497,0.10669964865669608,-0.14896744941323994
1761915558275730000,1.40772998046875,0.45135260564684865,0.09181333743110298,-0.13573754535885527
1761915558285783800,1.41778369140625,0.5347872601807118,0.04240399435684085,-0.11163535149320959
1761915558295838000,1.427837890625,0.3719786246806383,-0.08441124448105693,-0.09844240018203854
1761915558305892900,1.437892822265625,0.024811785173416135,-0.12694105717465282,-0.04645859894331079
1761915558315946800,1.44794677734375,-0.2836100208759308,0.005576631088554859,0.0911302140051499
1761915558326001000,1.4580009765625,-0.46268122439086434,0.15220803876966238,0.19683288751374928
1761915558336054800,1.4680546875,-0.2771352719038725,0.15821604701280592,0.22564585288623346
1761915558346109000,1.47810888671875,0.08908347407579421,0.08020093330964445,0.16820811992343515
1761915558356162800,1.488162841796875,0.53044484706223,-0.029941695407778024,0.07080556591683998
1761915558366217000,1.498217041015625,0.8733663040846585,-0.17355813918188212,-0.06705883540287613
1761915558376270800,1.508270751953125,0.7700707647830247,-0.2427997254513204,-0.07486216609757393
1761915558386325800,1.51832568359375,0.43347500365078445,-0.16860022451356052,-0.012302468744851648
1761915558396380000,1.5283798828125,0.16771277415454386,-0.03795651342868805,0.07052662111129611
1761915558406433800,1.538433837890625,0.08577683374583721,0.03598506722524762,0.09959536960944533
1761915558416488000,1.548488037109375,0.2343389172285795,-0.025723200929909942,0.08327343609016388
1761915558426541800,1.558541748046875,0.3815069160044193,-0.1320608844064176,0.04525573052614927
1761915558436596000,1.568595947265625,0.4717810611695051,-0.25203736326545473,0.06812584357988088
1761915558446649900,1.57864990234375,0.5153530763924121,-0.269503607981652,0.11266045675724744
1761915558456704000,1.5887041015625,0.6015566111177205,-0.1637348104342818,0.07421144710388033
1761915558466759000,1.598759033203125,0.6019248599082231,-0.02958966709971428,-0.005653313053958118
1761915558476812800,1.608812744140625,0.41063656437695023,0.06574483019486069,-0.06536843463052064
1761915558486867000,1.618866943359375,0.1551063905596733,0.20973770606592296,-0.07957487383317202
1761915558496920800,1.6289208984375,-0.014593758019804953,0.28750176761746404,-0.007503708427306265
1761915558506975000,1.63897509765625,-0.16635259171724318,0.2632974468179047,0.09321867418438196
1761915558517028900,1.64902880859375,-0.12602175037264823,0.1606003118008375,0.13989930468080564
1761915558527083000,1.6590830078125,-0.005134440279006958,-0.021969401354342697,0.13863266401216387
1761915558537138000,1.669137939453125,0.06233809049129486,-0.1746710688598454,0.09216271712435409
1761915558547191800,1.67919189453125,0.05402443565428257,-0.22871216338798403,0.0634937450661324
1761915558557246000,1.689245849609375,0.0175806648761034,-0.19180676644742486,0.08653296760907396
1761915558567299800,1.6992998046875,-0.010363573104143143,-0.13445391702279447,0.10381180912754498
1761915558577354000,1.70935400390625,0.005963292318582535,-0.08504603525325656,0.03822064425759017
1761915558587408000,1.719407958984375,-0.006151508367061615,-0.039634237382560965,0.008607806344842537
1761915558597462000,1.7294619140625,-0.030038579910993575,0.012568097411096095,-0.002621781604643911
1761915558607516000,1.739515869140625,-0.08188333343863487,0.006271189223974943,0.039071443267492574
1761915558617570800,1.74957080078125,-0.176735454043746,-0.07396729961708187,0.08230523037882521
1761915558627625000,1.759625,-0.30826807679235935,-0.14941899257302282,0.1299347316984553
1761915558637678800,1.769678955078125,-0.3176274412900209,-0.1497070157341659,0.126356115159858
1761915558647733000,1.77973291015625,-0.17961714695990086,-0.10208601738139986,0.037551092699263246
1761915558657787000,1.789786865234375,0.03731880004703998,-0.0025124212123453617,-0.06598901421427726
1761915558667841000,1.799841064453125,0.2233984210193157,0.07911752198711038,-0.19122644580882042
1761915558677895000,1.80989501953125,0.23567981044352054,0.16382614197954534,-0.22240564712230115
1761915558687949800,1.81994970703125,0.12139701318144798,0.17271350505128502,-0.13199917168128303
1761915558698003700,1.830003662109375,-0.046771688047051424,0.11089373934566973,-0.01664143866407685
1761915558708057900,1.840057861328125,-0.08134031260311603,0.03603986615240574,0.04276158475601114
1761915558718112000,1.850112060546875,-0.00832066909968853,-0.021282588133960962,0.0022646843958180397
1761915558728166000,1.860165771484375,0.104503746047616,-0.013835925389826297,-0.08947817248180508
1761915558738220000,1.870219970703125,0.17168460039496422,-0.01178819907978177,-0.1191096876955591
1761915558748274000,1.88027392578125,0.12745792065560818,-0.0033960721790790554,-0.10788396307043731
1761915558758328000,1.890328125,0.01300268943607807,-0.021973346877098083,-0.08301080309860408
1761915558768382700,1.9003828125,-0.08547755853831768,0.009650310268253087,0.011370923515781759
1761915558778436900,1.910436767578125,-0.02350011805295944,0.05528510323986411,0.05400186762944795
1761915558788490800,1.92049072265625,0.1544476343899965,0.08104454452693462,0.014099065271462314
1761915558798545000,1.930544921875,0.1781470744073391,0.10327420425266026,-0.02856925171052571
1761915558808599000,1.94059912109375,0.1069651677250862,0.1708440579175949,-0.003567015149060171
1761915558818653000,1.95065283203125,-0.026516251003742216,0.18548223960101604,0.01873092746483744
1761915558828707000,1.96070703125,-0.05476327132284641,0.19671032058000562,0.052061592882405965
1761915558838761000,1.970760986328125,-0.13251929569840432,0.0993061774045229,0.11431018759249709
1761915558848815900,1.98081591796875,-0.19416180514097212,-0.019517332027107474,0.17512814671127125
1761915558858869800,1.990869873046875,-0.17256313679516314,-0.09291896058544516,0.19375981847764923
1761915558868924000,2.000923828125,-0.04822948563992977,-0.11150427245944737,0.16248376919357105
1761915558878977800,2.010977783203125,0.09671499186754226,-0.09287906696647405,0.10291011104746721
1761915558889032000,2.021031982421875,0.1644388670504093,0.011315905392915009,0.02986178943882696
1761915558899086000,2.031086181640625,0.13594167136251925,0.0677303049236536,-0.028558282791939563
1761915558909140000,2.041139892578125,0.05129296486377716,0.06057385729774832,-0.028053497907845303
1761915558919195000,2.05119482421875,0.026857027265429496,0.022370237240195275,0.0015127426505088806
1761915558929248800,2.061248779296875,0.012706921359896659,0.023591303467750548,0.04579760971735231
1761915558939303000,2.071302978515625,0.011841244441270828,0.048051498724520206,0.07091880333323497
1761915558949356800,2.081356689453125,-0.007143442013859748,0.10550196330472826,0.06299892445362638
1761915558959411000,2.091410888671875,-0.037110710254311556,0.17765329954102635,0.05309285389259457
1761915558969464800,2.10146484375,0.0017021277427673339,0.19039412317052481,0.04722229962507263
1761915558979519000,2.11151904296875,0.01976093152463436,0.10885974930003285,0.04530570714771747
1761915558989577000,2.121576904296875,0.08322422665357589,-0.01780541354268789,0.04180740757002495
1761915558999632000,2.1316318359375,0.19809096128344536,-0.14549392808377742,0.05469270857097581
1761915559009686000,2.14168603515625,0.2117383783638477,-0.25209201606214043,0.10011129237548448
1761915559019740000,2.151739990234375,0.1915577601224184,-0.2635520061008632,0.10456329421512782
1761915559029794000,2.1617939453125,0.1313122579962015,-0.19219269702509045,0.08749256075569428
1761915559039848000,2.171847900390625,-0.0024497312396764754,-0.04689531442672014,0.06804905201662331
1761915559049902000,2.181902099609375,-0.029879589956998822,0.08743205360695719,0.04586092987768352
1761915559059956000,2.1919560546875,0.06285773045122624,0.1360588680014014,0.032016312008036764
1761915559070009900,2.202009765625,0.1782768382668495,0.11024652748331427,0.050452659848425535
1761915559080065000,2.21206494140625,0.2391056932389736,0.03063318480327725,0.10196268326267599
1761915559090119000,2.222118896484375,0.22686288225948809,-0.1190174245685339,0.15503507888913154
1761915559100173000,2.232173095703125,0.12480068414509296,-0.2403518939077854,0.20525950120594352
1761915559110227000,2.24222705078125,0.05322071805596351,-0.23450199883580206,0.2303484958855435
1761915559120281000,2.252281005859375,0.024471593433618544,-0.1651457001455128,0.1696507382134907
1761915559130335000,2.2623349609375,0.04477320770621299,-0.0333925665140152,0.12588421419863588
1761915559140388900,2.272388916015625,0.08449380819797515,0.10243468468859791,0.13800820283773355
1761915559150443000,2.282443115234375,0.19394553204178808,0.12948562709093092,0.11457537786732427
1761915559160498000,2.292497802734375,0.2941974658638239,0.0786383601680398,0.08931397662973031
1761915559170552000,2.302552001953125,0.3524485793024301,0.020562311035394666,0.04087414987448137
1761915559180606000,2.31260595703125,0.26742460975050925,0.0368484060563147,0.028542541800113393
1761915559190660000,2.32266015625,0.06623217532038689,0.06384338048771024,0.06523067012764514
1761915559200714000,2.3327138671875,-0.10527531494200229,0.06494198937937617,0.07968676410927437
1761915559210768000,2.342767822265625,-0.2163525941610336,0.07876505528762937,0.09912357824607752
1761915559220821800,2.35282177734375,-0.22406360692977903,0.08369462064430117,0.1297298841755837
1761915559230877000,2.362876953125,-0.13908698365092276,0.0563463027305901,0.11894309895699844
1761915559240931000,2.37293115234375,-0.05391629910469055,0.002757628145068884,0.08883329870700836
1761915559250985000,2.38298486328125,-0.007592354825139046,-0.0222306826390326,0.07994397200704552
1761915559261039000,2.3930390625,-0.02846095533072948,0.026606705766171215,0.07653989461802412
1761915559271093000,2.403093017578125,-0.020066636472940443,0.08301789042651653,0.06155004081956576
1761915559281147000,2.41314697265625,0.08181085272431374,0.08178586441352963,0.043061348587297835
1761915559291200800,2.42320068359375,0.16309388218224047,0.01999517867192626,0.05673544361207168
1761915559301255000,2.4332548828125,0.27070436207354065,-0.05911342935636639,0.06238960604940075
1761915559311310000,2.44331005859375,0.3193301535546779,-0.1306714758746326,0.04323758193703834
1761915559321364000,2.453364013671875,0.1931084966957569,-0.11387377806976437,0.04321134695066139
1761915559331418000,2.463418212890625,-0.002583586752414703,-0.04593348365724086,0.0666756173721049
1761915559341472000,2.473471923828125,-0.12047580668330192,0.006724632079899311,0.053505325417313725
1761915559351526100,2.483526123046875,-0.13764847528040408,0.04873977324962616,0.05532446713587269
1761915559361579800,2.493579833984375,-0.07575228333771228,0.09917100671753287,0.07928398286150767
1761915559371634000,2.503634033203125,0.024521277794241902,0.09249167508408426,0.08136187598095275
1761915559381687800,2.513687744140625,0.10742226384282111,0.015509996081888675,0.04930805639056489
1761915559391743000,2.523742919921875,0.17540332865715025,-0.068358081433177,0.023125704383151605
1761915559401797000,2.533797119140625,0.1901069767922163,-0.11607391846254467,0.026243856953282373
1761915559411851000,2.54385107421875,0.12953180432021616,-0.09236424931213259,0.060244049954647196
1761915559421905200,2.5539052734375,0.09039338763058186,-0.016600129406154154,0.07015236270511523
1761915559431959000,2.563958984375,0.004642272847890853,0.05111147081702947,0.04862745371526107
1761915559442013000,2.574012939453125,-0.08143792775869368,0.1274216802984476,0.07730976017909125
1761915559452066800,2.58406689453125,-0.10464227773547172,0.14363602525740862,0.10368220053166151
1761915559462122000,2.5941220703125,-0.08970774345397949,0.07452069571614266,0.08859216516120359
1761915559472176000,2.604176025390625,-0.015218611919879912,0.006839052239805459,0.07641556955203413
1761915559482230000,2.61422998046875,0.09397124611735343,-0.029342268209904432,0.07104966773786582
1761915559492284200,2.6242841796875,0.19563304673731327,-0.035909956162422894,0.05996894107400439
1761915559502338000,2.634338134765625,0.2116267346829176,-0.029221126048266887,0.03817352631338872
1761915559512392000,2.644391845703125,0.1686257973462343,-0.002171206559240818,0.043056622179830445
1761915559522445800,2.65444580078125,0.11858254028260708,0.0208048876196146,0.0228409600244835
1761915559532500000,2.6645,0.1126344455331564,0.045507659460604186,0.02098498429371975
1761915559542555000,2.674554931640625,0.1236743104636669,0.07343713826313615,0.04293167149275541
1761915559552609000,2.684609130859375,0.12066519177556037,0.06371493180245161,0.07688715085284784
1761915559562663200,2.6946630859375,0.12916238648593426,0.04807414894774556,0.09526541411373764
1761915559572717000,2.704717041015625,0.11093114874660968,0.02138371042087674,0.07646093393056654
1761915559582771000,2.71477099609375,0.06835398977994918,0.03324482860639691,0.055919629150582476
1761915559592824800,2.724824951171875,0.06196516552567482,0.07295651513934134,0.07355847222101874
1761915559602879000,2.73487890625,0.05782967315614223,0.05874474217444658,0.12350576723003759
1761915559612934000,2.744933837890625,0.021356676283478735,0.014004267694056034,0.12779447739990427
1761915559622988000,2.754988037109375,0.033864860200881954,0.00415901937559247,0.11365267353183589
1761915559633042000,2.7650419921875,0.08470423607826233,0.03418780854493379,0.11249608737523667
1761915559643096000,2.775095947265625,0.1273567983686924,0.07900602443665265,0.08681753843780607
1761915559653150200,2.785150146484375,0.14031097248792648,0.08597717862352729,0.06349840297494083
1761915559663203800,2.795203857421875,0.14131810370385647,0.04331804046183824,0.05275790458349511
1761915559673258000,2.805258056640625,0.16336568486094474,-0.027782179286330935,0.07351686613557394
1761915559683311900,2.815311767578125,0.20941431933045387,-0.09522299974411726,0.09100063280873
1761915559693367000,2.825366943359375,0.24729893656671045,-0.14162746191397307,0.09095514056603424
1761915559703421000,2.8354208984375,0.25742051760852336,-0.14514102299287915,0.06392828229218721
1761915559713475000,2.84547509765625,0.22411855198740957,-0.10759688975736498,0.055350916751381006
1761915559723529000,2.855529052734375,0.13828969579339026,-0.061038113808631896,0.061296846943208944
1761915559733582800,2.865582763671875,0.03382511271238327,-0.061452685958892105,0.0743407725719735
1761915559743637000,2.875636962890625,-0.029728783309459685,-0.022433219473809003,0.09064065865622833
1761915559753691000,2.88569091796875,-0.07587094128131866,0.025836890437453984,0.11101924715517088
1761915559763745000,2.8957451171875,-0.08829670761227607,0.05032324304878712,0.09584034619117156
1761915559773800000,2.905800048828125,-0.0715074853748083,0.03823796071857214,0.08781434918912127
1761915559783854000,2.91585400390625,-0.06572714840769768,-0.0007489186711609363,0.06611959092454053
1761915559793908000,2.925907958984375,-0.01864215662777424,-0.019924743784219025,0.04715535360239446
1761915559803962000,2.935962158203125,0.05335691165626049,-0.030312428416311737,0.04061623415723443
1761915559814015700,2.946015625,0.06820026052296162,-0.034630583876371385,0.032577676784421784
1761915559824070000,2.95606982421875,0.04087620026767254,-0.03165244484841823,0.041461224480858073
1761915559834123800,2.966123779296875,0.016801497197151183,0.0026062369756400584,0.09606543278447352
1761915559844179000,2.976178955078125,0.016749474748969078,0.06352949223294854,0.11312638463540933
1761915559854233000,2.986233154296875,0.028325346252322196,0.07580737452581525,0.060702424714015796
1761915559864287000,2.996286865234375,0.010551204630732535,0.10704363978877662,0.02749871128600789
1761915559874341000,3.006341064453125,0.01486322261095047,0.1363699797771871,0.02942269020208623
1761915559884395000,3.01639501953125,0.06158464177548885,0.12355039182305336,0.05212672140733338
1761915559894449000,3.026448974609375,0.07425766086578368,0.09773293673843145,0.06993709881950635
1761915559904502800,3.036502685546875,0.08464227675795555,0.07411839852556586,0.061431844100262964
1761915559914557000,3.046556884765625,0.04885901571512222,0.0781914931833744,0.06349869066930841
1761915559924612000,3.056612060546875,0.04674480004012584,0.08295929210707545,0.03943693841190543
1761915559934666000,3.066666015625,0.09444178623855114,0.057551732997596264,0.0337085371280089
1761915559944720100,3.07672021484375,0.16551555637121199,0.019327362412959338,0.03659127579035703
1761915559954774000,3.08677392578125,0.19894436324238776,-0.016436901668459177,0.03801579216814134
1761915559964828000,3.096827880859375,0.24936405240297316,-0.023265140253305432,0.06931738231885247
1761915559974881800,3.1068818359375,0.3177987062036991,-0.054348991433531044,0.055803583289170636
1761915559984932400,3.116932373046875,0.33990707763731476,-0.0725781833462417,0.013535312175168655
1761915559994987500,3.126987548828125,0.31605741549432276,-0.06606397914662956,-0.00938531178967096
1761915560005041400,3.13704150390625,0.20046412015557288,-0.04994228090718388,0.013368750836071558
1761915560015095600,3.147095458984375,0.06404138727784156,-0.017177198641747236,0.0684174834702164
1761915560025149400,3.1571494140625,-0.0060404492080211635,-0.0036982699960470197,0.10318521992811001
1761915560035203600,3.16720361328125,-0.018206103298068047,-0.004651186806708574,0.11733498790692537
1761915560045257200,3.17725732421875,0.006010054069757461,0.009265548734366894,0.10209239232325926
1761915560055311400,3.187311279296875,0.05846621749401092,0.012433072854578495,0.08909765786477364
1761915560065365200,3.197365234375,0.0721919605076313,0.011000263572484254,0.060707785875722765
1761915560075420400,3.20742041015625,0.07669044097065925,0.026333003391325473,0.06255059159765951
1761915560085474600,3.217474609375,0.04740706334114075,0.03231763075888157,0.06011956962503027
1761915560095528400,3.227528564453125,0.010019289711117743,0.0395088574372232,0.059966813048999756
1761915560105582600,3.23758251953125,-0.03608721242547035,0.052176177439093585,0.05206495844984892
1761915560115636200,3.24763623046875,-0.03218319072425365,0.04907105103060603,0.046687982685817406
1761915560125690400,3.2576904296875,0.03893967924714088,0.07028758819103241,0.02375693550837459
1761915560135744300,3.267744140625,0.1275473525047302,0.06182619544640183,0.015003845791192724
1761915560145799400,3.27779931640625,0.180081257340312,0.042459670066833495,0.03808310808357782
1761915560155853300,3.287853271484375,0.1777583673506975,0.03464578144550323,0.05390334829157218
1761915560165907500,3.297907470703125,0.10968903973102569,0.0006261690743267536,0.07580522823450155
1761915560175961600,3.307961669921875,0.05569383017122745,-0.03571004967615008,0.053705245603318325
1761915560186015500,3.318015380859375,0.08519172733426093,-0.024239099851995707,0.033875420410803055
1761915560196069400,3.3280693359375,0.08622983821034431,0.0004576806396245956,0.013277280010201502
1761915560206123300,3.338123291015625,0.04214461276829243,0.053368309833109376,0.037354054023511704
1761915560216178400,3.348178466796875,-0.02211070952117443,0.10987535608336328,0.04512249150134157
1761915560226232300,3.358232421875,-0.10563011972904204,0.16351035402864217,0.06535436957255006
1761915560236286500,3.368286376953125,-0.13632628676593303,0.16331030141189692,0.05671279795542359
1761915560246340400,3.37834033203125,-0.0820955148845911,0.08975392068326472,0.026053083621535914
1761915560256394500,3.38839453125,-0.0173018479347229,0.018785656751692293,0.02686069651026046
1761915560266448400,3.398448486328125,0.04505144012570381,-0.005865823293477296,0.05415371089002583
1761915560276502300,3.408502197265625,0.06691781949698924,0.012419774981588125,0.04545565527873113
1761915560286556400,3.418556396484375,0.0638788901925087,0.014090484672784804,0.03659692692972021
1761915560296611300,3.428611328125,0.029215573090314865,0.04499605667665601,0.039832326371083034
1761915560306665500,3.43866552734375,-0.004278115710616112,0.0984131740875542,0.08698899514772929
1761915560316719400,3.44871923828125,0.03053893064856529,0.10702142795696853,0.10408424199391156
1761915560326773500,3.4587734375,-0.007651976057887077,0.06694061585068703,0.11479172403174452
1761915560336827400,3.468827392578125,-0.05524433283805847,0.018422522527724503,0.13076062459596433
1761915560346881300,3.47888134765625,-0.06320259836614131,-0.04034706182703376,0.1266024911363609
1761915560356935400,3.488935302734375,-0.0595171878516674,-0.04021057596579194,0.1200718381254468
1761915560366990300,3.498990234375,0.06425649133324622,-0.029880028348416087,0.12046879242062568
1761915560377044500,3.50904443359375,0.19194412909150121,-0.03941211906448006,0.10483469503503293
1761915560387098400,3.519098388671875,0.28431787688434124,-0.05459755936712026,0.07661019707499071
1761915560397152500,3.529152587890625,0.31349545605182644,-0.046118923226743935,0.06175855987055692
1761915560407206400,3.539206298828125,0.2660813784480095,-0.063215311717242,0.05583326604138128
1761915560417260300,3.54926025390625,0.170670454916358,-0.0675507105730474,0.06726543649141677
1761915560427314200,3.559314208984375,0.13560323318839074,-0.06427373472899198,0.09080193189885467
1761915560437368300,3.569368408203125,0.0722527507841587,-0.05778656466677785,0.06889611556632444
1761915560447423500,3.579423583984375,0.08037760505080223,-0.03489902555420995,0.034913716233265585
1761915560457477400,3.589477294921875,0.10653086796104907,-0.031442893750965595,0.013248099581489804
1761915560467531500,3.599531494140625,0.09348317033946514,-0.038545711493492125,0.003121362873946782
1761915560477585400,3.60958544921875,0.03747311382591724,-0.06724193688482046,0.004348461550066713
1761915560487639600,3.6196396484375,-0.031767595660686494,-0.056215077566355465,0.044326815645582975
1761915560497693200,3.629693115234375,-0.05278408020436764,0.025061522150784728,0.0523630874464754
1761915560507747300,3.639747314453125,-0.0741828420639038,0.11291355473548173,0.03717796223766636
1761915560517802500,3.649802490234375,-0.06957154887616634,0.14308116785362363,0.023257984426734036
1761915560527856400,3.6598564453125,-0.04576923300623893,0.123114630754292,0.003364470322773559
1761915560537910500,3.66991064453125,0.04450491215884685,0.07731193386986851,0.0028999934745370408
1761915560547964400,3.67996435546875,0.13307517601549623,-0.00872720407396555,-0.011250945831346325
1761915560558018600,3.6900185546875,0.10819792439043521,-0.04810965865254402,0.012029316642566118
1761915560568072200,3.700072265625,0.03802256440222263,0.0012559914104640483,0.04956050591482781
1761915560578126300,3.710126220703125,-0.022924363991618155,0.06791238349229096,0.03745737283409107
1761915560588181500,3.720181396484375,-0.0214759187489748,0.12017477791011333,0.040923541974159885
1761915560598235400,3.7302353515625,0.03812894738614559,0.13067337557077408,0.04301249077715911
1761915560608289500,3.74028955078125,0.15775310567617415,0.07653203553855419,0.03741814821868902
1761915560618343400,3.750343505859375,0.29323008213639257,0.025126988602429626,0.024448285623267292
1761915560628397600,3.7603974609375,0.31329496504366394,-0.008159341058135032,0.03183553263063077
1761915560638451500,3.770451416015625,0.2279518465399742,-0.001163198560476303,0.04671856962032616
1761915560648505300,3.78050537109375,0.11510814217031001,0.0014930150367319583,0.05510984713765792
1761915560658560300,3.790560302734375,0.0318850845605135,-0.031155308981239794,0.07150601493692957
1761915560668614400,3.800614501953125,0.00760521430671215,-0.06438011771291494,0.1305622433464974
1761915560678668500,3.81066845703125,0.06941840414106845,-0.12127601715028286,0.1233319998320192
1761915560688722400,3.820722412109375,0.1497124225616455,-0.12208762579411267,0.05768383037808816
1761915560698776600,3.830776611328125,0.18281506621837615,-0.03900412278547883,0.06901367753138765
1761915560708830500,3.84083056640625,0.17867665123939513,0.03743921155631542,0.06885702566495165
1761915560718884400,3.85088427734375,0.11925590949952601,0.05759601053074002,0.06689635658385232
1761915560728938200,3.860938232421875,0.09371522552967071,0.06013605040237307,0.06429902443387545
1761915560738993400,3.870993408203125,0.12326748322844505,0.04357070004865527,0.054431253756349905
1761915560749047300,3.88104736328125,0.1623819345206022,0.012613251727074384,0.04070757026907522
1761915560759101400,3.891101318359375,0.2285264315575361,-0.06137830554842948,0.023122370781749484
1761915560769155600,3.901155517578125,0.2254547690272331,-0.12113149411305785,0.036884669246361586
1761915560779209500,3.91120947265625,0.09792845931053161,-0.1384418176151812,0.08288080177707598
1761915560789263400,3.921263427734375,-0.02011865892112255,-0.10015811805874109,0.11122741914629004
1761915560799317200,3.931317138671875,-0.049721185502409934,-0.006521510723233223,0.09513475520508363
1761915560809372400,3.941372314453125,-0.038221886366605756,0.10430588538795708,0.06622798776903654
1761915560819426300,3.95142626953125,-0.012788169902563094,0.12234963773116468,0.029637926688231526
1761915560829480400,3.96148046875,0.035242578294873234,0.06386763814613222,-0.002677064588991925
1761915560839534300,3.971534423828125,0.08306172956824302,0.016062077006697654,0.02041181034853216
1761915560849588500,3.98158837890625,0.10556114614605903,0.029908669921010732,0.05919128949870355
1761915560859642400,3.991642333984375,0.10588263318538665,0.04568447733223438,0.06310172724097501
1761915560869696300,4.0016962890625,0.051448447686433786,0.06264043443873524,0.04403004292240366
1761915560879751400,4.01175146484375,-0.007855974197387695,0.10287512193247675,0.02555388594472315
1761915560889805300,4.021805419921875,0.04746610005199909,0.10432648978456854,0.02163289940897375
1761915560899859500,4.031859375,0.13886837246418,0.0688826898291707,0.00837981540840119
1761915560909913300,4.041913330078125,0.20370295594632623,0.010725246023386717,-0.008870448469556867
1761915560919967500,4.051967529296875,0.18634382486641407,-0.04130012476816773,-0.017400266807898877
1761915560930021400,4.062021484375,0.0995107600659132,-0.08180398459210991,0.010521878071548417
1761915560940075500,4.072075439453125,0.01394435420036316,-0.07409720960706472,0.05964381903917528
1761915560950129200,4.082129150390625,0.004288052582740783,-0.025347937876731157,0.05348178927809931
1761915560960184300,4.092184326171875,-0.016199439650774,0.036048487850278615,0.05522018477749079
1761915560970238500,4.102238525390625,-0.0030769232273101803,0.0761709471412003,0.05909862451287917
1761915560980292400,4.112292236328125,0.06321838045716285,0.08894523464888333,0.04301560061627533
1761915560990346200,4.12234619140625,0.12999825278818605,0.061450347871333355,0.06092138296063058
1761915561000400100,4.132400146484375,0.19917524938881395,0.01619651704132557,0.07866255389438011
1761915561010454300,4.142454345703125,0.22017302923202514,-0.046417906173318625,0.06236562695219181
1761915561020508200,4.152508056640625,0.22255437141060827,-0.07709317655265331,0.07057485330034978
1761915561030563000,4.16256298828125,0.21707506321668624,-0.04261573741137981,0.08750174870914779
1761915561040617000,4.172616943359375,0.20063129341602323,-0.02289557628855109,0.0852467545902822
1761915561050671000,4.182671142578125,0.1609066012710333,-0.010955255386978387,0.07297758532683364
1761915561060725200,4.192725341796875,0.12525310408771037,-0.022346710234135387,0.06453436755971051
1761915561070779100,4.202779052734375,0.09456804296672344,-0.06253054432347417,0.07367946825218387
1761915561080833300,4.212833251953125,0.07769757218658924,-0.07602978510484099,0.09700089613683521
1761915561090887200,4.22288720703125,0.06636719987690448,-0.06948474737554788,0.11232303236327133
1761915561100942000,4.232942138671875,0.11278349861502647,-0.0055085342884063715,0.08981021744776517
1761915561110996000,4.242995849609375,0.1393862588584423,0.02995280132368207,0.054189846215909346
1761915561121050000,4.253050048828125,0.12537643820643424,0.04173851618543267,0.027018574502691625
1761915561131104000,4.26310400390625,0.09725742818117142,0.022753391338884828,0.03133081167861819
1761915561141158100,4.273158203125,0.09507248535752295,-0.022870295716822146,0.03260090467967093
1761915561151212000,4.2832119140625,0.08889467350542544,-0.048154374577105044,0.043472792632132766
1761915561161266200,4.29326611328125,0.05588613787293434,-0.0469821159273386,0.03541204397710971
1761915561171321000,4.303321044921875,0.023718729239702224,-0.019083762915432453,0.04279292060919106
1761915561181375000,4.313375,-0.022084406036138534,0.029839696338027712,0.053731206595059484
1761915561191429000,4.32342919921875,-0.06803250274062156,0.03767170513793826,0.0429403662558645
1761915561201483000,4.33348291015625,-0.05494798023998737,0.016840367902815342,0.030452129147946833
1761915561211537200,4.343537109375,-0.04005786962211132,0.036221944721043106,0.04146460374803282
1761915561221591000,4.353591064453125,-0.018125439277291298,0.040407121451199055,0.05545576536534354
1761915561231645200,4.363645263671875,0.04440788152515888,0.033591157826036215,0.06670431374362669
1761915561241700000,4.3737001953125,0.0722398913025856,-0.0030129180803894996,0.05744095696634613
1761915561251754000,4.38375390625,0.06449965243935585,-0.041719519224017856,0.03510730714318342
1761915561261808000,4.39380810546875,0.045185880160331725,-0.02791720384284854,0.033401051214570175
1761915561271862000,4.403862060546875,0.051262569725513456,0.0473771065942943,0.07433877241113222
1761915561281916200,4.413916259765625,0.0993751509875059,0.03193316148594021,0.07946266389666125
1761915561291970000,4.423969970703125,0.12563421235978603,-0.03132745067775249,0.06275463540293276
1761915561302024200,4.434024169921875,0.12646131083369255,-0.0726341513171792,0.058911988500133156
1761915561312079000,4.4440791015625,0.16360533883571624,-0.07001783133894204,0.06107576067158952
1761915561322133000,4.454133056640625,0.15163783766627312,-0.01563406085297465,0.06140259060631506
1761915561332187100,4.464187255859375,0.08038695740103721,0.038634704951196905,0.07049581498107872
1761915561342241000,4.474240966796875,0.020500351715087888,0.0788274529993534,0.0701977910157293
1761915561352295200,4.484295166015625,0.031336218506097795,0.07303674076870083,0.07304578259168193
1761915561362349000,4.49434912109375,0.0835375303864479,0.020909224776923654,0.06844470483728218
1761915561372403200,4.5044033203125,0.17826456330716609,-0.022946283562481403,0.04103888001609594
1761915561382457000,4.51445703125,0.23031506853997705,-0.054148354294896124,0.008234589118277654
1761915561392512000,4.524511962890625,0.23503742088675497,-0.04340922587662935,-0.0019175240591168402
1761915561402566100,4.534566162109375,0.19378712660968303,0.005667085850983858,-0.010769034932763315
1761915561412620000,4.5446201171875,0.12302666020989417,0.04031447473168373,-0.01689364615974482
1761915561422674200,4.554674072265625,0.08128536754548549,0.06903963395655155,-0.007926573481876403
1761915561432728000,4.56472802734375,0.07781739917397498,0.06393909594714642,-0.0034795811774907632
1761915561442782200,4.5747822265625,0.07434709271490574,0.032899814561009405,0.02733776912023313
1761915561452836000,4.584836181640625,0.023766075512766837,0.020483254449814556,0.059191033770376815
1761915561462891000,4.59489111328125,-0.037191958796977995,0.04112418367937207,0.09540638435385189
1761915561472945000,4.60494482421875,-0.07784311813712119,0.08060498406589031,0.11674421893954276
1761915561482999000,4.6149990234375,-0.06036591363549232,0.1033621747970581,0.09538838290628045
1761915561493053200,4.62505322265625,-0.08173544940054416,0.1381217918805778,0.0681834692183649
1761915561503107000,4.635107177734375,0.013401333364844321,0.18611045450195668,0.11082445523543283
1761915561513161200,4.6451611328125,0.04240940118432045,0.12621698068380355,0.06594410649347118
1761915561523215000,4.655215087890625,0.05015782335400581,0.07173895604312419,0.018970278903865254
1761915561533270000,4.66527001953125,0.05555003778636455,0.0650374125778675,0.02070002987249754
1761915561543324000,4.675323974609375,0.039669747087359424,0.06827069541066885,0.0376253749283147
1761915561553378000,4.6853779296875,0.014664485168457031,0.06125511756017804,0.06581518288417719
1761915561563432000,4.695431884765625,-0.08303308799564837,0.0345686245560646,0.09479412507386878
1761915561573486000,4.705486083984375,-0.15103285751044748,0.032548224644362925,0.11582334123495966
1761915561583540200,4.715540283203125,-0.14571020118296146,0.01967062289267778,0.14728988072299398
1761915561593594000,4.725593994140625,-0.04814122283458709,-0.025467618733644483,0.16064970390051603
1761915561603649000,4.73564892578125,0.11227087291777134,-0.07985591926425695,0.1504441709022969
1761915561613703000,4.745702880859375,0.21650281628668308,-0.13057999819889665,0.10983418382275849
1761915561623757000,4.755757080078125,0.1996130562841892,-0.13915259623304008,0.08053643974117003
1761915561633811000,4.76581103515625,0.16464169614613056,-0.09922302916571497,0.07627865443252958
1761915561643865000,4.775864990234375,0.15859715528488158,-0.03836860136091709,0.0802250357044395
1761915561653919000,4.7859189453125,0.1259358256548643,-0.02283244792446494,0.06154610899654217
1761915561663973000,4.79597314453125,0.12045301032960413,-0.035323534576594824,0.07176400828598999
1761915561674027300,4.80602734375,0.11631050369739532,-0.05772051369324326,0.1005477384308353
1761915561684081200,4.8160810546875,0.10092588756084442,-0.10934607151225209,0.1290563505618833
1761915561694135300,4.82613525390625,0.11009762053191662,-0.13256678810194134,0.13707172570521942
1761915561704189200,4.836189208984375,0.1561339800417423,-0.075399378246814,0.12198278631330467
1761915561714243000,4.8462431640625,0.14786416434645652,0.005840688852220773,0.10150197954890318
1761915561724298000,4.856298095703125,0.08823767090141772,0.05103519071042537,0.06979970420938916
1761915561734352100,4.86635205078125,0.08926467586159706,0.10008505282253026,0.047700648593390356
1761915561744406000,4.876406005859375,0.13397066355049608,0.10388985193297266,0.060665261908248065
1761915561754460200,4.886460205078125,0.17323299888074398,0.042754561360180375,0.05022665993967093
1761915561764514300,4.896514404296875,0.16562836909592152,0.0051079906634986395,0.05622865856713615
1761915561774568200,4.906568115234375,0.16725100186169148,0.0027960604593157768,0.05953268681489862
1761915561784622000,4.9166220703125,0.1629144339621067,0.03222045399472117,0.032534282883978444
1761915561794676000,4.926676025390625,0.12325345470309257,0.11067848915979266,0.029570629039104096
1761915561804731100,4.936731201171875,0.04611234735548496,0.20335311959534882,0.041673643388831984
1761915561814785000,4.946784912109375,-0.04551788859367371,0.21557079613357782,0.03563828363117063
1761915561824839200,4.956839111328125,-0.0974754548460245,0.18192644681558012,0.040328927948721685
1761915561834893000,4.96689306640625,-0.11060849266350269,0.11959493219554423,0.060356543018948286
1761915561844947200,4.976947265625,-0.054451136633753776,0.04192848579958081,0.07400315181517507
1761915561855001000,4.9870009765625,0.033304888230562206,-0.009582067337632179,0.06432143262850586
1761915561865055000,4.997054931640625,0.1014753381371498,-0.02841609327569604,0.05711673454723786
1761915561875110100,5.007110107421875,0.12927052303552627,-0.03837283914461732,0.03340764535213821
1761915561885164000,5.0171640625,0.17730711645185945,-0.04741086273342371,0.04749885154413059
1761915561895218200,5.02721826171875,0.19919570765495298,-0.08252645364776254,0.04161884902825113
1761915561905272000,5.03727197265625,0.18129881643652915,-0.12696429191976785,0.04978068343757186
1761915561915326200,5.047326171875,0.14000234493017197,-0.13878186322450636,0.07808081761682406
1761915561925380000,5.057380126953125,0.08264028928577899,-0.13700842381119727,0.08140185179831459
1761915561935434000,5.06743408203125,0.03647124330699444,-0.11642024768218398,0.1012838889519684
1761915561945489200,5.0774892578125,-0.003029576954245567,-0.07589066889509558,0.11226574921808205
1761915561955543000,5.08754296875,-0.07221124972999096,-0.03467486140951514,0.10868638376081362
1761915561965597200,5.09759716796875,-0.038974750560522076,0.0004734627306461334,0.10909504676009528
1761915561975651000,5.107651123046875,0.01219838731586933,-0.0267152807071805,0.061041164282243696
1761915561985709000,5.117708984375,0.10489128406047821,-0.05671747413054108,0.052630999401351436
1761915561995763000,5.127762939453125,0.1132224745541811,-0.06557751080393791,0.08600765596018173
1761915562005817900,5.13781787109375,0.13776888678967952,-0.07296338327154517,0.10080386861637235
1761915562015872000,5.1478720703125,0.1373866094738245,-0.08537994338274002,0.054416759440116584
1761915562025926000,5.15792578125,0.06735504187047481,-0.03004968582689762,0.015803334738966078
1761915562035980000,5.16797998046875,-0.10672843635976315,0.07632233831062912,0.030001663700398057
1761915562046034000,5.178033935546875,-0.2229845795214176,0.1797322977721691,0.07489493585601449
1761915562056088000,5.188088134765625,-0.22685995965003966,0.18164909117892383,0.07350797500964254
1761915562066142200,5.19814208984375,-0.11338497163951396,0.11752499405369161,0.041756147740245796
1761915562076196900,5.20819677734375,-0.043479076242446894,0.07035466207787394,0.014389029227942227
1761915562086251000,5.2182509765625,0.055446577411890026,0.05153101140335202,0.0203313335574232
1761915562096305000,5.228304931640625,0.17920564354956148,0.031137042672187087,-0.023603847855492494
1761915562106359000,5.238359130859375,0.15864625512361524,0.025506489439308642,-0.020765226896083913
1761915562116413000,5.248412841796875,0.024406711503863334,0.034515433064103124,0.026651846382417715
1761915562126467000,5.258467041015625,0.03394201709032058,0.1050870988935232,0.07715113555127755
1761915562136521000,5.26852099609375,0.12702303636968135,0.0983989994317293,0.08273770351195707
1761915562146576000,5.278575927734375,0.24136019416749477,0.03913125629648566,0.019382060875417665
1761915562156630000,5.288630126953125,0.39001463210880755,-0.0004021510601043701,0.03769857487855479
1761915562166684000,5.298683837890625,0.40556057628691194,-0.07471256502643227,0.017340855637704954
1761915562176738000,5.308738037109375,0.4179483486950397,-0.06724968179985881,0.032455568791693076
1761915562186792000,5.3187919921875,0.3669359543383121,-0.10767828443050384,-0.008197727706609294
1761915562196846000,5.32884619140625,0.28821488432288167,-0.0660676324084401,0.013120571061549707
1761915562206900000,5.33889990234375,0.20457564712762832,0.007222498599439859,0.036992198441177605
1761915562216954000,5.3489541015625,0.11187807420790195,0.006152969671785831,0.02811112811290659
1761915562227009000,5.359009033203125,0.09308452641069888,0.017382511955499648,0.06901909805859904
1761915562237063000,5.36906298828125,0.12870412132441997,0.00866685218885541,0.09595314978272654
1761915562247118000,5.3791181640625,0.1337310095757246,-0.07085618185922503,0.09968405253989622
1761915562257173000,5.389173095703125,0.059519525939226145,-0.13554960330501198,0.11370367306671104
1761915562267227000,5.399226806640625,0.02244096438884735,-0.1637150828205049,0.09360928093716502
1761915562277281000,5.409281005859375,0.04649520919322967,-0.058485652846843,0.10240470967544242
1761915562287335000,5.4193349609375,0.11898235325515269,0.052409547803550956,0.12595085882721468
1761915562297389000,5.42938916015625,0.1266723232358694,0.0702213910870254,0.10518546296777204
1761915562307443000,5.43944287109375,0.13583353481292723,0.036573242376744745,0.09123748290506191
1761915562317497900,5.449497802734375,0.0640092385739088,-0.020812486404180524,0.12059746943474746
1761915562327552000,5.459552001953125,-0.029138416200876233,-0.05747822936996817,0.14371340134255586
1761915562337606000,5.46960595703125,-0.015562310791015624,-0.07728373068869114,0.13697469507153145
1761915562347660000,5.479659912109375,0.10253098466992377,-0.0787120099261403,0.10951669710511341
1761915562357714000,5.4897138671875,0.24361820222735403,-0.07730360443294047,0.05029946031440049
1761915562367768000,5.49976806640625,0.224971953946352,-0.08624372060522437,0.028321610792120918
1761915562377822000,5.509822021484375,0.12053951956927776,-0.042173108210414645,0.05183960242848843
1761915562387876900,5.519876953125,0.01033317796587944,-0.02955152704641223,0.04713319656951353
1761915562397930800,5.5299306640625,-0.0749064801633358,-0.01818696020618081,0.02412151962062344
1761915562407985000,5.53998486328125,-0.11404314328730106,0.01653846234679222,0.027032246835017575
1761915562418039000,5.5500390625,-0.08251987777650356,0.03930982773378491,0.0352904634240549
1761915562428093000,5.560093017578125,-0.009276362389326095,0.06260989316999913,0.03613204708104022
1761915562438147000,5.57014697265625,0.03534194701611996,0.03533434823155403,0.029313124313810838
1761915562448201000,5.580200927734375,-0.04215513416230678,0.015982435899227855,0.05462499536331743
1761915562458256100,5.590256103515625,-0.16794833647608756,0.0066736325450241565,0.08823557027587667
1761915562468309800,5.600309814453125,-0.20738953550457953,-0.0027494448386132715,0.11024175084349698
1761915562478364000,5.610364013671875,-0.1850093613922596,-0.0027910920232534406,0.08848274996997788
1761915562488417800,5.620417724609375,-0.10793605858385562,0.02863295089676976,0.057667486598063256
1761915562498472000,5.630471923828125,-0.018009119421243665,0.03854118144884705,0.03623480420261621
1761915562508526000,5.640526123046875,0.0817640909731388,0.026239187628030774,0.017919468376412985
1761915562518580000,5.650580078125,0.16162322510778904,-0.003164163119345903,-0.023483404380176216
1761915562528635100,5.66063525390625,0.17953531389534472,-0.003687017949670553,-0.022394695828016845
1761915562538689000,5.67068896484375,0.1328150637745857,0.0028046821571886538,0.014177505369111896
1761915562548743000,5.680742919921875,0.0637567251175642,-0.015201076263189315,0.034683592705242336
1761915562558796800,5.690796875,0.13376140471398829,-0.0032920272827148436,0.0013636347697116435
1761915562568851000,5.700850830078125,0.13680793280303477,0.03254749399200082,0.011256795616820454
1761915562578904800,5.71090478515625,0.13148995265066624,0.06717310943230986,0.031459351695422084
1761915562588959000,5.720958984375,0.14353344166576862,0.08337357199639081,0.02401067965729162
1761915562599014100,5.73101416015625,0.11178104357421398,0.05346913985908031,0.031040687891934066
1761915562609068000,5.741068115234375,0.07843640785515307,-0.004916852005571126,0.07481186068244278
1761915562619122000,5.751121826171875,0.030445991668105122,-0.03209858118072152,0.0956111405451782
1761915562629175800,5.76117578125,0.020956863310933112,-0.018504501722753048,0.11222451302539557
1761915562639230000,5.77122998046875,0.045620179924368856,0.039732875451445576,0.10997845113165676
1761915562649283800,5.781283935546875,0.04553951590359211,0.09848360897526144,0.0657031373444479
1761915562659338000,5.791337890625,0.02202186219394207,0.13639467582702636,0.07672760377642698
1761915562669393200,5.80139306640625,-0.0010164835661649703,0.15048662180453537,0.08058520165318622
1761915562679447000,5.811447021484375,-0.05023848737478256,0.12287585356235503,0.10164821961917914
1761915562689501000,5.8215009765625,-0.08484978202879428,0.03932736339047551,0.1429732413665857
1761915562699554800,5.831554931640625,-0.11015373463332652,-0.029639789851754902,0.1652287022538483
1761915562709609000,5.84160888671875,-0.09409224214851855,-0.034651626664400095,0.18647530575897545
1761915562719662800,5.851662841796875,-0.03694236795008182,0.0013021686397492885,0.1878478544875048
1761915562729717000,5.861717041015625,0.04768529576063156,0.033610154787451024,0.15164645023099146
1761915562739772200,5.871772216796875,0.10279928021728992,0.01051072648987174,0.1076459713297896
1761915562749826000,5.881825927734375,0.15667700087726116,-0.06476356407254934,0.10394247716935351
1761915562759880200,5.891880126953125,0.20811492716968058,-0.09952639602646231,0.13972195708621293
1761915562769933800,5.901933837890625,0.20845278082191943,-0.15556421732977033,0.15783256412055344
1761915562779988000,5.911988037109375,0.1744599103271961,-0.20588015385493635,0.13686777323149144
1761915562790041900,5.922041748046875,0.18535890548229217,-0.17141031349822877,0.11993072175486012
1761915562800096000,5.932095947265625,0.19812486355304718,-0.10606880340725183,0.056851420974824575
1761915562810151000,5.94215087890625,0.17980419396460054,-0.027158640560507773,-0.01708240563091822
1761915562820205000,5.952205078125,0.23490356537401674,-0.0008845277495682239,-0.0671111592451576
1761915562830259200,5.96225927734375,0.2603811209797859,-0.038345074354857206,-0.0999749617778696
1761915562840312800,5.972312744140625,0.21712942375242708,-0.11526011786162853,-0.11623954821988008
1761915562850367000,5.982366943359375,0.19226561613082885,-0.11902385430932044,-0.08827988434163853
1761915562860420900,5.9924208984375,0.09504618187248706,-0.09798764215186238,-0.0702517131600529
1761915562870475000,6.00247509765625,0.03921557357907295,-0.08310819905847311,-0.09876969590764492
1761915562880530000,6.012530029296875,0.026294132685661314,-0.07162059036046266,-0.09244175326144322
1761915562890584000,6.022583984375,0.006436170527338981,-0.05056041280552744,-0.0937490090682637
1761915562900638000,6.032637939453125,0.0256324539065361,0.0030082419052720067,-0.07314449372580274
1761915562910692000,6.042692138671875,0.03691255733370781,0.02947378563508391,-0.021874943986942525
1761915562920746000,6.05274609375,0.014064765709638594,0.010272972211241722,0.0010431242643906442
1761915562930799900,6.0627998046875,-0.07811842794716357,0.014389467619359492,0.021499856746988368
1761915562940854000,6.07285400390625,-0.12503741551041603,0.06298676365837455,0.04140852617924101
1761915562950909000,6.082908935546875,-0.18736498460769652,0.11130246627703308,0.04891258166641928
1761915562960963000,6.092963134765625,-0.2085626709371805,0.15559841186031698,0.05771410678534303
1761915562971017000,6.103016845703125,-0.1901806265503168,0.17165829690992832,0.062382066630339246
1761915562981071000,6.113071044921875,-0.10270283410549164,0.14585472422018647,0.08246585516748019
1761915562991125800,6.123125732421875,0.04223755174875259,0.08687047420144081,0.07785281754722818
1761915563001179600,6.1331796875,0.18802198721170424,0.014187076915055512,0.04546992583267856
1761915563011233800,6.14323388671875,0.2762064666211605,-0.021011662238091228,0.0005847273856634274
1761915563021288700,6.153288818359375,0.28818215109705925,-0.04120411704778671,0.03275921878023073
1761915563031342800,6.1633427734375,0.19739304214715955,-0.03185191294327378,0.07479301898465492
1761915563041396700,6.173396728515625,0.04784194762706756,-0.04320508160665631,0.10953636078680865
1761915563051450600,6.18345068359375,-0.013353402569890021,-0.05111790055781602,0.1106908097852487
1761915563061504500,6.19350439453125,0.022975801917910574,-0.033547757075726985,0.10131234786147252
1761915563071558700,6.20355859375,0.08853110089004039,-0.023103958342224357,0.07743294816734268
1761915563081613800,6.21361376953125,0.12771218767762182,0.002071253316104412,0.05972835551747121
1761915563091667700,6.223667724609375,0.09445990641713142,0.014826689992845057,0.05877645705353934
1761915563101721900,6.233721923828125,0.043325931507349015,0.02078793648481369,0.06519364431919529
1761915563111775700,6.243775634765625,0.06966741046607494,0.04067936252132058,0.05403197507334407
1761915563121829600,6.25382958984375,0.13761398848891257,0.048305619616061446,0.044233141446183434
1761915563131883500,6.263883544921875,0.19721008679568766,0.05247706008180976,0.051911649317969565
1761915563141937700,6.273937744140625,0.21596271806061268,0.04595613388046622,0.05205756516125984
1761915563151992800,6.283992919921875,0.16900807466208934,0.05509074971154332,0.06030760757699608
1761915563162046700,6.294046630859375,0.07714110734760761,0.04262888915389776,0.10145109874503687
1761915563172100900,6.304100830078125,0.043562662872672075,0.012079729372262954,0.12493448485890403
1761915563182154800,6.31415478515625,0.10234159957766532,-0.021553221768885848,0.09632464084308594
1761915563192208600,6.324208740234375,0.21534020224809644,-0.0135024556517601,0.052010470049944704
1761915563202262500,6.334262451171875,0.2720002471029758,0.03876388428881764,0.013246896288380957
1761915563212316700,6.344316650390625,0.2278250052899122,0.08143997358530759,-0.0028163132294779644
1761915563222371800,6.354371826171875,0.1373211430221796,0.09193710994124411,-0.0158200484117493
1761915563232425700,6.36442578125,0.020999533408880233,0.06577011076658963,0.019705561775318344
1761915563242479900,6.37447998046875,0.0615910715162754,0.01877820409759879,0.039732816085941154
1761915563252533800,6.38453369140625,0.1748883648723364,-0.002212415352463722,0.033575720511598045
1761915563262588000,6.394587890625,0.24717209531664847,0.02755085474848747,0.023430269970430524
1761915563272641500,6.4046416015625,0.2380260813087225,0.06115326462090015,0.006587541147170122
1761915563282695700,6.41469580078125,0.18143091838359832,0.09511150219365953,0.0066751737648504785
1761915563292750800,6.424750732421875,0.14720599269866944,0.08797770479097962,0.005922439718386158
1761915563302804700,6.4348046875,0.13020634258091449,0.018368161991983652,0.005130439957324415
1761915563312859000,6.44485888671875,0.13856149847209454,-0.05630275584980845,0.014063021277124062
1761915563322912800,6.454912841796875,0.12797872965931892,-0.07844780603200197,-0.0022573322064243255
1761915563332967000,6.464966796875,0.09698971715569496,-0.039789281813800335,-0.024366562156565488
1761915563343020800,6.475020751953125,0.06811141319572925,0.029839111816138027,-0.016351488407328724
1761915563353074700,6.48507470703125,-0.011200608450174331,0.04978592130169272,-0.008326340788649394
1761915563363129600,6.495129638671875,-0.05130523982346057,0.04347893011197448,0.009356254658545367
1761915563373183700,6.505183837890625,-0.03716331722438335,0.037041298279911275,0.019231249661301263
1761915563383237600,6.515237548828125,-0.041536710003018375,-0.010055968459695577,0.046828199440683234
1761915563393291800,6.525291748046875,-0.09820318459868431,-0.03264978532269597,0.10472883264091797
1761915563403346000,6.535345947265625,-0.06999240463674068,-0.034924598386883735,0.11101972207920625
1761915563413399800,6.54539990234375,0.001194178220629692,-0.03113558136746287,0.08153782620290294
1761915563423454700,6.555454833984375,0.056149172723293304,0.0028758476972579957,0.06789709002503659
1761915563433508600,6.565508544921875,0.016786299628019332,0.04111220098063349,0.07099702423517591
1761915563443562800,6.575562744140625,-0.0790063166975975,0.06932838777005672,0.08246729820589535
1761915563453616600,6.58561669921875,-0.08837970972061157,0.10047156792208552,0.10188720687367021
1761915563463670800,6.5956708984375,-0.037569559937715526,0.05691051248461008,0.09316875236174091
1761915563473724700,6.605724609375,0.037893969586491584,-0.02365633152797818,0.07792540785940363
1761915563483778800,6.61577880859375,0.12777122438848018,-0.08710150647833943,0.08835232852334156
1761915563493833700,6.625833740234375,0.1951350340873003,-0.0914819135196507,0.08678297858107835
1761915563503887600,6.6358876953125,0.20613748961687087,-0.09898249840810894,0.10164193600886501
1761915563513941800,6.645941650390625,0.1116191310107708,-0.05736527051478624,0.09716328362431377
1761915563523995600,6.65599560546875,0.01415478208065033,-0.001808656857162714,0.10428070528092794
1761915563534049800,6.6660498046875,-0.0033539866030216216,0.01934431354776025,0.1073875669887755
1761915563544103700,6.676103759765625,0.08939853137433529,-0.012469897733628749,0.0860172457724344
1761915563554157800,6.68615771484375,0.18719313517212866,-0.06673983258157969,0.06789072421633173
1761915563564212700,6.696212646484375,0.24012334584891795,-0.09132993782833218,0.05748405632255599
1761915563574266600,6.7062666015625,0.22150457009673116,-0.07868161478787661,0.06585932798658031
1761915563584320800,6.71632080078125,0.13608371018171309,-0.057521045598387714,0.07909843369415029
1761915563594374700,6.726374755859375,0.07826923459470271,-0.03220072638094425,0.08112626799363643
1761915563604428800,6.7364287109375,0.030099370187520978,0.014832827472686766,0.11111667964765802
1761915563614482700,6.746482666015625,0.03375555460751056,0.07680924504473804,0.09740297413170337
1761915563624536800,6.756536865234375,0.1154044947683811,0.11072846578136086,0.05829394793333485
1761915563634591700,6.766591796875,0.20179390745460987,0.11039981834888457,0.02618454853107687
1761915563644645600,6.776645751953125,0.3050625587493181,0.11459244773313403,0.02577755689907353
1761915563654699800,6.78669970703125,0.41673137412071226,0.09297595146968961,0.0023427180680911986
1761915563664753700,6.796753662109375,0.45584348732531066,0.06273658828958868,-0.05731893802187405
1761915563674807800,6.806807861328125,0.40383039149343963,0.06154474815651774,-0.03694384295453783
1761915563684861700,6.81686181640625,0.2958271128922701,0.060979369358718394,-0.004487794672232121
1761915563694915800,6.826915771484375,0.11291618508398532,0.0617557605586946,0.04647373258036095
1761915563704970800,6.836970703125,0.05996142448782921,0.0902168620198965,0.07812828262089751
1761915563715024600,6.847024658203125,0.0008235913425683975,0.08652429111227393,0.01846939844333101
1761915563725078800,6.857078857421875,0.05802490346729755,0.10798647359684109,-0.00364392772661522
1761915563735132700,6.867132568359375,0.09187515062093735,0.143214731105417,-0.015631558368634432
1761915563745186800,6.877186767578125,0.009517185407876967,0.19002806633710861,0.03491019083561841
1761915563755240700,6.88724072265625,-0.12172551448345184,0.1520206995040178,0.07007901434111409
1761915563765294800,6.897294921875,-0.17544366066753864,0.07769552635997533,0.07702434910014272
1761915563775349500,6.907349609375,-0.17304770544171333,0.014426146367937326,0.10425323275211267
1761915563785403600,6.917403564453125,-0.10744973637163638,-0.032281390401721,0.08689394640857354
1761915563795457500,6.92745751953125,-0.028504794472455977,-0.07390636321008205,0.06781782337690237
1761915563805511700,6.93751171875,0.07361293322145938,-0.10147869913801551,0.04987322969238739
1761915563815565800,6.94756591796875,0.08723170872926711,-0.11069266381561756,0.04849819674582686
1761915563825619700,6.95761962890625,-0.01456862357854843,-0.07453194776251912,0.06510383801073767
1761915563835675000,6.9676748046875,-0.10455459945201873,-0.03829363642856479,0.07608992692739702
1761915563845728500,6.977728515625,-0.11712474268972874,-0.030179741947352883,0.0754792294168379
1761915563855782700,6.98778271484375,-0.059950903093814845,-0.06243439047262072,0.08156745415618642
1761915563865836500,6.99783642578125,0.007734978166222572,-0.09476663427874446,0.08528288534958846
1761915563875890700,7.007890625,0.11049100376367568,-0.08931582152694463,0.0857187834156677
1761915563885944600,7.017944580078125,0.16821020228266714,-0.07212634792551398,0.08421679962119087
1761915563895998700,7.027998779296875,0.11358955430090427,-0.08150295581892132,0.10473430340047925
1761915563906054000,7.038053955078125,0.05610299549400806,-0.09298062764480709,0.08519291464434936
1761915563916107800,7.048107666015625,0.02425707390010357,-0.0745109049744904,0.10296004200326278
1761915563926161700,7.05816162109375,0.01884673928916454,-0.032922026392817494,0.11204235225836746
1761915563936215600,7.068215576171875,0.02603109783530235,0.0030551497869193553,0.12572525164410472
1761915563946269700,7.078269775390625,0.05213584542870521,0.025441022987663743,0.08410519247287884
1761915563956323600,7.088323486328125,0.06053951663672923,0.05796309027746319,0.05273689376150723
1761915563966377700,7.098377685546875,0.04044073145985603,0.0909770327374339,0.0655897263981169
1761915563976433000,7.108432861328125,0.021231588599085808,0.06485533400923013,0.10333358802339061
1761915563986482700,7.118482666015625,-0.014997662645578384,0.020038287161290646,0.08457905706232413
1761915563996536600,7.12853662109375,0.01167816283404827,-0.005988572890311479,0.11311286756671034
1761915564006590700,7.1385908203125,0.07511164734661578,-0.0324717984072864,0.11296787873860448
1761915564016644400,7.148644287109375,0.12208674901127814,-0.06304872297868132,0.08505580772859975
1761915564026698500,7.158698486328125,0.1548410176217556,-0.041895898704230786,0.059072115531866434
1761915564036752600,7.168752685546875,0.13794248979091644,0.0068096800148487084,0.05216706255087629
1761915564046807600,7.1788076171875,0.0626408728301525,0.052955637378990644,0.06654816420068964
1761915564056861700,7.18886181640625,0.047405309775471687,0.07858107702285051,0.0753471822686959
1761915564066915600,7.19891552734375,0.09801789115965366,0.057766837053000925,0.05999586104697082
1761915564076969700,7.2089697265625,0.09847323371171951,0.028615269109606743,0.05456671213770751
1761915564087023600,7.219023681640625,0.10465922887027262,0.012259762114286423,0.08927606490529141
1761915564097077500,7.229077392578125,0.06709668319523335,0.008724135334044694,0.08483179884753189
1761915564107131400,7.23913134765625,-0.02906418192088604,0.033227877471596,0.0899620652749203
1761915564117186600,7.2491865234375,-0.10899521224796771,0.08113938320353627,0.09586690540453419
1761915564127240700,7.25924072265625,-0.12722820355296136,0.13140797345563768,0.09389942299015819
1761915564137294600,7.269294677734375,-0.07778466594815253,0.14265826626643538,0.10313942629131488
1761915564147348700,7.2793486328125,0.014740473014116287,0.07832213382571936,0.06448447313653305
1761915564157402600,7.289402587890625,0.11063187353909015,-0.03337736894488334,0.019038014944409952
1761915564167456500,7.29945654296875,0.186411044883728,-0.07749868861362337,0.041291133177536535
1761915564177511700,7.30951171875,0.24328268666267394,-0.0708370387673378,0.05443712637471035
1761915564187565600,7.319565673828125,0.20179040032327175,-0.05809373091980814,0.022962823705328626
1761915564197619700,7.32961962890625,0.11215279949605464,0.01966945384889841,0.01073313592725317
1761915564207673600,7.339673583984375,0.0573211391121149,0.08559080965444445,0.01634849273264408
1761915564217727700,7.349727783203125,0.026412790629267692,0.09980258261933922,0.05534882069241721
1761915564227781600,7.35978173828125,0.05300269139111042,0.10279971860870718,0.08401776078459806
1761915564237835500,7.36983544921875,0.026239772149920463,0.07015007941648364,0.07258856774293818
1761915564247890700,7.379890625,0.030073066702485083,0.07427841139286756,0.06037009205368813
1761915564257944600,7.389944580078125,0.10009528195559977,0.08005626414194703,0.047197051019384526
1761915564267998700,7.399998779296875,0.17245500024557112,0.05156374462917447,0.025429967304109593
1761915564278052600,7.410052490234375,0.23416589874923227,0.010289484954625368,-0.012478978372516575
1761915564288106800,7.420106689453125,0.2212508875966072,-0.017674480639398096,-0.03731116244656732
1761915564298160600,7.43016064453125,0.14449614921808243,-0.02692497793510556,-0.003431059010780882
1761915564308214800,7.44021484375,0.09199614665210247,-0.049663025574386115,0.0005517475646687671
1761915564318269400,7.45026953125,0.09417115260362624,-0.03740297119915485,0.01435560873224167
1761915564328323600,7.460323486328125,0.09805003986358642,-0.006308452494442463,0.028379099433287047
1761915564338377500,7.47037744140625,0.06577332563698292,0.005368687426298856,0.019768687856115866
1761915564348431600,7.480431640625,0.0037929625421762466,0.004411532831937074,0.030956562405591827
1761915564358485800,7.49048583984375,-0.050235564765334126,0.03212254657819867,0.05914942311835475
1761915564368539600,7.50053955078125,-0.04552490285634994,0.05602393890842795,0.07358792664436622
1761915564378594600,7.510594482421875,-0.010706687453389168,0.06044467796012759,0.06126528276116587
1761915564388648400,7.5206484375,0.022121815437078474,0.058764908179640765,0.052015351721039035
1761915564398702600,7.53070263671875,0.05047288065254688,0.07479600552618502,0.06223514614005107
1761915564408756500,7.540756591796875,0.03954407488107681,0.05148819517493248,0.08067081584371626
1761915564418810600,7.550810546875,0.0052139352560043335,0.015319003554433584,0.10242427289243787
1761915564428864500,7.560864501953125,-0.0488905798971653,0.0030178865164518353,0.11904548161923885
1761915564438918700,7.570918701171875,-0.08880115000307559,-0.023209610673785207,0.13596527143381534
1761915564448973600,7.5809736328125,-0.07183247954547405,-0.0077433076031506055,0.12520170269403605
1761915564459027500,7.59102734375,0.10486030440032482,-0.008973287789523601,0.0859205530654639
1761915564469081600,7.60108154296875,0.2616308287799358,-0.030915655006468295,0.0415147812990006
1761915564479135500,7.611135498046875,0.23618834448754786,-0.029373832391947505,0.0209260845801793
1761915564489189600,7.621189697265625,0.1496171454936266,0.0014611585937440396,0.062463707898650314
1761915564499243500,7.631243408203125,0.08481061906218529,0.03181260384619236,0.07274601419381797
1761915564509297700,7.641297607421875,0.09002864597141742,0.03883300400227308,0.0720824448517058
1761915564519352600,7.6513525390625,0.14577625215649603,0.01229687925428152,0.05762097144206054
1761915564529406500,7.661406494140625,0.17659458426833152,-0.013261194241791964,0.042759493263624604
1761915564539460600,7.671460693359375,0.1682826829969883,-0.02906082092002034,0.05178414591420442
1761915564549514500,7.681514404296875,0.11395078882873058,-0.060608490219712256,0.07058715565949678
1761915564559568600,7.691568603515625,0.05106266323924064,-0.058970513754338025,0.08274170383363962
1761915564569622500,7.70162255859375,0.021176059019565582,-0.028035131134092808,0.1018169546490535
1761915564579676700,7.7116767578125,0.057739656785130496,-0.015662702425569296,0.07604328390723093
1761915564589731600,7.721731689453125,0.1264759238809347,-0.013238251757621765,0.06795939183863811
1761915564599785500,7.731785400390625,0.2095698021531105,-0.005040770646184682,0.06812202592128887
1761915564609839600,7.741839599609375,0.20104571943581104,-0.0004227554567158222,0.060587776225246484
1761915564619893500,7.7518935546875,0.17665069836974143,0.0023782734386622903,0.044247558130603284
1761915564629947600,7.76194775390625,0.13031331008672714,0.027535072657465933,0.028849105264944955
1761915564640001500,7.77200146484375,0.08984802870750427,0.060952773612737654,0.01915703821419738
1761915564650055700,7.7820556640625,0.03775543789863586,0.0710132721170783,0.007960028226906434
1761915564660110600,7.792110595703125,0.04714402849078178,0.07686345945000649,0.002043744254671037
1761915564670164500,7.80216455078125,0.07407295194864273,0.07840528206452727,0.009545763048389926
1761915564680218600,7.812218505859375,0.0942950712442398,0.05755450947657227,0.008522064290149137
1761915564690272500,7.8222724609375,0.07935527626574039,0.021758535082638263,-0.014870894460752605
1761915564700326700,7.83232666015625,0.06163257257044315,-0.022132629092037677,-0.006003030673926696
1761915564710380500,7.842380615234375,0.09924830973744392,-0.03679258421584963,0.008835760748665778
1761915564720435700,7.852435791015625,0.14809037431776523,0.006083119305968284,0.015589682855131104
1761915564730489600,7.862489501953125,0.15667583183348177,0.04772781972810626,-0.0006544361875858158
1761915564740543500,7.87254345703125,0.13762918605804442,0.07374094351530075,-0.011491261959820986
1761915564750597400,7.882597412109375,0.0984475147485733,0.06306786607056855,0.011546079153288155
1761915564760651500,7.892651611328125,0.0894721811324358,0.03281783536598086,0.0073103686791379
1761915564770705700,7.90270556640625,0.11476152068972587,-0.007119330485910177,-0.005657422973494976
1761915564780759600,7.912759521484375,0.1298047760426998,-0.011567249805480241,-0.0026659952057059852
1761915564790814700,7.922814697265625,0.09663958854377269,-0.01759118627011776,-0.0013718272093217819
1761915564800868600,7.93286865234375,-0.007493570625782013,-0.03240092512816191,0.005833044401882216
1761915564810922500,7.942922607421875,-0.09063421064913273,-0.022310908268392084,0.04557655084519647
1761915564820976400,7.952976318359375,-0.13248831603825093,-0.06029723231345415,0.07446346736988052
1761915564831030500,7.963030517578125,-0.1224590894550085,-0.08844868330359458,0.11287410864108241
1761915564841084400,7.97308447265625,-0.06001052432656288,-0.07466755684092641,0.08856265593892894
1761915564851138600,7.983138671875,0.008173954105377197,-0.017024638428539036,0.02160545427962206
1761915564861193700,7.99319384765625,0.05811258175075054,0.03742547529190778,0.02133219942934811
1761915564871247600,8.00324755859375,0.035927053427696226,0.056568713309615846,0.02621410798570141
1761915564881301800,8.0133017578125,0.031333295896649356,0.041553515007346865,0.030297815369069576
1761915564891355400,8.02335546875,0.026398762103915212,-0.003464022848755121,0.042726741771493104
1761915564901409500,8.033409423828125,0.06961772610545158,-0.04014613242745399,0.06071642583990469
1761915564911463400,8.04346337890625,0.1192699380248785,-0.03817702431157231,0.061854837018996474
1761915564921517600,8.053517578125,0.11968494856655597,-0.018004589376598594,0.05112439423068426
1761915564931572700,8.06357275390625,0.08973053980767727,-0.00040785014852881427,0.06253793304548598
1761915564941626600,8.073626708984374,0.0712204851269722,-0.008403671208024025,0.051936496064858506
1761915564951680800,8.0836806640625,0.04505670082271099,-0.023183891710638997,0.05114899894897826
1761915564961734700,8.093734619140625,0.08256780857145786,-0.03577712356299162,0.08526156856692396
1761915564971788500,8.10378857421875,0.20545242996215818,-0.043853316382318736,0.06988748295754194
1761915564981842400,8.113842529296875,0.3491530448883772,-0.05254705657809972,0.047670043392572546
1761915564991897600,8.123897705078125,0.3428811250120401,-0.06463613830059767,0.03749172719484195
1761915565001951500,8.133951416015625,0.29759236899912356,-0.06135799341276288,0.04923474455918185
1761915565012005600,8.144005615234375,0.3270259687542915,-0.060723787162452934,0.05472296671192162
1761915565022059500,8.1540595703125,0.2500368370980024,-0.05633315098807215,0.010876929453760386
1761915565032113700,8.16411376953125,0.11119067646563052,-0.013491203605383634,0.004464596459735184
1761915565042167600,8.17416748046875,0.01880582275688648,0.0478793570280075,0.02580500202842522
1761915565052221400,8.184221435546876,-0.10787117665410041,0.09434358656108378,0.03171707104984671
1761915565062276600,8.194276611328124,-0.1934486884355545,0.1220209902986884,0.05779522746384609
1761915565072330500,8.20433056640625,-0.20774550933539865,0.10760521919429301,0.06276493760123848
1761915565082384600,8.214384521484375,-0.1344493869781494,0.0674602558106184,0.06653675689068622
1761915565092438500,8.2244384765625,-0.07192424948215484,0.023783026647567748,0.06852763844695874
1761915565102492700,8.23449267578125,-0.014138415467739104,0.01856251552030444,0.052891385636897756
1761915565112546600,8.244546630859375,0.007362053200602531,-0.007503215236961841,0.04233357773544266
1761915565122600400,8.254600341796875,0.02564648243188858,-0.005962707796692848,0.048931578627834094
1761915565132655600,8.264655517578126,0.0638654461890459,-0.02042319482564926,0.04944390293098986
1761915565142709500,8.27470947265625,0.11695873847305774,-0.04680632096901536,0.030110795763833447
1761915565152763600,8.284763671875,0.17369009499847887,-0.02417918635830283,0.006393336032610386
1761915565162817500,8.294817626953124,0.2150543710440397,0.031247371178865432,0.006729847111133858
1761915565172871700,8.30487158203125,0.1747825664103031,0.06945230641067028,0.0017316186987329273
1761915565182925600,8.314925537109374,0.06234685831964015,0.059923430564999575,0.007876825189171358
1761915565192979500,8.3249794921875,-0.014753332495689392,0.024628099169582127,0.026882558998907916
1761915565203034400,8.335034423828125,-0.05037994167208671,-0.024133155259490013,0.05360784964344929
1761915565213088500,8.345088623046875,-0.02491056937277317,-0.04891206107661128,0.079442479625158
1761915565223142700,8.355142578125,0.026531448572874067,-0.04582666228190064,0.07906251299739815
1761915565233196500,8.365196533203125,0.07986848648488522,-0.023776743037253616,0.07799319413229823
1761915565243250700,8.375250732421875,0.13540624931156633,0.027307839772850274,0.0706635453639552
1761915565253304600,8.3853046875,0.19057810143530368,0.0483424444951117,0.03456538228620775
1761915565263359500,8.395359375,0.29378830054104327,0.04873071316033602,-0.0010500387758947908
1761915565273413400,8.405413330078124,0.35175942799448967,0.016100655451416968,-0.047594576136721294
1761915565283467500,8.415467529296874,0.32611411460638046,-0.032219138820469374,-0.036200947598787024
1761915565293521400,8.425521484375,0.23519524179697035,-0.04843173021376133,0.02463555182367563
1761915565303575600,8.435575439453125,0.07736556375324725,-0.07290507721304892,0.04995756524128373
1761915565313629700,8.445629638671875,-0.02570785723030567,-0.09265373377799987,0.06764712015222758
1761915565323683600,8.45568359375,-0.0784007520198822,-0.07807152006551622,0.05928271694208961
1761915565333738500,8.465738525390625,-0.07829962973296642,0.0003419453054666519,0.052634972323570395
1761915565343792400,8.47579248046875,-0.02228840417563915,0.08610781926587223,0.027275207011727615
1761915565353846500,8.485846435546875,0.03256839064955711,0.09828326409757136,0.007597341527510434
1761915565363900400,8.495900390625,0.01636719743311405,0.06622048488259315,0.012848138195183127
1761915565373954600,8.50595458984375,-0.03532324231564998,0.020284809268265962,0.022778260918660087
1761915565384008400,8.516008544921876,-0.11398293753266334,-0.029613194105774163,0.05003349372143857
1761915565394062600,8.5260625,-0.11435644702017307,-0.02067702345624566,0.07332577770999632
1761915565404117500,8.536117431640625,-0.02537058809995651,0.011656097132712602,0.06239463385096751
1761915565414171400,8.54617138671875,0.017977555239200593,0.08263385954499244,0.029167158238170666
1761915565424225500,8.5562255859375,0.047149873709678644,0.1254861821912229,0.015119508060114457
1761915565434279400,8.566279541015625,0.025922376763820646,0.09889569690749049,0.030665214776201172
1761915565444333600,8.57633349609375,0.008735679641366005,0.01131429795771837,0.044826691459119314
1761915565454387500,8.586387451171875,0.07682488100528717,-0.0631295331299305,0.0676793236550875
1761915565464441600,8.596441650390625,0.14475158528387547,-0.10289090402349829,0.06290757920863106
1761915565474496500,8.60649658203125,0.20715514222681522,-0.12623904638513922,0.06278494834280572
1761915565484550400,8.61655029296875,0.2647884160280228,-0.13554609617367386,0.08254403497022576
1761915565494604500,8.6266044921875,0.2510889764994383,-0.17062471607849,0.07491339396131225
1761915565504658400,8.636658447265624,0.22331424986720083,-0.11219678476825355,0.06765411614859476
1761915565514712600,8.646712646484374,0.11547522191703319,-0.02025894417464733,0.07612078785654157
1761915565524766500,8.656766357421875,0.03049450698494911,0.018516192160546778,0.09364285441320389
1761915565534820600,8.666820556640625,0.02594868024885654,0.01895224549025297,0.09115628916132264
1761915565544875500,8.67687548828125,0.09566635959744453,0.008786240784823894,0.08370369899990036
1761915565554929400,8.686929443359375,0.1667132417231798,-0.027353286349773406,0.06178832938773557
1761915565564983600,8.696983642578125,0.18135960671305656,-0.06245733295679092,0.03026464375182986
1761915565575037400,8.707037353515625,0.14237725736796855,-0.05250657843723893,0.027063445690879595
1761915565585091600,8.717091552734376,0.0959592050641775,0.00798515353500843,0.049859178334148595
1761915565595145500,8.7271455078125,0.005939326921105385,0.07584361488297581,0.04501290734675713
1761915565605199600,8.73719970703125,-0.04085340391397476,0.10066343723237514,0.039564670144533735
1761915565615254500,8.747254638671874,-0.04293897801637649,0.10466843509003519,0.0183786103207618
1761915565625308400,8.757308349609374,-0.011017068576812743,0.10971972713023423,0.018270738632651044
1761915565635362600,8.767362548828125,0.03197977710664272,0.08228826097771524,0.02763238641894422
1761915565645416400,8.77741650390625,0.044836920592188835,0.04068184673935175,0.010252450013021006
1761915565655470600,8.787470703125,0.07359832017421722,0.06347177069634198,0.0013521452613174914
1761915565665523500,8.7975234375,0.03642565059959888,0.10950316177010536,0.004800331220123916
1761915565675577300,8.807577392578125,-0.007644377273321151,0.11103358620777726,-0.0011828987747896462
1761915565685631500,8.817631591796875,-0.029707155999541282,0.043333676422387356,0.0019838581604417413
1761915565695685600,8.827685546875,0.017119477105140685,-0.015286416459083556,0.005664355037780479
1761915565705739500,8.837739501953125,0.12527940757274628,-0.07551146031916141,0.013664377348357811
1761915565715794700,8.847794677734376,0.18354221144914626,-0.10134864301756023,0.040356478109350426
1761915565725848300,8.857848388671876,0.14725801514685152,-0.05083163096234202,0.08500364828309975
1761915565735902500,8.86790234375,0.11287293046414852,-0.05997340718656778,0.04175300136851146
1761915565745956400,8.877956298828124,0.14916589459478855,-0.015410481230169533,0.03850727917924523
1761915565756010500,8.888010498046874,0.1419575706511736,0.0012898936800658702,0.020206574666593223
1761915565766064400,8.898064453125,0.11690320889353752,-0.00901142784282565,-0.01660978315048851
1761915565776118500,8.908118408203125,0.12575170125961302,-0.016644699200242755,-0.01345735613470897
1761915565786173700,8.918173583984375,0.03461830891668796,-0.05049246213585138,0.0319523228441365
1761915565796227300,8.928227294921875,0.0070984338283538815,-0.0838075794994831,0.06953681548950262
1761915565806281500,8.938281494140625,0.050749359506368635,-0.07231748658344149,0.048080615221150216
1761915565816335400,8.94833544921875,0.11593056446909904,-0.03002235942855477,0.015504242194537072
1761915565826389500,8.958389404296875,0.09540566283464431,0.007605360437184572,0.007356892968295141
1761915565836443400,8.968443359375,0.015400398227572441,0.04408098765835166,0.015903589376201854
1761915565846497500,8.97849755859375,-0.05240180288851261,0.0476234825707972,0.037882744939578696
1761915565856552700,8.988552734375,-0.1362888773649931,0.059965662271529434,0.09023562151929362
1761915565866606600,8.998606689453124,-0.13435060277879238,0.08892916029691696,0.12175800111410208
1761915565876660500,9.008660400390625,0.006415712261199951,0.12904285175949334,0.08129948740238323
1761915565886714400,9.01871435546875,0.08691022168993949,0.17807459369301795,0.0216320500256028
1761915565896768500,9.0287685546875,0.08058218771219253,0.20541180569082498,0.0002132956908084452
1761915565906822400,9.038822509765625,-0.03452829254567623,0.17484978642761706,0.03229163780109957
1761915565916877600,9.048877685546875,-0.16951660870611668,0.14976079174801707,0.09453061529947444
1761915565926931700,9.058931640625,-0.19246669166088104,0.08093874606490135,0.07571540365973486
1761915565936985600,9.068985595703126,-0.14482640408575534,0.03883665726408362,0.07394980049300938
1761915565947039500,9.07903955078125,-0.059223757863044735,0.05047112708687782,0.07892368904859759
1761915565957093400,9.08909326171875,0.03704933545589447,-0.009013327538967133,0.10644188363649881
1761915565967147500,9.0991474609375,0.14389759880304337,-0.14048252966254948,0.10330660868491977
1761915565977201400,9.109201416015624,0.30080256321728227,-0.15958938119262456,0.12483955485075711
1761915565987256600,9.119256591796875,0.3736830905109644,-0.2306150743998587,0.06025595045499503
1761915565997313800,9.129313720703125,0.34014790065586564,-0.19979016641676425,0.036436884379666294
1761915566007367700,9.13936767578125,0.21593349196612835,-0.11519055975675582,0.06815629351707175
1761915566017421800,9.149421875,0.10427402894496918,-0.08877718460559844,0.07064891405040398
1761915566027475700,9.159475830078126,0.07481880187988281,-0.06946750397980213,0.08851946525117382
1761915566037529600,9.169529541015624,0.09275953224003314,-0.05107508432939648,0.10720233748182653
1761915566047583700,9.179583740234374,0.11874211475849152,-0.023565876765549183,0.09396450584931298
1761915566057638700,9.189638671875,0.07017243737876415,0.03461509404629469,0.0821549534542486
1761915566067692800,9.19969287109375,0.01429506733417511,0.07637187654078006,0.08198908623489551
1761915566077746700,9.20974658203125,0.017258593314886092,0.07126505492106079,0.06301666560629382
1761915566087800800,9.21980078125,0.1000467666387558,0.07068067916184663,0.06685750414449722
1761915566097854700,9.229854736328125,0.13770108225047586,0.03305675868839025,0.049087308045662935
1761915566107908600,9.23990869140625,0.1311684656113386,0.009545242458581923,0.06226193824885413
1761915566117962800,9.249962646484375,0.10560206267833709,0.031211423082649705,0.07844170508477837
1761915566128017700,9.260017578125,0.07385317171812057,0.0531524751253426,0.05372479512058198
1761915566138071800,9.27007177734375,0.07151391511559486,0.08955313741415738,0.03838102245107293
1761915566148125700,9.280125732421874,0.15578209786415098,0.07666457587704062,0.005711272052582353
1761915566158179800,9.290179931640624,0.23487784641087053,0.04272241265624761,0.004671115349885076
1761915566168233700,9.300233642578124,0.22620178800225257,0.03996536903306842,0.03870802591573447
1761915566178287900,9.310287841796875,0.14942074613869188,0.01843918140158057,0.04404355085794814
1761915566188342800,9.3203427734375,0.10916823072731495,0.005585691177845001,0.045866099243145435
1761915566198396700,9.330396728515625,0.09605915830731392,0.00882145822867751,0.019130743862316012
1761915566208450800,9.340450927734375,0.10128244591355323,0.029911446399986743,0.03367319181999191
1761915566218504700,9.350504638671875,0.05888298160135746,0.07278451957330108,0.03814608118403703
1761915566228558800,9.360558837890625,-0.024283377385139464,0.08252996077910066,0.05470835366467945
1761915566238612700,9.37061279296875,-0.021124036571383474,0.0762425510726869,0.06850575540871359
1761915566248669700,9.380669677734375,0.16689911968410015,-0.08802592784687877,0.0692548750092741
1761915566258723800,9.390723876953125,0.248459797039628,-0.14616174434274434,0.03744763232478872
1761915566268777700,9.40077783203125,0.22137948241233824,-0.13051730822622776,-0.01112936984486878
1761915566278831600,9.41083154296875,0.1651104827016592,-0.06047521922886371,-0.038317547027114776
1761915566288885800,9.4208857421875,0.08998772943913937,0.008975187485665082,-0.0361062915852759
1761915566298939600,9.430939697265625,0.038251696982979776,0.02760740724131465,-0.03226775460201316
1761915566308994800,9.440994873046876,0.05685585968792438,0.027106179720908403,-0.007346672968380152
1761915566319048700,9.451048583984376,0.11250701976120471,-0.004691518817096949,-0.042126976646902035
1761915566329102800,9.461102783203126,0.070148471981287,0.03231543880179524,-0.061701792748598376
1761915566339156700,9.47115673828125,-0.09249357478022575,0.1314019821062684,-0.016814968600077553
1761915566349210600,9.481210693359374,-0.2503735217064619,0.1865755877956748,0.05596195218865759
1761915566359264500,9.491264404296874,-0.31196634678840635,0.11806684584543108,0.10195599779356271
1761915566369318700,9.501318603515625,-0.23763445164263247,0.034432138694822784,0.10547184216110035
1761915566379373800,9.511373779296875,-0.0401677597373724,0.0046356969766318794,0.08227058832370676
1761915566389427700,9.521427734375,0.1487228270024061,0.012136574126034975,0.023159314391808582
1761915566399481900,9.53148193359375,0.27796880011856556,0.03384659389182925,-0.021591754547832534
1761915566409535700,9.54153564453125,0.2746943084925413,0.03956014923304319,0.001691030960017815
1761915566419589600,9.551589599609375,0.17682371684908865,0.04121770718172192,0.039692022851249203
1761915566429643500,9.5616435546875,0.10180325491726398,0.0281302620716393,0.06884573708595708
1761915566439698700,9.57169873046875,0.09864917480051517,0.014713000485301017,0.09848662291625514
1761915566449752800,9.5817529296875,0.147438047888875,-0.008509615800529717,0.10292902581049129
1761915566459806700,9.591806640625,0.22429390855431555,-0.007121814703941345,0.062267482073651625
1761915566469860900,9.60186083984375,0.21255261735618114,0.008005757931619882,0.05750144584877416
1761915566479914800,9.611914794921875,0.16761282091140747,-0.0007328443191945552,0.0771582594118081
1761915566489969000,9.621968994140625,0.09070552231967449,-0.01817556202933192,0.09831089189001359
1761915566500022500,9.6320224609375,0.10894377432167529,-0.03252455150783062,0.09477723787114956
1761915566510077700,9.64207763671875,0.1472077462643385,-0.017391279783844946,0.046862946527078744
1761915566520131800,9.6521318359375,0.16685235793292522,0.05267506687194109,0.00755292699704878
1761915566530185700,9.662185791015625,0.2093377469629049,0.1359945705935359,-0.029620043971668928
1761915566540240000,9.672239990234376,0.17029811447262763,0.13915581110343336,-0.07263853523135184
1761915566550293800,9.682293701171876,0.09224456845521926,0.11380991905331611,-0.04450635519726202
1761915566560348000,9.692347900390626,0.05940612869262695,0.06400967696532607,-0.04037406856496818
1761915566570401800,9.70240185546875,0.04987199214994907,0.048727352159470314,-0.014568358717067166
1761915566580456700,9.712456787109375,0.06470072796940803,0.07440306068584322,-0.008445948580326513
1761915566590510600,9.722510498046875,0.10417933639883994,0.12001213469430803,-0.0380044259573333
1761915566600564700,9.732564697265625,0.09092471802830696,0.11058803439736366,-0.03768881153636612
1761915566610619000,9.742618896484375,0.04363689715266227,0.06539221736490726,0.00883701199083589
1761915566620672800,9.7526728515625,0.03801905727088451,-0.02829918889775872,0.05132269328176044
1761915566630727000,9.762726806640625,0.0563975945264101,-0.06215864227116107,0.023739945557666942
1761915566640780800,9.77278076171875,0.04933832366466522,0.018236936827749014,0.005179165336722508
1761915566650835700,9.782835693359376,0.019735797083377835,0.109986853633821,0.02010130592752248
1761915566660889600,9.7928896484375,-0.018193828338384628,0.10522358475476502,0.03465106954197399
1761915566670943700,9.80294384765625,-0.03144084792435169,0.0067693480044603346,0.05024571170001291
1761915566680997600,9.81299755859375,-0.05427811815440654,-0.1074396533690393,0.06929295113049447
1761915566691051800,9.8230517578125,0.03137245886325836,-0.15231369110122323,0.08427683184589259
1761915566701106000,9.83310595703125,0.11438859572410583,-0.09208309428319335,0.09614128363281488
1761915566711159800,9.843159912109375,0.10287702162861824,-0.019250936175882815,0.09275992496567778
1761915566721214700,9.853214599609375,-0.031662966242432596,0.029309973375499246,0.10397831566771491
1761915566731268600,9.8632685546875,-0.08681494462192058,0.017757775008678436,0.16613586196033284
1761915566741322800,9.87332275390625,-0.04337912299931049,-0.08333177868127822,0.17417110171476377
1761915566751376600,9.883376708984375,0.0929968481272459,-0.15078005179315804,0.1150045447985176
1761915566761430800,9.8934306640625,0.2160176631182432,-0.12930398691371084,0.08265756921414286
1761915566771484700,9.903484619140626,0.3047814037203789,-0.0924061887577176,0.05368221635418013
1761915566781538800,9.913538818359376,0.28714871639609335,-0.08700345293134451,0.029181241562450302
1761915566791593700,9.92359375,0.18358955772221086,-0.07292392804399132,0.06756294900011271
1761915566801647600,9.933647705078124,0.11908698267340659,-0.0786957894437015,0.11671159531157463
1761915566811701800,9.94370166015625,0.04933832366466522,-0.1114572184473276,0.1156185302447062
1761915566821755600,9.953755615234375,0.03301496537327766,-0.0632943683028221,0.11136317435516975
1761915566831809800,9.963809814453125,0.04835983402132988,-0.015550474222749472,0.10207357802493497
1761915566841863700,9.97386376953125,0.07846037325263022,-0.0069105100408196445,0.1094551761762239
1761915566851917800,9.983917724609375,0.13455050926506518,-0.006214928992092609,0.10180443309419787
1761915566861972700,9.99397265625,0.1239361762702465,0.041068361838907004,0.07165038271052762
1761915566872026600,10.004026611328126,0.044942719054222105,0.13096928977742792,0.04415015303757973
1761915566882080800,10.014080810546876,-0.0339326647400856,0.18883491102978586,0.02118682700875215
1761915566892134700,10.024134765625,-0.05724515126645565,0.18703019969537854,0.02116129070869647
1761915566902188800,10.034188720703124,-0.0627151071101427,0.1489184957049787,0.03412680820585228
1761915566912242700,10.04424267578125,-0.05495440998077392,0.08741568699404596,0.027663247348088768
1761915566922296800,10.054296875,-0.016722586742043494,0.032375060034543275,0.03607613390902988
1761915566932351700,10.064351806640625,0.07455284442007541,0.02410729016587138,0.05508337925584055
1761915566942405600,10.074405517578125,0.16791501872837541,-0.0007172083586454391,0.06075870321220718
1761915566952459800,10.084459716796875,0.16733458849191665,0.0006179857678711414,0.0379632536967285
1761915566962513700,10.094513671875,0.13695289423167706,0.01236789866387844,0.05238964665983803
1761915566972567800,10.10456787109375,0.139778473046422,-0.010779168167710304,0.05501404034667648
1761915566982621700,10.11462158203125,0.15497721122205257,-0.04061842611432075,0.07326980060590431
1761915566992672500,10.124672607421875,0.19207623103857038,-0.06309270825088024,0.07801113164778799
1761915567002727200,10.13472705078125,0.16124153231382368,-0.0946994142614305,0.050938744598627086
1761915567012781300,10.14478125,0.06385726288259029,-0.04424655348360538,0.07048554931539111
1761915567022835200,10.154835205078125,0.014487375035881996,-0.005279693968594074,0.09261014123144559
1761915567032889300,10.164889404296876,0.09144611155390739,-0.03870280175134539,0.04947974142935127
1761915567042943200,10.174943115234376,0.042511692515015596,-0.07018047455474734,0.06156766324122436
1761915567052997400,10.184997314453126,-0.20417232702374458,-0.04105944788008928,0.16296367993131278
1761915567063052300,10.19505224609375,-0.3697264618396759,-0.04464052123725414,0.23637064225189386
1761915567073106200,10.205106201171875,-0.5017682031542062,-0.05077610138282179,0.32327732027787714
1761915567083160300,10.215160400390625,-0.5497597883850336,0.008540449330210685,0.39444684240259226
1761915567093214200,10.225214111328125,-0.4953378778457641,-0.03461392500251531,0.2707868892578408
1761915567103268400,10.235268310546875,-0.20310615909695623,0.06036562137454748,0.20280520338900387
1761915567113322200,10.245322265625,0.03072539313137531,0.10616685695424675,0.08173137601362541
1761915567123376400,10.25537646484375,0.2421077976644039,0.02291851877272129,-0.08302665825486183
1761915567133431600,10.265431640625,0.5532160663187503,-0.07558145681545138,-0.20835078175216912
1761915567143485200,10.275485107421876,0.6760632783085108,-0.09308657223731279,-0.19040760370660573
1761915567153539300,10.285539306640626,0.6489408781051635,-0.03610869360491633,-0.1285977018078789
1761915567163593200,10.29559326171875,0.4655149865120649,-0.01899827658906579,-0.15765074128024278
1761915567173647400,10.3056474609375,0.21149463273584843,-0.017129121716320514,-0.14276512417439371
1761915567183701200,10.315701171875,0.07304243985712527,-0.059631754142045974,-0.14486224258411676
