time,seconds_elapsed,z,y,x
1761915556946072800,0.07807275390625,-0.9887237548828125,-0.1044769287109375,0.0614166259765625
1761915556956126700,0.088126708984375,-0.9850921630859375,-0.1045379638671875,0.0588226318359375
1761915556966180900,0.098180908203125,-0.983612060546875,-0.108306884765625,0.0586090087890625
1761915556976234500,0.108234375,-0.9837188720703125,-0.1113739013671875,0.0618743896484375
1761915556986288600,0.11828857421875,-0.9904937744140625,-0.1127166748046875,0.065673828125
1761915556996343600,0.128343505859375,-1.0014801025390625,-0.1124267578125,0.0689849853515625
1761915557006397400,0.1383974609375,-1.00360107421875,-0.110015869140625,0.0706634521484375
1761915557016451600,0.14845166015625,-0.99652099609375,-0.1067657470703125,0.06707763671875
1761915557026505500,0.15850537109375,-0.985809326171875,-0.1080474853515625,0.06121826171875
1761915557036559600,0.1685595703125,-0.97418212890625,-0.1104888916015625,0.0557708740234375
1761915557046613500,0.178613525390625,-0.975921630859375,-0.11517333984375,0.054046630859375
1761915557056667600,0.188667724609375,-0.981964111328125,-0.1191558837890625,0.0543060302734375
1761915557066721500,0.198721435546875,-0.9810791015625,-0.1197052001953125,0.054229736328125
1761915557076776400,0.2087763671875,-0.979583740234375,-0.1199951171875,0.053619384765625
1761915557086830600,0.21883056640625,-0.977874755859375,-0.1263275146484375,0.0491790771484375
1761915557096884500,0.228884521484375,-0.97265625,-0.1305084228515625,0.0428009033203125
1761915557106938600,0.238938720703125,-0.964324951171875,-0.130035400390625,0.038970947265625
1761915557116992500,0.248992431640625,-0.96234130859375,-0.1286773681640625,0.0375213623046875
1761915557127046700,0.259046630859375,-0.9661407470703125,-0.1267547607421875,0.039276123046875
1761915557137100500,0.2691005859375,-0.9725494384765625,-0.1295928955078125,0.0381622314453125
1761915557147155500,0.279155517578125,-0.976226806640625,-0.1327667236328125,0.0360107421875
1761915557157209300,0.289209228515625,-0.9776763916015625,-0.131561279296875,0.0333099365234375
1761915557167263500,0.299263427734375,-0.975677490234375,-0.1243896484375,0.032073974609375
1761915557177317600,0.309317626953125,-0.9741668701171875,-0.1161651611328125,0.028717041015625
1761915557187371500,0.31937158203125,-0.97821044921875,-0.1131591796875,0.0271453857421875
1761915557197425700,0.32942578125,-0.9873504638671875,-0.11126708984375,0.0269012451171875
1761915557207479600,0.3394794921875,-0.9949951171875,-0.1081085205078125,0.0273590087890625
1761915557217533700,0.34953369140625,-0.99993896484375,-0.1017608642578125,0.028045654296875
1761915557227588400,0.35958837890625,-0.9976348876953125,-0.096435546875,0.0243988037109375
1761915557237642500,0.369642578125,-0.9935150146484375,-0.0949859619140625,0.0215606689453125
1761915557247696400,0.3796962890625,-0.99249267578125,-0.098052978515625,0.0192718505859375
1761915557257750500,0.38975048828125,-0.996490478515625,-0.102020263671875,0.018768310546875
1761915557267804700,0.3998046875,-1.0061187744140625,-0.1029205322265625,0.0187225341796875
1761915557277858600,0.409858642578125,-1.013275146484375,-0.104217529296875,0.018829345703125
1761915557287912700,0.41991259765625,-1.0084381103515625,-0.107208251953125,0.015869140625
1761915557297966600,0.429966552734375,-1.000091552734375,-0.1128997802734375,0.0072021484375
1761915557308021500,0.440021484375,-0.9899139404296875,-0.1156005859375,-0.0010223388671875
1761915557318075400,0.450075439453125,-0.9921722412109375,-0.116912841796875,-0.0063323974609375
1761915557328129500,0.460129638671875,-1.0166778564453125,-0.116546630859375,-0.0020599365234375
1761915557338183400,0.470183349609375,-1.052978515625,-0.11456298828125,0.0106048583984375
1761915557348237600,0.480237548828125,-1.07183837890625,-0.1096954345703125,0.0204010009765625
1761915557358291700,0.490291748046875,-1.059600830078125,-0.106536865234375,0.02496337890625
1761915557368345600,0.500345703125,-1.021331787109375,-0.10748291015625,0.0326690673828125
1761915557378400500,0.510400390625,-0.9901580810546875,-0.1259002685546875,0.0395660400390625
1761915557388454400,0.520454345703125,-0.96630859375,-0.15997314453125,0.0327911376953125
1761915557398508500,0.530508544921875,-0.9237060546875,-0.205657958984375,0.0015716552734375
1761915557408562400,0.5405625,-0.953399658203125,-0.2471160888671875,-0.0758819580078125
1761915557418616600,0.550616455078125,-0.965484619140625,-0.2306365966796875,-0.1151275634765625
1761915557428670500,0.56067041015625,-0.9563446044921875,-0.1984405517578125,-0.1187744140625
1761915557438724600,0.570724609375,-0.99029541015625,-0.1766204833984375,-0.12322998046875
1761915557448778800,0.58077880859375,-1.019439697265625,-0.1570281982421875,-0.119598388671875
1761915557458833400,0.59083349609375,-1.0109405517578125,-0.1494293212890625,-0.1286163330078125
1761915557468887600,0.600887451171875,-0.96856689453125,-0.1628265380859375,-0.1392974853515625
1761915557478941400,0.61094140625,-0.92724609375,-0.18585205078125,-0.1354827880859375
1761915557488995600,0.62099560546875,-0.90362548828125,-0.215728759765625,-0.1458587646484375
1761915557499049500,0.631049560546875,-0.8893280029296875,-0.261932373046875,-0.192962646484375
1761915557509103600,0.641103515625,-0.8757171630859375,-0.290496826171875,-0.2292327880859375
1761915557519157500,0.651157470703125,-0.8916778564453125,-0.30853271484375,-0.24481201171875
1761915557529211600,0.661211669921875,-0.91119384765625,-0.3170318603515625,-0.2319793701171875
1761915557539266600,0.6712666015625,-0.9346466064453125,-0.3285675048828125,-0.2028961181640625
1761915557549320400,0.681320556640625,-0.9654998779296875,-0.3483428955078125,-0.1775665283203125
1761915557559374600,0.69137451171875,-0.96826171875,-0.36175537109375,-0.1740875244140625
1761915557569428500,0.701428466796875,-0.9314422607421875,-0.3739166259765625,-0.2041473388671875
1761915557579482600,0.711482666015625,-0.8698883056640625,-0.3681793212890625,-0.237518310546875
1761915557589536500,0.72153662109375,-0.771209716796875,-0.3682708740234375,-0.2843780517578125
1761915557599590700,0.731590576171875,-0.6760711669921875,-0.375091552734375,-0.3202972412109375
1761915557609645600,0.7416455078125,-0.7200927734375,-0.355621337890625,-0.293304443359375
1761915557619699500,0.751699462890625,-0.771881103515625,-0.34637451171875,-0.275177001953125
1761915557629753600,0.761753662109375,-0.7725067138671875,-0.343017578125,-0.254486083984375
1761915557639807500,0.771807373046875,-0.8128814697265625,-0.2953643798828125,-0.2011260986328125
1761915557649861600,0.781861572265625,-0.873291015625,-0.2614288330078125,-0.1814727783203125
1761915557659915500,0.79191552734375,-0.912994384765625,-0.2498321533203125,-0.1688079833984375
1761915557669969700,0.8019697265625,-0.92144775390625,-0.252716064453125,-0.161651611328125
1761915557680023600,0.8120234375,-0.918243408203125,-0.272552490234375,-0.174407958984375
1761915557690078500,0.822078369140625,-0.9154052734375,-0.284942626953125,-0.17230224609375
1761915557700132600,0.832132568359375,-0.922637939453125,-0.2862396240234375,-0.162567138671875
1761915557710186500,0.8421865234375,-0.9344482421875,-0.28314208984375,-0.150238037109375
1761915557720240600,0.85224072265625,-0.940155029296875,-0.2833709716796875,-0.1327056884765625
1761915557730294500,0.86229443359375,-0.9633941650390625,-0.2821807861328125,-0.114990234375
1761915557740348700,0.8723486328125,-0.997802734375,-0.2734375,-0.0995635986328125
1761915557750402600,0.882402587890625,-1.024078369140625,-0.25714111328125,-0.083709716796875
1761915557760456400,0.89245654296875,-1.036590576171875,-0.24517822265625,-0.078948974609375
1761915557770511600,0.90251171875,-1.041595458984375,-0.24798583984375,-0.0894012451171875
1761915557780565500,0.9125654296875,-1.0153656005859375,-0.2659912109375,-0.102752685546875
1761915557790619600,0.92261962890625,-0.9911041259765625,-0.27984619140625,-0.11090087890625
1761915557800673500,0.932673583984375,-0.9958038330078125,-0.284576416015625,-0.100250244140625
1761915557810727700,0.942727783203125,-1.0247955322265625,-0.27734375,-0.0808258056640625
1761915557820781600,0.952781494140625,-1.0460662841796875,-0.262115478515625,-0.0676116943359375
1761915557830835500,0.96283544921875,-1.054229736328125,-0.248382568359375,-0.061767578125
1761915557840890400,0.972890380859375,-1.049774169921875,-0.2397613525390625,-0.0631103515625
1761915557850944500,0.982944580078125,-1.0365753173828125,-0.2392425537109375,-0.072967529296875
1761915557860998400,0.992998291015625,-1.0172119140625,-0.2413330078125,-0.085723876953125
1761915557871052500,1.003052490234375,-0.9897918701171875,-0.2413787841796875,-0.1014556884765625
1761915557881106700,1.013106689453125,-0.9226837158203125,-0.2281341552734375,-0.120452880859375
1761915557891160600,1.02316064453125,-0.8670654296875,-0.2131805419921875,-0.1335601806640625
1761915557901214700,1.033214599609375,-0.86614990234375,-0.203948974609375,-0.16009521484375
1761915557911268400,1.043268310546875,-0.84637451171875,-0.2081146240234375,-0.1405181884765625
1761915557921323500,1.053323486328125,-0.924530029296875,-0.218109130859375,-0.0851593017578125
1761915557931377400,1.06337744140625,-1.0176849365234375,-0.20086669921875,-0.0248260498046875
1761915557941431600,1.073431640625,-1.0510406494140625,-0.175689697265625,0.01251220703125
1761915557951485400,1.0834853515625,-1.0707244873046875,-0.1522369384765625,0.0293426513671875
1761915557961539600,1.09353955078125,-1.089447021484375,-0.1391754150390625,0.025787353515625
1761915557971593700,1.10359375,-1.1059722900390625,-0.150543212890625,0.0230255126953125
1761915557981648000,1.11364794921875,-1.0933990478515625,-0.1511993408203125,-0.017486572265625
1761915557991702800,1.123702880859375,-1.018707275390625,-0.0890350341796875,-0.021820068359375
1761915558001757000,1.1337568359375,-0.928802490234375,-0.0819244384765625,0.0099334716796875
1761915558011810800,1.143810791015625,-0.924102783203125,-0.1130218505859375,-0.0338287353515625
1761915558021865000,1.153864990234375,-0.9396820068359375,-0.1410980224609375,-0.047332763671875
1761915558031919000,1.163919189453125,-0.9472808837890625,-0.1416168212890625,-0.0263214111328125
1761915558041973000,1.173972900390625,-0.9264373779296875,-0.1358489990234375,-0.01788330078125
1761915558052027000,1.18402685546875,-0.90972900390625,-0.15643310546875,-0.014190673828125
1761915558062080800,1.194080810546875,-0.9090728759765625,-0.191375732421875,-0.0077056884765625
1761915558072136000,1.204135986328125,-0.885711669921875,-0.2203826904296875,-0.0026702880859375
1761915558082189800,1.21418994140625,-0.9410858154296875,-0.2294464111328125,0.0002593994140625
1761915558092244000,1.224243896484375,-0.9671630859375,-0.2110137939453125,0.0291748046875
1761915558102297900,1.2342978515625,-0.997772216796875,-0.197662353515625,0.0454254150390625
1761915558112352000,1.24435205078125,-1.018402099609375,-0.1876220703125,0.0342254638671875
1761915558122406000,1.254406005859375,-1.0045928955078125,-0.183380126953125,0.0318450927734375
1761915558132459800,1.264459716796875,-0.99786376953125,-0.19732666015625,0.026031494140625
1761915558142514000,1.274513916015625,-0.997406005859375,-0.2210693359375,0.02813720703125
1761915558152568800,1.28456884765625,-1.0011749267578125,-0.239837646484375,0.03240966796875
1761915558162623000,1.294623046875,-1.00848388671875,-0.2433929443359375,0.042694091796875
1761915558172676900,1.3046767578125,-1.0242462158203125,-0.23504638671875,0.0576324462890625
1761915558182731000,1.31473095703125,-1.016448974609375,-0.22857666015625,0.043426513671875
1761915558192785000,1.324784912109375,-0.986053466796875,-0.221099853515625,0.0339508056640625
1761915558202838800,1.3348388671875,-0.9579925537109375,-0.211669921875,0.020233154296875
1761915558212892700,1.344892578125,-0.9326934814453125,-0.2114410400390625,0.01385498046875
1761915558222946800,1.35494677734375,-0.9342803955078125,-0.213958740234375,0.006866455078125
1761915558233002000,1.365001953125,-0.940704345703125,-0.2054595947265625,0.0077056884765625
1761915558243055900,1.375055908203125,-0.9359588623046875,-0.19781494140625,0.0024261474609375
1761915558253110000,1.385110107421875,-0.931732177734375,-0.191558837890625,-0.0136871337890625
1761915558263164000,1.395163818359375,-0.9365386962890625,-0.188446044921875,-0.0184783935546875
1761915558273217800,1.4052177734375,-0.9304046630859375,-0.1904296875,-0.0162811279296875
1761915558283271700,1.415271728515625,-0.927520751953125,-0.19775390625,-0.0137481689453125
1761915558293325800,1.425325927734375,-0.956146240234375,-0.2085418701171875,-0.0132293701171875
1761915558303381000,1.435381103515625,-0.98992919921875,-0.20404052734375,-0.00494384765625
1761915558313435000,1.445434814453125,-1.0207061767578125,-0.1847686767578125,0.005706787109375
1761915558323489000,1.455489013671875,-1.0257568359375,-0.1732025146484375,0.0097808837890625
1761915558333543000,1.46554296875,-0.9974365234375,-0.1749725341796875,0.0032806396484375
1761915558343597000,1.47559716796875,-0.956573486328125,-0.1819610595703125,-0.0093231201171875
1761915558353650700,1.485650634765625,-0.91192626953125,-0.1923675537109375,-0.0259552001953125
1761915558363704800,1.495704833984375,-0.8920135498046875,-0.2027587890625,-0.0381317138671875
1761915558373758700,1.5057587890625,-0.917877197265625,-0.2016754150390625,-0.037139892578125
1761915558383814000,1.51581396484375,-0.9509429931640625,-0.1874847412109375,-0.0308074951171875
1761915558393868000,1.525867919921875,-0.9735260009765625,-0.1721649169921875,-0.025909423828125
1761915558403922000,1.535921875,-0.9720611572265625,-0.1678466796875,-0.026611328125
1761915558413976000,1.54597607421875,-0.954986572265625,-0.1747589111328125,-0.031280517578125
1761915558424030000,1.556030029296875,-0.941497802734375,-0.1845703125,-0.035125732421875
1761915558434083800,1.566083740234375,-0.93682861328125,-0.1918792724609375,-0.031005859375
1761915558444137700,1.5761376953125,-0.929962158203125,-0.1865234375,-0.028350830078125
1761915558454191900,1.58619189453125,-0.9235076904296875,-0.169677734375,-0.032623291015625
1761915558464247000,1.5962470703125,-0.9309234619140625,-0.1563262939453125,-0.0384368896484375
1761915558474301000,1.606301025390625,-0.95526123046875,-0.14312744140625,-0.0394439697265625
1761915558484355000,1.61635498046875,-0.979522705078125,-0.12908935546875,-0.035614013671875
1761915558494409000,1.626408935546875,-0.9951019287109375,-0.125946044921875,-0.02276611328125
1761915558504462800,1.636462890625,-1.0054779052734375,-0.1325836181640625,-0.0120697021484375
1761915558514516700,1.646516845703125,-0.9954833984375,-0.148529052734375,-0.0076904296875
1761915558524571000,1.65657080078125,-0.9836883544921875,-0.1699066162109375,-0.008026123046875
1761915558534625800,1.666625732421875,-0.9799041748046875,-0.1831512451171875,-0.0112762451171875
1761915558544680000,1.676679931640625,-0.9822845458984375,-0.185699462890625,-0.0108184814453125
1761915558554734000,1.686734130859375,-0.9862060546875,-0.1804962158203125,-0.006134033203125
1761915558564788000,1.6967880859375,-0.98712158203125,-0.1744537353515625,-0.00640869140625
1761915558574841900,1.706841796875,-0.9860382080078125,-0.1691436767578125,-0.01190185546875
1761915558584895700,1.716895751953125,-0.9882659912109375,-0.1632080078125,-0.012908935546875
1761915558594950000,1.726949951171875,-0.991790771484375,-0.157867431640625,-0.0117645263671875
1761915558605003800,1.737003662109375,-0.998199462890625,-0.1613006591796875,-0.0068359375
1761915558615059000,1.747058837890625,-1.0106353759765625,-0.1690521240234375,-0.003631591796875
1761915558625112800,1.75711279296875,-1.021636962890625,-0.172760009765625,0.000457763671875
1761915558635167000,1.7671669921875,-1.016204833984375,-0.16937255859375,-0.0051422119140625
1761915558645221000,1.77722119140625,-0.9983367919921875,-0.1614990234375,-0.016021728515625
1761915558655274800,1.787274658203125,-0.9759368896484375,-0.15069580078125,-0.027313232421875
1761915558665329000,1.797328857421875,-0.962310791015625,-0.142608642578125,-0.0376434326171875
1761915558675382800,1.8073828125,-0.967315673828125,-0.13568115234375,-0.034332275390625
1761915558685438000,1.81743798828125,-0.982177734375,-0.1390838623046875,-0.022735595703125
1761915558695491800,1.827491943359375,-0.9961395263671875,-0.14642333984375,-0.0112152099609375
1761915558705546000,1.8375458984375,-0.9938507080078125,-0.1541595458984375,-0.008514404296875
1761915558715600000,1.847599853515625,-0.9845428466796875,-0.157806396484375,-0.0142974853515625
1761915558725653800,1.85765380859375,-0.9733123779296875,-0.156982421875,-0.021270751953125
1761915558735708000,1.8677080078125,-0.970550537109375,-0.1580352783203125,-0.0198211669921875
1761915558745761800,1.87776171875,-0.9783782958984375,-0.1588897705078125,-0.0175628662109375
1761915558755816000,1.88781591796875,-0.9907989501953125,-0.1610565185546875,-0.0115814208984375
1761915558765870800,1.897870849609375,-0.995574951171875,-0.1577301025390625,-0.0019683837890625
1761915558775925000,1.907925048828125,-0.9820098876953125,-0.154632568359375,-0.0000457763671875
1761915558785979000,1.917978759765625,-0.9683685302734375,-0.154296875,-0.004547119140625
1761915558796033000,1.928032958984375,-0.969573974609375,-0.150634765625,-0.0045318603515625
1761915558806086700,1.938086669921875,-0.9811553955078125,-0.1468658447265625,0.000152587890625
1761915558816140800,1.948140869140625,-0.9904937744140625,-0.146759033203125,0.00360107421875
1761915558826195000,1.95819482421875,-0.99346923828125,-0.1502227783203125,0.0089874267578125
1761915558836248800,1.968248779296875,-1.0023040771484375,-0.1637115478515625,0.0157623291015625
1761915558846304000,1.978303955078125,-1.00579833984375,-0.1742095947265625,0.020050048828125
1761915558856358000,1.98835791015625,-0.9997406005859375,-0.1797027587890625,0.0192718505859375
1761915558866412000,1.998412109375,-0.984405517578125,-0.179229736328125,0.013946533203125
1761915558876466000,2.0084658203125,-0.97259521484375,-0.17279052734375,0.006866455078125
1761915558886519800,2.018519775390625,-0.9693450927734375,-0.1613922119140625,-0.0005340576171875
1761915558896573700,2.02857373046875,-0.975982666015625,-0.158355712890625,-0.0045318603515625
1761915558906627800,2.0386279296875,-0.9823150634765625,-0.16064453125,-0.0030059814453125
1761915558916683000,2.04868310546875,-0.9841156005859375,-0.1640472412109375,0.000823974609375
1761915558926737000,2.05873681640625,-0.9848175048828125,-0.1629638671875,0.0050048828125
1761915558936791000,2.068791015625,-0.985137939453125,-0.1597900390625,0.005889892578125
1761915558946845000,2.078844970703125,-0.9885101318359375,-0.153167724609375,0.0052032470703125
1761915558956898800,2.08889892578125,-0.9886322021484375,-0.1474609375,0.0035400390625
1761915558966952700,2.09895263671875,-0.9847869873046875,-0.1501007080078125,0.0034332275390625
1761915558977006800,2.1090068359375,-0.9826812744140625,-0.1615447998046875,0.002593994140625
1761915558987065000,2.119065185546875,-0.9722442626953125,-0.1746978759765625,0.00164794921875
1761915558997120000,2.1291201171875,-0.964141845703125,-0.1877899169921875,0.0044097900390625
1761915559007174000,2.139173828125,-0.9652099609375,-0.194976806640625,0.0078582763671875
1761915559017227800,2.149227783203125,-0.9674072265625,-0.1928253173828125,0.0067901611328125
1761915559027282000,2.159281982421875,-0.97772216796875,-0.18212890625,0.00494384765625
1761915559037335800,2.169335693359375,-0.9886322021484375,-0.1672515869140625,0.00262451171875
1761915559047390000,2.179389892578125,-0.9864959716796875,-0.156768798828125,0.000396728515625
1761915559057443800,2.18944384765625,-0.974212646484375,-0.15606689453125,0.0001983642578125
1761915559067498000,2.199498046875,-0.9646148681640625,-0.16119384765625,0.0033416748046875
1761915559077553200,2.20955322265625,-0.95989990234375,-0.172393798828125,0.0095367431640625
1761915559087606800,2.219606689453125,-0.9659271240234375,-0.188720703125,0.0145111083984375
1761915559097661000,2.229660888671875,-0.975616455078125,-0.1956329345703125,0.01971435546875
1761915559107714800,2.23971484375,-0.9818572998046875,-0.1912689208984375,0.0186767578125
1761915559117769000,2.24976904296875,-0.9825592041015625,-0.1819915771484375,0.0113372802734375
1761915559127822800,2.25982275390625,-0.98028564453125,-0.1661834716796875,0.0095977783203125
1761915559137877000,2.269876953125,-0.9731597900390625,-0.155303955078125,0.0087890625
1761915559147931000,2.279930908203125,-0.9623260498046875,-0.155029296875,0.006439208984375
1761915559157986000,2.289986083984375,-0.9529571533203125,-0.1604156494140625,0.002197265625
1761915559168040000,2.3000400390625,-0.951629638671875,-0.1630401611328125,-0.000274658203125
1761915559178093800,2.31009375,-0.966217041015625,-0.158721923828125,0.001373291015625
1761915559188148000,2.32014794921875,-0.9871673583984375,-0.158203125,0.0065765380859375
1761915559198201900,2.330201904296875,-1.001800537109375,-0.158294677734375,0.0081939697265625
1761915559208256000,2.340256103515625,-1.00982666015625,-0.1582183837890625,0.0118865966796875
1761915559218310000,2.350309814453125,-1.0059661865234375,-0.159942626953125,0.0141754150390625
1761915559228365000,2.360364990234375,-0.9963531494140625,-0.16497802734375,0.0115509033203125
1761915559238419000,2.3704189453125,-0.988433837890625,-0.170684814453125,0.00933837890625
1761915559248472800,2.380472900390625,-0.9868011474609375,-0.1703948974609375,0.00836181640625
1761915559258527000,2.39052685546875,-0.9891510009765625,-0.1640625,0.0074615478515625
1761915559268580900,2.400580810546875,-0.9839019775390625,-0.1605224609375,0.0044708251953125
1761915559278635000,2.410635009765625,-0.973785400390625,-0.1634979248046875,0.003082275390625
1761915559288689000,2.42068896484375,-0.96533203125,-0.1696624755859375,0.0044403076171875
1761915559298743000,2.430742919921875,-0.954376220703125,-0.1780548095703125,0.0041961669921875
1761915559308798000,2.4407978515625,-0.9560394287109375,-0.1814727783203125,0.0023193359375
1761915559318851800,2.450851806640625,-0.973388671875,-0.17657470703125,0.0047607421875
1761915559328906000,2.460906005859375,-0.9924774169921875,-0.16900634765625,0.0059051513671875
1761915559338960000,2.4709599609375,-0.9996337890625,-0.165313720703125,0.0041351318359375
1761915559349014000,2.481013916015625,-0.99847412109375,-0.1606597900390625,0.0049896240234375
1761915559359068000,2.49106787109375,-0.989288330078125,-0.157501220703125,0.006744384765625
1761915559369122000,2.5011220703125,-0.98040771484375,-0.161773681640625,0.0046844482421875
1761915559379176000,2.511176025390625,-0.9714813232421875,-0.1702880859375,0.0013427734375
1761915559389230800,2.52123095703125,-0.9665985107421875,-0.1774749755859375,-0.0010223388671875
1761915559399285000,2.531284912109375,-0.9683074951171875,-0.1796875,0.001220703125
1761915559409339000,2.5413388671875,-0.97442626953125,-0.1744537353515625,0.0050048828125
1761915559419393000,2.55139306640625,-0.979095458984375,-0.16729736328125,0.0040740966796875
1761915559429447000,2.561447021484375,-0.9888916015625,-0.1609344482421875,0.0036468505859375
1761915559439501000,2.5715009765625,-0.9953155517578125,-0.154632568359375,0.0076904296875
1761915559449555000,2.581554931640625,-0.9960479736328125,-0.15802001953125,0.0076751708984375
1761915559459610000,2.591610107421875,-0.9922637939453125,-0.166229248046875,0.005157470703125
1761915559469663700,2.601663818359375,-0.9829559326171875,-0.1718902587890625,0.00347900390625
1761915559479718000,2.6117177734375,-0.9712677001953125,-0.1739044189453125,0.002655029296875
1761915559489772000,2.62177197265625,-0.9636077880859375,-0.173980712890625,0
1761915559499826000,2.631825927734375,-0.9650115966796875,-0.171722412109375,-0.000701904296875
1761915559509880000,2.641880126953125,-0.9705352783203125,-0.1688232421875,-0.000762939453125
1761915559519934000,2.651933837890625,-0.9742889404296875,-0.1670684814453125,-0.0027313232421875
1761915559529988000,2.661988037109375,-0.972625732421875,-0.1638641357421875,-0.0017242431640625
1761915559540042800,2.672042724609375,-0.9732513427734375,-0.163116455078125,0.0014190673828125
1761915559550097000,2.682096923828125,-0.972412109375,-0.1651458740234375,0.004852294921875
1761915559560150800,2.69215087890625,-0.9722137451171875,-0.167633056640625,0.0060882568359375
1761915559570205000,2.702204833984375,-0.9756011962890625,-0.1705474853515625,0.0035400390625
1761915559580259000,2.712259033203125,-0.9782562255859375,-0.1683349609375,0.003509521484375
1761915559590313000,2.72231298828125,-0.97845458984375,-0.1656036376953125,0.006805419921875
1761915559600367000,2.7323671875,-0.98046875,-0.16949462890625,0.0113525390625
1761915559610422000,2.742422119140625,-0.9828643798828125,-0.1726837158203125,0.0096588134765625
1761915559620476000,2.752475830078125,-0.9797210693359375,-0.17138671875,0.0087127685546875
1761915559630529800,2.76252978515625,-0.97454833984375,-0.1664886474609375,0.0073699951171875
1761915559640584000,2.772583984375,-0.971343994140625,-0.16217041015625,0.0045013427734375
1761915559650637800,2.782637939453125,-0.9711456298828125,-0.1632537841796875,0.001678466796875
1761915559660692000,2.79269189453125,-0.970062255859375,-0.168365478515625,0.002166748046875
1761915559670746000,2.80274609375,-0.9672088623046875,-0.176422119140625,0.003936767578125
1761915559680800000,2.812800048828125,-0.9622344970703125,-0.182830810546875,0.0058441162109375
1761915559690855000,2.82285498046875,-0.95916748046875,-0.185943603515625,0.00506591796875
1761915559700908800,2.83290869140625,-0.959625244140625,-0.18463134765625,0.0023956298828125
1761915559710963000,2.842962890625,-0.965362548828125,-0.1799468994140625,0.0037689208984375
1761915559721016800,2.853016845703125,-0.9751739501953125,-0.1771697998046875,0.0047760009765625
1761915559731071000,2.863071044921875,-0.9851226806640625,-0.1761627197265625,0.0066375732421875
1761915559741124900,2.873124755859375,-0.9901123046875,-0.171142578125,0.008941650390625
1761915559751179000,2.883178955078125,-0.993988037109375,-0.166717529296875,0.0096893310546875
1761915559761233000,2.89323291015625,-0.9937286376953125,-0.1651611328125,0.0083770751953125
1761915559771287800,2.903287841796875,-0.99237060546875,-0.16802978515625,0.0064544677734375
1761915559781342000,2.913342041015625,-0.990753173828125,-0.1712646484375,0.004425048828125
1761915559791395800,2.923395751953125,-0.9849395751953125,-0.1728057861328125,0.0029754638671875
1761915559801450000,2.933449951171875,-0.9781341552734375,-0.1736907958984375,0.00201416015625
1761915559811503900,2.94350390625,-0.979522705078125,-0.1744384765625,0.0011444091796875
1761915559821558000,2.95355810546875,-0.98199462890625,-0.1733551025390625,0.00372314453125
1761915559831612000,2.96361181640625,-0.9840087890625,-0.1682281494140625,0.0090484619140625
1761915559841666800,2.973666748046875,-0.9827728271484375,-0.163482666015625,0.0074920654296875
1761915559851721000,2.983720947265625,-0.9830474853515625,-0.1622314453125,0.00140380859375
1761915559861774800,2.99377490234375,-0.9849853515625,-0.15802001953125,-0.0000152587890625
1761915559871829000,3.0038291015625,-0.9818572998046875,-0.1570892333984375,0.0005645751953125
1761915559881883000,3.0138828125,-0.9786529541015625,-0.1587066650390625,0.002899169921875
1761915559891937000,3.02393701171875,-0.9769134521484375,-0.1617584228515625,0.0029449462890625
1761915559901991000,3.033990966796875,-0.977783203125,-0.1635284423828125,0.0025634765625
1761915559912045000,3.044045166015625,-0.9813690185546875,-0.1620025634765625,0.0017547607421875
1761915559922100000,3.054099853515625,-0.978485107421875,-0.163421630859375,-0.0010528564453125
1761915559932153900,3.06415380859375,-0.9738922119140625,-0.1668701171875,-0.000701904296875
1761915559942208000,3.0742080078125,-0.96575927734375,-0.17132568359375,-0.0013427734375
1761915559952262000,3.084261962890625,-0.9635467529296875,-0.17376708984375,-0.0001678466796875
1761915559962316000,3.09431591796875,-0.9567718505859375,-0.175323486328125,0.0018463134765625
1761915559972370000,3.104369873046875,-0.9514312744140625,-0.178497314453125,-0.00115966796875
1761915559982420500,3.11442041015625,-0.9505767822265625,-0.178802490234375,-0.0043792724609375
1761915559992475400,3.124475341796875,-0.9565277099609375,-0.177886962890625,-0.0045318603515625
1761915560002529300,3.134529296875,-0.9698333740234375,-0.1752166748046875,0.0005340576171875
1761915560012583400,3.14458349609375,-0.9830780029296875,-0.171783447265625,0.0060272216796875
1761915560022637300,3.15463720703125,-0.9861297607421875,-0.1721343994140625,0.0092926025390625
1761915560032691500,3.16469140625,-0.987091064453125,-0.1715850830078125,0.00970458984375
1761915560042745300,3.174745361328125,-0.981964111328125,-0.1699371337890625,0.0081939697265625
1761915560052799500,3.184799560546875,-0.978546142578125,-0.170257568359375,0.00604248046875
1761915560062853400,3.194853271484375,-0.9775390625,-0.16949462890625,0.0050048828125
1761915560072908300,3.204908203125,-0.9783935546875,-0.1677093505859375,0.00469970703125
1761915560082962200,3.214962158203125,-0.98193359375,-0.1669464111328125,0.0052490234375
1761915560093016300,3.225016357421875,-0.986297607421875,-0.165496826171875,0.0043487548828125
1761915560103070500,3.235070556640625,-0.9901275634765625,-0.1643218994140625,0.0037841796875
1761915560113124400,3.245124267578125,-0.986724853515625,-0.1637420654296875,0.0020294189453125
1761915560123178500,3.255178466796875,-0.978057861328125,-0.161163330078125,-0.000152587890625
1761915560133232400,3.265232421875,-0.97021484375,-0.1633148193359375,0.0004425048828125
1761915560143287300,3.275287353515625,-0.966339111328125,-0.164825439453125,0.00299072265625
1761915560153341200,3.285341064453125,-0.969573974609375,-0.1667633056640625,0.0057830810546875
1761915560163395300,3.295395263671875,-0.977508544921875,-0.1712493896484375,0.0064544677734375
1761915560173449200,3.30544921875,-0.979034423828125,-0.1739044189453125,0.0045013427734375
1761915560183503400,3.31550341796875,-0.975982666015625,-0.1721038818359375,0.00274658203125
1761915560193557500,3.3255576171875,-0.977996826171875,-0.1684112548828125,0.0028076171875
1761915560203611400,3.335611328125,-0.98321533203125,-0.16265869140625,0.005523681640625
1761915560213666600,3.34566650390625,-0.9910888671875,-0.156585693359375,0.0070343017578125
1761915560223720200,3.35572021484375,-0.99835205078125,-0.1522064208984375,0.0083160400390625
1761915560233774300,3.3657744140625,-0.998321533203125,-0.15478515625,0.0057220458984375
1761915560243828200,3.375828125,-0.991180419921875,-0.1629791259765625,0.003021240234375
1761915560253882400,3.38588232421875,-0.98480224609375,-0.1686248779296875,0.004913330078125
1761915560263936300,3.395936279296875,-0.97955322265625,-0.1685028076171875,0.0064239501953125
1761915560273990400,3.405990478515625,-0.9789581298828125,-0.1674652099609375,0.00543212890625
1761915560284044500,3.41604443359375,-0.9796905517578125,-0.16693115234375,0.00457763671875
1761915560294099500,3.426099365234375,-0.9847564697265625,-0.1630401611328125,0.0074615478515625
1761915560304153300,3.4361533203125,-0.984710693359375,-0.159088134765625,0.0122222900390625
1761915560314207200,3.446207275390625,-0.9821014404296875,-0.161956787109375,0.0131072998046875
1761915560324261400,3.456261474609375,-0.9887847900390625,-0.167022705078125,0.0150146484375
1761915560334315300,3.466315185546875,-0.99029541015625,-0.1728057861328125,0.015869140625
1761915560344369400,3.476369384765625,-0.99237060546875,-0.17767333984375,0.014312744140625
1761915560354423300,3.48642333984375,-0.9876708984375,-0.1765899658203125,0.0133056640625
1761915560364478500,3.496478515625,-0.9729156494140625,-0.1759796142578125,0.0125579833984375
1761915560374532400,3.506532470703125,-0.9611968994140625,-0.177520751953125,0.0101470947265625
1761915560384586200,3.516586181640625,-0.9539794921875,-0.1781463623046875,0.0074310302734375
1761915560394640400,3.526640380859375,-0.953460693359375,-0.177337646484375,0.00665283203125
1761915560404694300,3.5366943359375,-0.96197509765625,-0.179718017578125,0.0060882568359375
1761915560414748400,3.54674853515625,-0.968902587890625,-0.178863525390625,0.00921630859375
1761915560424802300,3.55680224609375,-0.97332763671875,-0.179168701171875,0.0099029541015625
1761915560434856400,3.5668564453125,-0.9787139892578125,-0.1776580810546875,0.00689697265625
1761915560444911400,3.576911376953125,-0.9753570556640625,-0.176422119140625,0.0045318603515625
1761915560454965200,3.58696533203125,-0.9739532470703125,-0.1763763427734375,0.0027618408203125
1761915560465019400,3.597019287109375,-0.976837158203125,-0.178497314453125,0.0024566650390625
1761915560475073300,3.6070732421875,-0.9842987060546875,-0.1802825927734375,0.004364013671875
1761915560485127400,3.61712744140625,-0.9894561767578125,-0.1758270263671875,0.0076751708984375
1761915560495181300,3.627181396484375,-0.9913177490234375,-0.16595458984375,0.0069427490234375
1761915560505235500,3.6372353515625,-0.992767333984375,-0.15875244140625,0.005157470703125
1761915560515290600,3.64729052734375,-0.9915313720703125,-0.1574554443359375,0.0029144287109375
1761915560525344300,3.65734423828125,-0.9874267578125,-0.160980224609375,0.0012054443359375
1761915560535398400,3.6673984375,-0.9760589599609375,-0.1670379638671875,0.000640869140625
1761915560545452300,3.677452392578125,-0.97149658203125,-0.1764984130859375,-0.0003509521484375
1761915560555506400,3.68750634765625,-0.9766693115234375,-0.1761474609375,0.0041961669921875
1761915560565560300,3.697560302734375,-0.98370361328125,-0.170196533203125,0.005706787109375
1761915560575614500,3.707614501953125,-0.9881134033203125,-0.1644134521484375,0.004547119140625
1761915560585669400,3.71766943359375,-0.9854888916015625,-0.160186767578125,0.005126953125
1761915560595723300,3.72772314453125,-0.9766082763671875,-0.162750244140625,0.004730224609375
1761915560605777400,3.73777734375,-0.962799072265625,-0.168914794921875,0.00372314453125
1761915560615831300,3.747831298828125,-0.9522857666015625,-0.1733245849609375,0.00384521484375
1761915560625885400,3.757885498046875,-0.9549407958984375,-0.1756591796875,0.005584716796875
1761915560635939300,3.767939208984375,-0.9657135009765625,-0.17364501953125,0.00787353515625
1761915560645993500,3.777993408203125,-0.9766998291015625,-0.1755523681640625,0.008819580078125
1761915560656048400,3.78804833984375,-0.98284912109375,-0.1789398193359375,0.0125885009765625
1761915560666102500,3.7981025390625,-0.982879638671875,-0.183441162109375,0.017578125
1761915560676156200,3.80815625,-0.97369384765625,-0.18829345703125,0.01275634765625
1761915560686210300,3.818210205078125,-0.9678955078125,-0.183990478515625,0.0096282958984375
1761915560696264200,3.82826416015625,-0.9659881591796875,-0.174224853515625,0.0109405517578125
1761915560706318300,3.838318359375,-0.96844482421875,-0.1680450439453125,0.010528564453125
1761915560716372500,3.84837255859375,-0.974578857421875,-0.1662750244140625,0.010528564453125
1761915560726426400,3.85842626953125,-0.974822998046875,-0.16632080078125,0.0102386474609375
1761915560736481500,3.8684814453125,-0.97119140625,-0.1681060791015625,0.008636474609375
1761915560746535400,3.878535400390625,-0.9664459228515625,-0.1728057861328125,0.007659912109375
1761915560756589300,3.88858935546875,-0.96014404296875,-0.180511474609375,0.00640869140625
1761915560766643200,3.898643310546875,-0.9662628173828125,-0.1849517822265625,0.0107574462890625
1761915560776697300,3.908697265625,-0.98065185546875,-0.184051513671875,0.0150299072265625
1761915560786751200,3.918751220703125,-0.9892730712890625,-0.1779937744140625,0.01654052734375
1761915560796805400,3.928805419921875,-0.990234375,-0.1659393310546875,0.0139617919921875
1761915560806860500,3.938860595703125,-0.9881439208984375,-0.1574859619140625,0.0107879638671875
1761915560816914400,3.94891455078125,-0.9854583740234375,-0.15966796875,0.0068359375
1761915560826968300,3.95896826171875,-0.97979736328125,-0.165985107421875,0.005035400390625
1761915560837022200,3.969022216796875,-0.9757537841796875,-0.1683502197265625,0.0092926025390625
1761915560847076400,3.979076416015625,-0.9745330810546875,-0.1660919189453125,0.0121917724609375
1761915560857130200,3.989130126953125,-0.9757080078125,-0.164642333984375,0.0121612548828125
1761915560867184400,3.999184326171875,-0.9834136962890625,-0.1622467041015625,0.0099029541015625
1761915560877239600,4.009239501953125,-0.985595703125,-0.1595306396484375,0.00927734375
1761915560887293400,4.01929345703125,-0.97625732421875,-0.1622467041015625,0.0087127685546875
1761915560897347300,4.029347412109375,-0.96795654296875,-0.16754150390625,0.008087158203125
1761915560907401200,4.039401123046875,-0.9633331298828125,-0.1746826171875,0.0059967041015625
1761915560917455400,4.049455322265625,-0.9685821533203125,-0.17889404296875,0.0073699951171875
1761915560927509200,4.05950927734375,-0.97869873046875,-0.18182373046875,0.0118408203125
1761915560937563400,4.0695634765625,-0.984466552734375,-0.178375244140625,0.0150604248046875
1761915560947617300,4.0796171875,-0.9849853515625,-0.172210693359375,0.0135955810546875
1761915560957672400,4.08967236328125,-0.9874725341796875,-0.1653289794921875,0.014312744140625
1761915560967726600,4.0997265625,-0.9832000732421875,-0.1620635986328125,0.0133209228515625
1761915560977780200,4.1097802734375,-0.9766082763671875,-0.1620330810546875,0.01239013671875
1761915560987833900,4.119833740234375,-0.9689788818359375,-0.165740966796875,0.0146636962890625
1761915560997888000,4.129887939453125,-0.9639129638671875,-0.171295166015625,0.0151519775390625
1761915561007942100,4.139942138671875,-0.96270751953125,-0.1770782470703125,0.0138702392578125
1761915561017996000,4.14999609375,-0.9626312255859375,-0.17779541015625,0.016204833984375
1761915561028051200,4.16005126953125,-0.9634552001953125,-0.1741790771484375,0.017486572265625
1761915561038105000,4.17010498046875,-0.9661712646484375,-0.17340087890625,0.017547607421875
1761915561048159200,4.1801591796875,-0.970306396484375,-0.172088623046875,0.0164031982421875
1761915561058213000,4.190213134765625,-0.973297119140625,-0.1748046875,0.0164031982421875
1761915561068267000,4.20026708984375,-0.9765472412109375,-0.1779327392578125,0.0178070068359375
1761915561078321000,4.21032080078125,-0.978363037109375,-0.1778411865234375,0.020294189453125
1761915561088375000,4.220375,-0.9775543212890625,-0.1740875244140625,0.0201568603515625
1761915561098430200,4.23043017578125,-0.972564697265625,-0.16729736328125,0.01702880859375
1761915561108484000,4.240484130859375,-0.971405029296875,-0.1642913818359375,0.0135345458984375
1761915561118538200,4.250538330078125,-0.9742431640625,-0.1634979248046875,0.0119171142578125
1761915561128592100,4.260592041015625,-0.9762725830078125,-0.1667327880859375,0.0129241943359375
1761915561138646000,4.27064599609375,-0.9763641357421875,-0.1711578369140625,0.0137176513671875
1761915561148700000,4.280699951171875,-0.977691650390625,-0.17205810546875,0.01397705078125
1761915561158754000,4.290754150390625,-0.9818267822265625,-0.1710205078125,0.01409912109375
1761915561168809200,4.300809326171875,-0.9846343994140625,-0.1660614013671875,0.01495361328125
1761915561178863000,4.310863037109375,-0.99090576171875,-0.161834716796875,0.0156402587890625
1761915561188917200,4.320917236328125,-0.9931793212890625,-0.1620330810546875,0.0139617919921875
1761915561198971100,4.33097119140625,-0.9908905029296875,-0.162506103515625,0.0131988525390625
1761915561209025000,4.34102490234375,-0.9900665283203125,-0.1602020263671875,0.0141448974609375
1761915561219079000,4.351078857421875,-0.9863433837890625,-0.1598358154296875,0.0154266357421875
1761915561229133000,4.361133056640625,-0.9803619384765625,-0.1607818603515625,0.015228271484375
1761915561239188200,4.371188232421875,-0.9792938232421875,-0.165313720703125,0.0139617919921875
1761915561249242000,4.3812421875,-0.9807586669921875,-0.1674041748046875,0.011749267578125
1761915561259296300,4.391296142578125,-0.982574462890625,-0.1626434326171875,0.0137939453125
1761915561269350100,4.40135009765625,-0.9797210693359375,-0.1578826904296875,0.0172119140625
1761915561279404300,4.411404296875,-0.974578857421875,-0.162322998046875,0.0164947509765625
1761915561289458000,4.4214580078125,-0.9740142822265625,-0.169036865234375,0.014556884765625
1761915561299512000,4.431511962890625,-0.9722747802734375,-0.171051025390625,0.01495361328125
1761915561309567200,4.441567138671875,-0.96942138671875,-0.167572021484375,0.0146942138671875
1761915561319621000,4.45162109375,-0.9735870361328125,-0.160614013671875,0.0150299072265625
1761915561329675300,4.46167529296875,-0.9816436767578125,-0.1549530029296875,0.01556396484375
1761915561339729200,4.471729248046875,-0.985260009765625,-0.1512298583984375,0.014892578125
1761915561349783300,4.481783203125,-0.9825286865234375,-0.15386962890625,0.014801025390625
1761915561359837000,4.4918369140625,-0.9753570556640625,-0.1587066650390625,0.0129241943359375
1761915561369891000,4.50189111328125,-0.9662933349609375,-0.162689208984375,0.00909423828125
1761915561379945000,4.511945068359375,-0.96307373046875,-0.164459228515625,0.0068359375
1761915561390000000,4.522000244140625,-0.96429443359375,-0.160888671875,0.006011962890625
1761915561400054000,4.532053955078125,-0.9701690673828125,-0.156005859375,0.005401611328125
1761915561410108200,4.542108154296875,-0.97723388671875,-0.152618408203125,0.0053863525390625
1761915561420162300,4.552162353515625,-0.979644775390625,-0.150115966796875,0.0060272216796875
1761915561430216200,4.56221630859375,-0.979644775390625,-0.151580810546875,0.0071868896484375
1761915561440270000,4.57227001953125,-0.9815216064453125,-0.1536712646484375,0.010650634765625
1761915561450324000,4.582323974609375,-0.987945556640625,-0.15301513671875,0.0134429931640625
1761915561460379100,4.592379150390625,-0.993927001953125,-0.1485748291015625,0.016510009765625
1761915561470433000,4.60243310546875,-0.9960174560546875,-0.144683837890625,0.0165252685546875
1761915561480487200,4.612487060546875,-0.99481201171875,-0.1412506103515625,0.011688232421875
1761915561490541000,4.622541015625,-0.994232177734375,-0.1354827880859375,0.0120849609375
1761915561500595200,4.63259521484375,-0.984375,-0.1337432861328125,0.0134124755859375
1761915561510649000,4.642649169921875,-0.984466552734375,-0.1410980224609375,0.0067596435546875
1761915561520703000,4.652702880859375,-0.98272705078125,-0.1439361572265625,0.0041961669921875
1761915561530758100,4.662758056640625,-0.983612060546875,-0.144317626953125,0.005126953125
1761915561540812000,4.67281201171875,-0.9848175048828125,-0.143951416015625,0.0075225830078125
1761915561550866200,4.6828662109375,-0.9903411865234375,-0.1457366943359375,0.0106201171875
1761915561560920000,4.692920166015625,-1.0001068115234375,-0.1480865478515625,0.012542724609375
1761915561570974200,4.70297412109375,-1.0048370361328125,-0.14825439453125,0.0146026611328125
1761915561581028000,4.713028076171875,-1.00103759765625,-0.151031494140625,0.01611328125
1761915561591082000,4.72308203125,-0.9869537353515625,-0.1557159423828125,0.01556396484375
1761915561601137200,4.73313720703125,-0.97235107421875,-0.161407470703125,0.0124359130859375
1761915561611191000,4.74319091796875,-0.9658660888671875,-0.1641082763671875,0.00750732421875
1761915561621245200,4.7532451171875,-0.9704742431640625,-0.1632080078125,0.0049896240234375
1761915561631299000,4.763299072265625,-0.97186279296875,-0.15692138671875,0.0052947998046875
1761915561641353200,4.773353271484375,-0.9734344482421875,-0.152435302734375,0.004425048828125
1761915561651407000,4.783406982421875,-0.9767608642578125,-0.1526947021484375,0.0028533935546875
1761915561661459200,4.793459228515625,-0.9760589599609375,-0.1547088623046875,0.0052642822265625
1761915561671513000,4.80351318359375,-0.9775848388671875,-0.1584625244140625,0.0080718994140625
1761915561681567200,4.813567138671875,-0.9783935546875,-0.1645050048828125,0.01043701171875
1761915561691622100,4.8236220703125,-0.9752197265625,-0.1644744873046875,0.010284423828125
1761915561701676000,4.833676025390625,-0.972076416015625,-0.1563720703125,0.0090484619140625
1761915561711730000,4.84372998046875,-0.9753265380859375,-0.1502685546875,0.006439208984375
1761915561721784000,4.8537841796875,-0.980743408203125,-0.144989013671875,0.0029449462890625
1761915561731838000,4.863837890625,-0.9775238037109375,-0.140838623046875,0.00213623046875
1761915561741892000,4.87389208984375,-0.972686767578125,-0.14312744140625,0.0028839111328125
1761915561751946200,4.8839462890625,-0.9710845947265625,-0.1486968994140625,0.001953125
1761915561762001200,4.894001220703125,-0.9716033935546875,-0.1512451171875,0.0034332275390625
1761915561772055000,4.904054931640625,-0.9712371826171875,-0.14971923828125,0.0031585693359375
1761915561782109000,4.91410888671875,-0.973175048828125,-0.146270751953125,0.0013427734375
1761915561792163000,4.9241630859375,-0.9779510498046875,-0.137359619140625,0.0032196044921875
1761915561802217000,4.934217041015625,-0.987548828125,-0.13116455078125,0.004364013671875
1761915561812271000,4.94427099609375,-0.9950103759765625,-0.133331298828125,0.0041046142578125
1761915561822325000,4.954324951171875,-0.9990997314453125,-0.1383819580078125,0.0057220458984375
1761915561832380200,4.964380126953125,-0.9977874755859375,-0.14605712890625,0.0075531005859375
1761915561842434000,4.97443408203125,-0.99029541015625,-0.15380859375,0.00738525390625
1761915561852488000,4.984488037109375,-0.981292724609375,-0.1566619873046875,0.00604248046875
1761915561862542000,4.9945419921875,-0.976348876953125,-0.158233642578125,0.0036773681640625
1761915561872596000,5.004595947265625,-0.973480224609375,-0.1581268310546875,0.0026092529296875
1761915561882650000,5.014650146484375,-0.96820068359375,-0.1595611572265625,0.0030670166015625
1761915561892704000,5.0247041015625,-0.968505859375,-0.163818359375,0.00238037109375
1761915561902759200,5.03475927734375,-0.970703125,-0.1665496826171875,0.0045166015625
1761915561912813300,5.044813232421875,-0.9761810302734375,-0.166961669921875,0.0064849853515625
1761915561922867000,5.054866943359375,-0.981964111328125,-0.1664276123046875,0.0071563720703125
1761915561932921000,5.064921142578125,-0.986114501953125,-0.163421630859375,0.010162353515625
1761915561942975000,5.07497509765625,-0.990631103515625,-0.1593017578125,0.0099029541015625
1761915561953029000,5.085029052734375,-0.996246337890625,-0.1551971435546875,0.01025390625
1761915561963083000,5.0950830078125,-0.9895782470703125,-0.1542816162109375,0.0079193115234375
1761915561973138200,5.10513818359375,-0.983734130859375,-0.15838623046875,0.003662109375
1761915561983192300,5.1151923828125,-0.975433349609375,-0.1605682373046875,0.0045013427734375
1761915561993249800,5.125249755859375,-0.975860595703125,-0.159942626953125,0.0085906982421875
1761915562003304000,5.135303955078125,-0.9738922119140625,-0.1616668701171875,0.0076904296875
1761915562013357800,5.14535791015625,-0.9753265380859375,-0.1599273681640625,0.0021514892578125
1761915562023412000,5.155411865234375,-0.9881134033203125,-0.1520538330078125,0.0005340576171875
1761915562033465900,5.1654658203125,-1.0044708251953125,-0.14031982421875,0.003662109375
1761915562043521000,5.17552099609375,-1.012664794921875,-0.1336822509765625,0.0067901611328125
1761915562053575000,5.185574951171875,-1.0075531005859375,-0.1381378173828125,0.0042266845703125
1761915562063628800,5.19562890625,-0.9955902099609375,-0.1458282470703125,0.000030517578125
1761915562073683000,5.205682861328125,-0.9898223876953125,-0.1503143310546875,-0.00164794921875
1761915562083736800,5.21573681640625,-0.9759674072265625,-0.15301513671875,-0.0035247802734375
1761915562093791000,5.225791015625,-0.9677581787109375,-0.1548004150390625,-0.00775146484375
1761915562103844900,5.235844970703125,-0.9763641357421875,-0.1557464599609375,-0.005401611328125
1761915562113900000,5.245900146484375,-0.9864501953125,-0.15191650390625,-0.0016937255859375
1761915562123954200,5.2559541015625,-0.981048583984375,-0.1456298828125,0.00244140625
1761915562134007800,5.2660078125,-0.9706268310546875,-0.1501007080078125,-0.002685546875
1761915562144062000,5.27606201171875,-0.9565582275390625,-0.1541595458984375,-0.0068359375
1761915562154115800,5.28611572265625,-0.9460601806640625,-0.1600494384765625,-0.0067291259765625
1761915562164170000,5.296169921875,-0.9461212158203125,-0.16448974609375,-0.0078125
1761915562174224000,5.306223876953125,-0.94537353515625,-0.16436767578125,-0.0077056884765625
1761915562184279000,5.316279052734375,-0.9536285400390625,-0.167724609375,-0.010711669921875
1761915562194333200,5.326333251953125,-0.9607086181640625,-0.1598052978515625,-0.0059356689453125
1761915562204387000,5.336386962890625,-0.9706573486328125,-0.156005859375,-0.005279541015625
1761915562214441000,5.34644091796875,-0.97735595703125,-0.157012939453125,-0.003814697265625
1761915562224494800,5.356494873046875,-0.9771881103515625,-0.1556396484375,0.00103759765625
1761915562234549000,5.366549072265625,-0.9723968505859375,-0.1600799560546875,0.00250244140625
1761915562244603000,5.376602783203125,-0.9765472412109375,-0.1681060791015625,0.0043182373046875
1761915562254658000,5.386657958984375,-0.9833221435546875,-0.17388916015625,0.0041656494140625
1761915562264712000,5.3967119140625,-0.9853973388671875,-0.1721649169921875,0.00238037109375
1761915562274766000,5.40676611328125,-0.9796905517578125,-0.1579437255859375,0.0044708251953125
1761915562284820000,5.416820068359375,-0.9745025634765625,-0.1502838134765625,0.005096435546875
1761915562294873900,5.426873779296875,-0.974395751953125,-0.15020751953125,0.0022430419921875
1761915562304928000,5.436927978515625,-0.9750213623046875,-0.1544342041015625,0.002349853515625
1761915562314982000,5.44698193359375,-0.9860076904296875,-0.1588287353515625,0.00537109375
1761915562325037000,5.457037109375,-0.9914703369140625,-0.160797119140625,0.0049591064453125
1761915562335091000,5.467091064453125,-0.9868621826171875,-0.161376953125,0.0030670166015625
1761915562345145000,5.47714501953125,-0.9712982177734375,-0.1590576171875,-0.0023345947265625
1761915562355199000,5.487198974609375,-0.96246337890625,-0.1589813232421875,-0.0076141357421875
1761915562365252900,5.4972529296875,-0.9696197509765625,-0.1566925048828125,-0.007415771484375
1761915562375307000,5.50730712890625,-0.9810028076171875,-0.150970458984375,-0.00555419921875
1761915562385361000,5.51736083984375,-0.9916229248046875,-0.1502227783203125,-0.007293701171875
1761915562395416000,5.527416015625,-0.9990081787109375,-0.1465911865234375,-0.00921630859375
1761915562405470000,5.537469970703125,-1.0008392333984375,-0.14312744140625,-0.00885009765625
1761915562415524000,5.547524169921875,-0.994903564453125,-0.1390228271484375,-0.007904052734375
1761915562425578000,5.557577880859375,-0.9880828857421875,-0.13885498046875,-0.008880615234375
1761915562435631900,5.5676318359375,-0.9869232177734375,-0.14117431640625,-0.0086212158203125
1761915562445685800,5.577685791015625,-0.9991607666015625,-0.142303466796875,-0.005523681640625
1761915562455740000,5.587739990234375,-1.009246826171875,-0.14306640625,-0.00396728515625
1761915562465795000,5.597795166015625,-1.0102691650390625,-0.1433868408203125,-0.00341796875
1761915562475849000,5.607848876953125,-1.006439208984375,-0.1424407958984375,-0.0081939697265625
1761915562485903000,5.617903076171875,-0.996826171875,-0.138702392578125,-0.01153564453125
1761915562495957000,5.62795703125,-0.9881439208984375,-0.13922119140625,-0.0144195556640625
1761915562506011100,5.63801123046875,-0.9774322509765625,-0.1406402587890625,-0.0176239013671875
1761915562516064800,5.648064697265625,-0.971923828125,-0.1430511474609375,-0.0212860107421875
1761915562526119000,5.658118896484375,-0.972198486328125,-0.1419677734375,-0.0190582275390625
1761915562536174000,5.668174072265625,-0.979461669921875,-0.1419677734375,-0.0155029296875
1761915562546228000,5.67822802734375,-0.982086181640625,-0.14385986328125,-0.015777587890625
1761915562556282000,5.6882822265625,-0.97412109375,-0.1405792236328125,-0.017822265625
1761915562566336000,5.6983359375,-0.9769744873046875,-0.1375274658203125,-0.0154266357421875
1761915562576390100,5.70839013671875,-0.9755096435546875,-0.1336212158203125,-0.014007568359375
1761915562586443800,5.71844384765625,-0.9760894775390625,-0.1333770751953125,-0.0146636962890625
1761915562596498000,5.728497802734375,-0.9795074462890625,-0.13848876953125,-0.011993408203125
1761915562606553000,5.738552978515625,-0.9838104248046875,-0.142913818359375,-0.007659912109375
1761915562616607000,5.74860693359375,-0.9878387451171875,-0.1438140869140625,-0.0062713623046875
1761915562626661000,5.7586611328125,-0.987060546875,-0.1400604248046875,-0.004058837890625
1761915562636715000,5.768715087890625,-0.984832763671875,-0.133270263671875,-0.006591796875
1761915562646769200,5.77876904296875,-0.9861602783203125,-0.12835693359375,-0.0084991455078125
1761915562656823000,5.788822998046875,-0.988372802734375,-0.126220703125,-0.0059661865234375
1761915562666878000,5.7988779296875,-0.9912109375,-0.126861572265625,-0.0045013427734375
1761915562676931800,5.808931884765625,-0.9966278076171875,-0.1329498291015625,-0.0006256103515625
1761915562686986000,5.818986083984375,-0.9992828369140625,-0.14251708984375,0.0035552978515625
1761915562697040100,5.8290400390625,-1.00054931640625,-0.1479034423828125,0.0057830810546875
1761915562707094000,5.839093994140625,-0.99749755859375,-0.1460723876953125,0.0073699951171875
1761915562717148200,5.849148193359375,-0.9899749755859375,-0.142669677734375,0.005889892578125
1761915562727202000,5.8592021484375,-0.9823150634765625,-0.1406402587890625,0.0006561279296875
1761915562737257000,5.869257080078125,-0.9765625,-0.146636962890625,-0.0020904541015625
1761915562747310800,5.879310791015625,-0.971405029296875,-0.1529541015625,-0.001007080078125
1761915562757365000,5.889364990234375,-0.96746826171875,-0.1569671630859375,0.003387451171875
1761915562767419000,5.8994189453125,-0.9691162109375,-0.1638946533203125,0.0028076171875
1761915562777473000,5.90947314453125,-0.97210693359375,-0.1652679443359375,0.00103759765625
1761915562787527200,5.919527099609375,-0.969451904296875,-0.1601715087890625,-0.0017852783203125
1761915562797581000,5.9295810546875,-0.9697418212890625,-0.152313232421875,-0.0091552734375
1761915562807636000,5.939635986328125,-0.9707489013671875,-0.145477294921875,-0.0154876708984375
1761915562817689900,5.94968994140625,-0.9627838134765625,-0.145263671875,-0.01861572265625
1761915562827744000,5.959743896484375,-0.9647064208984375,-0.1517486572265625,-0.0215301513671875
1761915562837798000,5.9697978515625,-0.9679718017578125,-0.1577911376953125,-0.020263671875
1761915562847852000,5.97985205078125,-0.972686767578125,-0.1558685302734375,-0.01568603515625
1761915562857906000,5.989906005859375,-0.9831695556640625,-0.154388427734375,-0.015625
1761915562867960000,5.9999599609375,-0.986083984375,-0.1524658203125,-0.0161285400390625
1761915562878015000,6.010014892578125,-0.987457275390625,-0.1511383056640625,-0.0144805908203125
1761915562888068900,6.02006884765625,-0.9893035888671875,-0.1476593017578125,-0.0133514404296875
1761915562898123000,6.030123046875,-0.986114501953125,-0.14251708984375,-0.0080413818359375
1761915562908177000,6.040177001953125,-0.985595703125,-0.14276123046875,-0.002471923828125
1761915562918231000,6.05023095703125,-0.9910736083984375,-0.14599609375,0.001190185546875
1761915562928285000,6.060284912109375,-0.99945068359375,-0.144378662109375,0.0047149658203125
1761915562938339000,6.070339111328125,-1.0035858154296875,-0.1401824951171875,0.007171630859375
1761915562948394000,6.08039404296875,-1.0095367431640625,-0.1363372802734375,0.0088653564453125
1761915562958447900,6.09044775390625,-1.00921630859375,-0.1334075927734375,0.0100860595703125
1761915562968502000,6.100501953125,-1.0058135986328125,-0.134063720703125,0.010986328125
1761915562978556000,6.110555908203125,-0.9934844970703125,-0.1385650634765625,0.01251220703125
1761915562988610800,6.12061083984375,-0.9781494140625,-0.1458892822265625,0.0108489990234375
1761915562998664700,6.130664794921875,-0.9647064208984375,-0.1516876220703125,0.00634765625
1761915563008718800,6.14071875,-0.9593505859375,-0.1546630859375,0.0048370361328125
1761915563018773800,6.150773681640625,-0.96075439453125,-0.1554718017578125,0.010009765625
1761915563028827600,6.16082763671875,-0.9741973876953125,-0.154815673828125,0.014495849609375
1761915563038881800,6.1708818359375,-0.987396240234375,-0.1571197509765625,0.01715087890625
1761915563048935700,6.180935791015625,-0.9893035888671875,-0.1564788818359375,0.0165863037109375
1761915563058989800,6.19098974609375,-0.9832763671875,-0.1553192138671875,0.0153656005859375
1761915563069043700,6.201043701171875,-0.9774322509765625,-0.153839111328125,0.0129241943359375
1761915563079097900,6.211097900390625,-0.97552490234375,-0.1510162353515625,0.01177978515625
1761915563089152800,6.22115283203125,-0.981353759765625,-0.15045166015625,0.0121917724609375
1761915563099206700,6.23120654296875,-0.9838104248046875,-0.1490020751953125,0.012298583984375
1761915563109260800,6.2412607421875,-0.9788665771484375,-0.14715576171875,0.0107879638671875
1761915563119314700,6.251314697265625,-0.9715118408203125,-0.1470794677734375,0.0107879638671875
1761915563129368800,6.261368896484375,-0.967254638671875,-0.146881103515625,0.011444091796875
1761915563139422700,6.271422607421875,-0.9666595458984375,-0.1475677490234375,0.0114898681640625
1761915563149476900,6.281476806640625,-0.974822998046875,-0.1466827392578125,0.013458251953125
1761915563159531800,6.29153173828125,-0.98260498046875,-0.1488189697265625,0.017486572265625
1761915563169585700,6.301585693359375,-0.9832305908203125,-0.152252197265625,0.0172576904296875
1761915563179639800,6.311639892578125,-0.973541259765625,-0.15325927734375,0.0128631591796875
1761915563189693700,6.321693603515625,-0.963226318359375,-0.1502685546875,0.008148193359375
1761915563199747800,6.331747802734375,-0.9617462158203125,-0.143646240234375,0.005340576171875
1761915563209801700,6.3418017578125,-0.9681243896484375,-0.1403961181640625,0.003448486328125
1761915563219856600,6.351856689453125,-0.980194091796875,-0.14013671875,0.0038909912109375
1761915563229910500,6.36191064453125,-0.9873199462890625,-0.1436767578125,0.00732421875
1761915563239964700,6.371964599609375,-0.9782562255859375,-0.147857666015625,0.0075836181640625
1761915563250018800,6.382018798828125,-0.9674835205078125,-0.1478118896484375,0.0068817138671875
1761915563260072700,6.39207275390625,-0.9633331298828125,-0.143341064453125,0.0053558349609375
1761915563270126800,6.402126953125,-0.9665374755859375,-0.1403045654296875,0.0042877197265625
1761915563280180700,6.4121806640625,-0.972503662109375,-0.1366729736328125,0.0046844482421875
1761915563290235600,6.422235595703125,-0.974761962890625,-0.1403961181640625,0.0039825439453125
1761915563300289500,6.43228955078125,-0.9755401611328125,-0.147857666015625,0.0049591064453125
1761915563310343700,6.44234375,-0.97540283203125,-0.15399169921875,0.0051727294921875
1761915563320397600,6.4523974609375,-0.9773712158203125,-0.1525421142578125,0.00286865234375
1761915563330451700,6.46245166015625,-0.9802703857421875,-0.146881103515625,0.0023345947265625
1761915563340505600,6.472505615234375,-0.9855194091796875,-0.139984130859375,0.0031890869140625
1761915563350559700,6.482559814453125,-0.9925537109375,-0.1396331787109375,0.004852294921875
1761915563360614700,6.49261474609375,-0.994903564453125,-0.1402587890625,0.006500244140625
1761915563370668500,6.50266845703125,-0.9924774169921875,-0.14178466796875,0.0076904296875
1761915563380722700,6.51272265625,-0.9960784912109375,-0.1473236083984375,0.0124664306640625
1761915563390776600,6.522776611328125,-0.9998931884765625,-0.147979736328125,0.016693115234375
1761915563400830700,6.532830810546875,-0.9937896728515625,-0.1483612060546875,0.0155487060546875
1761915563410884600,6.542884521484375,-0.9869537353515625,-0.1464996337890625,0.0119476318359375
1761915563420938800,6.552938720703125,-0.983642578125,-0.1423492431640625,0.0121002197265625
1761915563430994000,6.562993896484375,-0.991912841796875,-0.1386566162109375,0.012603759765625
1761915563441047600,6.573047607421875,-0.9991607666015625,-0.13543701171875,0.013916015625
1761915563451101700,6.583101806640625,-0.9970550537109375,-0.134307861328125,0.015380859375
1761915563461155600,6.593155517578125,-0.9907684326171875,-0.1411285400390625,0.0128631591796875
1761915563471209700,6.603209716796875,-0.9822845458984375,-0.149017333984375,0.012054443359375
1761915563481263600,6.613263671875,-0.9737091064453125,-0.1528778076171875,0.0128936767578125
1761915563491317800,6.62331787109375,-0.9679412841796875,-0.1528778076171875,0.0134124755859375
1761915563501373000,6.633373046875,-0.971527099609375,-0.1529541015625,0.014373779296875
1761915563511426600,6.643426513671875,-0.982452392578125,-0.1468505859375,0.0145416259765625
1761915563521480700,6.653480712890625,-0.9903564453125,-0.142303466796875,0.01507568359375
1761915563531534600,6.66353466796875,-0.986907958984375,-0.1424407958984375,0.0146636962890625
1761915563541588700,6.673588623046875,-0.9763031005859375,-0.1470489501953125,0.0113983154296875
1761915563551642600,6.683642578125,-0.9678955078125,-0.151824951171875,0.01055908203125
1761915563561696800,6.69369677734375,-0.9647369384765625,-0.1527099609375,0.01025390625
1761915563571752000,6.703751953125,-0.9701995849609375,-0.1506195068359375,0.011688232421875
1761915563581805800,6.713805908203125,-0.978118896484375,-0.148529052734375,0.01287841796875
1761915563591859700,6.723859619140625,-0.983642578125,-0.145355224609375,0.0140380859375
1761915563601913600,6.73391357421875,-0.9873046875,-0.1397552490234375,0.0163116455078125
1761915563611967700,6.7439677734375,-0.9838714599609375,-0.13433837890625,0.0129547119140625
1761915563622021600,6.754021728515625,-0.9740142822265625,-0.13262939453125,0.0087432861328125
1761915563632075800,6.76407568359375,-0.9658203125,-0.1330413818359375,0.00640869140625
1761915563642130700,6.774130615234375,-0.95343017578125,-0.133270263671875,0.00689697265625
1761915563652184800,6.784184814453125,-0.9443206787109375,-0.13616943359375,0.00189208984375
1761915563662238700,6.79423876953125,-0.944427490234375,-0.138702392578125,-0.000335693359375
1761915563672292600,6.804292724609375,-0.9508514404296875,-0.13787841796875,0.0036468505859375
1761915563682346800,6.8143466796875,-0.967071533203125,-0.1392364501953125,0.0074615478515625
1761915563692400600,6.824400634765625,-0.98052978515625,-0.1364898681640625,0.014434814453125
1761915563702455800,6.834455810546875,-0.9863433837890625,-0.1345977783203125,0.01312255859375
1761915563712509700,6.844509765625,-0.9886474609375,-0.1330108642578125,0.007965087890625
1761915563722563800,6.854563720703125,-0.981414794921875,-0.1295013427734375,0.0062713623046875
1761915563732617700,6.86461767578125,-0.9828033447265625,-0.1232757568359375,0.0073699951171875
1761915563742671600,6.874671630859375,-0.994842529296875,-0.119415283203125,0.01336669921875
1761915563752725500,6.8847255859375,-1.0055694580078125,-0.125213623046875,0.0150299072265625
1761915563762779600,6.894779541015625,-1.009246826171875,-0.1319122314453125,0.016510009765625
1761915563772834800,6.904834716796875,-1.0058746337890625,-0.1369781494140625,0.017303466796875
1761915563782888700,6.914888671875,-0.998992919921875,-0.14117431640625,0.0148468017578125
1761915563792942800,6.92494287109375,-0.9897918701171875,-0.1445770263671875,0.01251220703125
1761915563802996700,6.934996826171875,-0.980926513671875,-0.1460113525390625,0.0112152099609375
1761915563813050600,6.945050537109375,-0.984954833984375,-0.14520263671875,0.012054443359375
1761915563823104500,6.9551044921875,-0.996826171875,-0.14117431640625,0.0139312744140625
1761915563833158700,6.96515869140625,-1.003082275390625,-0.138275146484375,0.0142364501953125
1761915563843213800,6.9752138671875,-1.001068115234375,-0.1395263671875,0.0143280029296875
1761915563853267700,6.985267822265625,-0.9945831298828125,-0.1432037353515625,0.0142822265625
1761915563863321900,6.99532177734375,-0.9863128662109375,-0.1453704833984375,0.014923095703125
1761915563873375700,7.005375732421875,-0.976104736328125,-0.1433563232421875,0.0147247314453125
1761915563883430000,7.015429931640625,-0.9747467041015625,-0.14300537109375,0.0162811279296875
1761915563893483500,7.0254833984375,-0.9817657470703125,-0.1443634033203125,0.01702880859375
1761915563903537700,7.03553759765625,-0.9864501953125,-0.1456298828125,0.01641845703125
1761915563913592800,7.0455927734375,-0.98876953125,-0.1427154541015625,0.018341064453125
1761915563923646700,7.055646728515625,-0.988494873046875,-0.1387176513671875,0.019866943359375
1761915563933700900,7.065700927734375,-0.987091064453125,-0.1354522705078125,0.01898193359375
1761915563943754800,7.075754638671875,-0.98480224609375,-0.132568359375,0.014007568359375
1761915563953809000,7.085808837890625,-0.9844512939453125,-0.1280670166015625,0.0123138427734375
1761915563963862800,7.09586279296875,-0.988128662109375,-0.1258392333984375,0.014373779296875
1761915563973917700,7.105917724609375,-0.98944091796875,-0.130096435546875,0.0161285400390625
1761915563983971800,7.115971923828125,-0.9925689697265625,-0.1335601806640625,0.0141448974609375
1761915563994021600,7.126021728515625,-0.9873046875,-0.1355743408203125,0.016754150390625
1761915564004075500,7.136075439453125,-0.981689453125,-0.1387481689453125,0.0142974853515625
1761915564014129700,7.146129638671875,-0.97686767578125,-0.139495849609375,0.0107421875
1761915564024183600,7.15618359375,-0.9753875732421875,-0.1347808837890625,0.0081634521484375
1761915564034237700,7.16623779296875,-0.9794769287109375,-0.12896728515625,0.0081329345703125
1761915564044292600,7.176292724609375,-0.9869232177734375,-0.124481201171875,0.009185791015625
1761915564054346500,7.186346435546875,-0.9846649169921875,-0.12359619140625,0.0093994140625
1761915564064400600,7.196400634765625,-0.9803314208984375,-0.127044677734375,0.007293701171875
1761915564074454500,7.20645458984375,-0.981536865234375,-0.129974365234375,0.009063720703125
1761915564084508700,7.2165087890625,-0.98077392578125,-0.131591796875,0.0114898681640625
1761915564094562600,7.2265625,-0.9877166748046875,-0.1315460205078125,0.011016845703125
1761915564104616700,7.23661669921875,-0.9978485107421875,-0.1277008056640625,0.0115203857421875
1761915564114671600,7.246671630859375,-1.003692626953125,-0.122589111328125,0.0113983154296875
1761915564124725500,7.2567255859375,-1.0032806396484375,-0.118194580078125,0.0106353759765625
1761915564134779600,7.266779541015625,-0.99560546875,-0.11956787109375,0.010162353515625
1761915564144833500,7.27683349609375,-0.9856414794921875,-0.1292877197265625,0.0033416748046875
1761915564154887700,7.2868876953125,-0.9769744873046875,-0.13922119140625,0.001251220703125
1761915564164941600,7.296941650390625,-0.9692230224609375,-0.140533447265625,0.003997802734375
1761915564174995700,7.30699560546875,-0.966552734375,-0.1404266357421875,0.003173828125
1761915564185050400,7.31705029296875,-0.974151611328125,-0.1365203857421875,0.0001220703125
1761915564195104500,7.3271044921875,-0.9816741943359375,-0.128387451171875,-0.00018310546875
1761915564205158700,7.33715869140625,-0.9873046875,-0.1234283447265625,0.0012664794921875
1761915564215212500,7.347212646484375,-0.9874420166015625,-0.1230621337890625,0.0054779052734375
1761915564225266700,7.3572666015625,-0.98590087890625,-0.1238861083984375,0.0063934326171875
1761915564235320600,7.367320556640625,-0.9891510009765625,-0.126861572265625,0.0042724609375
1761915564245374700,7.377374755859375,-0.9854736328125,-0.125457763671875,0.00250244140625
1761915564255429600,7.3874296875,-0.977935791015625,-0.126617431640625,0.000823974609375
1761915564265483500,7.3974833984375,-0.97064208984375,-0.1303253173828125,-0.002044677734375
1761915564275537400,7.407537353515625,-0.966217041015625,-0.134918212890625,-0.0066070556640625
1761915564285591600,7.417591552734375,-0.97161865234375,-0.1368560791015625,-0.0062255859375
1761915564295645400,7.4276455078125,-0.9781951904296875,-0.13848876953125,-0.003387451171875
1761915564305699600,7.437699462890625,-0.982269287109375,-0.1403656005859375,-0.003509521484375
1761915564315754800,7.447754638671875,-0.98052978515625,-0.13726806640625,-0.0011138916015625
1761915564325808600,7.45780859375,-0.9818572998046875,-0.134429931640625,-0.001129150390625
1761915564335862500,7.467862548828125,-0.986572265625,-0.1340484619140625,-0.001861572265625
1761915564345916400,7.47791650390625,-0.992919921875,-0.13299560546875,0.0005950927734375
1761915564355970600,7.487970458984375,-0.9968719482421875,-0.1300506591796875,0.0025787353515625
1761915564366024400,7.4980244140625,-0.9940338134765625,-0.1282196044921875,0.003143310546875
1761915564376078600,7.50807861328125,-0.9909515380859375,-0.1291656494140625,0.0009918212890625
1761915564386133800,7.5181337890625,-0.9869537353515625,-0.128173828125,0.00091552734375
1761915564396187600,7.528187744140625,-0.9855194091796875,-0.1282958984375,0.0020751953125
1761915564406241500,7.538241455078125,-0.987762451171875,-0.1316070556640625,0.003997802734375
1761915564416295400,7.54829541015625,-0.991729736328125,-0.1347503662109375,0.0053558349609375
1761915564426349600,7.558349609375,-0.998321533203125,-0.1362457275390625,0.0060272216796875
1761915564436403500,7.568403564453125,-1.0001678466796875,-0.1374664306640625,0.005340576171875
1761915564446457600,7.57845751953125,-0.993408203125,-0.135589599609375,0.002349853515625
1761915564456512800,7.5885126953125,-0.97216796875,-0.136199951171875,-0.0032958984375
1761915564466566700,7.598566650390625,-0.963348388671875,-0.138519287109375,-0.00799560546875
1761915564476620800,7.608620849609375,-0.9703521728515625,-0.1363525390625,-0.007354736328125
1761915564486674400,7.61867431640625,-0.9783477783203125,-0.13336181640625,-0.0040283203125
1761915564496728600,7.628728515625,-0.9831695556640625,-0.1310272216796875,-0.003936767578125
1761915564506782500,7.638782470703125,-0.979461669921875,-0.132720947265625,-0.004669189453125
1761915564516836600,7.648836669921875,-0.974212646484375,-0.135986328125,-0.0063323974609375
1761915564526891800,7.658891845703125,-0.9726409912109375,-0.138275146484375,-0.006591796875
1761915564536945700,7.668945556640625,-0.9750518798828125,-0.1409454345703125,-0.0051422119140625
1761915564546999800,7.678999755859375,-0.98114013671875,-0.1431884765625,-0.0030517578125
1761915564557053400,7.689053466796875,-0.9874725341796875,-0.1415252685546875,-0.0020599365234375
1761915564567107600,7.699107666015625,-0.9877777099609375,-0.13787841796875,-0.0015869140625
1761915564577161500,7.709161376953125,-0.98236083984375,-0.1379241943359375,-0.0050201416015625
1761915564587216600,7.719216552734375,-0.9743804931640625,-0.1367950439453125,-0.005340576171875
1761915564597270500,7.7292705078125,-0.9683990478515625,-0.13604736328125,-0.00537109375
1761915564607324700,7.73932470703125,-0.9713897705078125,-0.1358184814453125,-0.0065765380859375
1761915564617378800,7.74937890625,-0.9741363525390625,-0.1349334716796875,-0.0080413818359375
1761915564627432700,7.7594326171875,-0.9788360595703125,-0.1320953369140625,-0.0088043212890625
1761915564637486600,7.769486572265625,-0.983489990234375,-0.12945556640625,-0.0101165771484375
1761915564647540500,7.77954052734375,-0.987274169921875,-0.1297607421875,-0.0110931396484375
1761915564657595600,7.789595703125,-0.984710693359375,-0.1291961669921875,-0.010986328125
1761915564667649500,7.7996494140625,-0.9819488525390625,-0.1299591064453125,-0.0106658935546875
1761915564677703700,7.80970361328125,-0.98095703125,-0.1320953369140625,-0.0119781494140625
1761915564687757600,7.819757568359375,-0.9835052490234375,-0.135467529296875,-0.01434326171875
1761915564697811700,7.829811767578125,-0.9837799072265625,-0.1387786865234375,-0.012786865234375
1761915564707865600,7.839865478515625,-0.978271484375,-0.137420654296875,-0.0126190185546875
1761915564717919500,7.84991943359375,-0.9750213623046875,-0.1318206787109375,-0.0123748779296875
1761915564727974700,7.859974609375,-0.9751739501953125,-0.1279144287109375,-0.0147552490234375
1761915564738028500,7.870028564453125,-0.978302001953125,-0.1268768310546875,-0.01434326171875
1761915564748082700,7.880082763671875,-0.9817657470703125,-0.1292572021484375,-0.012176513671875
1761915564758136600,7.890136474609375,-0.98077392578125,-0.133544921875,-0.013671875
1761915564768190700,7.900190673828125,-0.978240966796875,-0.1363372802734375,-0.0137786865234375
1761915564778244600,7.91024462890625,-0.9776611328125,-0.13641357421875,-0.0133514404296875
1761915564788298500,7.920298583984375,-0.9844512939453125,-0.138092041015625,-0.0130462646484375
1761915564798353700,7.930353759765625,-0.9955596923828125,-0.13775634765625,-0.01104736328125
1761915564808407600,7.940407470703125,-1.0018463134765625,-0.1383056640625,-0.0076446533203125
1761915564818461700,7.950461669921875,-1.004791259765625,-0.1423187255859375,-0.004669189453125
1761915564828515600,7.960515625,-1.0013885498046875,-0.1431121826171875,-0.00238037109375
1761915564838569700,7.97056982421875,-0.9942169189453125,-0.139495849609375,-0.0086669921875
1761915564848623600,7.98062353515625,-0.9876708984375,-0.1330413818359375,-0.0132904052734375
1761915564858678500,7.990678466796875,-0.9852752685546875,-0.1287078857421875,-0.0124053955078125
1761915564868732700,8.000732666015624,-0.98760986328125,-0.128173828125,-0.011962890625
1761915564878786600,8.01078662109375,-0.98748779296875,-0.1319122314453125,-0.011474609375
1761915564888840700,8.0208408203125,-0.987335205078125,-0.1374969482421875,-0.009674072265625
1761915564898894600,8.03089453125,-0.98089599609375,-0.1412506103515625,-0.0076446533203125
1761915564908948700,8.04094873046875,-0.97760009765625,-0.139984130859375,-0.008819580078125
1761915564919002600,8.051002685546875,-0.97943115234375,-0.137908935546875,-0.00885009765625
1761915564929057500,8.0610576171875,-0.982025146484375,-0.136749267578125,-0.008270263671875
1761915564939111700,8.071111572265625,-0.984954833984375,-0.137542724609375,-0.0098876953125
1761915564949165600,8.08116552734375,-0.9852294921875,-0.1388397216796875,-0.00836181640625
1761915564959219700,8.0912197265625,-0.9785614013671875,-0.1396942138671875,-0.0067291259765625
1761915564969273600,8.101273681640626,-0.96307373046875,-0.140625,-0.0089263916015625
1761915564979327700,8.11132763671875,-0.9534759521484375,-0.1419525146484375,-0.0107421875
1761915564989381600,8.121381591796874,-0.9581451416015625,-0.1437835693359375,-0.0098876953125
1761915564999436500,8.1314365234375,-0.9593505859375,-0.1435089111328125,-0.0071563720703125
1761915565009490400,8.141490478515625,-0.9575958251953125,-0.1446380615234375,-0.0070953369140625
1761915565019544600,8.151544677734375,-0.970672607421875,-0.1441802978515625,-0.0096893310546875
1761915565029598500,8.161598388671875,-0.98211669921875,-0.1396636962890625,-0.006378173828125
1761915565039652600,8.171652587890625,-0.992828369140625,-0.1357879638671875,-0.004058837890625
1761915565049706500,8.18170654296875,-1.004425048828125,-0.1318359375,-0.0018310546875
1761915565059760600,8.1917607421875,-1.011627197265625,-0.13140869140625,0.0004730224609375
1761915565069815300,8.201815185546875,-1.00787353515625,-0.133087158203125,0.0005035400390625
1761915565079869400,8.211869384765626,-1.0013580322265625,-0.138031005859375,0.000732421875
1761915565089923600,8.221923583984376,-0.9944915771484375,-0.139190673828125,-0.000396728515625
1761915565099977500,8.2319775390625,-0.990692138671875,-0.1393890380859375,-0.0025787353515625
1761915565110031600,8.242031494140624,-0.988616943359375,-0.1410064697265625,-0.003143310546875
1761915565120085500,8.25208544921875,-0.9863739013671875,-0.1397705078125,-0.0034332275390625
1761915565130139600,8.2621396484375,-0.981781005859375,-0.14263916015625,-0.003814697265625
1761915565140194300,8.2721943359375,-0.9761505126953125,-0.1439666748046875,-0.007232666015625
1761915565150248400,8.28224853515625,-0.970703125,-0.140716552734375,-0.0079193115234375
1761915565160302300,8.29230224609375,-0.9678497314453125,-0.1356353759765625,-0.0071258544921875
1761915565170356500,8.3023564453125,-0.9764404296875,-0.134674072265625,-0.0071563720703125
1761915565180410600,8.31241064453125,-0.987091064453125,-0.13720703125,-0.005096435546875
1761915565190464500,8.322464599609376,-0.992919921875,-0.1419525146484375,-0.0033111572265625
1761915565200519700,8.332519775390624,-0.9947509765625,-0.1468353271484375,-0.00018310546875
1761915565210573300,8.3425732421875,-0.99017333984375,-0.1472320556640625,0.000885009765625
1761915565220627500,8.35262744140625,-0.985382080078125,-0.14605712890625,-0.0006103515625
1761915565230681300,8.362681396484374,-0.9794921875,-0.1414031982421875,-0.000518798828125
1761915565240735500,8.372735595703125,-0.97454833984375,-0.136260986328125,-0.0033416748046875
1761915565250789400,8.382789306640625,-0.966827392578125,-0.135223388671875,-0.0071868896484375
1761915565260843500,8.392843505859375,-0.956634521484375,-0.1361541748046875,-0.0111846923828125
1761915565270898700,8.402898681640625,-0.9542236328125,-0.1413421630859375,-0.013519287109375
1761915565280952600,8.41295263671875,-0.959136962890625,-0.1457061767578125,-0.0092620849609375
1761915565291006500,8.42300634765625,-0.9717864990234375,-0.14874267578125,-0.00262451171875
1761915565301060400,8.433060302734376,-0.98651123046875,-0.1507720947265625,-0.0006866455078125
1761915565311114500,8.443114501953126,-0.99517822265625,-0.1527252197265625,0.0001678466796875
1761915565321168400,8.45316845703125,-0.998443603515625,-0.147430419921875,-0.0011444091796875
1761915565331222500,8.463222412109374,-0.996429443359375,-0.1376800537109375,-0.0027313232421875
1761915565341277700,8.473277587890625,-0.98974609375,-0.130126953125,-0.0062255859375
1761915565351331600,8.48333154296875,-0.98681640625,-0.130767822265625,-0.0068206787109375
1761915565361385500,8.493385498046875,-0.990509033203125,-0.13323974609375,-0.0068359375
1761915565371439400,8.503439453125,-0.9965362548828125,-0.139373779296875,-0.0052032470703125
1761915565381493500,8.513493408203125,-1.0041351318359375,-0.1421051025390625,-0.00238037109375
1761915565391547400,8.52354736328125,-0.9985504150390625,-0.140716552734375,-0.001251220703125
1761915565401601500,8.5336015625,-0.9903564453125,-0.136260986328125,-0.0037994384765625
1761915565411656700,8.54365673828125,-0.9870452880859375,-0.129913330078125,-0.0070953369140625
1761915565421710600,8.553710693359376,-0.9850921630859375,-0.1284332275390625,-0.0071258544921875
1761915565431764500,8.563764404296874,-0.988494873046875,-0.134918212890625,-0.0056304931640625
1761915565441818400,8.573818359375,-0.9871826171875,-0.14410400390625,-0.004547119140625
1761915565451872500,8.58387255859375,-0.9791107177734375,-0.1498870849609375,-0.0027618408203125
1761915565461926400,8.593926513671875,-0.9727020263671875,-0.15374755859375,-0.004302978515625
1761915565471981600,8.603981689453125,-0.9661712646484375,-0.1549530029296875,-0.0028228759765625
1761915565482035500,8.614035400390625,-0.962921142578125,-0.15704345703125,-0.0017242431640625
1761915565492089600,8.624089599609375,-0.96490478515625,-0.1585540771484375,-0.0032501220703125
1761915565502143700,8.634143798828125,-0.97003173828125,-0.149200439453125,-0.002288818359375
1761915565512197400,8.644197265625,-0.98211669921875,-0.1419677734375,-0.001739501953125
1761915565522251500,8.65425146484375,-0.98779296875,-0.1399383544921875,0.0003509521484375
1761915565532305400,8.664305419921876,-0.9850616455078125,-0.140411376953125,-0.001312255859375
1761915565542360600,8.674360595703124,-0.977020263671875,-0.1428070068359375,-0.0019073486328125
1761915565552414500,8.68441455078125,-0.9712066650390625,-0.14630126953125,-0.0052032470703125
1761915565562468600,8.694468505859374,-0.972625732421875,-0.1491851806640625,-0.0074462890625
1761915565572522500,8.7045224609375,-0.9765625,-0.1449737548828125,-0.005950927734375
1761915565582576600,8.71457666015625,-0.983489990234375,-0.1383056640625,-0.0043487548828125
1761915565592630500,8.724630615234375,-0.9917449951171875,-0.1322021484375,-0.0049896240234375
1761915565602684400,8.734684326171875,-0.9945831298828125,-0.1313629150390625,-0.006317138671875
1761915565612739600,8.744739501953125,-0.9936676025390625,-0.1311492919921875,-0.008056640625
1761915565622793500,8.75479345703125,-0.9889984130859375,-0.1310272216796875,-0.007781982421875
1761915565632847600,8.76484765625,-0.9860076904296875,-0.1360321044921875,-0.0076904296875
1761915565642901500,8.774901611328126,-0.9840850830078125,-0.137664794921875,-0.00970458984375
1761915565652955600,8.78495556640625,-0.9828033447265625,-0.1340789794921875,-0.0099029541015625
1761915565663009300,8.79500927734375,-0.9884185791015625,-0.1294708251953125,-0.01019287109375
1761915565673063400,8.8050634765625,-0.9918060302734375,-0.13250732421875,-0.0111236572265625
1761915565683118600,8.81511865234375,-0.9923858642578125,-0.139068603515625,-0.0106048583984375
1761915565693172500,8.82517236328125,-0.98406982421875,-0.145172119140625,-0.0115203857421875
1761915565703226600,8.8352265625,-0.97412109375,-0.1500244140625,-0.0097503662109375
1761915565713280500,8.845280517578125,-0.9731597900390625,-0.1496734619140625,-0.006805419921875
1761915565723334700,8.855334716796875,-0.9752655029296875,-0.144989013671875,-0.0049591064453125
1761915565733388500,8.865388427734375,-0.979248046875,-0.1451873779296875,-0.0098419189453125
1761915565743443500,8.875443359375,-0.973052978515625,-0.139739990234375,-0.009307861328125
1761915565753497600,8.88549755859375,-0.9778594970703125,-0.140594482421875,-0.0126800537109375
1761915565763551500,8.895551513671874,-0.976898193359375,-0.14117431640625,-0.014923095703125
1761915565773605600,8.905605712890624,-0.979827880859375,-0.1436309814453125,-0.0129547119140625
1761915565783659500,8.915659423828124,-0.9888458251953125,-0.147705078125,-0.0076904296875
1761915565793713700,8.925713623046875,-0.988250732421875,-0.150238037109375,-0.0063323974609375
1761915565803767600,8.935767578125,-0.9818878173828125,-0.1472015380859375,-0.009613037109375
1761915565813822500,8.945822509765625,-0.97723388671875,-0.14312744140625,-0.0121307373046875
1761915565823876600,8.955876708984375,-0.9832305908203125,-0.13916015625,-0.011688232421875
1761915565833930500,8.965930419921875,-0.9906005859375,-0.1368560791015625,-0.01043701171875
1761915565843984600,8.975984619140625,-0.9986114501953125,-0.136566162109375,-0.00689697265625
1761915565854038500,8.98603857421875,-1.0057830810546875,-0.13507080078125,-0.00201416015625
1761915565864092700,8.9960927734375,-0.998748779296875,-0.131500244140625,-0.0015106201171875
1761915565874146600,9.006146484375,-0.98431396484375,-0.1277008056640625,-0.0071868896484375
1761915565884201500,9.016201416015624,-0.98028564453125,-0.1234588623046875,-0.0113525390625
1761915565894255400,9.02625537109375,-0.9841156005859375,-0.1245880126953125,-0.01141357421875
1761915565904309500,9.0363095703125,-0.9993438720703125,-0.128936767578125,-0.004974365234375
1761915565914363600,9.04636376953125,-1.008758544921875,-0.1340179443359375,-0.0021209716796875
1761915565924417500,9.05641748046875,-1.0067291259765625,-0.1414031982421875,-0.003875732421875
1761915565934471700,9.0664716796875,-1.000732421875,-0.1444854736328125,-0.0048828125
1761915565944525600,9.076525634765625,-0.9916839599609375,-0.143280029296875,-0.00433349609375
1761915565954580500,9.08658056640625,-0.9810791015625,-0.1542510986328125,-0.003692626953125
1761915565964634400,9.09663427734375,-0.969024658203125,-0.1629791259765625,-0.0040740966796875
1761915565974688500,9.1066884765625,-0.9536590576171875,-0.1651458740234375,-0.005401611328125
1761915565984742400,9.116742431640626,-0.950836181640625,-0.1703338623046875,-0.01165771484375
1761915565994799600,9.126799560546875,-0.959228515625,-0.16253662109375,-0.0118255615234375
1761915566004853800,9.136853759765625,-0.9716339111328125,-0.156219482421875,-0.008209228515625
1761915566014908000,9.146907958984375,-0.98095703125,-0.155181884765625,-0.0085906982421875
1761915566024962600,9.156962646484375,-0.98028564453125,-0.1541290283203125,-0.0060577392578125
1761915566035016700,9.1670166015625,-0.978271484375,-0.1527099609375,-0.004638671875
1761915566045070600,9.177070556640626,-0.9774627685546875,-0.1502838134765625,-0.0068206787109375
1761915566055124700,9.187124755859376,-0.98406982421875,-0.1445159912109375,-0.0067901611328125
1761915566065178600,9.1971787109375,-0.9879302978515625,-0.1433258056640625,-0.0080108642578125
1761915566075232800,9.207232666015624,-0.9839630126953125,-0.1437835693359375,-0.0092620849609375
1761915566085286700,9.21728662109375,-0.975677490234375,-0.14471435546875,-0.0092620849609375
1761915566095341600,9.227341552734375,-0.9742584228515625,-0.1486663818359375,-0.0113372802734375
1761915566105395700,9.237395751953125,-0.9763641357421875,-0.149200439453125,-0.008392333984375
1761915566115449600,9.24744970703125,-0.97857666015625,-0.145843505859375,-0.0093841552734375
1761915566125503700,9.257503662109375,-0.9819183349609375,-0.1436004638671875,-0.01165771484375
1761915566135557600,9.2675576171875,-0.978912353515625,-0.1410064697265625,-0.013763427734375
1761915566145611800,9.27761181640625,-0.968719482421875,-0.14471435546875,-0.0168609619140625
1761915566155667000,9.2876669921875,-0.9637451171875,-0.14727783203125,-0.014251708984375
1761915566165720600,9.297720458984376,-0.9678955078125,-0.1483154296875,-0.0115966796875
1761915566175774700,9.307774658203124,-0.9751739501953125,-0.1509246826171875,-0.0103607177734375
1761915566185828600,9.31782861328125,-0.97760009765625,-0.151519775390625,-0.01171875
1761915566195882800,9.3278828125,-0.978668212890625,-0.1510009765625,-0.012603759765625
1761915566205936600,9.3379365234375,-0.9784698486328125,-0.1468048095703125,-0.010894775390625
1761915566215990800,9.34799072265625,-0.985748291015625,-0.1433258056640625,-0.010498046875
1761915566226045700,9.358045654296875,-0.9921722412109375,-0.1428680419921875,-0.0088653564453125
1761915566236099800,9.368099853515625,-0.98785400390625,-0.1459197998046875,-0.0074310302734375
1761915566246153700,9.37815380859375,-0.9787139892578125,-0.15411376953125,-0.006134033203125
1761915566256208600,9.388208740234376,-0.9673004150390625,-0.1634063720703125,-0.0098724365234375
1761915566266262800,9.3982626953125,-0.962646484375,-0.16619873046875,-0.0132904052734375
1761915566276316700,9.408316650390624,-0.96820068359375,-0.16162109375,-0.018463134765625
1761915566286370800,9.418370849609374,-0.974334716796875,-0.153472900390625,-0.0188751220703125
1761915566296424700,9.4284248046875,-0.9821624755859375,-0.1479644775390625,-0.01910400390625
1761915566306479600,9.438479736328125,-0.9849090576171875,-0.14739990234375,-0.0166015625
1761915566316533800,9.44853369140625,-0.9800567626953125,-0.14892578125,-0.0152740478515625
1761915566326587600,9.458587646484375,-0.97711181640625,-0.1518707275390625,-0.0195465087890625
1761915566336641800,9.468641845703125,-0.986236572265625,-0.1447601318359375,-0.0177459716796875
1761915566346695700,9.47869580078125,-1.0044403076171875,-0.1361541748046875,-0.0109405517578125
1761915566356749800,9.488749755859375,-1.017120361328125,-0.13555908203125,-0.0037841796875
1761915566366803700,9.4988037109375,-1.0190277099609375,-0.145355224609375,-0.0009307861328125
1761915566376858600,9.508858642578126,-1.005584716796875,-0.15185546875,-0.002593994140625
1761915566386912800,9.518912841796874,-0.9842071533203125,-0.1531829833984375,-0.0073394775390625
1761915566396966700,9.528966552734374,-0.967071533203125,-0.15093994140625,-0.0144805908203125
1761915566407020800,9.539020751953124,-0.9583282470703125,-0.1490325927734375,-0.0171051025390625
1761915566417074700,9.54907470703125,-0.963531494140625,-0.1485595703125,-0.0135040283203125
1761915566427128800,9.55912890625,-0.97357177734375,-0.1488189697265625,-0.0091400146484375
1761915566437182700,9.5691826171875,-0.9791412353515625,-0.1503753662109375,-0.007049560546875
1761915566447237600,9.579237548828125,-0.97674560546875,-0.152435302734375,-0.0037841796875
1761915566457291500,9.58929150390625,-0.9697418212890625,-0.1543731689453125,-0.006103515625
1761915566467345700,9.599345703125,-0.9642791748046875,-0.1537933349609375,-0.009429931640625
1761915566477399800,9.60939990234375,-0.9679412841796875,-0.153076171875,-0.0075531005859375
1761915566487453700,9.61945361328125,-0.97393798828125,-0.1552734375,-0.0052947998046875
1761915566497507800,9.6295078125,-0.9790802001953125,-0.1571197509765625,-0.0034332275390625
1761915566507561700,9.639561767578124,-0.9749755859375,-0.15814208984375,-0.005584716796875
1761915566517616600,9.64961669921875,-0.9722442626953125,-0.154693603515625,-0.010955810546875
1761915566527670500,9.65967041015625,-0.9691314697265625,-0.145233154296875,-0.0137939453125
1761915566537724700,9.669724609375,-0.9670257568359375,-0.139892578125,-0.018585205078125
1761915566547778600,9.679778564453125,-0.9736175537109375,-0.14093017578125,-0.0197601318359375
1761915566557832700,9.689832763671875,-0.9803924560546875,-0.1448822021484375,-0.0166015625
1761915566567886800,9.699886962890625,-0.9822235107421875,-0.1498870849609375,-0.01531982421875
1761915566577940700,9.709940673828125,-0.982635498046875,-0.14990234375,-0.0123443603515625
1761915566587995600,9.71999560546875,-0.9796142578125,-0.146514892578125,-0.0131072998046875
1761915566598049500,9.730049560546876,-0.9769744873046875,-0.1433258056640625,-0.0154876708984375
1761915566608103700,9.740103759765624,-0.9800262451171875,-0.146392822265625,-0.0127105712890625
1761915566618157600,9.750157470703124,-0.9841156005859375,-0.1528167724609375,-0.0073699951171875
1761915566628211700,9.760211669921874,-0.98291015625,-0.1622467041015625,-0.005126953125
1761915566638265600,9.770265625,-0.98211669921875,-0.1605377197265625,-0.00921630859375
1761915566648319700,9.78031982421875,-0.9829864501953125,-0.1500244140625,-0.0089111328125
1761915566658375000,9.790375,-0.98785400390625,-0.1428985595703125,-0.00732421875
1761915566668428500,9.800428466796875,-0.9897613525390625,-0.1474151611328125,-0.005340576171875
1761915566678482700,9.810482666015625,-0.992767333984375,-0.159027099609375,-0.004150390625
1761915566688536600,9.82053662109375,-0.9910736083984375,-0.16912841796875,-0.0016326904296875
1761915566698590700,9.8305908203125,-0.9807281494140625,-0.1701202392578125,-0.0007476806640625
1761915566708644600,9.84064453125,-0.9745330810546875,-0.161712646484375,0.00030517578125
1761915566718699800,9.85069970703125,-0.982177734375,-0.15594482421875,-0.0001220703125
1761915566728754000,9.86075390625,-0.9940185546875,-0.15283203125,0.0034027099609375
1761915566738807600,9.8708076171875,-0.9959869384765625,-0.15777587890625,0.0090179443359375
1761915566748861700,9.88086181640625,-0.9873046875,-0.1688690185546875,0.0054473876953125
1761915566758915600,9.89091552734375,-0.9732513427734375,-0.1715545654296875,-0.0009307861328125
1761915566768969700,9.9009697265625,-0.9615325927734375,-0.167510986328125,-0.003570556640625
1761915566779023600,9.911023681640625,-0.955718994140625,-0.1647186279296875,-0.0074310302734375
1761915566789078800,9.921078857421875,-0.9622039794921875,-0.16424560546875,-0.0075836181640625
1761915566799133000,9.9311328125,-0.97222900390625,-0.1629638671875,-0.0015411376953125
1761915566809186800,9.941186767578126,-0.977813720703125,-0.1654815673828125,0.0015716552734375
1761915566819240700,9.95124072265625,-0.9846038818359375,-0.166900634765625,0.0008697509765625
1761915566829294600,9.961294677734376,-0.983673095703125,-0.15966796875,0.0003814697265625
1761915566839348700,9.9713486328125,-0.9822998046875,-0.1568145751953125,0.0001220703125
1761915566849402600,9.981402587890624,-0.9769744873046875,-0.1559600830078125,0.0007781982421875
1761915566859457800,9.991457763671875,-0.97381591796875,-0.1546783447265625,-0.001129150390625
1761915566869511700,10.00151171875,-0.9775238037109375,-0.1471710205078125,-0.003814697265625
1761915566879565800,10.01156591796875,-0.9869537353515625,-0.1378326416015625,-0.006195068359375
1761915566889619700,10.02161962890625,-0.9928741455078125,-0.1350555419921875,-0.0077056884765625
1761915566899673600,10.031673583984375,-0.9938507080078125,-0.1359100341796875,-0.00653076171875
1761915566909727700,10.041727783203125,-0.9944000244140625,-0.14215087890625,-0.0060577392578125
1761915566919781600,10.05178173828125,-0.9924163818359375,-0.148223876953125,-0.0066680908203125
1761915566929836800,10.0618369140625,-0.987060546875,-0.15179443359375,-0.00506591796875
1761915566939890700,10.071890625,-0.97589111328125,-0.1533203125,-0.0039215087890625
1761915566949944800,10.08194482421875,-0.9694671630859375,-0.1550140380859375,-0.005157470703125
1761915566959998700,10.091998779296874,-0.9722137451171875,-0.1534271240234375,-0.005767822265625
1761915566970052600,10.102052490234374,-0.9744873046875,-0.153289794921875,-0.004974365234375
1761915566980106800,10.112106689453125,-0.97357177734375,-0.155975341796875,-0.0048065185546875
1761915566990157300,10.1221572265625,-0.9709014892578125,-0.1580047607421875,-0.0028228759765625
1761915567000212500,10.13221240234375,-0.968719482421875,-0.1608734130859375,-0.0036773681640625
1761915567010266400,10.142266357421875,-0.9745330810546875,-0.160888671875,-0.0058441162109375
1761915567020320500,10.152320556640625,-0.9861602783203125,-0.1541748046875,-0.0017242431640625
1761915567030374400,10.16237451171875,-0.9836273193359375,-0.15374755859375,-0.003021240234375
1761915567040428300,10.17242822265625,-0.9783935546875,-0.157623291015625,-0.0060272216796875
1761915567050482200,10.182482177734375,-0.991912841796875,-0.15985107421875,-0.0020599365234375
1761915567060536300,10.192536376953125,-1.01556396484375,-0.1541595458984375,0.010986328125
1761915567070591500,10.202591552734376,-1.0330352783203125,-0.1603851318359375,0.0121307373046875
1761915567080645400,10.212645263671876,-1.040557861328125,-0.1536102294921875,0.024810791015625
1761915567090699500,10.222699462890626,-1.0454254150390625,-0.155242919921875,0.016845703125
1761915567100753400,10.23275341796875,-1.0283660888671875,-0.15411376953125,0.0033111572265625
1761915567110807300,10.242807373046874,-0.998138427734375,-0.1439208984375,-0.010162353515625
1761915567120861200,10.252861083984374,-0.9776763916015625,-0.1441650390625,-0.0276947021484375
1761915567130915300,10.262915283203125,-0.9512481689453125,-0.1545257568359375,-0.048126220703125
1761915567140970200,10.27297021484375,-0.92352294921875,-0.1619720458984375,-0.0579376220703125
1761915567151024400,10.2830244140625,-0.918670654296875,-0.15985107421875,-0.0520172119140625
1761915567161078500,10.29307861328125,-0.926116943359375,-0.153472900390625,-0.0499114990234375
1761915567171132400,10.30313232421875,-0.950775146484375,-0.1532135009765625,-0.0502777099609375
1761915567181186600,10.3131865234375,-0.9735107421875,-0.15460205078125,-0.0483856201171875
