time,seconds_elapsed,z,y,x
1761915556946072800,0.07807275390625,0.0038666436448693275,-0.11010652780532837,0.06395687907934189
1761915556956126700,0.088126708984375,-0.0035454663448035717,-0.10732059925794601,0.06748183816671371
1761915556966180900,0.098180908203125,-0.0034466630313545465,-0.09370465576648712,0.06289214640855789
1761915556976234500,0.108234375,0.010002566501498222,-0.08583767712116241,0.057312823832035065
1761915556986288600,0.11828857421875,0.022356703877449036,-0.10675760358572006,0.055510398000478745
1761915556996343600,0.128343505859375,0.024581775069236755,-0.14435291290283203,0.05120300129055977
1761915557006397400,0.1383974609375,0.017473798245191574,-0.18095992505550385,0.04761066287755966
1761915557016451600,0.14845166015625,0.0013840447645634413,-0.20888637006282806,0.041960231959819794
1761915557026505500,0.15850537109375,-0.016138223931193352,-0.1987794041633606,0.027780232951045036
1761915557036559600,0.1685595703125,-0.023203322663903236,-0.18725644052028656,0.012940033338963985
1761915557046613500,0.178613525390625,-0.03039545565843582,-0.19264455139636993,0.01062015350908041
1761915557056667600,0.188667724609375,-0.03220187872648239,-0.20630869269371033,0.0184695553034544
1761915557066721500,0.198721435546875,-0.03431323170661926,-0.21519646048545837,0.022222215309739113
1761915557076776400,0.2087763671875,-0.03459019958972931,-0.21795310080051422,0.018186461180448532
1761915557086830600,0.21883056640625,-0.027170900255441666,-0.21921303868293762,0.013207415118813515
1761915557096884500,0.228884521484375,-0.013687582686543465,-0.1959703117609024,0.0009680590592324734
1761915557106938600,0.238938720703125,-0.008333031088113785,-0.1692311018705368,-0.009868609718978405
1761915557116992500,0.248992431640625,-0.015027418732643127,-0.15348409116268158,-0.01830337382853031
1761915557127046700,0.259046630859375,-0.020060259848833084,-0.14627492427825928,-0.021342840045690536
1761915557137100500,0.2691005859375,-0.015919577330350876,-0.13983885943889618,-0.030369624495506287
1761915557147155500,0.279155517578125,0.0003664509567897767,-0.13065893948078156,-0.038603316992521286
1761915557157209300,0.289209228515625,0.018427476286888123,-0.11126048117876053,-0.04772970452904701
1761915557167263500,0.299263427734375,0.0314205065369606,-0.09520481526851654,-0.05600760877132416
1761915557177317600,0.309317626953125,0.026343723759055138,-0.08313829451799393,-0.06498512625694275
1761915557187371500,0.31937158203125,0.022584138438105583,-0.07887031137943268,-0.0668695792555809
1761915557197425700,0.32942578125,0.0259274709969759,-0.08792266249656677,-0.060392238199710846
1761915557207479600,0.3394794921875,0.027049461379647255,-0.1095384806394577,-0.051660265773534775
1761915557217533700,0.34953369140625,0.02328375168144703,-0.13226082921028137,-0.039682697504758835
1761915557227588400,0.35958837890625,0.006384395994246006,-0.1563592404127121,-0.02484116703271866
1761915557237642500,0.369642578125,-0.01757952570915222,-0.17094644904136658,-0.01218715775758028
1761915557247696400,0.3796962890625,-0.036254145205020905,-0.19506695866584778,0.001969940261915326
1761915557257750500,0.38975048828125,-0.05687792971730232,-0.2344662994146347,0.014935540035367012
1761915557267804700,0.3998046875,-0.08536656200885773,-0.29104650020599365,0.03358086198568344
1761915557277858600,0.409858642578125,-0.10802207142114639,-0.34678351879119873,0.04813077673316002
1761915557287912700,0.41991259765625,-0.12254002690315247,-0.3864523768424988,0.06479870527982712
1761915557297966600,0.429966552734375,-0.11906780302524567,-0.40287262201309204,0.08815116435289383
1761915557308021500,0.440021484375,-0.12170246243476868,-0.3867173492908478,0.11616601794958115
1761915557318075400,0.450075439453125,-0.13222381472587585,-0.40090081095695496,0.17618674039840698
1761915557328129500,0.460129638671875,-0.1444368064403534,-0.499780535697937,0.27602866291999817
1761915557338183400,0.470183349609375,-0.1395224779844284,-0.6600815057754517,0.4136916995048523
1761915557348237600,0.480237548828125,-0.12361861020326614,-0.866872251033783,0.570546567440033
1761915557358291700,0.490291748046875,-0.14543096721172333,-1.0500649213790894,0.7282789349555969
1761915557368345600,0.500345703125,-0.19594047963619232,-1.17464280128479,0.8862389922142029
1761915557378400500,0.510400390625,-0.22177739441394806,-1.3009963035583496,1.0526669025421143
1761915557388454400,0.520454345703125,-0.07696828246116638,-1.2598421573638916,1.1928417682647705
1761915557398508500,0.530508544921875,0.21579700708389282,-1.1155478954315186,1.3331499099731445
1761915557408562400,0.5405625,0.4724719524383545,-1.013220191001892,1.465361475944519
1761915557418616600,0.550616455078125,0.5908278822898865,-0.8199036717414856,1.5743380784988403
1761915557428670500,0.56067041015625,0.5951906442642212,-0.635543167591095,1.6595778465270996
1761915557438724600,0.570724609375,0.5069164633750916,-0.5835571885108948,1.703621745109558
1761915557448778800,0.58077880859375,0.355020135641098,-0.6486603021621704,1.6949886083602905
1761915557458833400,0.59083349609375,0.18983517587184906,-0.7459636926651001,1.5944316387176514
1761915557468887600,0.600887451171875,0.031741682440042496,-0.8050040602684021,1.397346019744873
1761915557478941400,0.61094140625,-0.0974421352148056,-0.8306700587272644,1.1400686502456665
1761915557488995600,0.62099560546875,-0.20188970863819122,-0.8134012818336487,0.8938303589820862
1761915557499049500,0.631049560546875,-0.27383795380592346,-0.6835561990737915,0.7247366905212402
1761915557509103600,0.641103515625,-0.3014722168445587,-0.5361494421958923,0.65004962682724
1761915557519157500,0.651157470703125,-0.28959718346595764,-0.4466986656188965,0.5995723605155945
1761915557529211600,0.661211669921875,-0.26247555017471313,-0.4030185639858246,0.5323107838630676
1761915557539266600,0.6712666015625,-0.20918810367584229,-0.4546034634113312,0.4559933543205261
1761915557549320400,0.681320556640625,-0.13285551965236664,-0.5857992768287659,0.39208734035491943
1761915557559374600,0.69137451171875,-0.026004968211054802,-0.6912343502044678,0.3364057242870331
1761915557569428500,0.701428466796875,0.06385008245706558,-0.691875159740448,0.26832813024520874
1761915557579482600,0.711482666015625,0.09068542718887329,-0.607153058052063,0.1900162696838379
1761915557589536500,0.72153662109375,0.06692656874656677,-0.21083074808120728,0.04087179899215698
1761915557599590700,0.731590576171875,0.05851204693317413,0.23674197494983673,-0.14633964002132416
1761915557609645600,0.7416455078125,0.04776139557361603,0.4319985508918762,-0.3020205795764923
1761915557619699500,0.751699462890625,0.006990531459450722,0.5577799081802368,-0.4510430693626404
1761915557629753600,0.761753662109375,-0.024290159344673157,0.7009309530258179,-0.5773599743843079
1761915557639807500,0.771807373046875,-0.0450604185461998,0.7456116080284119,-0.6171420216560364
1761915557649861600,0.781861572265625,-0.06392252445220947,0.7208066582679749,-0.5877031683921814
1761915557659915500,0.79191552734375,-0.09538830071687698,0.676343560218811,-0.5372546911239624
1761915557669969700,0.8019697265625,-0.1272793859243393,0.6765376925468445,-0.4925295412540436
1761915557680023600,0.8120234375,-0.14751888811588287,0.7225779294967651,-0.4683602750301361
1761915557690078500,0.822078369140625,-0.15256690979003906,0.7899516224861145,-0.4423893988132477
1761915557700132600,0.832132568359375,-0.14959189295768738,0.8376544117927551,-0.40126192569732666
1761915557710186500,0.8421865234375,-0.13552559912204742,0.8817465305328369,-0.3549322485923767
1761915557720240600,0.85224072265625,-0.11024181544780731,0.900721549987793,-0.30423179268836975
1761915557730294500,0.86229443359375,-0.08649547398090363,0.859397828578949,-0.24882899224758148
1761915557740348700,0.8723486328125,-0.07905913144350052,0.7600126266479492,-0.20334886014461517
1761915557750402600,0.882402587890625,-0.10182569921016693,0.6466895341873169,-0.16517803072929382
1761915557760456400,0.89245654296875,-0.1315084844827652,0.505614161491394,-0.14251694083213806
1761915557770511600,0.90251171875,-0.14794684946537018,0.41295453906059265,-0.14581899344921112
1761915557780565500,0.9125654296875,-0.14780889451503754,0.4032140374183655,-0.19040057063102722
1761915557790619600,0.92261962890625,-0.1378851681947708,0.4312126636505127,-0.25707387924194336
1761915557800673500,0.932673583984375,-0.11548158526420593,0.3933590054512024,-0.316019743680954
1761915557810727700,0.942727783203125,-0.10053939372301102,0.2706488072872162,-0.37682291865348816
1761915557820781600,0.952781494140625,-0.09645436704158783,0.1183391585946083,-0.4439023435115814
1761915557830835500,0.96283544921875,-0.0963161513209343,-0.01805649884045124,-0.49807262420654297
1761915557840890400,0.972890380859375,-0.10191651433706284,-0.12794837355613708,-0.5276603698730469
1761915557850944500,0.982944580078125,-0.11295158416032791,-0.19335268437862396,-0.5613389611244202
1761915557860998400,0.992998291015625,-0.12617790699005127,-0.2430129200220108,-0.6077485084533691
1761915557871052500,1.003052490234375,-0.1448647826910019,-0.2057635486125946,-0.6971583366394043
1761915557881106700,1.013106689453125,-0.19834718108177185,-0.041423872113227844,-0.8289315104484558
1761915557891160600,1.02316064453125,-0.2817821502685547,0.03797561302781105,-1.003677248954773
1761915557901214700,1.033214599609375,-0.397269606590271,0.23300528526306152,-1.2076416015625
1761915557911268400,1.043268310546875,-0.49418655037879944,0.49974191188812256,-1.3242912292480469
1761915557921323500,1.053323486328125,-0.5046213269233704,0.5082501769065857,-1.3088706731796265
1761915557931377400,1.06337744140625,-0.4275526702404022,0.41014277935028076,-1.2036575078964233
1761915557941431600,1.073431640625,-0.2936433255672455,0.28713828325271606,-1.0439780950546265
1761915557951485400,1.0834853515625,-0.15114237368106842,0.17394143342971802,-0.8377577662467957
1761915557961539600,1.09353955078125,-0.05928302928805351,0.0218347255140543,-0.603428065776825
1761915557971593700,1.10359375,-0.033433325588703156,-0.11693806946277618,-0.40887460112571716
1761915557981648000,1.11364794921875,0.026916302740573883,-0.25149428844451904,-0.28153979778289795
1761915557991702800,1.123702880859375,0.02377696894109249,-0.2218032330274582,-0.16808222234249115
1761915558001757000,1.1337568359375,-0.004938832018524408,-0.10254022479057312,-0.04558958858251572
1761915558011810800,1.143810791015625,-0.053275737911462784,0.06088598817586899,0.11680198460817337
1761915558021865000,1.153864990234375,-0.06932740658521652,0.20117253065109253,0.32819199562072754
1761915558031919000,1.163919189453125,-0.04219618812203407,0.3451499342918396,0.5672360062599182
1761915558041973000,1.173972900390625,0.00851306039839983,0.5522048473358154,0.7876237630844116
1761915558052027000,1.18402685546875,0.0572102926671505,0.7026657462120056,0.9703056812286377
1761915558062080800,1.194080810546875,0.10922635346651077,0.8898620009422302,1.0985987186431885
1761915558072136000,1.204135986328125,0.17930717766284943,1.0787546634674072,1.1034799814224243
1761915558082189800,1.21418994140625,0.2543550431728363,1.125312089920044,1.0344884395599365
1761915558092244000,1.224243896484375,0.2620238959789276,1.0535167455673218,0.9503514170646667
1761915558102297900,1.2342978515625,0.2253875881433487,0.8540283441543579,0.8367830514907837
1761915558112352000,1.24435205078125,0.1449766308069229,0.6463225483894348,0.6776906251907349
1761915558122406000,1.254406005859375,0.05687127262353897,0.46487873792648315,0.4686660170555115
1761915558132459800,1.264459716796875,-0.016272179782390594,0.3143576681613922,0.2392978072166443
1761915558142514000,1.274513916015625,-0.0333411805331707,0.19902920722961426,0.014239655807614326
1761915558152568800,1.28456884765625,-0.0031198931392282248,0.10205366462469101,-0.15690092742443085
1761915558162623000,1.294623046875,0.03305435553193092,-0.02112659066915512,-0.2511637806892395
1761915558172676900,1.3046767578125,0.07287101447582245,-0.1860862523317337,-0.27345097064971924
1761915558182731000,1.31473095703125,0.09429747611284256,-0.3192909061908722,-0.23644210398197174
1761915558192785000,1.324784912109375,0.09774599969387054,-0.3872356116771698,-0.18147897720336914
1761915558202838800,1.3348388671875,0.07974036782979965,-0.3788471817970276,-0.1525818258523941
1761915558212892700,1.344892578125,0.07527158409357071,-0.31455978751182556,-0.14653298258781433
1761915558222946800,1.35494677734375,0.07675842940807343,-0.25898122787475586,-0.15219220519065857
1761915558233002000,1.365001953125,0.07258765399456024,-0.20266735553741455,-0.14402587711811066
1761915558243055900,1.375055908203125,0.06424849480390549,-0.11249618232250214,-0.12017115205526352
1761915558253110000,1.385110107421875,0.051471978425979614,-0.055272843688726425,-0.08392339944839478
1761915558263164000,1.395163818359375,0.036493297666311264,-0.0378299355506897,-0.051368650048971176
1761915558273217800,1.4052177734375,0.015728097409009933,-0.013833790086209774,-0.04639572650194168
1761915558283271700,1.415271728515625,0.01852281764149666,0.00333267985843122,-0.08736446499824524
1761915558293325800,1.425325927734375,0.030354177579283714,-0.0268904697149992,-0.1381288468837738
1761915558303381000,1.435381103515625,0.03281706944108009,-0.11989178508520126,-0.1768493354320526
1761915558313435000,1.445434814453125,0.00643792562186718,-0.28418564796447754,-0.18982373178005219
1761915558323489000,1.455489013671875,-0.018461031839251518,-0.44455960392951965,-0.17943021655082703
1761915558333543000,1.46554296875,-0.025497902184724808,-0.5505605936050415,-0.17631910741329193
1761915558343597000,1.47559716796875,-0.023565247654914856,-0.54775470495224,-0.19954267144203186
1761915558353650700,1.485650634765625,-0.002865294925868511,-0.4107539653778076,-0.2390783578157425
1761915558363704800,1.495704833984375,0.022236330434679985,-0.24800553917884827,-0.2787133753299713
1761915558373758700,1.5057587890625,0.043533362448215485,-0.1657484918832779,-0.28606531023979187
1761915558383814000,1.51581396484375,0.04761066287755966,-0.15768229961395264,-0.27274444699287415
1761915558393868000,1.525867919921875,0.03397847339510918,-0.182683527469635,-0.2504340708255768
1761915558403922000,1.535921875,0.030301446095108986,-0.18546812236309052,-0.22717057168483734
1761915558413976000,1.54597607421875,0.036252811551094055,-0.16192738711833954,-0.2050924301147461
1761915558424030000,1.556030029296875,0.05669577047228813,-0.12389317899942398,-0.1923324316740036
1761915558434083800,1.566083740234375,0.08984280377626419,-0.05145413428544998,-0.20205402374267578
1761915558444137700,1.5761376953125,0.12094400078058243,0.07365291565656662,-0.2285333126783371
1761915558454191900,1.58619189453125,0.1299998164176941,0.19852134585380554,-0.24537833034992218
1761915558464247000,1.5962470703125,0.10802500694990158,0.29081371426582336,-0.22101227939128876
1761915558474301000,1.606301025390625,0.0642908364534378,0.3170975148677826,-0.14974528551101685
1761915558484355000,1.61635498046875,0.01631585694849491,0.3016357421875,-0.051840029656887054
1761915558494409000,1.626408935546875,-0.01486123725771904,0.25984594225883484,0.04829855635762215
1761915558504462800,1.636462890625,-0.01589054986834526,0.2121008038520813,0.14158056676387787
1761915558514516700,1.646516845703125,0.012762666679918766,0.18969562649726868,0.20768475532531738
1761915558524571000,1.65657080078125,0.04405827075242996,0.178949236869812,0.22205063700675964
1761915558534625800,1.666625732421875,0.08049724251031876,0.17537182569503784,0.18444468080997467
1761915558544680000,1.676679931640625,0.09842590242624283,0.1673399955034256,0.11212467402219772
1761915558554734000,1.686734130859375,0.10635919868946075,0.14489273726940155,0.032285768538713455
1761915558564788000,1.6967880859375,0.10319216549396515,0.1439763456583023,-0.02708035334944725
1761915558574841900,1.706841796875,0.10170159488916397,0.13783402740955353,-0.05939488485455513
1761915558584895700,1.716895751953125,0.09348227828741074,0.10770702362060547,-0.06350573897361755
1761915558594950000,1.726949951171875,0.07781490683555603,0.0637853741645813,-0.07368407398462296
1761915558605003800,1.737003662109375,0.06961050629615784,0.018861571326851845,-0.08997223526239395
1761915558615059000,1.747058837890625,0.0848187506198883,-0.04091467708349228,-0.11125302314758301
1761915558625112800,1.75711279296875,0.10701966285705566,-0.08380302041769028,-0.12043773382902145
1761915558635167000,1.7671669921875,0.12880192697048187,-0.08395055681467056,-0.11537745594978333
1761915558645221000,1.77722119140625,0.1299912929534912,-0.0508972704410553,-0.08721506595611572
1761915558655274800,1.787274658203125,0.11029108613729477,0.012118448503315449,-0.043367449194192886
1761915558665329000,1.797328857421875,0.07525427639484406,0.06806506961584091,0.0038184402510523796
1761915558675382800,1.8073828125,0.03572417423129082,0.0925736129283905,0.03509140759706497
1761915558685438000,1.81743798828125,0.017537448555231094,0.08130071312189102,0.0467669740319252
1761915558695491800,1.827491943359375,0.024601217359304428,0.06391213834285736,0.04508572071790695
1761915558705546000,1.8375458984375,0.04318928346037865,0.081758514046669,0.03617185354232788
1761915558715600000,1.847599853515625,0.055397745221853256,0.11857112497091293,0.043302733451128006
1761915558725653800,1.85765380859375,0.05975600704550743,0.1553669571876526,0.0651497095823288
1761915558735708000,1.8677080078125,0.055093877017498016,0.16610269248485565,0.09995589405298233
1761915558745761800,1.87776171875,0.048295095562934875,0.14271293580532074,0.1285174936056137
1761915558755816000,1.88781591796875,0.04325692728161812,0.08046288788318634,0.14168202877044678
1761915558765870800,1.897870849609375,0.03127643093466759,0.04400687292218208,0.13806305825710297
1761915558775925000,1.907925048828125,0.022003035992383957,0.07890786230564117,0.12109233438968658
1761915558785979000,1.917978759765625,0.01660214550793171,0.13363929092884064,0.11717136204242706
1761915558796033000,1.928032958984375,0.003343332326039672,0.16413834691047668,0.12822827696800232
1761915558806086700,1.938086669921875,-0.009441970847547054,0.1543208658695221,0.14587198197841644
1761915558816140800,1.948140869140625,-0.03226898983120918,0.13025067746639252,0.1520065814256668
1761915558826195000,1.95819482421875,-0.048881255090236664,0.0757131353020668,0.14330603182315826
1761915558836248800,1.968248779296875,-0.04364335164427757,0.010389523580670357,0.10623722523450851
1761915558846304000,1.978303955078125,-0.029821278527379036,-0.056777529418468475,0.05091537907719612
1761915558856358000,1.98835791015625,-0.013015666976571083,-0.09192939102649689,-0.015429822728037834
1761915558866412000,1.998412109375,-0.006081328261643648,-0.07968177646398544,-0.0724576860666275
1761915558876466000,2.0084658203125,-0.011384480632841587,-0.04116741195321083,-0.09946054220199585
1761915558886519800,2.018519775390625,-0.021030982956290245,-0.008653941564261913,-0.08152095973491669
1761915558896573700,2.02857373046875,-0.03069080039858818,-0.0054735951125621796,-0.036037627607584
1761915558906627800,2.0386279296875,-0.030947528779506683,-0.007149788551032543,0.011374360881745815
1761915558916683000,2.04868310546875,-0.024564731866121292,-0.012878513894975185,0.03770982846617699
1761915558926737000,2.05873681640625,-0.015988286584615707,-0.0028852687682956457,0.045105427503585815
1761915558936791000,2.068791015625,-0.021832861006259918,-0.0026232136879116297,0.04808789864182472
1761915558946845000,2.078844970703125,-0.03533961623907089,-0.00887924525886774,0.04734567925333977
1761915558956898800,2.08889892578125,-0.05974988266825676,-0.017014669254422188,0.05197105556726456
1761915558966952700,2.09895263671875,-0.07898136973381042,-0.03713378682732582,0.05416656658053398
1761915558977006800,2.1090068359375,-0.08205199241638184,-0.06406393647193909,0.05062269791960716
1761915558987065000,2.119065185546875,-0.07241135090589523,-0.06402985006570816,0.03265781328082085
1761915558997120000,2.1291201171875,-0.04983679950237274,-0.05444992706179619,0.005843774415552616
1761915559007174000,2.139173828125,-0.015432751737535,-0.037821147590875626,-0.012173841707408428
1761915559017227800,2.149227783203125,0.013262808322906494,-0.002682868391275406,-0.01618189923465252
1761915559027282000,2.159281982421875,0.028082234784960747,0.009060073643922806,0.006585997529327869
1761915559037335800,2.169335693359375,0.014931012876331806,-0.006027265917509794,0.04827778413891792
1761915559047390000,2.179389892578125,-0.009160741232335567,-0.014987205155193806,0.08489331603050232
1761915559057443800,2.18944384765625,-0.03151611611247063,-0.006488259416073561,0.09664132446050644
1761915559067498000,2.199498046875,-0.048648230731487274,-0.0006005428149364889,0.0837676003575325
1761915559077553200,2.20955322265625,-0.042507778853178024,0.010407100431621075,0.04879949614405632
1761915559087606800,2.219606689453125,-0.008863266557455063,0.014929947443306446,0.009725064970552921
1761915559097661000,2.229660888671875,0.036186765879392624,0.01679309457540512,-0.022610237821936607
1761915559107714800,2.23971484375,0.07721702009439468,0.009739712812006474,-0.03099546581506729
1761915559117769000,2.24976904296875,0.08362698554992676,-0.007784686051309109,-0.034201912581920624
1761915559127822800,2.25982275390625,0.059247877448797226,-0.033126529306173325,-0.04302922636270523
1761915559137877000,2.269876953125,0.01776088774204254,-0.05397961288690567,-0.06282316893339157
1761915559147931000,2.279930908203125,-0.01209927350282669,-0.04784289002418518,-0.0910622626543045
1761915559157986000,2.289986083984375,-0.014793327078223228,0.002092179376631975,-0.10973954945802689
1761915559168040000,2.3000400390625,-0.00347489258274436,0.07143183797597885,-0.09271795302629471
1761915559178093800,2.31009375,0.01386921014636755,0.12020283937454224,-0.04326944425702095
1761915559188148000,2.32014794921875,0.02370293252170086,0.13236895203590393,0.028303543105721474
1761915559198201900,2.330201904296875,0.02947906218469143,0.11030226945877075,0.09451532363891602
1761915559208256000,2.340256103515625,0.027476364746689796,0.0728483721613884,0.1336563378572464
1761915559218310000,2.350309814453125,0.022166555747389793,0.03783765807747841,0.13335485756397247
1761915559228365000,2.360364990234375,0.012989302165806293,0.005539641249924898,0.10279961675405502
1761915559238419000,2.3704189453125,0.008401740342378616,-0.0007542071980424225,0.0600670650601387
1761915559248472800,2.380472900390625,0.0013422331539914012,-0.023639015853405,0.03730236366391182
1761915559258527000,2.39052685546875,-0.007685350254178047,-0.054069891571998596,0.033351831138134
1761915559268580900,2.400580810546875,-0.021375862881541252,-0.07059640437364578,0.025849973782896996
1761915559278635000,2.410635009765625,-0.03172091022133827,-0.07585161924362183,0.007282414007931948
1761915559288689000,2.42068896484375,-0.0300804041326046,-0.05284164473414421,-0.025062741711735725
1761915559298743000,2.430742919921875,-0.011542938649654388,0.0037955371662974358,-0.05955946817994118
1761915559308798000,2.4407978515625,0.01104466151446104,0.051717523485422134,-0.0709865614771843
1761915559318851800,2.450851806640625,0.022879483178257942,0.05543769150972366,-0.048954758793115616
1761915559328906000,2.460906005859375,0.023872043937444687,0.022845394909381866,-0.006786000914871693
1761915559338960000,2.4709599609375,0.017834657803177834,-0.012899287045001984,0.038721829652786255
1761915559349014000,2.481013916015625,0.008806540630757809,-0.040832385420799255,0.06871514767408371
1761915559359068000,2.49106787109375,-0.007063501980155706,-0.05681534484028816,0.0651015043258667
1761915559369122000,2.5011220703125,-0.018764633685350418,-0.05730297043919563,0.03724830225110054
1761915559379176000,2.511176025390625,-0.02154284343123436,-0.03927603363990784,0.0036663739010691643
1761915559389230800,2.52123095703125,-0.004650411661714315,-0.006187322083860636,-0.023539680987596512
1761915559399285000,2.531284912109375,0.016103869304060936,0.020290890708565712,-0.026581276208162308
1761915559409339000,2.5413388671875,0.03371055796742439,0.04017964377999306,0.0017696705181151628
1761915559419393000,2.55139306640625,0.042216163128614426,0.042036399245262146,0.04797498136758804
1761915559429447000,2.561447021484375,0.03242877870798111,0.02099156752228737,0.08523127436637878
1761915559439501000,2.5715009765625,0.010367153212428093,-0.009350891225039959,0.10030876100063324
1761915559449555000,2.581554931640625,-0.003266633255407214,-0.04935316741466522,0.08857913315296173
1761915559459610000,2.591610107421875,-0.006184126250445843,-0.07852649688720703,0.05550214275717735
1761915559469663700,2.601663818359375,-0.004313522018492222,-0.0806378573179245,0.019840549677610397
1761915559479718000,2.6117177734375,-0.0021145499777048826,-0.05952458083629608,-0.013377058319747448
1761915559489772000,2.62177197265625,0.003111371072009206,-0.02124536782503128,-0.03338512033224106
1761915559499826000,2.631825927734375,0.004994492046535015,0.004289819858968258,-0.031492944806814194
1761915559509880000,2.641880126953125,-0.00018349179299548268,0.001823732745833695,-0.005020857788622379
1761915559519934000,2.651933837890625,-0.007668306119740009,0.0014791196445003152,0.020957745611667633
1761915559529988000,2.661988037109375,-0.021996645256876945,0.00250550196506083,0.038714904338121414
1761915559540042800,2.672042724609375,-0.023514380678534508,0.01005210168659687,0.05198730155825615
1761915559550097000,2.682096923828125,-0.016152605414390564,0.032343290746212006,0.05685476213693619
1761915559560150800,2.69215087890625,-0.00563977612182498,0.048417069017887115,0.06989386677742004
1761915559570205000,2.702204833984375,0.0008234494016505778,0.051536694169044495,0.08517428487539291
1761915559580259000,2.712259033203125,0.0019153454340994358,0.04195943474769592,0.08740148693323135
1761915559590313000,2.72231298828125,-0.00364746549166739,0.026029735803604126,0.06426047533750534
1761915559600367000,2.7323671875,-0.0019797938875854015,-0.0011195929255336523,0.025495773181319237
1761915559610422000,2.742422119140625,0.0017741979099810123,-0.023958329111337662,-0.02184404619038105
1761915559620476000,2.752475830078125,-0.002569417702034116,-0.03291667252779007,-0.05547178164124489
1761915559630529800,2.76252978515625,-0.015483618713915348,-0.03564268350601196,-0.06942727416753769
1761915559640584000,2.772583984375,-0.029929403215646744,-0.03518595173954964,-0.055095210671424866
1761915559650637800,2.782637939453125,-0.03561897948384285,-0.032040223479270935,-0.03160053491592407
1761915559660692000,2.79269189453125,-0.03382294625043869,-0.02412957139313221,-0.006334594916552305
1761915559670746000,2.80274609375,-0.022406505420804024,-0.014011156745254993,0.011413242667913437
1761915559680800000,2.812800048828125,-0.002502572489902377,0.005648031830787659,0.027819113805890083
1761915559690855000,2.82285498046875,0.015044995583593845,0.035530298948287964,0.027479827404022217
1761915559700908800,2.83290869140625,0.024167653173208237,0.062429554760456085,0.022550050169229507
1761915559710963000,2.842962890625,0.026019616052508354,0.07143956422805786,0.01607137732207775
1761915559721016800,2.853016845703125,0.02810194157063961,0.06374595314264297,0.00911626685410738
1761915559731071000,2.863071044921875,0.029156554490327835,0.04867033287882805,0.0030184267088770866
1761915559741124900,2.873124755859375,0.01955532468855381,0.027004718780517578,0.000474575295811519
1761915559751179000,2.883178955078125,0.010697385296225548,0.005045624915510416,-0.004760666750371456
1761915559761233000,2.89323291015625,0.0036392095498740673,-0.0041220407001674175,-0.0070427292957901955
1761915559771287800,2.903287841796875,0.005862948950380087,-0.0153190353885293,-0.006698116194456816
1761915559781342000,2.913342041015625,0.007167365401983261,-0.020687701180577278,-0.00041758365114219487
1761915559791395800,2.923395751953125,0.0062517705373466015,-0.019361447542905807,0.013604491949081421
1761915559801450000,2.933449951171875,0.01221805065870285,-0.011800467036664486,0.025922410190105438
1761915559811503900,2.94350390625,0.018912704661488533,-0.008392153307795525,0.0373590886592865
1761915559821558000,2.95355810546875,0.026943467557430267,-0.015313442796468735,0.03133741766214371
1761915559831612000,2.96361181640625,0.030492661520838737,-0.013081979937851429,0.019113507121801376
1761915559841666800,2.973666748046875,0.024214260280132294,-0.011122426018118858,0.0052203284576535225
1761915559851721000,2.983720947265625,0.007203584536910057,-0.017421867698431015,-0.0007387608638964593
1761915559861774800,2.99377490234375,-0.009972472675144672,-0.029452696442604065,0.0027925907634198666
1761915559871829000,3.0038291015625,-0.02256176806986332,-0.031139010563492775,0.002852778183296323
1761915559881883000,3.0138828125,-0.02401319146156311,-0.03253743797540665,0.0070608388632535934
1761915559891937000,3.02393701171875,-0.019415775313973427,-0.027186347171664238,0.015119298361241817
1761915559901991000,3.033990966796875,-0.017668209969997406,-0.02478950284421444,0.01387080829590559
1761915559912045000,3.044045166015625,-0.024350613355636597,-0.031251128762960434,0.022290125489234924
1761915559922100000,3.054099853515625,-0.03285808116197586,-0.04206862300634384,0.03237098827958107
1761915559932153900,3.06415380859375,-0.03219069167971611,-0.037828072905540466,0.043708864599466324
1761915559942208000,3.0742080078125,-0.0310420710593462,-0.04006699100136757,0.0477595329284668
1761915559952262000,3.084261962890625,-0.027879301458597183,-0.03705282509326935,0.04343828931450844
1761915559962316000,3.09431591796875,-0.02197134494781494,-0.018869295716285706,0.027241207659244537
1761915559972370000,3.104369873046875,-0.015516375191509724,0.013800500892102718,0.00526560191065073
1761915559982420500,3.11442041015625,-0.011150655336678028,0.053287457674741745,-0.013746971264481544
1761915559992475400,3.124475341796875,-0.005287706386297941,0.08165545016527176,-0.016510533168911934
1761915560002529300,3.134529296875,-0.0004522047529462725,0.08363177627325058,-0.00330258603207767
1761915560012583400,3.14458349609375,0.003852795111015439,0.0640903040766716,0.016218118369579315
1761915560022637300,3.15463720703125,0.002516420790925622,0.03586772084236145,0.02635544165968895
1761915560032691500,3.16469140625,-0.005356948357075453,0.012030564248561859,0.02322436310350895
1761915560042745300,3.174745361328125,-0.013079316355288029,0.0038216360844671726,0.006048837676644325
1761915560052799500,3.184799560546875,-0.01119273342192173,0.009546900168061256,-0.008837433531880379
1761915560062853400,3.194853271484375,-0.007860852405428886,0.019759589806199074,-0.018696455284953117
1761915560072908300,3.204908203125,-0.005650162696838379,0.019874637946486473,-0.01870843954384327
1761915560082962200,3.214962158203125,-0.0019832560792565346,0.014338991604745388,-0.020489029586315155
1761915560093016300,3.225016357421875,-0.006758836563676596,0.0007832356495782733,-0.02912619337439537
1761915560103070500,3.235070556640625,-0.017181649804115295,-0.02533039078116417,-0.036107137799263
1761915560113124400,3.245124267578125,-0.032225579023361206,-0.038533810526132584,-0.032306008040905
1761915560123178500,3.255178466796875,-0.045276135206222534,-0.028061196208000183,-0.024459803476929665
1761915560133232400,3.265232421875,-0.043595947325229645,-0.0018077536951750517,-0.0013259878614917397
1761915560143287300,3.275287353515625,-0.0341624990105629,0.02461107075214386,0.028419656679034233
1761915560153341200,3.285341064453125,-0.021987857297062874,0.043351735919713974,0.05034492909908295
1761915560163395300,3.295395263671875,-0.009214803576469421,0.03982837125658989,0.058285944163799286
1761915560173449200,3.30544921875,-0.004559597931802273,0.037946317344903946,0.05414259806275368
1761915560183503400,3.31550341796875,-0.000032490566809428856,0.046655651181936264,0.03275182098150253
1761915560193557500,3.3255576171875,-0.001883387565612793,0.05447682365775108,0.017662616446614265
1761915560203611400,3.335611328125,-0.00993012823164463,0.04489237442612648,0.006081860978156328
1761915560213666600,3.34566650390625,-0.030247384682297707,0.0193148422986269,-0.0033800839446485043
1761915560223720200,3.35572021484375,-0.05149594694375992,-0.012151204980909824,-0.014965633861720562
1761915560233774300,3.3657744140625,-0.06607569009065628,-0.033604566007852554,-0.0268878061324358
1761915560243828200,3.375828125,-0.06527300924062729,-0.04013809934258461,-0.02419055812060833
1761915560253882400,3.38588232421875,-0.05764571949839592,-0.02876054123044014,-0.02220064401626587
1761915560263936300,3.395936279296875,-0.052551623433828354,-0.008651811629533768,-0.009305617772042751
1761915560273990400,3.405990478515625,-0.047564588487148285,0.01203775405883789,0.015547800809144974
1761915560284044500,3.41604443359375,-0.03868614137172699,0.030598921701312065,0.04813956469297409
1761915560294099500,3.426099365234375,-0.03946618363261223,0.028569858521223068,0.07995475083589554
1761915560304153300,3.4361533203125,-0.040832385420799255,0.03437288850545883,0.09350225329399109
1761915560314207200,3.446207275390625,-0.04596775770187378,0.024145282804965973,0.09288280457258224
1761915560324261400,3.456261474609375,-0.05367681011557579,-0.00010892329009948298,0.07993371784687042
1761915560334315300,3.466315185546875,-0.04855102300643921,-0.031204525381326675,0.06317790597677231
1761915560344369400,3.476369384765625,-0.045337654650211334,-0.06260132789611816,0.043775442987680435
1761915560354423300,3.48642333984375,-0.04295412451028824,-0.07045978307723999,0.026989540085196495
1761915560364478500,3.496478515625,-0.03851943090558052,-0.05811257287859917,0.015573366545140743
1761915560374532400,3.506532470703125,-0.03712153434753418,-0.033123333007097244,0.008835037238895893
1761915560384586200,3.516586181640625,-0.0416230782866478,-0.012057994492352009,-0.001511610229499638
1761915560394640400,3.526640380859375,-0.04813157767057419,-0.000925182132050395,-0.006445382256060839
1761915560404694300,3.5366943359375,-0.042574092745780945,0.005795038305222988,-0.006907973438501358
1761915560414748400,3.54674853515625,-0.030838606879115105,0.021074391901493073,0.0017614146927371621
1761915560424802300,3.55680224609375,-0.015110509470105171,0.02359187789261341,0.017620006576180458
1761915560434856400,3.5668564453125,-0.007703459821641445,0.025293638929724693,0.03798093646764755
1761915560444911400,3.576911376953125,-0.008734902366995811,0.03465811163187027,0.04639386385679245
1761915560454965200,3.58696533203125,-0.008503207005560398,0.03556864708662033,0.03635241463780403
1761915560465019400,3.597019287109375,-0.005006209947168827,0.028005534783005714,0.016437029466032982
1761915560475073300,3.6070732421875,-0.0033659692853689194,0.009387909434735775,-0.010294981300830841
1761915560485127400,3.61712744140625,-0.004196609370410442,-0.006943926215171814,-0.029441511258482933
1761915560495181300,3.627181396484375,-0.015425295569002628,-0.02244671992957592,-0.030062295496463776
1761915560505235500,3.6372353515625,-0.03442135825753212,-0.04165450111031532,-0.013224192894995213
1761915560515290600,3.64729052734375,-0.04765806719660759,-0.05452049896121025,0.00977246928960085
1761915560525344300,3.65734423828125,-0.059232696890830994,-0.05745317414402962,0.022310631349682808
1761915560535398400,3.6673984375,-0.053942859172821045,-0.03458434343338013,0.025674469769001007
1761915560545452300,3.677452392578125,-0.04255624860525131,-0.00501020485535264,0.027402063831686974
1761915560555506400,3.68750634765625,-0.03117895871400833,0.004839762579649687,0.030225813388824463
1761915560565560300,3.697560302734375,-0.03257045894861221,-0.00007004113285802305,0.04121827706694603
1761915560575614500,3.707614501953125,-0.04574831202626228,-0.013766146264970303,0.05321821570396423
1761915560585669400,3.71766943359375,-0.062066834419965744,-0.03176192566752434,0.06530656665563583
1761915560595723300,3.72772314453125,-0.07466091960668564,-0.03170626237988472,0.05908489227294922
1761915560605777400,3.73777734375,-0.07778933644294739,-0.0049225869588553905,0.03930852189660072
1761915560615831300,3.747831298828125,-0.07850413024425507,0.031990956515073776,0.011758122593164444
1761915560625885400,3.757885498046875,-0.07716642320156097,0.051248274743556976,0.00020399813365656883
1761915560635939300,3.767939208984375,-0.07649051398038864,0.054781224578619,0.008447014726698399
1761915560645993500,3.777993408203125,-0.06835242360830307,0.045817289501428604,0.02291756682097912
1761915560656048400,3.78804833984375,-0.05221739783883095,0.017858626320958138,0.030277743935585022
1761915560666102500,3.7981025390625,-0.030297452583909035,0.003344397759065032,0.020898889750242233
1761915560676156200,3.80815625,-0.014415157958865166,0.006910902913659811,-0.003069559345021844
1761915560686210300,3.818210205078125,-0.021121796220541,0.012572516687214375,-0.02347310073673725
1761915560696264200,3.82826416015625,-0.033792849630117416,0.013060408644378185,-0.03720356151461601
1761915560706318300,3.838318359375,-0.04772677645087242,-0.0009739180095493793,-0.045707300305366516
1761915560716372500,3.84837255859375,-0.058810051530599594,-0.010733338072896004,-0.04893052577972412
1761915560726426400,3.85842626953125,-0.0636676624417305,-0.013940316624939442,-0.04297037050127983
1761915560736481500,3.8684814453125,-0.06926162540912628,-0.01056422758847475,-0.022947393357753754
1761915560746535400,3.878535400390625,-0.05445791408419609,0.006738330237567425,-0.0075937374494969845
1761915560756589300,3.88858935546875,-0.03213929384946823,0.039258189499378204,0.0041193775832653046
1761915560766643200,3.898643310546875,-0.004560929723083973,0.05223976820707321,-0.005056011490523815
1761915560776697300,3.908697265625,0.012457734905183315,0.041065942496061325,-0.019059976562857628
1761915560786751200,3.918751220703125,0.014903048984706402,0.020006997510790825,-0.02809927798807621
1761915560796805400,3.928805419921875,-0.001876995898783207,0.0039039277471601963,-0.02406165935099125
1761915560806860500,3.938860595703125,-0.02486060932278633,-0.013072658330202103,-0.009671535342931747
1761915560816914400,3.94891455078125,-0.036795563995838165,-0.01429105456918478,0.005862682592123747
1761915560826968300,3.95896826171875,-0.03464852273464203,-0.005618737079203129,0.013034309260547161
1761915560837022200,3.969022216796875,-0.026398584246635437,0.00875168014317751,0.0033920682035386562
1761915560847076400,3.979076416015625,-0.020917000249028206,0.02767397277057171,-0.002779008587822318
1761915560857130200,3.989130126953125,-0.01882908120751381,0.04099803417921066,0.0027987160719931126
1761915560867184400,3.999184326171875,-0.023745542392134666,0.035294342786073685,0.033970218151807785
1761915560877239600,4.009239501953125,-0.034935880452394485,0.018485533073544502,0.0799449011683464
1761915560887293400,4.01929345703125,-0.03906617686152458,0.017478859052062035,0.11127912253141403
1761915560897347300,4.029347412109375,-0.037931136786937714,0.033842653036117554,0.11023569107055664
1761915560907401200,4.039401123046875,-0.028115790337324142,0.04682449623942375,0.08014810085296631
1761915560917455400,4.049455322265625,-0.022341258823871613,0.043182622641325,0.03159467875957489
1761915560927509200,4.05950927734375,-0.01293683797121048,0.020306071266531944,-0.017116935923695564
1761915560937563400,4.0695634765625,-0.0064957160502672195,0.005696501582860947,-0.0546850822865963
1761915560947617300,4.0796171875,-0.013862019404768944,-0.013338441960513592,-0.06448711454868317
1761915560957672400,4.08967236328125,-0.022553246468305588,-0.030958447605371475,-0.05501105263829231
1761915560967726600,4.0997265625,-0.03827601671218872,-0.03953569009900093,-0.03301733732223511
1761915560977780200,4.1097802734375,-0.04554591327905655,-0.0387687012553215,-0.009820139966905117
1761915560987833900,4.119833740234375,-0.045462023466825485,-0.02743508666753769,0.004129763692617416
1761915560997888000,4.129887939453125,-0.0369391106069088,-0.01142868958413601,0.01007926557213068
1761915561007942100,4.139942138671875,-0.02340199612081051,0.013638313859701157,0.020266655832529068
1761915561017996000,4.14999609375,-0.008298942819237709,0.039692819118499756,0.02996295876801014
1761915561028051200,4.16005126953125,0.00436065997928381,0.050395794212818146,0.04459010437130928
1761915561038105000,4.17010498046875,0.008371646516025066,0.05023493990302086,0.043544549494981766
1761915561048159200,4.1801591796875,0.003230147995054722,0.03809918090701103,0.02636689320206642
1761915561058213000,4.190213134765625,0.0007550061563961208,0.021084245294332504,-0.005264803301542997
1761915561068267000,4.20026708984375,0.006653109099715948,-0.0018698053900152445,-0.0424068458378315
1761915561078321000,4.21032080078125,0.006220878101885319,-0.01564979925751686,-0.0638415664434433
1761915561088375000,4.220375,0.007119961082935333,-0.017641577869653702,-0.07145154476165771
1761915561098430200,4.23043017578125,0.003974501509219408,-0.003783819265663624,-0.059529904276132584
1761915561108484000,4.240484130859375,-0.001749164192005992,0.005936185829341412,-0.03627331927418709
1761915561118538200,4.250538330078125,-0.006747917737811804,0.014495852403342724,-0.016027169302105904
1761915561128592100,4.260592041015625,-0.0025446503423154354,0.01624501682817936,-0.007646468002349138
1761915561138646000,4.27064599609375,0.001612277701497078,0.021270934492349625,-0.013430587947368622
1761915561148700000,4.280699951171875,0.01016848161816597,0.023570306599140167,-0.01864665560424328
1761915561158754000,4.290754150390625,0.010495783761143684,0.022889336571097374,-0.023313311859965324
1761915561168809200,4.300809326171875,0.009490440599620342,0.015802664682269096,-0.031318772584199905
1761915561178863000,4.310863037109375,0.002098304685205221,-0.006283462047576904,-0.03395929932594299
1761915561188917200,4.320917236328125,-0.004061853047460318,-0.02418070286512375,-0.04255545139312744
1761915561198971100,4.33097119140625,-0.009260876104235649,-0.03812847658991814,-0.04944904148578644
1761915561209025000,4.34102490234375,-0.018135327845811844,-0.04119563847780228,-0.04451766610145569
1761915561219079000,4.351078857421875,-0.015105982311069965,-0.038904257118701935,-0.03641686215996742
1761915561229133000,4.361133056640625,-0.0035294874105602503,-0.024460602551698685,-0.0274507999420166
1761915561239188200,4.371188232421875,0.006560697220265865,-0.011766910552978516,-0.024769794195890427
1761915561249242000,4.3812421875,0.015527560375630856,-0.0005707154050469398,-0.004077565856277943
1761915561259296300,4.391296142578125,0.01726527325809002,0.00669225724413991,0.021372932940721512
1761915561269350100,4.40135009765625,0.017549699172377586,0.01011015847325325,0.03958575800061226
1761915561279404300,4.411404296875,0.02081872895359993,0.005671733990311623,0.04536748304963112
1761915561289458000,4.4214580078125,0.01823333278298378,-0.0007688545738346875,0.019028019160032272
1761915561299512000,4.431511962890625,0.014229802414774895,-0.008637430146336555,-0.02153218910098076
1761915561309567200,4.441567138671875,0.012445484288036823,-0.005730323493480682,-0.06222822144627571
1761915561319621000,4.45162109375,0.006113818846642971,-0.01576857641339302,-0.0849766731262207
1761915561329675300,4.46167529296875,-0.0028903286438435316,-0.030661772936582565,-0.07806603610515594
1761915561339729200,4.471729248046875,-0.0016801883466541767,-0.051234692335128784,-0.05210874229669571
1761915561349783300,4.481783203125,0.0020759340841323137,-0.058521367609500885,-0.03092356026172638
1761915561359837000,4.4918369140625,0.009104815311729908,-0.04500662162899971,-0.018759839236736298
1761915561369891000,4.50189111328125,0.017183780670166016,-0.01906636916100979,-0.016818661242723465
1761915561379945000,4.511945068359375,0.02250584214925766,0.0019116170005872846,-0.013887586072087288
1761915561390000000,4.522000244140625,0.019227756187319756,0.021037107333540916,-0.013373329304158688
1761915561400054000,4.532053955078125,0.011807390488684177,0.019781960174441338,-0.008994294330477715
1761915561410108200,4.542108154296875,0.0017057546647265553,0.007239004597067833,-0.011052917689085007
1761915561420162300,4.552162353515625,-0.007493069861084223,-0.003424558788537979,-0.01877422071993351
1761915561430216200,4.56221630859375,-0.016575248911976814,-0.007413707673549652,-0.03888135403394699
1761915561440270000,4.57227001953125,-0.011590076610445976,-0.02099822647869587,-0.05951232835650444
1761915561450324000,4.582323974609375,-0.008026234805583954,-0.03695668652653694,-0.07845752686262131
1761915561460379100,4.592379150390625,-0.011293933726847172,-0.05532344430685043,-0.08145198225975037
1761915561470433000,4.60243310546875,-0.011995942331850529,-0.07457703351974487,-0.07488995045423508
1761915561480487200,4.612487060546875,-0.01477308664470911,-0.0914982259273529,-0.0714973509311676
1761915561490541000,4.622541015625,-0.034397922456264496,-0.07928895950317383,-0.06472786515951157
1761915561500595200,4.63259521484375,-0.039503734558820724,-0.06246897205710411,-0.05073481798171997
1761915561510649000,4.642649169921875,-0.03152863308787346,-0.033725474029779434,-0.030969101935625076
1761915561520703000,4.652702880859375,-0.026757843792438507,-0.012802081182599068,-0.009617740288376808
1761915561530758100,4.662758056640625,-0.029042836278676987,0.0009384979493916035,0.006433930713683367
1761915561540812000,4.67281201171875,-0.03050890751183033,0.01648123934864998,0.015837552025914192
1761915561550866200,4.6828662109375,-0.03291187807917595,0.004166249185800552,0.025441976264119148
1761915561560920000,4.692920166015625,-0.030643129721283913,-0.03927629813551903,0.037451501935720444
1761915561570974200,4.70297412109375,-0.032769665122032166,-0.08521103113889694,0.03909706696867943
1761915561581028000,4.713028076171875,-0.036673590540885925,-0.11607467383146286,0.023482156917452812
1761915561591082000,4.72308203125,-0.03185247257351875,-0.11377343535423279,-0.005025651305913925
1761915561601137200,4.73313720703125,-0.0186474546790123,-0.08901642262935638,-0.03434785455465317
1761915561611191000,4.74319091796875,-0.008881642483174801,-0.06386446952819824,-0.047080159187316895
1761915561621245200,4.7532451171875,-0.004008323885500431,-0.05127277597784996,-0.037220604717731476
1761915561631299000,4.763299072265625,-0.00806138850748539,-0.030314229428768158,-0.016932377591729164
1761915561641353200,4.773353271484375,-0.006764429155737162,-0.02184644341468811,0.012014850974082947
1761915561651407000,4.783406982421875,-0.0026554379146546125,-0.009212939068675041,0.04247182607650757
1761915561661459200,4.793459228515625,0.005795038305222988,-0.0005544701125472784,0.06672976166009903
1761915561671513000,4.80351318359375,0.02022244781255722,-0.0005581985460594296,0.07452137023210526
1761915561681567200,4.813567138671875,0.03495851531624794,0.004402738064527512,0.06577368825674057
1761915561691622100,4.8236220703125,0.045939795672893524,0.018182998523116112,0.057423610240221024
1761915561701676000,4.833676025390625,0.04318928346037865,0.03136351704597473,0.04345693066716194
1761915561711730000,4.84372998046875,0.03632738068699837,0.014940866269171238,0.03220986947417259
1761915561721784000,4.8537841796875,0.02467551827430725,-0.0018250643042847514,0.012040950357913971
1761915561731838000,4.863837890625,0.0038517299108207226,-0.011040400713682175,-0.01372167095541954
1761915561741892000,4.87389208984375,-0.00035686357296071947,-0.010178068652749062,-0.03151611611247063
1761915561751946200,4.8839462890625,0.007398527581244707,0.0018924422329291701,-0.029042569920420647
1761915561762001200,4.894001220703125,0.023199329152703285,0.02497326023876667,-0.01635873317718506
1761915561772055000,4.904054931640625,0.03735616058111191,0.054489608854055405,0.019173961132764816
1761915561782109000,4.91410888671875,0.045223403722047806,0.08430076390504837,0.061408232897520065
1761915561792163000,4.9241630859375,0.04334454610943794,0.09254031628370285,0.09045267105102539
1761915561802217000,4.934217041015625,0.028189294040203094,0.08446402102708817,0.09933217614889145
1761915561812271000,4.94427099609375,0.01130804792046547,0.06296804547309875,0.09060633182525635
1761915561822325000,4.954324951171875,0.0006540723843500018,0.017363544553518295,0.07862343639135361
1761915561832380200,4.964380126953125,0.002680737990885973,-0.02604704722762108,0.05049460008740425
1761915561842434000,4.97443408203125,0.003858121344819665,-0.04310166463255882,0.022070681676268578
1761915561852488000,4.984488037109375,0.0014325142838060856,-0.04839176684617996,-0.007409446872770786
1761915561862542000,4.9945419921875,0.0007182545377872884,-0.0515231117606163,-0.028189027681946754
1761915561872596000,5.004595947265625,-0.0024897893890738487,-0.045285191386938095,-0.03706827387213707
1761915561882650000,5.014650146484375,-0.00003808320252574049,-0.03086656890809536,-0.03736042231321335
1761915561892704000,5.0247041015625,0.004838963504880667,-0.01477761473506689,-0.02864735759794712
1761915561902759200,5.03475927734375,0.018685003742575645,0.003573163179680705,-0.015195731073617935
1761915561912813300,5.044813232421875,0.03418833017349243,0.015028484165668488,-0.0036448021419346333
1761915561922867000,5.054866943359375,0.04404016211628914,0.0231093131005764,0.010337592102587223
1761915561932921000,5.064921142578125,0.05300942063331604,0.031127559021115303,0.019754262641072273
1761915561942975000,5.07497509765625,0.05065678432583809,0.016022376716136932,0.03798093646764755
1761915561953029000,5.085029052734375,0.047567252069711685,-0.0016620787791907787,0.04717336967587471
1761915561963083000,5.0950830078125,0.04481221362948418,-0.012056662701070309,0.04911321774125099
1761915561973138200,5.10513818359375,0.038661107420921326,-0.0034261567052453756,0.03995700180530548
1761915561983192300,5.1151923828125,0.037994254380464554,-0.005849367007613182,0.009573797695338726
1761915561993249800,5.125249755859375,0.036185700446367264,-0.00033902039285749197,-0.01949593611061573
1761915562003304000,5.135303955078125,0.04333468899130821,0.01930791698396206,-0.04189631715416908
1761915562013357800,5.14535791015625,0.048771798610687256,0.0391886830329895,-0.04157966747879982
1761915562023412000,5.155411865234375,0.045103829354047775,0.031860727816820145,-0.00881852488964796
1761915562033465900,5.1654658203125,0.027635356411337852,0.00015100123709999025,0.037036582827568054
1761915562043521000,5.17552099609375,0.012488095089793205,-0.03785337135195732,0.07864314317703247
1761915562053575000,5.185574951171875,0.006169745232909918,-0.060139767825603485,0.10433200001716614
1761915562063628800,5.19562890625,0.00449754623696208,-0.07669557631015778,0.11853703111410141
1761915562073683000,5.205682861328125,0.0054245926439762115,-0.0802285298705101,0.11464029550552368
1761915562083736800,5.21573681640625,0.012915532104671001,-0.04794568940997124,0.09042097628116608
1761915562093791000,5.225791015625,0.011692075990140438,-0.03142796456813812,0.06018690764904022
1761915562103844900,5.235844970703125,-0.008237423375248909,-0.053588394075632095,0.037762824445962906
1761915562113900000,5.245900146484375,-0.01967490091919899,-0.08938340842723846,0.014327540062367916
1761915562123954200,5.2559541015625,-0.03419951722025871,-0.12608203291893005,-0.005243497900664806
1761915562134007800,5.2660078125,-0.048043958842754364,-0.13630856573581696,-0.017437579110264778
1761915562144062000,5.27606201171875,-0.06139545142650604,-0.10486596077680588,-0.025410285219550133
1761915562154115800,5.28611572265625,-0.05459054186940193,-0.07049014419317245,-0.026198314502835274
1761915562164170000,5.296169921875,-0.0460769459605217,-0.03344743698835373,-0.01744769886136055
1761915562174224000,5.306223876953125,-0.03351747989654541,0.005805424880236387,-0.0021939121652394533
1761915562184279000,5.316279052734375,-0.030433006584644318,0.03707519546151161,0.017543572932481766
1761915562194333200,5.326333251953125,-0.02063923142850399,0.049361955374479294,0.04014848545193672
1761915562204387000,5.336386962890625,-0.01275654137134552,0.051659997552633286,0.052920471876859665
1761915562214441000,5.34644091796875,-0.013501959852874279,0.046366434544324875,0.05692347139120102
1761915562224494800,5.356494873046875,-0.009347429499030113,0.045939527451992035,0.0479680597782135
1761915562234549000,5.366549072265625,0.0006892260862514377,0.050514571368694305,0.03020184487104416
1761915562244603000,5.376602783203125,0.014210893772542477,0.028871329501271248,0.013231649063527584
1761915562254658000,5.386657958984375,0.025655562058091164,0.005785717628896236,-0.0015694007743149996
1761915562264712000,5.3967119140625,0.038354046642780304,-0.011987154372036457,-0.010087255388498306
1761915562274766000,5.40676611328125,0.038669899106025696,-0.010655573569238186,-0.016755810007452965
1761915562284820000,5.416820068359375,0.02900555171072483,-0.008558334782719612,-0.02322409674525261
1761915562294873900,5.426873779296875,0.022047512233257294,-0.006917827297002077,-0.035776641219854355
1761915562304928000,5.436927978515625,0.01281752809882164,-0.02387870103120804,-0.052670400589704514
1761915562314982000,5.44698193359375,0.0006559365428984165,-0.06366046518087387,-0.0737977921962738
1761915562325037000,5.457037109375,0.001966211711987853,-0.10377246886491776,-0.09112139046192169
1761915562335091000,5.467091064453125,0.009338640607893467,-0.10923700779676437,-0.10505371540784836
1761915562345145000,5.47714501953125,0.016221581026911736,-0.06795268505811691,-0.11751890927553177
1761915562355199000,5.487198974609375,0.02510002627968788,-0.02123737707734108,-0.12170859426259995
1761915562365252900,5.4972529296875,0.03147696703672409,0.006012618541717529,-0.11036325991153717
1761915562375307000,5.50730712890625,0.0374152809381485,0.011510981246829033,-0.09310784190893173
1761915562385361000,5.51736083984375,0.037527669221162796,0.0006820355774834752,-0.08151296526193619
1761915562395416000,5.527416015625,0.030426083132624626,-0.018729479983448982,-0.0722542256116867
1761915562405470000,5.537469970703125,0.02388722263276577,-0.027300063520669937,-0.06784935295581818
1761915562415524000,5.547524169921875,0.013615943491458893,-0.025138908997178078,-0.05626220628619194
1761915562425578000,5.557577880859375,0.010970892384648323,-0.011315771378576756,-0.044024981558322906
1761915562435631900,5.5676318359375,0.009698167443275452,-0.009552492760121822,-0.02924603596329689
1761915562445685800,5.577685791015625,0.012946691364049911,-0.04150403290987015,-0.02015293948352337
1761915562455740000,5.587739990234375,0.0179933812469244,-0.07394745945930481,-0.01648789644241333
1761915562465795000,5.597795166015625,0.020546553656458855,-0.10263503342866898,-0.0089391665533185
1761915562475849000,5.607848876953125,0.0223282091319561,-0.10555465519428253,-0.006375607568770647
1761915562485903000,5.617903076171875,0.02040513977408409,-0.10145285725593567,0.001329982653260231
1761915562495957000,5.62795703125,0.01594727486371994,-0.0888260081410408,0.002939597237855196
1761915562506011100,5.63801123046875,0.005787581671029329,-0.04894623905420303,-0.004997155629098415
1761915562516064800,5.648064697265625,0.0041039311327040195,-0.009166067466139793,-0.011686483398079872
1761915562526119000,5.658118896484375,-0.00079735042527318,0.006897054612636566,-0.0035515916533768177
1761915562536174000,5.668174072265625,-0.0023699470330029726,-0.006157228257507086,0.003010969841852784
1761915562546228000,5.67822802734375,-0.007874701172113419,0.008100003935396671,0.0065590995363891125
1761915562556282000,5.6882822265625,-0.002406965009868145,0.0157717727124691,0.0028700886759907007
1761915562566336000,5.6983359375,-0.012222844175994396,0.02377590350806713,-0.0015433018561452627
1761915562576390100,5.70839013671875,-0.02172100730240345,0.0297834612429142,-0.001985120354220271
1761915562586443800,5.71844384765625,-0.027667580172419548,0.02544304169714451,0.0026146916206926107
1761915562596498000,5.728497802734375,-0.02636662684381008,0.014751248992979527,-0.007144728675484657
1761915562606553000,5.738552978515625,-0.014604775235056877,0.00839614775031805,-0.025050224736332893
1761915562616607000,5.74860693359375,-0.005810751114040613,0.003614974906668067,-0.038722362369298935
1761915562626661000,5.7586611328125,0.004866394214332104,0.019990751519799232,-0.03567570447921753
1761915562636715000,5.768715087890625,0.004543619230389595,0.04952041432261467,-0.006286924239248037
1761915562646769200,5.77876904296875,0.001630387152545154,0.0734446570277214,0.03785763308405876
1761915562656823000,5.788822998046875,-0.0010972223244607449,0.09006518125534058,0.07546146959066391
1761915562666878000,5.7988779296875,-0.009130114689469337,0.09468816220760345,0.10373838245868683
1761915562676931800,5.808931884765625,-0.012955745682120323,0.07764099538326263,0.10673630237579346
1761915562686986000,5.818986083984375,-0.010449444875121117,0.04236263781785965,0.08817034214735031
1761915562697040100,5.8290400390625,-0.006481335032731295,0.007743407040834427,0.05904174968600273
1761915562707094000,5.839093994140625,-0.010323211550712585,-0.01900564879179001,0.031625304371118546
1761915562717148200,5.849148193359375,-0.02263527177274227,-0.025111477822065353,0.01703757233917713
1761915562727202000,5.8592021484375,-0.033955834805965424,-0.022648321464657784,0.029744047671556473
1761915562737257000,5.869257080078125,-0.03395823389291763,-0.019084211438894272,0.040046751499176025
1761915562747310800,5.879310791015625,-0.026313096284866333,-0.0052115400321781635,0.042517367750406265
1761915562757365000,5.889364990234375,-0.011723767966032028,0.010002832859754562,0.03212571144104004
1761915562767419000,5.8994189453125,0.004295678809285164,0.010146910324692726,0.01437920518219471
1761915562777473000,5.90947314453125,0.017190437763929367,0.009090433828532696,0.0006820355774834752
1761915562787527200,5.919527099609375,0.021696506068110466,0.023030484095215797,-0.007139401976019144
1761915562797581000,5.9295810546875,0.013520069420337677,0.03286367282271385,-0.00896926037967205
1761915562807636000,5.939635986328125,0.004823251161724329,0.043904341757297516,0.0023877902422100306
1761915562817689900,5.94968994140625,-0.0016117451013997197,0.06147640943527222,0.015924105420708656
1761915562827744000,5.959743896484375,0.008017180487513542,0.07671128958463669,0.027539482340216637
1761915562837798000,5.9697978515625,0.01618323102593422,0.08917435258626938,0.025832928717136383
1761915562847852000,5.97985205078125,0.02321770414710045,0.09200156480073929,0.014008493162691593
1761915562857906000,5.989906005859375,0.03200560435652733,0.0991329774260521,-0.006653907708823681
1761915562867960000,5.9999599609375,0.03668664023280144,0.10814031958580017,-0.016030631959438324
1761915562878015000,6.010014892578125,0.039986297488212585,0.11493004858493805,-0.011036938056349754
1761915562888068900,6.02006884765625,0.03464639559388161,0.12324470281600952,0.008469917811453342
1761915562898123000,6.030123046875,0.02713468112051487,0.13785693049430847,0.044686511158943176
1761915562908177000,6.040177001953125,0.03175020590424538,0.1463838368654251,0.08568800985813141
1761915562918231000,6.05023095703125,0.04170030727982521,0.1494603306055069,0.10932409018278122
1761915562928285000,6.060284912109375,0.044617000967264175,0.14680515229701996,0.11754607409238815
1761915562938339000,6.070339111328125,0.04496507719159126,0.12771455943584442,0.1174725666642189
1761915562948394000,6.08039404296875,0.029459621757268906,0.08927714824676514,0.11629997938871384
1761915562958447900,6.09044775390625,0.014900919049978256,0.04724367707967758,0.10285075008869171
1761915562968502000,6.100501953125,-0.004141215234994888,0.0025158883072435856,0.08779936283826828
1761915562978556000,6.110555908203125,-0.02008635923266411,-0.02257135510444641,0.0597970224916935
1761915562988610800,6.12061083984375,-0.027416443452239037,-0.01690521463751793,0.029918218031525612
1761915562998664700,6.130664794921875,-0.03142929449677467,0.008803345263004303,0.0027174896094948053
1761915563008718800,6.14071875,-0.03190866485238075,0.0396462120115757,-0.006859237793833017
1761915563018773800,6.150773681640625,-0.023857662454247475,0.06303755193948746,0.0019244002178311348
1761915563028827600,6.16082763671875,-0.013543771579861641,0.047749679535627365,0.02377244085073471
1761915563038881800,6.1708818359375,-0.009367136284708977,0.019032813608646393,0.03771195933222771
1761915563048935700,6.180935791015625,-0.006001699715852737,0.0016325177857652307,0.04097246751189232
1761915563058989800,6.19098974609375,-0.004764395300298929,0.0005440838285721838,0.03176245838403702
1761915563069043700,6.201043701171875,-0.005540173966437578,0.004555337131023407,0.015862585976719856
1761915563079097900,6.211097900390625,-0.0049430932849645615,0.015363509766757488,-0.0027052389923483133
1761915563089152800,6.22115283203125,-0.005154548212885857,0.0026996464002877474,-0.008695220574736595
1761915563099206700,6.23120654296875,-0.008058193139731884,-0.009375126101076603,0.0013797837309539318
1761915563109260800,6.2412607421875,-0.006935137789696455,-0.008203867822885513,0.012505405582487583
1761915563119314700,6.251314697265625,-0.008618255145847797,0.0015568839153274894,0.021456556394696236
1761915563129368800,6.261368896484375,-0.007739146240055561,0.015720905736088753,0.027578098699450493
1761915563139422700,6.271422607421875,-0.006702643819153309,0.016289224848151207,0.026159698143601418
1761915563149476900,6.281476806640625,-0.011524030938744545,-0.007672034204006195,0.015005314722657204
1761915563159531800,6.29153173828125,-0.006069077644497156,-0.03922596573829651,-0.002584597794339061
1761915563169585700,6.301585693359375,0.0020354539155960083,-0.055212389677762985,-0.028252942487597466
1761915563179639800,6.311639892578125,0.00785685796290636,-0.046395193785429,-0.04992415010929108
1761915563189693700,6.321693603515625,0.00669225724413991,-0.018334265798330307,-0.059773318469524384
1761915563199747800,6.331747802734375,-0.0014599448768422008,0.0036722328513860703,-0.0508384145796299
1761915563209801700,6.3418017578125,-0.010675281286239624,0.005195294506847858,-0.03293531388044357
1761915563219856600,6.351856689453125,-0.013648967258632183,-0.02147919312119484,-0.016813067719340324
1761915563229910500,6.36191064453125,-0.007203584536910057,-0.04370860010385513,-0.01236239355057478
1761915563239964700,6.371964599609375,0.002127599436789751,-0.041901908814907074,-0.02195696346461773
1761915563250018800,6.382018798828125,0.007168164476752281,-0.015543805435299873,-0.03455984219908714
1761915563260072700,6.39207275390625,0.001192829804494977,0.0028386632911860943,-0.027816716581583023
1761915563270126800,6.402126953125,-0.010786601342260838,0.005317800212651491,-0.017063139006495476
1761915563280180700,6.4121806640625,-0.020686103031039238,0.0004932174342684448,-0.003993143793195486
1761915563290235600,6.422235595703125,-0.021809957921504974,-0.0002516687090974301,-0.003756921272724867
1761915563300289500,6.43228955078125,-0.013486780226230621,0.0062248725444078445,-0.015591476112604141
1761915563310343700,6.44234375,-0.005854959599673748,0.007081345189362764,-0.030401315540075302
1761915563320397600,6.4523974609375,-0.005556153133511543,0.018928417935967445,-0.048768073320388794
1761915563330451700,6.46245166015625,-0.01576564647257328,0.028681179508566856,-0.052191831171512604
1761915563340505600,6.472505615234375,-0.026553580537438393,0.02117452770471573,-0.03653377667069435
1761915563350559700,6.482559814453125,-0.03671513870358467,0.0060331248678267,-0.01613795757293701
1761915563360614700,6.49261474609375,-0.03518035635352135,0.013043896295130253,0.00848563015460968
1761915563370668500,6.50266845703125,-0.03176005929708481,0.01257864199578762,0.022101307287812233
1761915563380722700,6.51272265625,-0.021769743412733078,-0.0019462381023913622,0.023250993341207504
1761915563390776600,6.522776611328125,-0.01501303818076849,-0.020561201497912407,0.015295865945518017
1761915563400830700,6.532830810546875,-0.005833920557051897,-0.019401926547288895,0.0037529265973716974
1761915563410884600,6.542884521484375,-0.006849650293588638,-0.0012173309223726392,-0.011855860240757465
1761915563420938800,6.552938720703125,-0.007144728675484657,0.016446884721517563,-0.012692092917859554
1761915563430994000,6.562993896484375,-0.01727512665092945,0.001612277701497078,-0.0020453077740967274
1761915563441047600,6.573047607421875,-0.03014671616256237,-0.02527952380478382,0.007758853491395712
1761915563451101700,6.583101806640625,-0.04031706228852272,-0.03666134178638458,0.01085877325385809
1761915563461155600,6.593155517578125,-0.039931438863277435,-0.04628999903798103,0.006001166999340057
1761915563471209700,6.603209716796875,-0.03371402248740196,-0.040581781417131424,-0.004336425103247166
1761915563481263600,6.613263671875,-0.03225966915488243,-0.019685819745063782,-0.006493052933365107
1761915563491317800,6.62331787109375,-0.013759221881628036,0.010633735917508602,-0.0006772418855689466
1761915563501373000,6.633373046875,0.0006740460521541536,0.025123728439211845,0.008431301452219486
1761915563511426600,6.643426513671875,-0.006907440721988678,0.010639861226081848,0.0207673292607069
1761915563521480700,6.653480712890625,-0.016081498935818672,-0.015659386292099953,0.03032541461288929
1761915563531534600,6.66353466796875,-0.02203153260052204,-0.03310016170144081,0.027162911370396614
1761915563541588700,6.673588623046875,-0.021634189411997795,-0.022639798000454903,0.012566391378641129
1761915563551642600,6.683642578125,-0.012405537068843842,0.000461259507574141,0.0014056164072826505
1761915563561696800,6.69369677734375,-0.0013723268639296293,0.01986105553805828,-0.0011414308100938797
1761915563571752000,6.703751953125,0.0062520368956029415,0.02761085517704487,0.0016058861510828137
1761915563581805800,6.713805908203125,0.018636800348758698,0.02611442469060421,0.009609750472009182
1761915563591859700,6.723859619140625,0.029257221147418022,0.014104367233812809,0.015363243408501148
1761915563601913600,6.73391357421875,0.02606009691953659,-0.006429936271160841,0.024470189586281776
1761915563611967700,6.7439677734375,0.01938088797032833,-0.022959111258387566,0.030218621715903282
1761915563622021600,6.754021728515625,0.007620369084179401,-0.023860059678554535,0.038781750947237015
1761915563632075800,6.76407568359375,-0.0014482269762083888,-0.024658741429448128,0.03633004426956177
1761915563642130700,6.774130615234375,-0.007478422485291958,-0.005026450380682945,0.026428410783410072
1761915563652184800,6.784184814453125,-0.007407582364976406,0.03671753406524658,0.014198110438883305
1761915563662238700,6.79423876953125,-0.00039654469583183527,0.068300761282444,0.011461978778243065
1761915563672292600,6.804292724609375,0.007889348082244396,0.08790908008813858,0.013574398122727871
1761915563682346800,6.8143466796875,0.00902944803237915,0.07209283858537674,0.006514624692499638
1761915563692400600,6.824400634765625,0.000609863898716867,0.04301165044307709,-0.010756507515907288
1761915563702455800,6.834455810546875,-0.008650479838252068,0.007345264777541161,-0.03443360701203346
1761915563712509700,6.844509765625,-0.025289377197623253,-0.009155681356787682,-0.07742821425199509
1761915563722563800,6.854563720703125,-0.03774444758892059,0.012646553106606007,-0.11627733707427979
1761915563732617700,6.86461767578125,-0.05148769170045853,0.02426139824092388,-0.13619326055049896
1761915563742671600,6.874671630859375,-0.05691441521048546,0.01017087884247303,-0.12188755720853806
1761915563752725500,6.8847255859375,-0.05492876097559929,-0.01209847442805767,-0.09050673246383667
1761915563762779600,6.894779541015625,-0.050160106271505356,-0.031384553760290146,-0.056300025433301926
1761915563772834800,6.904834716796875,-0.039931703358888626,-0.04856647178530693,-0.03551112115383148
1761915563782888700,6.914888671875,-0.0344780832529068,-0.05642998591065407,-0.03296327590942383
1761915563792942800,6.92494287109375,-0.02912166714668274,-0.03566771745681763,-0.040530648082494736
1761915563802996700,6.934996826171875,-0.020411532372236252,0.0014676681021228433,-0.03798679634928703
1761915563813050600,6.945050537109375,-0.017560617998242378,0.014858041889965534,-0.017908426001667976
1761915563823104500,6.9551044921875,-0.02244778536260128,0.005137504078447819,0.013108877465128899
1761915563833158700,6.96515869140625,-0.028750421479344368,-0.011695005930960178,0.03323358669877052
1761915563843213800,6.9752138671875,-0.032105736434459686,-0.024105336517095566,0.03477848693728447
1761915563853267700,6.985267822265625,-0.03434465825557709,-0.02841220051050186,0.020173178985714912
1761915563863321900,6.99532177734375,-0.027109382674098015,-0.010086989030241966,0.004748149774968624
1761915563873375700,7.005375732421875,-0.024886174127459526,0.020232301205396652,0.0015867113834246993
1761915563883430000,7.015429931640625,-0.014879613183438778,0.03735269978642464,0.01750309392809868
1761915563893483500,7.0254833984375,0.0019204054260626435,0.043297141790390015,0.0370674729347229
1761915563903537700,7.03553759765625,0.013601296581327915,0.03179095312952995,0.06366366147994995
1761915563913592800,7.0455927734375,0.02340865321457386,0.0180000402033329,0.0660671666264534
1761915563923646700,7.055646728515625,0.020311662927269936,-0.0012231898726895452,0.039795614778995514
1761915563933700900,7.065700927734375,0.01392886508256197,-0.015305985696613789,0.0022234732750803232
1761915563943754800,7.075754638671875,-0.003034672001376748,-0.020854681730270386,-0.03311347961425781
1761915563953809000,7.085808837890625,-0.006019809283316135,-0.03298591449856758,-0.04982215166091919
1761915563963862800,7.09586279296875,-0.0065503111109137535,-0.040757015347480774,-0.054480284452438354
1761915563973917700,7.105917724609375,0.0020160130225121975,-0.05042722076177597,-0.038954589515924454
1761915563983971800,7.115971923828125,0.012444951571524143,-0.06592628359794617,-0.015106248669326305
1761915563994021600,7.126021728515625,0.026037726551294327,-0.07149628549814224,-0.010718158446252346
1761915564004075500,7.136075439453125,0.036074113100767136,-0.07163344323635101,-0.02328747883439064
1761915564014129700,7.146129638671875,0.038056038320064545,-0.05604329705238342,-0.049072738736867905
1761915564024183600,7.15618359375,0.033489249646663666,-0.035869050770998,-0.06973407417535782
1761915564034237700,7.16623779296875,0.024157799780368805,-0.03211905434727669,-0.06685066968202591
1761915564044292600,7.176292724609375,0.016399214044213295,-0.02888704091310501,-0.032193623483181
1761915564054346500,7.186346435546875,0.01284815464168787,-0.010871023871004581,0.012028699740767479
1761915564064400600,7.196400634765625,0.01846982166171074,0.0036706349346786737,0.05650641769170761
1761915564074454500,7.20645458984375,0.02581987902522087,0.01690654456615448,0.07102996855974197
1761915564084508700,7.2165087890625,0.02900342270731926,0.02937466651201248,0.0656525120139122
1761915564094562600,7.2265625,0.031676437705755234,0.017298029735684395,0.034691136330366135
1761915564104616700,7.23661669921875,0.018726017326116562,-0.014811703003942966,0.013449762016534805
1761915564114671600,7.246671630859375,0.003721767570823431,-0.04629053175449371,0.004025101661682129
1761915564124725500,7.2567255859375,-0.017230652272701263,-0.07544761896133423,-0.002028263406828046
1761915564134779600,7.266779541015625,-0.024894697591662407,-0.08369782567024231,0.01067794393748045
1761915564144833500,7.27683349609375,-0.016265522688627243,-0.07493895292282104,0.0213585514575243
1761915564154887700,7.2868876953125,0.002413356676697731,-0.06143273413181305,0.025604961439967155
1761915564164941600,7.296941650390625,0.019392605870962143,-0.027461985126137733,0.017781393602490425
1761915564174995700,7.30699560546875,0.030968569219112396,0.009062737226486206,0.010812699794769287
1761915564185050400,7.31705029296875,0.034868769347667694,0.010882209055125713,0.01734090782701969
1761915564195104500,7.3271044921875,0.01967623271048069,0.005335110705345869,0.02527126856148243
1761915564205158700,7.33715869140625,0.008327172137796879,-0.016330502927303314,0.025115739554166794
1761915564215212500,7.347212646484375,0.006174006499350071,-0.02257082238793373,0.0215993020683527
1761915564225266700,7.3572666015625,0.008920257911086082,-0.03387168049812317,0.017909225076436996
1761915564235320600,7.367320556640625,0.0003755057114176452,-0.04909004643559456,0.018374213948845863
1761915564245374700,7.377374755859375,-0.0019744676537811756,-0.05077796056866646,0.024924257770180702
1761915564255429600,7.3874296875,-0.0008498146780766547,-0.040774062275886536,0.031190942972898483
1761915564265483500,7.3974833984375,-0.001365402713418007,-0.017661284655332565,0.037757497280836105
1761915564275537400,7.407537353515625,-0.000248472933890298,0.0030146983917802572,0.040403615683317184
1761915564285591600,7.417591552734375,0.000746750389225781,0.007480286993086338,0.04284253716468811
1761915564295645400,7.4276455078125,0.006217415910214186,-0.009400160051882267,0.033911362290382385
1761915564305699600,7.437699462890625,0.004280498716980219,-0.010772219859063625,0.021216338500380516
1761915564315754800,7.447754638671875,0.005535646807402372,-0.009823069907724857,0.0029856697656214237
1761915564325808600,7.45780859375,0.0011049455497413874,-0.004765992984175682,-0.010605772957205772
1761915564335862500,7.467862548828125,0.002743588527664542,-0.0021196098532527685,-0.014573083259165287
1761915564345916400,7.47791650390625,0.003891144646331668,-0.011151454411447048,-0.0014985607704147696
1761915564355970600,7.487970458984375,0.0015520902816206217,-0.018683405593037605,0.016105201095342636
1761915564366024400,7.4980244140625,-0.0006727144937030971,-0.02497512474656105,0.03056829608976841
1761915564376078600,7.50807861328125,-0.004706870764493942,-0.02245044708251953,0.03773832321166992
1761915564386133800,7.5181337890625,-0.008735700510442257,-0.018820559605956078,0.03887522593140602
1761915564396187600,7.528187744140625,-0.00635004136711359,-0.021269336342811584,0.03807414695620537
1761915564406241500,7.538241455078125,-0.004437359049916267,-0.029750704765319824,0.029896646738052368
1761915564416295400,7.54829541015625,0.004966262727975845,-0.050276752561330795,0.02316550724208355
1761915564426349600,7.558349609375,0.00751916877925396,-0.09514489024877548,0.012455071322619915
1761915564436403500,7.568403564453125,0.0012631373247131705,-0.13825081288814545,-0.0004732437082566321
1761915564446457600,7.57845751953125,-0.0035864789970219135,-0.13737410306930542,-0.011412444524466991
1761915564456512800,7.5885126953125,-0.0007827030494809151,-0.09208252280950546,-0.02654346078634262
1761915564466566700,7.598566650390625,0.004058124963194132,-0.04858165234327316,-0.020191287621855736
1761915564476620800,7.608620849609375,0.004203000571578741,-0.025077655911445618,0.003585413796827197
1761915564486674400,7.61867431640625,0.007396663539111614,-0.021623270586133003,0.035423506051301956
1761915564496728600,7.628728515625,0.0030269487760961056,-0.020625116303563118,0.05989422649145126
1761915564506782500,7.638782470703125,0.002382730133831501,-0.006985471583902836,0.06679048389196396
1761915564516836600,7.648836669921875,0.0043840957805514336,0.009219597093760967,0.059429239481687546
1761915564526891800,7.658891845703125,0.005553489550948143,0.02231409400701523,0.04496507719159126
1761915564536945700,7.668945556640625,0.011681689880788326,0.022188127040863037,0.027716582641005516
1761915564546999800,7.678999755859375,0.01525565143674612,0.00495081627741456,0.011378621682524681
1761915564557053400,7.689053466796875,0.014548050239682198,-0.019578494131565094,-0.0007720504072494805
1761915564567107600,7.699107666015625,0.014492389746010303,-0.04072559252381325,-0.005735650192946196
1761915564577161500,7.709161376953125,0.018554775044322014,-0.04309873282909393,-0.006678408943116665
1761915564587216600,7.719216552734375,0.025293106213212013,-0.026508040726184845,-0.0051686628721654415
1761915564597270500,7.7292705078125,0.02869476191699505,-0.0049284459091722965,-0.0014940333785489202
1761915564607324700,7.73932470703125,0.029932333156466484,0.013497432693839073,0.0046482812613248825
1761915564617378800,7.74937890625,0.031076425686478615,0.03265807777643204,0.018335863947868347
1761915564627432700,7.7594326171875,0.029274266213178635,0.03603443503379822,0.03671220690011978
1761915564637486600,7.769486572265625,0.02961168810725212,0.023303724825382233,0.05251700431108475
1761915564647540500,7.77954052734375,0.024770859628915787,0.005489041097462177,0.05829206854104996
1761915564657595600,7.789595703125,0.020778248086571693,-0.010640127584338188,0.04258554428815842
1761915564667649500,7.7996494140625,0.01121909823268652,-0.021192902699112892,0.010697918012738228
1761915564677703700,7.80970361328125,0.0020485036075115204,-0.039022501558065414,-0.024598287418484688
1761915564687757600,7.819757568359375,-0.0017145430902019143,-0.054559383541345596,-0.05564994737505913
1761915564697811700,7.829811767578125,0.007174023427069187,-0.059787433594465256,-0.07138283550739288
1761915564707865600,7.839865478515625,0.014511298388242722,-0.04446786642074585,-0.06287004053592682
1761915564717919500,7.84991943359375,0.01902162842452526,-0.02190370112657547,-0.03248976543545723
1761915564727974700,7.859974609375,0.014020211063325405,-0.00005352953667170368,0.004460528492927551
1761915564738028500,7.870028564453125,0.006118878722190857,0.010027334094047546,0.03460005670785904
1761915564748082700,7.880082763671875,0.0038253646343946457,0.014515559189021587,0.04914331063628197
1761915564758136600,7.890136474609375,0.004318315535783768,0.016169648617506027,0.04604978486895561
1761915564768190700,7.900190673828125,-0.0011547466274350882,0.02521294541656971,0.033299099653959274
1761915564778244600,7.91024462890625,-0.004959338344633579,0.03166711702942848,0.01775476150214672
1761915564788298500,7.920298583984375,-0.005364671815186739,0.018741464242339134,0.004308462142944336
1761915564798353700,7.930353759765625,-0.007637945935130119,-0.006395847536623478,-0.003225354477763176
1761915564808407600,7.940407470703125,-0.0025774072855710983,-0.02672135829925537,-0.005696501582860947
1761915564818461700,7.950461669921875,0.006304501090198755,-0.048051148653030396,-0.017545970156788826
1761915564828515600,7.960515625,0.012582104653120041,-0.056422796100378036,-0.026223348453640938
1761915564838569700,7.97056982421875,0.010733604431152344,-0.04339754208922386,-0.02901327610015869
1761915564848623600,7.98062353515625,0.0020269318483769894,-0.022099975496530533,-0.018618425354361534
1761915564858678500,7.990678466796875,-0.008723184466362,-0.006665625609457493,0.006426740437746048
1761915564868732700,8.000732666015624,-0.009429986588656902,0.0031217574141919613,0.045827675610780716
1761915564878786600,8.01078662109375,-0.004198473412543535,0.006984406150877476,0.0810338631272316
1761915564888840700,8.0208408203125,0.007112504448741674,0.007251254748553038,0.10777653008699417
1761915564898894600,8.03089453125,0.013589045964181423,0.01678643748164177,0.10424118489027023
1761915564908948700,8.04094873046875,0.01525671686977148,0.016894826665520668,0.07226380705833435
1761915564919002600,8.051002685546875,0.004188619554042816,0.006835269276052713,0.025225995108485222
1761915564929057500,8.0610576171875,-0.0008793757879175246,-0.007799333427101374,-0.019085010513663292
1761915564939111700,8.071111572265625,-0.004603273700922728,-0.024220651015639305,-0.04000334069132805
1761915564949165600,8.08116552734375,-0.005541771650314331,-0.044197555631399155,-0.02954271249473095
1761915564959219700,8.0912197265625,0.0001459412305848673,-0.03514653444290161,-0.004108458757400513
1761915564969273600,8.101273681640626,0.005250155925750732,0.0014887070283293724,0.025239042937755585
1761915564979327700,8.11132763671875,0.022170815616846085,0.04282709211111069,0.05257426202297211
1761915564989381600,8.121381591796874,0.030970165506005287,0.07853209227323532,0.06687144190073013
1761915564999436500,8.1314365234375,0.04307130351662636,0.1280975192785263,0.07791690528392792
1761915565009490400,8.141490478515625,0.058697666972875595,0.16577617824077606,0.10182676464319229
1761915565019544600,8.151544677734375,0.06517554074525833,0.17683948576450348,0.1235235333442688
1761915565029598500,8.161598388671875,0.061587464064359665,0.17242689430713654,0.14505626261234283
1761915565039652600,8.171652587890625,0.05572398379445076,0.14585654437541962,0.14132091403007507
1761915565049706500,8.18170654296875,0.04577894136309624,0.09311369806528091,0.10907402634620667
1761915565059760600,8.1917607421875,0.019904732704162598,0.0314820259809494,0.0645824521780014
1761915565069815300,8.201815185546875,0.003999801818281412,-0.01660933718085289,0.003082076320424676
1761915565079869400,8.211869384765626,-0.0004652542411349714,-0.040525320917367935,-0.054176151752471924
1761915565089923600,8.221923583984376,-0.003992078360170126,-0.052925266325473785,-0.09375046193599701
1761915565099977500,8.2319775390625,-0.005938583053648472,-0.055019840598106384,-0.10128134489059448
1761915565110031600,8.242031494140624,-0.0025395904667675495,-0.057610031217336655,-0.07769559323787689
1761915565120085500,8.25208544921875,0.0017235978739336133,-0.047810133546590805,-0.039212651550769806
1761915565130139600,8.2621396484375,0.010159692727029324,-0.034208305180072784,0.008375641889870167
1761915565140194300,8.2721943359375,0.016947558149695396,-0.010884605348110199,0.04568573087453842
1761915565150248400,8.28224853515625,0.01637444645166397,0.029455093666911125,0.07262067496776581
1761915565160302300,8.29230224609375,0.012929114513099194,0.06291291862726212,0.08768510818481445
1761915565170356500,8.3023564453125,0.006592921447008848,0.06565731018781662,0.09294192492961884
1761915565180410600,8.31241064453125,-0.0009736517095007002,0.046304646879434586,0.07792329043149948
1761915565190464500,8.322464599609376,0.0009076052810996771,0.009442503564059734,0.04986529424786568
1761915565200519700,8.332519775390624,0.008531436324119568,-0.019898872822523117,0.01164600346237421
1761915565210573300,8.3425732421875,0.012480637989938259,-0.044228445738554,-0.021198496222496033
1761915565220627500,8.35262744140625,0.01056289579719305,-0.06469883769750595,-0.050984352827072144
1761915565230681300,8.362681396484374,0.005345230456441641,-0.06799502670764923,-0.063014917075634
1761915565240735500,8.372735595703125,-0.0013582120882347226,-0.05275775492191315,-0.055094677954912186
1761915565250789400,8.382789306640625,-0.007316235918551683,-0.021389711648225784,-0.02165629342198372
1761915565260843500,8.392843505859375,-0.007033142261207104,0.02719114162027836,0.028560005128383636
1761915565270898700,8.402898681640625,0.0015305186389014125,0.07260868698358536,0.07800851762294769
1761915565280952600,8.41295263671875,0.01395629532635212,0.09019327908754349,0.09936360269784927
1761915565291006500,8.42300634765625,0.022123411297798157,0.07458236068487167,0.09439308196306229
1761915565301060400,8.433060302734376,0.02617940679192543,0.04493871331214905,0.05158170312643051
1761915565311114500,8.443114501953126,0.033917222172021866,0.0022892532870173454,-0.0023366576060652733
1761915565321168400,8.45316845703125,0.029394106939435005,-0.02791871689260006,-0.05203603580594063
1761915565331222500,8.463222412109374,0.010470750741660595,-0.04772944003343582,-0.07859814167022705
1761915565341277700,8.473277587890625,-0.0012141350889578462,-0.040758613497018814,-0.08200325816869736
1761915565351331600,8.48333154296875,-0.010775682516396046,-0.02311703749001026,-0.07082304358482361
1761915565361385500,8.493385498046875,-0.007134075742214918,-0.012840697541832924,-0.04709800332784653
1761915565371439400,8.503439453125,0.0043563987128436565,-0.021280787885189056,-0.011144796386361122
1761915565381493500,8.513493408203125,0.013231649063527584,-0.03045670874416828,0.027636688202619553
1761915565391547400,8.52354736328125,0.021143900230526924,-0.02286030910909176,0.05534980818629265
1761915565401601500,8.5336015625,0.013941914774477482,-0.013628194108605385,0.07348513603210449
1761915565411656700,8.54365673828125,-0.004820853937417269,-0.0025065671652555466,0.08161576837301254
1761915565421710600,8.553710693359376,-0.023868581280112267,-0.006699714343994856,0.0747581273317337
1761915565431764500,8.563764404296874,-0.033427465707063675,-0.024350879713892937,0.05974402278661728
1761915565441818400,8.573818359375,-0.031134748831391335,-0.03386155888438225,0.03477981686592102
1761915565451872500,8.58387255859375,-0.02528165467083454,-0.03313904628157616,0.015871906653046608
1761915565461926400,8.593926513671875,-0.01677658222615719,-0.02737116999924183,0.00953811127692461
1761915565471981600,8.603981689453125,-0.003094060579314828,-0.011442005634307861,0.010544786229729652
1761915565482035500,8.614035400390625,0.017492974177002907,0.003239469137042761,0.009355152025818825
1761915565492089600,8.624089599609375,0.02779407985508442,0.025894980877637863,0.008460596203804016
1761915565502143700,8.634143798828125,0.028307005763053894,0.029568811878561974,0.008927448652684689
1761915565512197400,8.644197265625,0.02208026871085167,0.014149108901619911,0.017130516469478607
1761915565522251500,8.65425146484375,0.015497999265789986,-0.008734369650483131,0.023628097027540207
1761915565532305400,8.664305419921876,0.015085475519299507,-0.016937438398599625,0.023025691509246826
1761915565542360600,8.674360595703124,0.016953682526946068,-0.005142830312252045,0.019483420997858047
1761915565552414500,8.68441455078125,0.02287122793495655,0.00555109279230237,0.011598865501582623
1761915565562468600,8.694468505859374,0.030834078788757324,0.017769942060112953,-0.0016407734947279096
1761915565572522500,8.7045224609375,0.03496703878045082,0.02335512451827526,-0.007230216171592474
1761915565582576600,8.71457666015625,0.03164341300725937,0.02052631415426731,-0.007919441908597946
1761915565592630500,8.724630615234375,0.02269119769334793,0.0073175677098333836,-0.004001399502158165
1761915565602684400,8.734684326171875,0.013491041027009487,-0.008904279209673405,0.013834056444466114
1761915565612739600,8.744739501953125,0.003677559085190296,-0.02261503040790558,0.02311570569872856
1761915565622793500,8.75479345703125,-0.005308745428919792,-0.022122878581285477,0.03268204629421234
1761915565632847600,8.76484765625,-0.0005129248020239174,-0.01882588490843773,0.02889156900346279
1761915565642901500,8.774901611328126,0.0018224010709673166,-0.009977532550692558,0.016442090272903442
1761915565652955600,8.78495556640625,-0.006359096150845289,-0.003565173828974366,0.0019467707024887204
1761915565663009300,8.79500927734375,-0.019528161734342575,-0.014194915071129799,-0.01085690874606371
1761915565673063400,8.8050634765625,-0.02954510971903801,-0.03954235091805458,-0.016262326389551163
1761915565683118600,8.81511865234375,-0.03466903045773506,-0.060202885419130325,-0.015909457579255104
1761915565693172500,8.82517236328125,-0.031557925045490265,-0.062062039971351624,-0.01170326117426157
1761915565703226600,8.8352265625,-0.016930779442191124,-0.04737630486488342,-0.007229949813336134
1761915565713280500,8.845280517578125,-0.014328605495393276,-0.03411109745502472,-0.015334747731685638
1761915565723334700,8.855334716796875,-0.00424374733120203,-0.029763221740722656,-0.015598666854202747
1761915565733388500,8.865388427734375,-0.001454884884878993,-0.017435183748602867,-0.015504657290875912
1761915565743443500,8.875443359375,-0.009008408524096012,-0.0011060107499361038,0.0004961469094268978
1761915565753497600,8.88549755859375,-0.01146650593727827,0.009669938124716282,0.023251526057720184
1761915565763551500,8.895551513671874,-0.014691594056785107,0.014796522445976734,0.04548626020550728
1761915565773605600,8.905605712890624,-0.008323709480464458,0.007705323863774538,0.056049421429634094
1761915565783659500,8.915659423828124,-0.004210191313177347,-0.015087872743606567,0.05013427510857582
1761915565793713700,8.925713623046875,0.001273523666895926,-0.01775902323424816,0.03538382425904274
1761915565803767600,8.935767578125,0.002344646956771612,-0.002532399957999587,0.0199220422655344
1761915565813822500,8.945822509765625,-0.0008721852791495621,0.015723302960395813,0.012834838591516018
1761915565823876600,8.955876708984375,-0.002276203827932477,0.022533537819981575,0.013432185165584087
1761915565833930500,8.965930419921875,-0.0070978570729494095,0.017208281904459,0.022062957286834717
1761915565843984600,8.975984619140625,-0.005389172583818436,-0.0070677632465958595,0.02370399795472622
1761915565854038500,8.98603857421875,-0.0035896748304367065,-0.035656798630952835,0.025839053094387054
1761915565864092700,8.9960927734375,-0.008286958560347557,-0.024633707478642464,0.028915271162986755
1761915565874146600,9.006146484375,-0.013372264802455902,0.009269931353628635,0.04873877763748169
1761915565884201500,9.016201416015624,-0.021518075838685036,0.05113189294934273,0.08983933925628662
1761915565894255400,9.02625537109375,-0.027361582964658737,0.0653824657201767,0.12609748542308807
1761915565904309500,9.0363095703125,-0.03610580787062645,0.04219592362642288,0.13801193237304688
1761915565914363600,9.04636376953125,-0.034037861973047256,0.0021997711155563593,0.12792867422103882
1761915565924417500,9.05641748046875,-0.038862444460392,-0.03422508016228676,0.0975491926074028
1761915565934471700,9.0664716796875,-0.0631619244813919,-0.07483003288507462,0.054422762244939804
1761915565944525600,9.076525634765625,-0.08040083199739456,-0.11581049114465714,0.011776232160627842
1761915565954580500,9.08658056640625,-0.0749027356505394,-0.13839969038963318,-0.02298973873257637
1761915565964634400,9.09663427734375,-0.06820221990346909,-0.12004358321428299,-0.04693448543548584
1761915565974688500,9.1066884765625,-0.04188140481710434,-0.0694565698504448,-0.053416620939970016
1761915565984742400,9.116742431640626,-0.015423164702951908,-0.012201272882521152,-0.04033597186207771
1761915565994799600,9.126799560546875,-0.003938016481697559,0.013134710490703583,-0.009345564991235733
1761915566004853800,9.136853759765625,0.002258094260469079,0.008295746520161629,0.03657212480902672
1761915566014908000,9.146907958984375,0.009269931353628635,0.004459729418158531,0.07551126927137375
1761915566024962600,9.156962646484375,0.01672917976975441,0.008192682638764381,0.09672441333532333
1761915566035016700,9.1670166015625,0.028482507914304733,0.02220437116920948,0.10933501273393631
1761915566045070600,9.177070556640626,0.029774939641356468,0.031562719494104385,0.11127219349145889
1761915566055124700,9.187124755859376,0.021564681082963943,0.013828996568918228,0.09574463218450546
1761915566065178600,9.1971787109375,0.012968529015779495,-0.006303968373686075,0.06768050789833069
1761915566075232800,9.207232666015624,0.0030953921377658844,-0.01732226461172104,0.0324237197637558
1761915566085286700,9.21728662109375,-0.005091697443276644,-0.01828606240451336,-0.0018940401496365666
1761915566095341600,9.227341552734375,-0.0033787523861974478,-0.01709296740591526,-0.02209331840276718
1761915566105395700,9.237395751953125,0.0036908749025315046,-0.016693759709596634,-0.02389334887266159
1761915566115449600,9.24744970703125,0.0029345371294766665,-0.015223960392177105,-0.007994011044502258
1761915566125503700,9.257503662109375,0.0033952640369534492,-0.023063240572810173,0.01792999729514122
1761915566135557600,9.2675576171875,-0.0016040218761190772,-0.009766610339283943,0.04298288747668266
1761915566145611800,9.27761181640625,0.0004972121678292751,0.01601598411798477,0.05692906305193901
1761915566155667000,9.2876669921875,0.004797152243554592,0.03846723213791847,0.059239089488983154
1761915566165720600,9.297720458984376,0.008249673992395401,0.03846536576747894,0.055091213434934616
1761915566175774700,9.307774658203124,0.013527526520192623,0.025726668536663055,0.040053676813840866
1761915566185828600,9.31782861328125,0.015094530768692493,0.023851003497838974,0.019029617309570312
1761915566195882800,9.3278828125,0.01956198364496231,0.03182211145758629,-0.00592526700347662
1761915566205936600,9.3379365234375,0.017780061811208725,0.031063377857208252,-0.014698518440127373
1761915566215990800,9.34799072265625,0.012003932148218155,0.006825948134064674,-0.009486446157097816
1761915566226045700,9.358045654296875,0.0026812704745680094,-0.02394554577767849,0.00424135010689497
1761915566236099800,9.368099853515625,-0.0016263924771919847,-0.039017971605062485,0.007483216468244791
1761915566246153700,9.37815380859375,0.011550395749509335,-0.03406742215156555,0.0016445019282400608
1761915566256208600,9.388208740234376,0.024954618886113167,-0.003064499469473958,-0.013167200610041618
1761915566266262800,9.3982626953125,0.03844752535223961,0.016515860334038734,-0.020246949046850204
1761915566276316700,9.408316650390624,0.037637390196323395,0.029042303562164307,-0.010496316477656364
1761915566286370800,9.418370849609374,0.024467526003718376,0.035227496176958084,0.0004063983797095716
1761915566296424700,9.4284248046875,0.011887019500136375,0.03610207885503769,0.019100990146398544
1761915566306479600,9.438479736328125,0.00703900121152401,0.04511954262852669,0.04074370115995407
1761915566316533800,9.44853369140625,0.009241435676813126,0.06533080339431763,0.06578194350004196
1761915566326587600,9.458587646484375,0.010449711233377457,0.08652769774198532,0.08043918013572693
1761915566336641800,9.468641845703125,0.001133174984715879,0.07953743636608124,0.08321286737918854
1761915566346695700,9.47869580078125,-0.01667671464383602,0.03429805114865303,0.07568224519491196
1761915566356749800,9.488749755859375,-0.020327908918261528,-0.030952323228120804,0.05224908888339996
1761915566366803700,9.4988037109375,-0.017787253484129906,-0.07916246354579926,0.01913587749004364
1761915566376858600,9.508858642578126,-0.00899642426520586,-0.09588658064603806,-0.007907990366220474
1761915566386912800,9.518912841796874,-0.009751697070896626,-0.08437826484441757,-0.0231093131005764
1761915566396966700,9.528966552734374,-0.016876718029379845,-0.04778829589486122,-0.021576132625341415
1761915566407020800,9.539020751953124,-0.02251409739255905,-0.012433500029146671,-0.008727977983653545
1761915566417074700,9.54907470703125,-0.025135979056358337,0.0022953785955905914,0.006108226254582405
1761915566427128800,9.55912890625,-0.03248044475913048,0.00019441076437942684,0.021032048389315605
1761915566437182700,9.5691826171875,-0.02961594983935356,-0.005313538946211338,0.03749144822359085
1761915566447237600,9.579237548828125,-0.02130049467086792,-0.008794024586677551,0.04354747757315636
1761915566457291500,9.58929150390625,-0.018703114241361618,0.011990349739789963,0.046370960772037506
1761915566467345700,9.599345703125,-0.014032994396984577,0.03255954012274742,0.05239902436733246
1761915566477399800,9.60939990234375,-0.01347346417605877,0.03564428165555,0.04595604166388512
1761915566487453700,9.61945361328125,-0.00618306128308177,0.021931663155555725,0.04204731807112694
1761915566497507800,9.6295078125,-0.0014985607704147696,0.006970824208110571,0.02888278104364872
1761915566507561700,9.639561767578124,-0.00012596751912496984,0.0027020431589335203,0.011342935264110565
1761915566517616600,9.64961669921875,-0.006334861274808645,0.005596633069217205,-0.0032764871139079332
1761915566527670500,9.65967041015625,-0.023315442726016045,0.021519672125577927,-0.006822485942393541
1761915566537724700,9.669724609375,-0.0337451808154583,0.039076294749975204,0.006632070057094097
1761915566547778600,9.679778564453125,-0.03593163564801216,0.04373389855027199,0.02581189014017582
1761915566557832700,9.689832763671875,-0.03549940511584282,0.041608162224292755,0.04027072340250015
1761915566567886800,9.699886962890625,-0.029882265254855156,0.03542669862508774,0.052315935492515564
1761915566577940700,9.709940673828125,-0.03146897628903389,0.028269721195101738,0.050984352827072144
1761915566587995600,9.71999560546875,-0.03987843915820122,0.030438067391514778,0.04411979019641876
1761915566598049500,9.730049560546876,-0.0548400804400444,0.028751753270626068,0.04115462675690651
1761915566608103700,9.740103759765624,-0.055087488144636154,0.017297763377428055,0.037040308117866516
1761915566618157600,9.750157470703124,-0.04168166592717171,0.0028991170693188906,0.016288958489894867
1761915566628211700,9.760211669921874,-0.027228157967329025,0.0016106797847896814,-0.009009473957121372
1761915566638265600,9.770265625,-0.02833896316587925,0.008446748368442059,-0.0263059064745903
1761915566648319700,9.78031982421875,-0.04334161430597305,0.007577758282423019,-0.027110179886221886
1761915566658375000,9.790375,-0.06041833758354187,0.0030900659039616585,-0.017073791474103928
1761915566668428500,9.800428466796875,-0.06779449433088303,-0.0062464443035423756,0.0028490496333688498
1761915566678482700,9.810482666015625,-0.05962098762392998,-0.017765149474143982,0.021154819056391716
1761915566688536600,9.82053662109375,-0.037280526012182236,-0.018675416707992554,0.0410558246076107
1761915566698590700,9.8305908203125,-0.018131332471966743,0.006993727292865515,0.04277782514691353
1761915566708644600,9.84064453125,-0.013699300587177277,0.03152143955230713,0.042448125779628754
1761915566718699800,9.85069970703125,-0.022118352353572845,0.015398663468658924,0.0420214869081974
1761915566728754000,9.86075390625,-0.03298484906554222,-0.025664616376161575,0.03172570466995239
1761915566738807600,9.8708076171875,-0.032095618546009064,-0.06668608635663986,0.009957559406757355
1761915566748861700,9.88086181640625,-0.021202223375439644,-0.07675869017839432,-0.013159744441509247
1761915566758915600,9.89091552734375,-0.015596270561218262,-0.0547197051346302,-0.022299446165561676
1761915566768969700,9.9009697265625,-0.012672385200858116,-0.017544372007250786,-0.01649135909974575
1761915566779023600,9.911023681640625,-0.00851332675665617,0.019596338272094727,0.006730340886861086
1761915566789078800,9.921078857421875,-0.0006900250446051359,0.03425384312868118,0.028775988146662712
1761915566799133000,9.9311328125,0.005394765175879002,0.0301994476467371,0.03455504775047302
1761915566809186800,9.941186767578126,0.01715155690908432,0.021193169057369232,0.019236279651522636
1761915566819240700,9.95124072265625,0.02363821677863598,0.009187106974422932,-0.0018359832465648651
1761915566829294600,9.961294677734376,0.02237934060394764,0.0018407768802717328,-0.016521451994776726
1761915566839348700,9.9713486328125,0.025724804028868675,-0.004707936197519302,-0.02750113233923912
1761915566849402600,9.981402587890624,0.033547572791576385,0.009810286574065685,-0.030472155660390854
1761915566859457800,9.991457763671875,0.041183121502399445,0.032459672540426254,-0.02792963571846485
1761915566869511700,10.00151171875,0.03688158467411995,0.04709800332784653,-0.012376242317259312
1761915566879565800,10.01156591796875,0.021191304549574852,0.032053008675575256,0.006845921743661165
1761915566889619700,10.02161962890625,0.012048407457768917,0.01793372631072998,0.023126091808080673
1761915566899673600,10.031673583984375,0.00908457487821579,0.002906840294599533,0.02654319442808628
1761915566909727700,10.041727783203125,0.0017560884589329362,-0.015517973341047764,0.01955532468855381
1761915566919781600,10.05178173828125,0.0030328077264130116,-0.030720096081495285,0.014049505814909935
1761915566929836800,10.0618369140625,0.0059995693154633045,-0.03321973979473114,0.007939149625599384
1761915566939890700,10.071890625,0.014808773063123226,-0.019454391673207283,0.0006625944515690207
1761915566949944800,10.08194482421875,0.016340091824531555,-0.007604656275361776,-0.007722900714725256
1761915566959998700,10.091998779296874,0.008159392513334751,-0.01221352256834507,-0.014200507663190365
1761915566970052600,10.102052490234374,0.001073786523193121,-0.02160675823688507,-0.026584206148982048
1761915566980106800,10.112106689453125,-0.0017121462151408195,-0.021274395287036896,-0.035646677017211914
1761915566990157300,10.1221572265625,0.006028864067047834,-0.0033217607997357845,-0.03411562740802765
1761915567000212500,10.13221240234375,0.017601896077394485,0.008048072457313538,-0.02353435382246971
1761915567010266400,10.142266357421875,0.019512981176376343,0.010522415861487389,-0.005607551895081997
1761915567020320500,10.152320556640625,0.018341723829507828,-0.003359045134857297,0.011264372617006302
1761915567030374400,10.16237451171875,0.025892583653330803,0.010095244273543358,0.01954573765397072
1761915567040428300,10.17242822265625,0.036497823894023895,0.015931295230984688,0.012343751266598701
1761915567050482200,10.182482177734375,0.025596706196665764,-0.028443092480301857,0.02004401572048664
1761915567060536300,10.192536376953125,0.02930835448205471,-0.12313791364431381,0.043353065848350525
1761915567070591500,10.202591552734376,0.039500802755355835,-0.22155636548995972,0.04560184106230736
1761915567080645400,10.212645263671876,0.03404265642166138,-0.3196512460708618,0.03501550853252411
1761915567090699500,10.222699462890626,0.041309889405965805,-0.4017767310142517,0.02587074600160122
1761915567100753400,10.23275341796875,0.03981399163603783,-0.42352065443992615,0.0025651566684246063
1761915567110807300,10.242807373046874,0.019646938890218735,-0.38687074184417725,-0.019843479618430138
1761915567120861200,10.252861083984374,0.013117932714521885,-0.3376145362854004,-0.026369821280241013
1761915567130915300,10.262915283203125,0.021614747121930122,-0.22407305240631104,-0.013431918807327747
1761915567140970200,10.27297021484375,0.028241490945219994,-0.07984183728694916,-0.015312910079956055
1761915567151024400,10.2830244140625,0.03284795954823494,0.05036383867263794,-0.025710688903927803
1761915567161078500,10.29307861328125,0.039443813264369965,0.12275281548500061,-0.023073360323905945
1761915567171132400,10.30313232421875,0.045474275946617126,0.1180398240685463,-0.01251126453280449
1761915567181186600,10.3131865234375,0.042570628225803375,0.07836510986089706,0.009788182564079762
1761915567191240200,10.323240234375,0.04664713144302368,0.06091395020484924,0.008500277064740658
