time,seconds_elapsed,z,y,x
1761916168764134100,0.121134033203125,0.12308277431130409,0.007004591807239922,-0.027865546720847487
1761916168774190000,0.131190185546875,0.2086333980858326,0.014394025063468142,-0.05987893383614719
1761916168784245200,0.141245361328125,0.11191080743372439,-0.0028047403810487594,-0.026749913629144428
1761916168794300400,0.151300537109375,-0.015510872864723205,0.0028866653479723025,0.01173851471915841
1761916168804355300,0.161355224609375,0.05769698668718338,0.01363417172305053,-0.00849836375415325
1761916168814411300,0.171411376953125,0.1723562160462141,0.010829978189629037,-0.04976809338405728
1761916168824466200,0.181466064453125,0.12949907109439374,0.005020095467625651,-0.03960698404945433
1761916168834521300,0.191521240234375,0.03340893312692642,-0.0008676970582426292,-0.0015565817922353743
1761916168844576300,0.201576171875,0.046181320938467975,-0.0015241973387514008,-0.0008319938447326421
1761916168854632400,0.211632568359375,0.11394903526306152,0.009480438160640188,-0.03766330263577401
1761916168864687000,0.22168701171875,0.14140695103108883,0.0249365646138438,-0.04912709206677973
1761916168874742300,0.2317421875,0.08412322131991386,0.023650086733570788,-0.020065613559633492
1761916168884797400,0.24179736328125,0.05040507611334324,0.015040440058091189,-0.0003058510787785053
1761916168894853400,0.251853271484375,0.0993143607109785,0.019687838888959957,-0.02001125302389264
1761916168904908300,0.261908203125,0.14154957437217236,0.01292306316998438,-0.034201398678869004
1761916168914963200,0.271963134765625,0.09132979169785976,-0.0019026193217519902,-0.02447305473834276
1761916168925018400,0.282018310546875,0.05045242238640785,-0.009737207666994072,-0.0031148440849035975
1761916168935074300,0.29207421875,0.07241466334760188,0.0071535421411215785,-0.01187251636236906
1761916168945129500,0.30212939453125,0.1074228483647108,-0.004012170808896189,-0.022551292895525692
1761916168955184000,0.31218408203125,0.10115969631671905,0.002343714723578887,-0.01704180875904858
1761916168965239300,0.3222392578125,0.10819500178098677,0.006077559498150367,-0.013934855719655751
1761916168975295200,0.332295166015625,0.08917232140302657,-0.0035084248211293013,-0.015454612632840871
1761916168985350400,0.342350341796875,0.06835632786750793,0.005592453137127449,-0.016996873638778925
1761916168995405300,0.3524052734375,0.10381985543668269,0.016791304596699773,-0.026716595881432294
1761916169005460200,0.362460205078125,0.11116671106815337,0.007168893832236062,-0.024544293343648313
1761916169015516200,0.37251611328125,0.08154372622072696,0.003143253903702134,-0.029416721685603258
1761916169025571300,0.3825712890625,0.08662555952966212,0.0038972677334444595,-0.018551482669636608
1761916169035626200,0.392626220703125,0.10518939022421836,0.005242098479630658,-0.01764182047881186
1761916169045681200,0.40268115234375,0.09756839382648468,0.006975717339204857,-0.02483158585242927
1761916169055737300,0.4127373046875,0.09338380161821842,0.0019918622287397737,-0.017576792418584227
1761916169065792300,0.422792236328125,0.09218085556924342,0.003155393007711973,-0.014788842200487852
1761916169075847400,0.432847412109375,0.0957499462276697,0.007477266803308157,-0.017595935510471464
1761916169085903000,0.442903076171875,0.10024082790613174,0.008459926873329094,-0.022111367108300327
1761916169095958300,0.452958251953125,0.10308686498701572,0.00342026704706368,-0.02335449903719127
1761916169106013200,0.46301318359375,0.08198504024744033,0.0038368770324275826,-0.01568074953891337
1761916169116068400,0.473068359375,0.0863128403186798,0.010270268797501921,-0.020437588677182792
1761916169126124300,0.483124267578125,0.10546294646859168,0.007847625352506292,-0.02637384685836732
1761916169136179200,0.49317919921875,0.08902502188682555,0.012032184453087392,-0.019378800339251757
1761916169146234400,0.503234375,0.0986217022716999,0.015919139713427285,-0.01788059767074883
1761916169156289300,0.513289306640625,0.09772270760536193,0.0000876714335870929,-0.020702450158447027
1761916169166345500,0.523345458984375,0.07944061646163462,-0.0061624704357818695,-0.0158132898773998
1761916169176400100,0.533400146484375,0.07941840462982654,0.013659451153135159,-0.01742350155301392
1761916169186455300,0.543455322265625,0.1115881513506174,0.023465074139041826,-0.02053242735378444
1761916169196510200,0.55351025390625,0.1042553242444992,0.013818498189345699,-0.029498262489214538
1761916169206566400,0.56356640625,0.06772329066097736,-0.001645246456377208,-0.016013196363672613
1761916169216621000,0.57362109375,0.09195639916360378,-0.009330764024262316,-0.01648519778959453
1761916169226676200,0.58367626953125,0.11172434495091438,0.003101928662759019,-0.023456936498358845
1761916169236731400,0.5937314453125,0.10531272434294223,0.004467743973113829,-0.01797192921601236
1761916169246787300,0.603787353515625,0.06835106717050075,0.007233868235180852,-0.009872136325389146
1761916169256842500,0.613842529296875,0.07400865454077721,0.006746805095800664,-0.02139890799000859
1761916169266897200,0.623897216796875,0.11110884340107441,0.007729946939722867,-0.029782193997129797
1761916169276952300,0.633952392578125,0.11007073252499103,0.012444745026063173,-0.026031536226719616
1761916169287008300,0.64400830078125,0.09390110349059104,0.01283525473907939,-0.011983283260464668
1761916169297063400,0.6540634765625,0.09358663071393966,0.004644562986388337,-0.01638750956878066
1761916169307118000,0.6641181640625,0.10614742160141467,-0.00028638261826126836,-0.016252923403680324
1761916169317173200,0.67417333984375,0.11020575708150863,0.00663102923326951,-0.026549787947162985
1761916169327229200,0.684229248046875,0.09705927526056767,0.004717075666750315,-0.017902078850194812
1761916169337284400,0.694284423828125,0.08267769868671894,-0.012363043250603369,-0.008370937982201575
1761916169347339300,0.70433935546875,0.09027882134020328,-0.0030153560618258776,-0.0065649114735424514
1761916169357394200,0.714394287109375,0.11062485927641391,0.006252657482618815,-0.010979951436817646
1761916169367450000,0.7244501953125,0.10374620567858218,0.010036453191761392,-0.01823313743546605
1761916169377505300,0.73450537109375,0.08801964423656464,0.013484632300701923,-0.019954846661537885
1761916169387560400,0.744560546875,0.08650748610794544,0.010252282191306585,-0.0182145788654685
1761916169397615000,0.754614990234375,0.09982698640823363,0.013539865052700042,-0.01914104606062174
1761916169407671300,0.76467138671875,0.09116554104685783,0.01079002977173077,-0.019855624070763588
1761916169417726200,0.774726318359375,0.5789876364350318,-0.01730646246104734,-0.008877133938670158
1761916169427781400,0.784781494140625,0.9088508744418621,0.046021851493860594,0.017631299084797502
1761916169437836300,0.794836181640625,-1.2406816131293772,0.09285041626072488,-0.0018968465972691773
1761916169447892200,0.804892333984375,-0.8482833007544278,-0.06101436304028611,-0.1126608951486647
1761916169457947100,0.814947021484375,0.7122253095358609,-0.04937381966973189,-0.10807451720647514
1761916169468002300,0.825002197265625,0.7106032612919807,0.07223286790675483,0.011566373022645711
1761916169478057500,0.835057373046875,-0.20443886900544164,-0.04866684501073323,0.1300667149145156
1761916169488113200,0.845113037109375,-0.3486433418005705,-0.02716407250416232,0.04710121226236224
1761916169498168300,0.855168212890625,0.3576099075883627,0.0759449472324457,-0.09614047991521656
1761916169508223200,0.86522314453125,0.6243547183811664,0.02634779681836953,-0.1154334286019206
1761916169518278400,0.8752783203125,-0.0818248812496662,-0.023609199884044935,0.0048221594594419
1761916169528334300,0.885334228515625,-0.3204787390679121,-0.005102686013185302,0.06466602198220789
1761916169538389200,0.89538916015625,0.2522071668744087,0.0020452335296809905,-0.03574110240153968
1761916169548444200,0.905444091796875,0.36567981679737566,0.016133555357309523,-0.09292546339146793
1761916169558499300,0.915499267578125,-0.013953122028708458,0.00281158853447705,-0.01812821575626731
1761916169568555300,0.92555517578125,-0.09413491224646568,-0.015799606128630694,0.04035940985195338
1761916169578610200,0.935610107421875,0.15278700770139694,0.028096601830632423,-0.006123962773010134
1761916169588665300,0.945665283203125,0.21720482707619665,0.02747940608062781,-0.05484598117023706
1761916169598720300,0.95572021484375,0.07023790383040905,-0.0017473414242500439,-0.03584470890648663
1761916169608776000,0.96577587890625,0.00959726490676403,-0.008396735718805575,0.006477525451034307
1761916169618830800,0.975830810546875,0.08534721015691757,-0.004656042219983647,-0.004610124143958091
1761916169628886000,0.985885986328125,0.14462474403381348,-0.004271056923811556,-0.04817658640891313
1761916169638941000,0.99594091796875,0.12259236044585704,0.009487035723141161,-0.03990472488701343
1761916169648996900,1.005996826171875,0.06455050584375858,0.0065985688604385355,-0.010399375069886446
1761916169659051800,1.0160517578125,0.053100891068577766,0.005593717508207191,-0.0005371756166219711
1761916169669107000,1.02610693359375,0.09393091410696507,-0.004416136512640514,-0.02849807247072458
1761916169679161900,1.036161865234375,0.1321621528238058,-0.002619641592373955,-0.03830781108438969
1761916169689217800,1.0462177734375,0.10556757588684558,0.005480505207987153,-0.012596812048926948
1761916169699273000,1.05627294921875,0.0425204603433609,-0.0014522554805473191,0.006129442665725946
1761916169709328000,1.066327880859375,0.07269523385465144,0.006476176027453038,-0.01612484004460275
1761916169719383000,1.076383056640625,0.142312959960103,0.007552998349818517,-0.03478204811103642
1761916169729438700,1.086438720703125,0.10764321311712265,0.0037545136740867744,-0.0307084419965744
1761916169739494000,1.096493896484375,0.0514917023062706,-0.001569066243650741,-0.01142696455195546
1761916169749548800,1.106548828125,0.07956921127736567,-0.014105635434499709,-0.02301533021070063
1761916169759604000,1.11660400390625,0.12388123121261596,-0.0002754011415876448,-0.03154745010398328
1761916169769660000,1.126659912109375,0.10895546475946903,0.01133435550670256,-0.018811375714838503
1761916169779714800,1.13671484375,0.0698912823498249,0.003288907168799778,-0.008953633240982889
1761916169789770000,1.14677001953125,0.07763035216927527,0.008968724637193372,-0.019382234405353665
1761916169799825000,1.156824951171875,0.1247638592660427,0.009192794025409966,-0.026522461548820136
1761916169809881000,1.166881103515625,0.11583002670407294,0.006317946408572607,-0.029597558145225047
1761916169819935700,1.176935791015625,0.5857534773081541,-0.02081479252569843,-0.022081848752871155
1761916169829991000,1.186990966796875,0.6628203503757715,0.05374714851628523,-0.02412614099681377
1761916169840045800,1.1970458984375,-1.2054641692757606,0.024175667810521554,0.03493935756459832
1761916169850101000,1.20710107421875,-0.6338871013581753,-0.04166214474728331,0.001337532214075327
1761916169860157000,1.217156982421875,0.4791133037537336,0.014464682571816956,-0.07252842592038214
1761916169870211800,1.2272119140625,0.8001298029601573,0.019073686762701252,-0.07958367819413542
1761916169880267000,1.23726708984375,0.2690034033745527,-0.029178026692057026,0.01617547425329685
1761916169890322000,1.247322021484375,-0.43700785395205016,0.007042244378419127,0.06735387282669544
1761916169900378000,1.257378173828125,0.04036065196096897,0.021129712826921603,-0.03203961753509939
1761916169910432800,1.267432861328125,0.5725748467832803,-0.00906351993131102,-0.10475574804730713
1761916169920488000,1.277488037109375,0.06019114159047603,0.018337314762570896,-0.018986732281744478
1761916169930542800,1.28754296875,-0.24298925667405127,-0.01479139948375523,0.05597052822075784
1761916169940599000,1.29759912109375,0.13052256892323494,-0.016478858238708927,-0.011273454490676522
1761916169950653700,1.30765380859375,0.29926585516929627,0.020904452703683636,-0.06805281487628817
1761916169960708900,1.317708984375,0.09783552033007144,-0.007879972702550003,-0.03447035181336105
1761916169970764000,1.327763916015625,-0.0545633648365736,-0.016803901500080244,0.009070245357975364
1761916169980820000,1.337820068359375,0.08254735030531883,0.01746052850310807,-0.0033583705171942708
1761916169990875000,1.347875,0.19630349334478378,0.014969411515339743,-0.045889863711223
1761916170000929800,1.3579296875,0.10827449675798416,-0.005474162802990758,-0.04320727356374263
1761916170010985000,1.36798486328125,0.033767245045304296,0.0014787148000323213,-0.0020905425384640693
1761916170021041000,1.378041015625,0.077533906057477,-0.004900383786315797,0.0017882716562598942
1761916170031096000,1.388095947265625,0.11252455541789531,0.011310616154799936,-0.024916999113559723
1761916170041150700,1.398150634765625,0.1212520517528057,0.0029240661865798756,-0.03972038129605353
1761916170051206000,1.408205810546875,0.08147416811585426,-0.0028500419691437854,-0.023059607743844388
1761916170061261800,1.41826171875,0.061380059114098544,0.010277246527560055,-0.008188932478800415
1761916170071317000,1.42831689453125,0.09217501035034656,0.008670734921173425,-0.01399944538846612
1761916170081372000,1.438371826171875,0.1161632041811943,-0.001490826504578581,-0.03537029632776975
1761916170091426800,1.4484267578125,0.09900105697810649,0.0080294824421464,-0.02441109541803598
1761916170101482800,1.458482666015625,0.07952420309185981,0.006313548794668168,-0.013416677064448594
1761916170111538000,1.468537841796875,0.07544599386751652,0.004529044564650394,-0.01446742822639644
1761916170121593000,1.478593017578125,0.10254442867338656,0.015623009735997765,-0.03054674862883985
1761916170131647700,1.488647705078125,0.11380699644386767,0.007147166057617869,-0.030867285820096728
1761916170141704000,1.498703857421875,0.07191080547869205,0.007229010538617148,-0.017580884071812033
1761916170151758800,1.5087587890625,0.06484452035427093,0.006121752549614757,-0.012583879502117633
1761916170161814000,1.51881396484375,0.10928396606147289,0.0012650161087804008,-0.023755261857807634
1761916170171869000,1.528868896484375,0.1100461826056242,0.008476213571138215,-0.019482772170379758
1761916170181924900,1.5389248046875,0.07608020011782646,0.004431298119976418,-0.014276947155594825
1761916170191979800,1.548979736328125,0.07156476851999759,-0.002715146418433869,-0.01371536775007844
1761916170202035000,1.559034912109375,0.09789514156281948,0.005751889474049676,-0.02784377328045666
1761916170212090000,1.569090087890625,0.11019465116560459,0.01315817796695628,-0.03232968652285635
1761916170222145800,1.579145751953125,0.0858206728875637,0.011746107795502756,-0.01493884513042867
1761916170232201000,1.589200927734375,0.0772854842543602,-0.0035048674574412867,-0.015751549752801654
1761916170242256000,1.599255859375,0.08505202660262584,-0.0033518973939237182,-0.02226063938587904
1761916170252311000,1.60931103515625,0.10151859275698662,0.0003146474482316989,-0.02609393393844366
1761916170262367000,1.619366943359375,0.08520458681583404,0.0024695262104680294,-0.021550006898492572
1761916170272422000,1.629421875,0.07921031483709812,0.0026776399777270854,-0.01887333503514528
1761916170282476800,1.639476806640625,0.0914630626887083,0.011254032837576233,-0.017705314169079063
1761916170292532000,1.649531982421875,0.10164718757271766,0.004542488568113185,-0.02682918941043317
1761916170302587000,1.6595869140625,0.0953624082148075,-0.0009747861491749062,-0.02023877816945314
1761916170312642800,1.669642822265625,0.0887707548648119,0.004682586591970175,-0.02162183002568781
1761916170322698000,1.679697998046875,0.09578384849727153,0.007380285260325763,-0.021606413260847328
1761916170332753000,1.6897529296875,0.0986217022716999,0.014201494741119676,-0.019138123451173304
1761916170342808000,1.69980810546875,0.10042670586705207,0.008201657246344257,-0.01778305558040738
1761916170352863700,1.70986376953125,0.08754851959347724,-0.0017672425679629668,-0.017641455152630804
1761916170362919000,1.7199189453125,0.08723580038249493,0.0001953273509221617,-0.018781272837519646
1761916170372973800,1.729973876953125,0.09352700948119164,0.015402362997439922,-0.03084251670502126
1761916170383029000,1.740029052734375,0.08860358160436153,0.01903018098111497,-0.010417641378939151
1761916170393085000,1.7500849609375,0.07438216402828693,0.014970873961708275,-0.008386208616569638
1761916170403139800,1.760139892578125,0.08828501717448234,0.0022667039646126793,-0.01641235174909234
1761916170413195000,1.770195068359375,0.10640110410153865,0.0009134090674691834,-0.02853453202359378
1761916170423250000,1.78025,0.10133213027417659,0.0017035273986984974,-0.025531404684856533
1761916170433305900,1.790305908203125,0.08905833963453769,0.002774199112312635,-0.018138006497919558
1761916170443360800,1.80036083984375,0.08874152877032757,0.002257557110354537,-0.022657018292322754
1761916170453416000,1.810416015625,0.09831365923583507,0.0005719112865743227,-0.025276991532370445
1761916170463470800,1.820470947265625,0.10431085382401943,0.003116072494187392,-0.020667744171246887
1761916170473527000,1.830527099609375,0.08261457032263278,0.0035576011500321326,-0.01994111039713025
1761916170483581700,1.840581787109375,0.07091828731000423,0.005950969409837852,-0.021806758138537406
1761916170493636900,1.850636962890625,0.10772095452845096,0.01583404497106094,-0.024231062676012514
1761916170503692000,1.860692138671875,0.0992009634643793,0.009582480612874497,-0.018088614398241044
1761916170513748000,1.870748046875,0.09172375945150851,0.004977960800862638,-0.016657777877524493
1761916170523803000,1.880802978515625,0.07300152332484722,-0.00245786773871514,-0.009661123923212288
1761916170533857800,1.89085791015625,0.08855214367806911,0.0022933282517013137,-0.012920271849632263
1761916170543913000,1.900912841796875,0.1015671080738306,-0.004195424129534512,-0.02947115528658032
1761916170553967900,1.9109677734375,0.08360767301321029,-0.002644898760394426,-0.011473141781240702
1761916170564024000,1.921024169921875,0.07746200986504555,0.0022442740787402726,-0.010713847846537828
1761916170574078700,1.93107861328125,0.09510171145200728,0.005718567159760277,-0.01762757275775075
1761916170584134000,1.9411337890625,0.10392974555194377,0.0006205544675816782,-0.03228307090215385
1761916170594189000,1.95118896484375,0.09856325008273124,0.007274893223668914,-0.01808130787461996
1761916170604245000,1.961244873046875,0.07011924588680267,-0.0027982181670726273,-0.009504472056776285
1761916170614300400,1.971300537109375,0.09284311887025833,0.009077831584453815,-0.013522986983135341
1761916170624355600,1.98135546875,0.10765022737979889,0.006184010980732273,-0.03092771077044308
1761916170634410500,1.991410400390625,0.10675883149802684,0.002926786724984413,-0.03116926444135606
1761916170644466700,2.001466796875,0.08745382704734801,0.0023891795668110716,-0.010340557554736732
1761916170654521300,2.011521240234375,0.08024491858184338,0.00735878809785936,-0.015323606664314865
1761916170664576500,2.021576416015625,0.0978852046906948,0.008714802391763077,-0.022697131107002496
1761916170674631700,2.031631591796875,0.10866495738029479,0.01196705021993839,-0.01875160835161805
1761916170684687600,2.0416875,0.09280629399120807,0.011570141590532148,-0.023276684560626745
1761916170694742500,2.051742431640625,0.08829436952471732,0.007814587307651527,-0.021733839032799004
1761916170704797400,2.06179736328125,0.10175649316608905,0.006490034447802463,-0.020310016774758695
1761916170714852600,2.0718525390625,0.1011661260575056,0.003596425048279343,-0.018635873017460107
1761916170724908500,2.081908447265625,0.08948971678912639,0.00631867820257903,-0.012574307956174015
1761916170734963500,2.09196337890625,0.08364157528281212,-0.0020766852597589604,-0.012242884044721722
1761916170745018400,2.102018310546875,0.08183949429690837,0.0009739401907369028,-0.021273235783725974
1761916170755073500,2.112073486328125,0.10563304233849048,0.006996911965927575,-0.016652371050044894
1761916170765128700,2.122128662109375,0.10339315445721149,0.008908037108654388,-0.02705371888130903
1761916170775184600,2.1321845703125,0.09156009332239627,0.0041269483034731816,-0.020438903851434587
1761916170785239600,2.142239501953125,0.08720014454722404,0.011408974520827177,-0.023419965488836167
1761916170795294500,2.15229443359375,0.08839782989919186,0.007344309764646459,-0.025227672497928143
1761916170805349600,2.162349609375,0.09274082753956317,0.01558657872423646,-0.016595891622453927
1761916170815405600,2.172405517578125,0.08884849627614021,0.009969092752196592,-0.00968158218935132
1761916170825460500,2.18246044921875,0.0803092159897089,0.00294795166895492,-0.016419366011768577
1761916170835515400,2.192515380859375,0.09871814838349818,-0.002377859021775657,-0.016773294015973807
1761916170845570600,2.202570556640625,0.09512918398082255,0.005211874588014325,-0.01560549234561622
1761916170855626500,2.21262646484375,0.08361234918832779,-0.0015064830147253814,-0.01644077412597835
1761916170865681400,2.222681396484375,0.09377426224052905,0.0062382002698257565,-0.017131094477698207
1761916170875736600,2.232736572265625,0.09974690690934658,0.011424151540361345,-0.022622458435595034
1761916170885791500,2.24279150390625,0.09332008873224258,0.006369023575261235,-0.021843875278532505
1761916170895846700,2.2528466796875,0.088069328597188,-0.00602263841505046,-0.01534969095364213
1761916170905902600,2.262902587890625,0.0922515827178955,0.009895457835472188,-0.013895327426865696
1761916170915957500,2.27295751953125,0.10631751747131347,0.001130045209545642,-0.023316870440542696
1761916170926012400,2.283012451171875,0.09825111539363861,0.014903184728580526,-0.020544044726341963
1761916170936067600,2.293067626953125,0.09900105697810649,0.018196491794573375,-0.01353526194281876
1761916170946123500,2.30312353515625,0.08927344368994236,0.013325111482100327,-0.018158683959767222
1761916170956178400,2.313178466796875,0.08716390419006347,0.008304493141378043,-0.020479308927059174
1761916170966233600,2.323233642578125,0.10092062686383724,0.001686696136550745,-0.017339768792316315
1761916170976288500,2.33328857421875,0.10016250197291374,-0.00269595537748537,-0.016138357113301752
1761916170986344400,2.343344482421875,0.08488602238595486,0.0004459376861923374,-0.021616861589625478
1761916170996399600,2.353399658203125,0.08861644108593464,0.0006437252806150354,-0.015327698317542672
1761916171006454500,2.36345458984375,0.08711772696077823,0.00825654978833627,-0.01813267273567617
1761916171016509400,2.373509521484375,0.0948918680936098,-0.001388644771737745,-0.016533640041202304
1761916171026565600,2.383565673828125,0.08860416612625122,-0.003461804633849533,-0.01693359914422035
1761916171036620500,2.39362060546875,0.09248539147377013,0.00042381832757382653,-0.016941855515912173
1761916171046675500,2.403675537109375,0.09817045137286186,0.0048026681660383475,-0.0164897278342396
1761916171056730600,2.413730712890625,0.09068681761920451,0.013832433099864283,-0.021849135975539682
1761916171066785500,2.42378564453125,0.09367547804117202,0.006669819453009404,-0.027614859895408152
1761916171076841500,2.433841552734375,0.10175181699097156,0.007675901497813174,-0.016331322402134536
1761916171086896400,2.443896484375,0.09816519067585468,0.0034056334502238312,-0.017005933728069068
1761916171096951600,2.45395166015625,0.0914192235469818,0.002218322220153641,-0.007687193501740693
1761916171107006500,2.46400634765625,0.08901040883958339,0.011469660907721845,-0.014797829224541783
1761916171117062700,2.474062744140625,0.10142623829841613,0.004826858467445709,-0.01922119862474501
1761916171127117600,2.48411767578125,0.1077104331344366,0.008543969019636279,-0.021462401680275797
1761916171137172500,2.49417236328125,0.09064531656503677,0.0016346714050800074,-0.013129749881848693
1761916171147227600,2.5042275390625,0.09018471331596374,0.009993738569685957,-0.006965966555103659
1761916171157283600,2.51428369140625,0.09811433727145194,0.002611644944763975,-0.016969766436144708
1761916171167338500,2.52433837890625,0.08808744877576828,0.0007969773302786052,-0.010369856714457273
1761916171177393400,2.534393310546875,0.08928045795261859,0.0037810688916943033,-0.015099734780564903
1761916171187448600,2.544448486328125,0.08837737163305281,0.0013547824596869759,-0.01502842311002314
1761916171197503500,2.55450341796875,0.0977940192759037,0.007267067251884145,-0.014268033196777104
1761916171207559700,2.5645595703125,0.09749708215594291,0.00969124278355157,-0.010417129922285676
1761916171217614300,2.5746142578125,0.09001578648984432,-0.001415914087864803,-0.004741422373428941
1761916171227669500,2.58466943359375,0.08238426869809627,-0.0006000322693609632,-0.014313260577991604
1761916171237724400,2.594724365234375,0.09211538911759853,0.0028413335063029077,-0.020969503596797584
1761916171247780600,2.604780517578125,0.09331541255712508,0.007327544717869022,-0.0063590136379003525
1761916171257835500,2.61483544921875,0.08792670525610446,0.0022744226218317635,-0.008272153782844544
1761916171267890400,2.624890380859375,0.09180150086283684,0.00792400364052155,-0.015515037583187221
1761916171277945600,2.634945556640625,0.09208791658878326,-0.000007678699668031186,-0.020411358257383105
1761916171288001500,2.64500146484375,0.09313011911809443,0.004199193839065265,-0.014798706007376313
1761916171298056700,2.655056640625,0.09686813660264014,-0.003626234523009043,-0.014307050032913684
1761916171308111400,2.665111328125,0.09133388335108757,-0.0011025715390860567,-0.020625950856134296
1761916171318166500,2.67516650390625,0.09836860429346561,0.006677528977073961,-0.011527940708398817
1761916171328221400,2.685221435546875,0.09567921907901764,0.0037773985052190254,-0.02101516936942935
1761916171338277600,2.695277587890625,0.09447451946437359,0.002529242199694272,-0.015811170985549686
1761916171348332500,2.70533251953125,0.09134323570132255,0.004274875724047888,-0.011794555755332111
1761916171358387500,2.715387451171875,0.08461129709780216,0.000937974969856441,-0.021545403788611292
1761916171368442600,2.725442626953125,0.09612287119328976,0.001189503187156515,-0.009263941299170256
1761916171378498600,2.73549853515625,0.09656827687323093,0.0036758149939996655,-0.006968012381717562
1761916171388553700,2.7455537109375,0.08026128519475459,-0.002393996164179407,-0.01465469442680478
1761916171398608400,2.7556083984375,0.09717267250716685,0.003155524296808289,-0.014538886027410625
1761916171408663600,2.76566357421875,0.09716565824449062,-0.0021578230629267637,-0.013987462689727543
1761916171418719500,2.775719482421875,0.09686346042752265,0.002719538324116729,-0.011100874402746557
1761916171428774700,2.785774658203125,0.09940554612576961,-0.0023949071963434107,-0.005682721811532974
1761916171438829300,2.795829345703125,0.0940080709964037,-0.003223117631813511,-0.011510112790763378
1761916171448884500,2.805884521484375,0.09219605313837528,-0.0021521445241000038,-0.01964826493039727
1761916171458940400,2.8159404296875,0.09952888024449348,0.006428752122574951,-0.01980082514360547
1761916171468995600,2.82599560546875,0.08471943364739418,0.00990540840732865,-0.014484087100252509
1761916171479050800,2.83605078125,0.08681552914381027,0.0047948022367025256,-0.02736979909315705
1761916171489105400,2.84610546875,0.09743862996697425,-0.003888593519933056,-0.01806801000162959
1761916171499160600,2.85616064453125,0.09264730403721332,-0.0030467016189824787,-0.015641294311359525
1761916171509216500,2.866216552734375,0.08486322603225707,-0.00027141451963689177,-0.011409575025737285
1761916171519271700,2.876271728515625,0.08396773849725722,-0.006323541607364314,-0.006955299030616879
1761916171529326300,2.886326416015625,0.08950491435825825,-0.007086852988414466,-0.01100435522571206
1761916171539381500,2.896381591796875,0.09682605102658272,0.0009620339821674861,-0.011878215450793504
1761916171549437400,2.9064375,0.0861906752437353,0.0016582463602011557,-0.02053863789886236
1761916171559492600,2.91649267578125,0.09036766866743565,0.005675927886209683,-0.017799641389027235
1761916171569547500,2.926547607421875,0.09545242458581923,0.004621803165308665,-0.005934212354570627
1761916171579602400,2.9366025390625,0.08661562265753746,0.003848736433580052,-0.014786284917220472
1761916171589657600,2.94665771484375,0.08315934472382068,0.009063668345072074,-0.01396057468280196
1761916171599713500,2.956713623046875,0.0930319194406271,0.006759247877198504,-0.013459347162395715
1761916171609768400,2.9667685546875,0.08883271418511866,0.004334472982265288,-0.010033391301706433
1761916171619823000,2.976822998046875,0.08657704421281814,-0.0022344376713153906,-0.012556918429955839
1761916171629878300,2.986878173828125,0.08041969062685966,0.0035839480175520293,-0.0114737993683666
1761916171639934200,2.996934326171875,0.09777297648787497,-0.005443027879210421,-0.023673867184668778
1761916171649989400,3.0069892578125,0.0916290669053793,-0.004018202115816529,-0.014710370136797428
1761916171660044500,3.01704443359375,0.08474164547920227,-0.002996919076947961,-0.019738281301409005
1761916171670099200,3.02709912109375,0.09386720122098922,0.0002592548660293687,-0.01447276198863983
1761916171680155400,3.0371552734375,0.10837912617623806,-0.004546179504186148,-0.013082842000201343
1761916171690210300,3.047210205078125,0.09356558792591095,-0.00035333549080532973,-0.019223463647067545
1761916171700265500,3.057265380859375,0.09549801729321479,-0.0033897668775229248,-0.014555106509849428
1761916171710320000,3.067320068359375,0.0951969885200262,0.00498076696259086,-0.011684592574834823
1761916171720375300,3.077375244140625,0.08754735054969787,0.0029847685564949643,-0.016798063131049274
1761916171730431200,3.08743115234375,0.08603519242107868,0.0023017136292008216,-0.015807590788975357
1761916171740486400,3.097486328125,0.09186170661747455,0.0025142798092914745,-0.00489317886903882
1761916171750541300,3.107541259765625,0.0923036051660776,-0.0051031169839145145,-0.009867679345980287
1761916171760596200,3.11759619140625,0.08929974717497825,-0.0026141280211508275,-0.005365107229724526
1761916171770652400,3.12765234375,0.09228723855316638,-0.006265316605614498,-0.005584156807884573
1761916171780707300,3.137707275390625,0.09287585209608078,0.005150425582716707,-0.006940174526721239
1761916171790762500,3.147762451171875,0.09646598554253577,0.0034363276992982715,-0.006323723128810525
1761916171800817200,3.157817138671875,0.09826280583143233,0.007394889174413401,-0.010980974350124597
1761916171810873300,3.167873291015625,0.0858206728875637,0.0023001598512870257,-0.01662994002252817
1761916171820928300,3.17792822265625,0.09419219539165496,0.0036190684216388033,-0.003935732013732195
1761916171830983400,3.1879833984375,0.08565174606144428,0.002409393521066522,-0.00526603076942265
1761916171841038300,3.198038330078125,0.09163140499293804,0.001388056824915111,-0.0011428864248096942
1761916171851093200,3.20809326171875,0.08966682692170143,-0.0072065441201266366,-0.005344648963585496
1761916171861149200,3.218149169921875,0.08397007658481598,-0.0048762208843720145,-0.014172171606868504
1761916171871204400,3.228204345703125,0.09175766172111034,0.00012057133947964757,-0.0196606129553169
1761916171881259300,3.23825927734375,0.09535714751780032,-0.009144420272461137,-0.015142770204693078
1761916171891314200,3.248314208984375,0.08580021462142468,-0.0005842490366951096,-0.012445347814261912
1761916171901370400,3.258370361328125,0.08550035489201545,0.007603351143188774,-0.012585633067786694
1761916171911425300,3.26842529296875,0.09777180744409561,0.016226916746166532,-0.007364318222925066
1761916171921480400,3.27848046875,0.10077449639141559,0.002728631521092029,-0.015597162908688187
1761916171931535400,3.288535400390625,0.09120938018858432,-0.002477652434707852,-0.009791472304612397
1761916171941591300,3.29859130859375,0.07429857739806175,-0.008254785947868368,-0.008119812765344977
1761916171951646200,3.308646240234375,0.0790758748024702,-0.002975952779088402,-0.007801613661646842
1761916171961701400,3.318701416015625,0.09911036257147789,-0.00010116681104409508,-0.02116422245129943
1761916171971756300,3.32875634765625,0.0844441238373518,-0.006264422698115231,-0.015607684302702545
1761916171981811200,3.338811279296875,0.08563011875152587,0.007280020348291145,-0.010351078948751091
1761916171991867400,3.348867431640625,0.09563947159051894,0.005982868093665456,-0.009661562314629554
1761916172001922300,3.35892236328125,0.0921861162662506,0.0036213905261771287,-0.013529855115339159
1761916172011977500,3.3689775390625,0.09158172063231468,-0.006437374962092144,-0.010599281556159258
1761916172022032400,3.379032470703125,0.08977730155885219,-0.014645587530097691,-0.01330547177493572
1761916172032088300,3.38908837890625,0.09292378289103508,-0.0030658812434878197,-0.0046820203363895415
1761916172042143200,3.399143310546875,0.08919277966916561,0.020143752263183705,-0.006177519591152668
1761916172052198400,3.409198486328125,0.08739654390215873,0.012740511960600269,-0.007518851197510957
1761916172062253300,3.41925341796875,0.08962824847698211,-0.002279472114640521,-0.003135667677223682
1761916172072309200,3.429309326171875,0.09202771083414554,-0.007135239299450768,-0.01189297462850809
1761916172082364400,3.439364501953125,0.09426701419353485,-0.00017628472373471595,-0.013161752455309032
1761916172092419300,3.44941943359375,0.08918050470948219,0.0032490877567091956,-0.01213080197237432
1761916172102474200,3.45947412109375,0.09770634099245071,-0.002750263397587696,-0.015218246593698859
1761916172112529200,3.469529052734375,0.09740765030682086,-0.01690608323292108,-0.011181757619231939
1761916172122585300,3.47958544921875,0.10025193382203579,-0.006036015061498619,-0.015988427248597146
1761916172132640300,3.48964013671875,0.08888239854574204,0.009689032560156192,-0.009154635705798863
1761916172142695400,3.4996953125,0.09231763369143009,0.002638443903432926,-0.010403612853586673
1761916172152750300,3.509750244140625,0.09185761496424674,-0.011762137623340822,-0.013828764996677637
1761916172162806300,3.51980615234375,0.09678981066942215,0.003496820006659254,-0.01119775890596211
1761916172172861400,3.529861328125,0.09769932672977447,0.011668660928407916,-0.009580898293852806
1761916172182916400,3.539916259765625,0.09455167635381222,0.0072292148929496754,-0.01144910331852734
1761916172192971300,3.54997119140625,0.09694704705774783,0.006433316416549496,-0.01146145134344697
1761916172203026200,3.560026123046875,0.0978507178992033,-0.011205550628417403,-0.014388810032233594
1761916172213082400,3.570082275390625,0.08407178339362144,-0.013156596789578907,-0.013615341441705823
1761916172223137300,3.58013720703125,0.08316811255216598,-0.011892681225918932,-0.0016973054371774196
1761916172233192200,3.590192138671875,0.08600304371714591,-0.006159262415254488,-0.00815904879719019
1761916172243247400,3.600247314453125,0.09242986189424991,-0.007087631589837838,-0.011482348001003265
1761916172253303300,3.61030322265625,0.0990226842880249,0.011778279332321836,-0.008771773868054151
1761916172263358500,3.6203583984375,0.09572539630830287,0.024174692846275863,-0.01437682733349502
1761916172273413400,3.630413330078125,0.08388473638892173,0.013722007553419097,-0.01005713750347495
1761916172283468300,3.64046826171875,0.10167875175476074,-0.001937292772089131,-0.023631781608611343
1761916172293523200,3.650523193359375,0.11098024858534336,-0.01110637598670437,-0.021295447615534067
1761916172303579400,3.660579345703125,0.11055588569343089,-0.000747124006296508,-0.009989917486160993
1761916172313634300,3.67063427734375,0.08287234447598457,0.007691031709930393,0.0006386632297188043
1761916172323689200,3.680689208984375,0.08090425927340984,0.005933892694162205,-0.00410400125272572
1761916172333744400,3.690744384765625,0.10333236418068409,-0.0014712221883877645,-0.02164477250985801
1761916172343800300,3.70080029296875,0.1051356142103672,0.006351370329206111,-0.01592405677549541
1761916172353855500,3.71085546875,0.09048632661104201,0.002668667795049259,-0.010310820003598929
1761916172363910100,3.72091015625,0.09077566494643688,-0.006851620602078037,-0.005968991407006978
1761916172373965300,3.73096533203125,0.09705343004167079,0.0031428189372178167,-0.013642448644340038
1761916172384021200,3.741021240234375,0.09077274233698844,-0.01128051784405834,-0.027172011498734352
1761916172394076400,3.751076416015625,0.11340133825242518,-0.017423171617806654,-0.026319924714043735
1761916172404131300,3.76113134765625,0.089624741345644,-0.01630980697335908,0.004567819372192025
1761916172414186200,3.771186279296875,0.054577393361926074,0.015704776585183572,0.004449161428585648
1761916172424242200,3.7812421875,0.09467267238497734,0.021473050938453524,0.007560206121206283
1761916172434297300,3.79129736328125,0.11353227115571499,-0.004198586484289262,-0.017953662906959652
1761916172444352500,3.8013525390625,0.08973580050468444,-0.016755563138105205,-0.0160988288205117
1761916172454407200,3.8114072265625,0.09946341379284858,-0.013842798088607378,-0.00175948395319283
1761916172464462300,3.82146240234375,0.09616495676934718,0.010642223365453536,-0.0049597412992268795
1761916172474518300,3.831518310546875,0.09944996978938579,0.015306041324872057,-0.0063507572662085295
1761916172484573400,3.841573486328125,0.10917699855566024,-0.008344120757223572,-0.014879881484806536
1761916172494628400,3.85162841796875,0.08793547308444977,-0.025145656770281494,-0.016636369763314722
1761916172504683300,3.861683349609375,0.09333353273570537,0.000497374470840441,-0.0004980126500129699
1761916172514739200,3.8717392578125,0.09495908811092377,0.015527373050019376,-0.0022832155663520095
1761916172524794400,3.88179443359375,0.10676116958558558,-0.001064748862903798,-0.010672492922842503
1761916172534849300,3.891849365234375,0.10301730688214301,-0.011113507838745136,-0.007929112498834729
1761916172544904200,3.901904296875,0.09882862302064895,-0.0066561825116572436,-0.00689947719015181
1761916172554959400,3.91195947265625,0.09821779764592647,0.006505479753750842,-0.0037318800047039984
1761916172565015300,3.922015380859375,0.09536591534614562,0.004425209730840288,-0.0068893211223185055
1761916172575070500,3.932070556640625,0.09730711254179478,-0.0006258608303614892,-0.012964257121831179
1761916172585125000,3.942125,0.09192191237211227,-0.011236204919940792,-0.01103716151677072
1761916172595180300,3.95218017578125,0.08787818993926048,-0.007107756495836656,-0.0006674509327858686
1761916172605236200,3.962236328125,0.09518705164790153,0.006635755069914739,-0.008244242862612008
1761916172615295500,3.97229541015625,0.08126081762611866,0.009361164870747597,-0.0003146189071238041
1761916172625350100,3.98235009765625,0.09007949937582016,0.003104533895087661,-0.0007595131304115057
1761916172635405300,3.9924052734375,0.09260755654871464,0.0018298480589524842,-0.007555749141797423
1761916172645461200,4.002461181640625,0.09694880062341689,0.0006097031383600551,-0.01325732178427279
1761916172655516400,4.012516357421875,0.09126198715865612,-0.002500025238364469,-0.012654971976950764
1761916172665571300,4.0225712890625,0.09604512978196143,0.005183119992632419,-0.016758900164440274
1761916172675626200,4.032626220703125,0.09799977098107338,-0.0061324623149412215,-0.009419204926118254
1761916172685682200,4.04268212890625,0.09142273067831992,-0.004868625524739036,-0.00458425905033946
1761916172695737300,4.0527373046875,0.08739011416137218,-0.0003528970993880648,-0.003807575589418411
1761916172705792500,4.06279248046875,0.08798924909830093,0.0059133362466120155,-0.00007196925766766071
1761916172715847200,4.07284716796875,0.09756254860758781,0.002332528892572736,-0.010192381255701183
1761916172725902300,4.08290234375,0.09650164137780666,-0.005234920961817261,-0.010441606776416302
1761916172735958300,4.092958251953125,0.10083820927739143,-0.008112547340919263,-0.003061433397233486
1761916172746013400,4.103013427734375,0.10263035339117049,0.004246651993272826,-0.010044570282846688
1761916172756068400,4.113068359375,0.09949088632166385,-0.0031203627935261465,-0.0030526655688881874
1761916172766123300,4.123123291015625,0.10068681810796261,0.005468388366041472,-0.006478694494813681
1761916172776179200,4.13317919921875,0.0953057095915079,0.006405184017319697,-0.011657120046019553
1761916172786234400,4.143234375,0.09396130924522876,0.0030371346396161243,-0.006456336532533169
1761916172796289300,4.153289306640625,0.08948211800456046,-0.0004722366046509705,-0.014089973216131329
1761916172806344200,4.16334423828125,0.10414134247601031,-0.011237965335475745,-0.011166706180572509
1761916172816400400,4.173400390625,0.09381400972902774,0.0007225272795127239,-0.007846767977625131
1761916172826455300,4.183455322265625,0.09650047233402728,0.0031624072703882117,-0.0017523235600441693
1761916172836510500,4.193510498046875,0.08632219266891479,-0.000014194063778268172,0.0006777531310915946
1761916172846565000,4.203565185546875,0.08571721251308917,0.0017422359908698126,-0.0017588994313031433
1761916172856621300,4.213621337890625,0.10575988358855247,-0.007460666153312195,-0.00657192573621869
1761916172866676200,4.22367626953125,0.0987257471680641,-0.00036994755724444983,-0.008340981235355139
1761916172876731400,4.2337314453125,0.08166998294889927,0.008482110164029291,-0.005243161350488662
1761916172886786300,4.243786376953125,0.09258885184824465,0.003221910913771717,-0.0009848463188856839
1761916172896842200,4.25384228515625,0.09648527476489543,0.004778452748456038,-0.013789602030068635
1761916172906897400,4.2638974609375,0.09589724574387073,-0.0029275230855681,-0.012907412368059158
1761916172916952300,4.273952392578125,0.09933715706467627,0.0032838531094137578,-0.005694996771216392
1761916172927007200,4.28400732421875,0.10381927091479301,0.01067568838528241,-0.0005050999779254197
1761916172937062100,4.294062255859375,0.08733633814752101,0.00007888533893274143,0.0007369359724223614
1761916172947118300,4.304118408203125,0.08209259227514266,-0.00531941748256213,-0.008454086221009493
1761916172957173200,4.31417333984375,0.10020049589574337,-0.004900864418572746,-0.008029065741971134
1761916172967228400,4.324228515625,0.10124971268773078,-0.00008153395374538377,-0.01449124749340117
1761916172977283300,4.334283447265625,0.08628186065852642,0.004094745942257577,-0.007695011482015251
1761916172987339300,4.34433935546875,0.08613105401098728,0.005150330826238496,-0.00034808278530836103
1761916172997394400,4.35439453125,0.09167933578789234,0.0026756489500403403,-0.00785633952356875
1761916173007449300,4.364449462890625,0.09256839358210563,-0.001196047092374647,-0.00622742314748466
1761916173017504300,4.374504150390625,0.09540916996598243,-0.0023493190555251204,-0.0030525194384157656
1761916173027560200,4.384560302734375,0.08643617443740367,-0.0064997783820377655,0.0013561638493090867
1761916173037615400,4.394615478515625,0.0954278746664524,0.0021333930162130855,0.0013017302483320236
1761916173047670300,4.404670166015625,0.10575286932587623,-0.002217108652245952,-0.001979556444659829
1761916173057725400,4.414725341796875,0.09601298107802868,-0.002156145987426862,0.002409399229288101
1761916173067781000,4.424781005859375,0.0895721343755722,-0.0038379182120435867,-0.0030270196709781885
1761916173077836300,4.434836181640625,0.10093757799863814,-0.0016801990387495607,-0.005324848284572362
1761916173087891500,4.444891357421875,0.08747545435726642,-0.009770218312385259,-0.005846461005881428
1761916173097946400,4.4549462890625,0.07640168715715408,-0.0047261163480870885,-0.012280147315189241
1761916173108001300,4.465001220703125,0.08806991311907768,-0.0084444804257364,-0.006839417565986513
1761916173118057200,4.47505712890625,0.09180617703795432,-0.0006765875122451689,-0.005418664047867059
1761916173128112400,4.4851123046875,0.07923018858134746,-0.00018435044082580133,-0.010258943685889244
1761916173138167300,4.495167236328125,0.07922200527489184,0.006567426515970146,-0.009535670912638307
1761916173148222200,4.50522216796875,0.08924714020490646,0.01094233425661223,-0.007141907643899321
1761916173158278100,4.515278076171875,0.09373393023014068,-0.007172138385381549,-0.003958455302193761
1761916173168333300,4.525333251953125,0.07607552394270896,-0.0009257228430593386,-0.009329553881287575
1761916173178388500,4.535388427734375,0.09506488657295703,0.004234283418755512,-0.006125277947261929
1761916173188443400,4.545443359375,0.09058569533228873,0.006515931507461937,-0.011211641300842165
1761916173198499300,4.555499267578125,0.08640577929913996,-0.003927143423544476,-0.008213555463403462
1761916173208554200,4.56555419921875,0.09073474841415882,-0.007665892702096607,-0.0035629531785845753
1761916173218609400,4.575609375,0.09088438601791858,-0.005118972140172263,-0.008658522751927375
1761916173228664300,4.585664306640625,0.08055471518337726,-0.00010954990525497124,-0.00903890037164092
1761916173238720500,4.595720458984375,0.0961333925873041,-0.007586325801507337,-0.005693754662200809
1761916173248775200,4.605775146484375,0.088940266212821,-0.0029690298479574267,-0.00927687384597957
1761916173258830300,4.615830322265625,0.0902782368183136,0.0005789369656937196,-0.00929557854644954
1761916173268885200,4.62588525390625,0.09312193581163883,0.002745987939625047,-0.0033188422244042155
1761916173278940200,4.635940185546875,0.09431728307604789,0.0097217988936638,-0.007633344422653317
1761916173288996000,4.64599609375,0.09311375250518321,-0.011250469765666639,-0.003199015237018466
1761916173299051300,4.65605126953125,0.10402502261996269,-0.010032464286522007,-0.006450710509344935
1761916173309106400,4.6661064453125,0.08980360504388808,0.005312951209157472,-0.008000497234612703
1761916173319161300,4.676161376953125,0.09265081116855144,-0.007120953904127236,-0.011354556902870535
1761916173329217500,4.686217529296875,0.08979659078121185,-0.007535295442235655,0.0003336158685386181
1761916173339272200,4.696272216796875,0.0837988116711378,-0.005873675523081328,-0.003226268570125103
1761916173349327400,4.706327392578125,0.09247194747030735,-0.0004488203380897175,-0.000294818228110671
1761916173359382300,4.71638232421875,0.08827449578046798,0.0047860686576867,-0.011248904571309686
1761916173369438500,4.7264384765625,0.08601999485194682,0.005976164358243113,-0.0015291823286563157
1761916173379493000,4.7364931640625,0.0926005422860384,-0.005182309425168205,-0.004465966432914138
1761916173389548300,4.74654833984375,0.08376783201098442,0.007559606757940492,-0.007996990103274584
1761916173399603500,4.756603515625,0.09663432784676551,0.00899418901365716,-0.00856470698863268
1761916173409658400,4.766658447265625,0.09005962563157081,0.00812343291947036,0.0028172493778169153
1761916173419714300,4.77671435546875,0.07584639136195183,0.0028733337964746168,-0.004845540335029363
1761916173429769200,4.786769287109375,0.09364391385912894,0.0017940986088477073,-0.007400777775794267
1761916173439824400,4.796824462890625,0.08795651587247848,0.002199246485281037,-0.004390490043908357
1761916173449879300,4.80687939453125,0.08706453546881675,0.005594588011997984,-0.009863514627516268
1761916173459935500,4.816935546875,0.08946867400109768,0.004123674067575484,-0.0070187927208840845
1761916173469990100,4.826990234375,0.08587503342330455,0.000635038509016158,-0.010433934926614164
1761916173480045300,4.83704541015625,0.09335457552373409,-0.0016441459112567826,-0.009498992164060473
1761916173490100500,4.8471005859375,0.09111176503300666,-0.007513182933483039,-0.004585428094118833
1761916173500156400,4.857156494140625,0.08482172497808933,-0.009586943300504936,-0.005699453750625252
1761916173510211300,4.86721142578125,0.09588146365284919,-0.004422442385018803,-0.010882482411712408
1761916173520266200,4.877266357421875,0.0984258874386549,-0.002510313736938406,-0.009544146480038762
1761916173530321400,4.8873212890625,0.08614625158011913,-0.000621021400106838,0.0009243483033031225
1761916173540377300,4.89737744140625,0.08555413090586662,0.027009254118497483,0.0017211977694183587
1761916173550432300,4.907432373046875,0.09646364745497703,0.003275080714491196,-0.037422625747695566
1761916173560487200,4.917487060546875,0.13989830003380774,-0.02470968563896604,-0.03756605280637741
1761916173570542300,4.927542236328125,0.09266191708445548,-0.0396337122261757,0.030379794564098117
1761916173580597500,4.937597412109375,0.004648702588677406,0.008964162626507458,0.03765044315420091
1761916173590653400,4.9476533203125,0.09241817145645619,0.04766506582335569,0.0115831780269742
1761916173600708400,4.957708251953125,0.15241875891089438,0.007678914297162554,-0.038029797860607506
1761916173610763500,4.967763427734375,0.09352233330607414,-0.04051096085158642,-0.03459945808574557
1761916173620818400,4.977818359375,0.07080255197584628,-0.01884111326597631,0.004377703627571464
1761916173630874400,4.987874267578125,0.08736205711066722,0.023376920931553465,0.025340704418346283
1761916173640929500,4.997929443359375,0.0904611921697855,0.029576620388473383,-0.012914499695971608
1761916173650984400,5.007984375,0.11489245359301567,-0.0073549704392673445,-0.02654050866216421
1761916173661039400,5.018039306640625,0.09908113647699356,-0.019024146249261683,-0.008138371335342526
1761916173671095300,5.02809521484375,0.05265782347619533,0.013051334900374058,-0.0002769903104752302
1761916173681150500,5.038150390625,0.07087269460260867,0.03209538914321456,0.0004839110594242811
1761916173691205400,5.048205322265625,0.12432955950200557,0.010376286455243825,-0.011880042081698775
1761916173701260300,5.05826025390625,0.10895488023757934,-0.016006097619317004,-0.006170213067531585
1761916173711315500,5.0683154296875,0.07527355991005898,-0.004096101074060425,0.0036046734284609556
1761916173721371400,5.078371337890625,0.07013678154349327,0.012387606869701993,-0.004335106594860553
1761916173731426600,5.088426513671875,0.1086035825818777,0.015593450281373225,-0.012564444149285554
1761916173741481500,5.0984814453125,0.0998024364888668,-0.007116314261627849,-0.013429828806966542
1761916173751536400,5.108536376953125,0.06656593731939792,-0.020807997458730822,-0.0006051262862980365
1761916173761592300,5.11859228515625,0.08255670265555382,-0.002239957521582255,-0.0014946224719285964
1761916173771647500,5.1286474609375,0.10425941589772701,0.012074506349518196,-0.00875577258132398
1761916173781702400,5.138702392578125,0.10157879851162432,0.013338146776898065,-0.014785115873441099
1761916173791757300,5.14875732421875,0.07822422640919685,-0.008393448924820404,0.003034106998890638
1761916173801813200,5.158813232421875,0.0813414816468954,-0.018927942166058344,0.0050531186711043116
1761916173811868400,5.168868408203125,0.10319792414605616,-0.010384182067331858,0.0017740970004349946
1761916173821923600,5.178923583984375,0.10515607247650623,-0.005318931142083602,-0.009641250178962946
1761916173831978500,5.188978515625,0.08929857813119887,-0.005440340448491042,-0.00491093372143805
1761916173842033400,5.199033447265625,0.07791326076388358,-0.005859104716678848,0.0063525838971138
1761916173852089300,5.20908935546875,0.09541793779432774,-0.004346656610403442,-0.0064743105806410305
1761916173862144500,5.21914453125,0.09708090257048606,0.0007323956529784482,-0.007774652589485048
1761916173872199400,5.229199462890625,0.08691372882127761,0.01127686686553643,0.00017689093686640262
1761916173882254300,5.23925439453125,0.0824222626209259,-0.0094017880004365,-0.002176540321484208
1761916173892310300,5.249310302734375,0.09498480707406998,-0.0009243836942769121,-0.011949454056099056
1761916173902363600,5.25936376953125,0.09796937584280967,0.005171494628564687,-0.014970263181999325
1761916173912418300,5.269418212890625,0.08525368665456771,0.0013952902832999824,-0.0072396689299494025
1761916173922473500,5.279473388671875,0.08898293631076812,0.002979079742869362,-0.010516425578296185
1761916173932529400,5.289529296875,0.10408756646215915,0.0019228064473660197,-0.006640753188729286
1761916173942584600,5.29958447265625,0.09181436034440994,-0.0002558253665047232,-0.0027058248925954102
1761916173952639200,5.30963916015625,0.08732581675350666,0.007635219002619851,-0.0001720686312764883
1761916173962694400,5.3196943359375,0.07743161472678184,0.0031100868530396838,0.0011440554685890674
1761916173972750300,5.329750244140625,0.08998831396102905,-0.006158013456373009,-0.0040484716732054945
1761916173982805500,5.339805419921875,0.09716273563504219,0.0050345018772466575,-0.009315086964517832
1761916173992860700,5.349860595703125,0.09865911167263984,0.008103498668072279,-0.005276990554854273
1761916174002915300,5.359915283203125,0.09102584031522273,-0.00035344508865964595,-0.007343933022022247
1761916174012971500,5.369971435546875,0.0919207433283329,-0.0014468560737557709,-0.002959361262246966
1761916174023026400,5.3800263671875,0.1043383263528347,-0.012015808707021642,-0.008018252087011932
1761916174033081600,5.39008154296875,0.09236848709583281,-0.008263464727957035,0.0051405777588486665
1761916174043136300,5.40013623046875,0.07888824327588081,0.00014832813772954978,-0.0019982611451297995
1761916174053191400,5.41019140625,0.08891454724967479,-0.0005982330379192717,-0.008441080608963966
1761916174063247400,5.420247314453125,0.09939911638498306,-0.0008348239809914958,-0.010988207808509468
1761916174073302500,5.430302490234375,0.08279051141142844,-0.0034316378244489895,-0.009367182477936149
1761916174083357400,5.440357421875,0.08563596397042274,0.0010238745714654213,-0.0014669307474046945
1761916174093412400,5.450412353515625,0.0854722978413105,0.012493212393845897,0.00667575143687427
1761916174103468500,5.460468505859375,0.09295651611685753,0.0023804117384657727,-0.0023347265578806398
1761916174113523500,5.4705234375,0.08683657193183898,0.005311080054123885,-0.005702668621018528
1761916174123578600,5.48057861328125,0.08278992688953876,0.0006370603610994294,-0.007405673146620393
1761916174133633300,5.49063330078125,0.08876666321158408,-0.004954409820272121,0.0009520400278270245
1761916174143689500,5.500689453125,0.0904039090245962,-0.005774784009158611,-0.0016094079580157995
1761916174153744400,5.510744384765625,0.08711363530755042,-0.00018828340549371204,-0.0007335749715566634
1761916174163799600,5.520799560546875,0.08771627737581729,-0.003697074694448383,-0.0075283496782183644
1761916174173854500,5.5308544921875,0.08486088794469833,-0.008087927781249163,-0.004055120609700679
1761916174183909400,5.540909423828125,0.09085165279209613,-0.009633278076705755,-0.01146963464990258
1761916174193965300,5.55096533203125,0.10058394225537777,0.005135448350937804,-0.008716244288533926
1761916174204020500,5.5610205078125,0.09117080174386501,0.004293986849894281,-0.003987096874788403
1761916174214075400,5.571075439453125,0.10134089810252189,-0.009597591417038347,-0.005244184263795614
1761916174224130300,5.58113037109375,0.09580138415396212,-0.007710432813432999,-0.004754427985474467
1761916174234186500,5.5911865234375,0.07860182754993439,-0.0045951240792928725,0.003654065528139472
1761916174244241400,5.601241455078125,0.08502864572703837,-0.0017885856084467377,-0.010295184043049811
1761916174254296600,5.611296630859375,0.09189736245274543,-0.004682255515118595,-0.006788344965875148
1761916174264351500,5.6213515625,0.08815817592442035,-0.0034688131883041933,-0.00755377638041973
1761916174274407400,5.631407470703125,0.08696692031323909,0.003564165604847949,-0.003158025639504194
1761916174284462300,5.64146240234375,0.09250292713046074,0.0015600432578008621,-0.0007538871072232723
1761916174294517500,5.651517578125,0.09145546390414237,0.0017656750903173814,-0.001205357201769948
1761916174304572400,5.661572509765625,0.0830669902652502,-0.003800700607348699,0.0032648470148444173
1761916174314627300,5.67162744140625,0.08650865515172482,-0.00459201424017665,-0.00900251388400793
1761916174324683500,5.68168359375,0.09008943624794483,-0.004459074326179689,-0.006150996910408139
1761916174334738400,5.691738525390625,0.07587094128131866,-0.0005283370063290931,0.0012208470318466425
1761916174344793600,5.701793701171875,0.08798808005452155,-0.009104665934096555,-0.009353665409237146
1761916174354848500,5.7118486328125,0.08858429238200187,0.0016051644660939927,-0.009919920989871024
1761916174364904400,5.721904541015625,0.09037819006145,-0.0042765893321658945,0.00073415949344635
1761916174374959400,5.73195947265625,0.08440379182696342,0.012587644645071122,-0.002282704109698534
1761916174385014500,5.7420146484375,0.09473930788040161,0.004421419471711851,-0.0015371464394032955
1761916174395069400,5.7520693359375,0.0830628986120224,-0.004229933753912337,-0.004310191349312663
1761916174405124400,5.762124267578125,0.08276420792639255,-0.010619989842403447,0.0024112989254295824
1761916174415180500,5.7721806640625,0.08545125505328179,-0.0005911959423567168,-0.001831672406569123
1761916174425235500,5.7822353515625,0.08887363071739673,0.0028560390267346517,-0.01245923020914197
1761916174435290400,5.792290283203125,0.09261281724572182,0.0065941455595369914,-0.005402881956845521
1761916174445345300,5.80234521484375,0.08991992489993572,0.0029063615665305405,-0.0079505206130445
1761916174455401500,5.8124013671875,0.08258475970625877,0.0009850540981511584,-0.007460764334723353
1761916174465456400,5.822456298828125,0.09066051413416862,0.002107312151818769,-0.007689896915480494
1761916174475511600,5.832511474609375,0.10008534508347511,0.0010581798415107186,-0.005408142653852701
1761916174485567200,5.842567138671875,0.08975392068326472,-0.003043671694968361,0.0005230740260332823
1761916174495622400,5.852622314453125,0.08750584949553013,0.003335945197899127,0.0010164105009287596
1761916174505678300,5.86267822265625,0.08944880025684833,0.008359257819206687,-0.008080722863972186
1761916174515733500,5.8727333984375,0.0933452231734991,0.0037354602012783285,-0.0017276275102049111
1761916174525788700,5.88278857421875,0.09364099124968052,-0.0029946643294242676,0.0008659691795706748
1761916174535843300,5.89284326171875,0.07762801408171653,-0.0003694566501886584,-0.0040496407169848675
1761916174545899300,5.902899169921875,0.09018822044730186,0.0014321551199012901,-0.004060819698125124
1761916174555954400,5.912954345703125,0.09153028270602226,-0.005739356502750888,-0.0025016075573861597
1761916174566009600,5.923009521484375,0.0934755715548992,0.00904708710302948,-0.0065359045747667545
1761916174576064300,5.933064208984375,0.09108136989474296,0.0015691010638023725,-0.00324643457531929
1761916174586119400,5.943119384765625,0.09541676875054836,-0.007916560119582573,0.004003463487699628
1761916174596175400,5.95317529296875,0.08778642000257969,-0.008210966214095242,-0.0023021394625306127
1761916174606230500,5.96323046875,0.08943301816582679,-0.0061181518034427425,-0.011885668104887007
1761916174616281000,5.973281005859375,0.09258300662934779,-0.002654269376938464,-0.007804463205859064
1761916174626336000,5.9833359375,0.08285890047252177,0.0014673645722446962,-0.00828260211162269
1761916174636392200,5.99339208984375,0.09617080198824406,-0.011020243489654967,-0.012831643718108535
1761916174646447000,6.003447021484375,0.09407938266694545,-0.005030870306678116,-0.011836787461861967
1761916174656502000,6.013501953125,0.08330079902112483,0.0021132829515903722,-0.008323080252483487
1761916174666557200,6.02355712890625,0.08972235650122165,0.001366198902844917,-0.0030400252830237147
1761916174676613000,6.033613037109375,0.08866495640277862,0.0027310951895255127,-0.0006515957765281201
1761916174686668000,6.04366796875,0.08850538192689418,0.0057449231604347,-0.008731441857665776
1761916174696723000,6.053722900390625,0.08984861322939396,0.007941613504092674,0.0007519874110817909
1761916174706778000,6.063778076171875,0.08236147234439849,-0.0010365879225661045,0.0015862462781369685
1761916174716833000,6.0738330078125,0.08967851735949516,-0.0003079688289843034,0.0047977556705474855
1761916174726889200,6.08388916015625,0.08801905971467494,-0.004664315716340206,-0.0005342530071735382
1761916174736943900,6.09394384765625,0.10133739097118377,-0.0015441572771465871,0.004240633244439959
1761916174746999000,6.1039990234375,0.08951835836172103,0.003072834999015322,-0.005964534427598118
1761916174757054200,6.11405419921875,0.07842764002680779,-0.0019250098208955023,-0.0003217793002724647
1761916174767110100,6.124110107421875,0.09098492378294468,-0.0020263924027152823,-0.00013918927498161792
1761916174777165000,6.1341650390625,0.08948737870156764,0.013148784517525927,0.0016708558216691016
1761916174787220000,6.144219970703125,0.07856149553954601,0.0005923467198270373,-0.0038346097268164158
1761916174797275100,6.154275146484375,0.1171609830468893,0.0001543674361601006,-0.040683381109312175
1761916174807330000,6.164330078125,0.1423451086640358,-0.016846638955041997,-0.01412738261707127
1761916174817386200,6.17438623046875,0.04901332949399948,-0.0037616266889963297,0.017117723539471625
1761916174827441000,6.18444091796875,0.052286652076244354,0.02293650195398368,0.040592634085938335
1761916174837496000,6.19449609375,0.10968787068724632,0.032985867142956704,0.002877674328163266
1761916174847551200,6.20455126953125,0.12943126655519008,-0.013799306006752885,-0.03199745889380574
1761916174857607200,6.214607177734375,0.10750292786359786,-0.03575870884017786,-0.031081878418847915
1761916174867662000,6.224662109375,0.08329846093356609,-0.00911262890319922,0.013111775833740829
1761916174877717000,6.234717041015625,0.06902326734364032,0.02914191876563709,0.02477050331495702
1761916174887772200,6.244772216796875,0.07211421909630299,0.01970654587271856,-0.012763400787487625
1761916174897827000,6.2548271484375,0.12019172904491424,-0.01554979836931452,-0.02344860706143081
1761916174907883300,6.26488330078125,0.10602291843891143,-0.012870526981860166,0.0003894377090036869
1761916174917938000,6.27493798828125,0.05137362888455391,0.019221922427241224,0.022261443103477357
1761916174927993000,6.2849931640625,0.06988894426226616,0.01769078560351627,0.003705503454431891
1761916174938048000,6.295048095703125,0.12753215493559836,-0.0016667264941788744,-0.011447861209511757
1761916174948104200,6.305104248046875,0.10662205337584019,-0.024357620798284185,-0.0030608488753437993
1761916174958158800,6.315158935546875,0.054233694490790366,-0.006554684623761567,0.009436448321864008
1761916174968214000,6.325214111328125,0.08248013028800487,0.00821074131016503,0.0032245880696922537
1761916174978269200,6.335269287109375,0.13068097435533998,0.012255825724685565,-0.007508183673024177
1761916174988324000,6.345323974609375,0.09644669632017612,-0.011395780537469544,-0.0054591421887278556
1761916174998380300,6.35538037109375,0.06306114406883716,-0.015246708928135922,0.0024240853417664765
1761916175008435000,6.36543505859375,0.08637538416087627,0.0009121098762378096,0.007493278364837169
1761916175018490000,6.375489990234375,0.10598141738474369,0.01235813532168977,-0.006174743112176657
1761916175028545000,6.385544921875,0.0970230349034071,-0.002774877249036217,-0.009919774859398604
1761916175038601200,6.395601318359375,0.0745709645986557,-0.00917634064753074,0.002740238618850708
1761916175048656000,6.40565576171875,0.08442951079010963,-0.015427347883291077,-0.00597352145165205
1761916175058711000,6.4157109375,0.08787351376414299,0.006047571926907403,0.0026693653397262093
1761916175068766200,6.42576611328125,0.09730828158557414,0.009096989517717155,0.002108005129918456
1761916175078821000,6.435821044921875,0.09072305797636508,-0.011168625284667359,0.006618102965503931
1761916175088877000,6.445876953125,0.09520634087026118,-0.007505825035867746,0.00520838229805231
1761916175098932000,6.455931884765625,0.09490180496573447,0.010929391435004071,-0.005641439953073859
1761916175108987100,6.465987060546875,0.09312018224596977,-0.004046882504317909,-0.010344503077492117
1761916175119042000,6.4760419921875,0.08744389017522335,0.00740925676812767,-0.004654182481393218
1761916175129098200,6.48609814453125,0.07576222020983696,-0.002570236363785807,0.0014818360555917023
1761916175139153000,6.49615283203125,0.09012801469266414,-0.0004591191114624962,0.0002686608735471964
1761916175149208000,6.5062080078125,0.0991004256993532,0.0020635323755966964,0.0003587503097951412
1761916175159263200,6.51626318359375,0.09851298120021819,-0.0036637421053601427,-0.0028011019606143236
1761916175169319200,6.526319091796875,0.0760696787238121,-0.0017303925727377644,-0.004481017871573567
1761916175179374000,6.5363740234375,0.093576693841815,-0.0013144949734269174,-0.0070144818719476455
1761916175189429000,6.546428955078125,0.09598609307110309,0.007003789231285918,-0.0008100012086331844
1761916175199484200,6.556484130859375,0.09194763133525848,0.0020770836936251725,-0.0039802287425845856
1761916175209539000,6.5665390625,0.09180500799417496,0.0014381852851773145,-0.004829685178771615
1761916175219595000,6.576594970703125,0.10122808537781237,-0.003555287037004018,-0.004923500942066311
1761916175229650000,6.58664990234375,0.09614274493753909,-0.005993448853184236,-0.0013703385051339863
1761916175239705000,6.596705078125,0.08476385731101035,-0.005903056881192605,0.0015763094060122966
1761916175249760300,6.60676025390625,0.07816928135156631,-0.004438687983632553,-0.0006614595834165811
1761916175259815000,6.61681494140625,0.09611351884305476,-0.008183344129874603,-0.005719035233929753
1761916175269871000,6.62687109375,0.0893763195425272,-0.010796309957111953,-0.004014204077422619
1761916175279926000,6.636926025390625,0.09042962798774241,-0.005777739726292202,-0.0052939416896551844
1761916175289981200,6.646981201171875,0.07905074036121368,-0.0010122081082023214,0.0016813772156834602
1761916175300035800,6.657035888671875,0.08517769880890846,-0.007866895166912581,-0.007473769946768879
1761916175310092000,6.667092041015625,0.08727204073965548,-0.006795193690125597,-0.007315510645136237
1761916175320147000,6.67714697265625,0.08578092539906501,-0.007226258034171769,-0.005905570781975985
1761916175330202000,6.6872021484375,0.08922551289498805,0.007782434037141501,0.00527757507674396
1761916175340257300,6.69725732421875,0.08608779939115047,0.010100235718040494,-0.0003250672359019518
1761916175350312000,6.70731201171875,0.09641454761624335,0.003917140336049487,-0.014874036265909671
1761916175360368000,6.7173681640625,0.08743570686876773,-0.0025370019561087244,-0.004084054443240165
1761916175370423000,6.727423095703125,0.09537059152126312,-0.006253148960496765,0.005427066550031304
1761916175380478200,6.737478271484375,0.08518763568103313,0.0017659125523350667,-0.0012004618309438228
1761916175390532900,6.747532958984375,0.09220832809805869,-0.003910953765502199,-0.0017638678673654793
1761916175400589000,6.757589111328125,0.094604283323884,0.0008526450487610418,-0.0073247168648988
1761916175410644000,6.76764404296875,0.09760638774931431,-0.0030225763913011177,-0.008965542874485253
1761916175420699100,6.77769921875,0.08399696459174155,-0.0004162058432761114,-0.008177168975770473
1761916175430754300,6.78775439453125,0.07934884652495383,0.0014589643533690832,-0.002351677692681551
1761916175440809000,6.79780908203125,0.0938596024364233,0.0022734408077201805,0.002496858317032456
1761916175450865200,6.807865234375,0.08608370773792266,0.004702813104313099,0.0009193798672407865
1761916175460920000,6.817920166015625,0.08562836518585681,0.004945712773874402,-0.0024249621246010063
1761916175470975200,6.827975341796875,0.0853197376281023,-0.0062020489609218195,0.006690802875533699
1761916175481030000,6.83802978515625,0.08591945708692074,0.0003993802893499378,-0.0003615998540073633
1761916175491086000,6.848086181640625,0.07978665342032909,-0.0035088951785874085,-0.0009970482133328914
1761916175501141000,6.85814111328125,0.08188099535107612,0.007002310801896965,0.0006596329525113106
1761916175511196200,6.868196044921875,0.08352057925164699,-0.008316214403568301,-0.007916545278206467
1761916175521251000,6.8782509765625,0.0878600697606802,0.003634374446980655,-0.009707958739623428
1761916175531306000,6.888305908203125,0.0954933411180973,0.007404851162713021,0.002234334923326969
1761916175541362000,6.89836181640625,0.07903904992341995,0.0019053244479582644,0.004994739547371864
1761916175551417000,6.9084169921875,0.08367489303052425,-0.00032057372387498615,0.004884922497346997
1761916175561472300,6.91847216796875,0.08008359054028988,-0.0025128481873194683,-0.0027403847493231294
1761916175571527000,6.92852685546875,0.08981646452546119,-0.0028427457203215453,-0.002687412453070283
1761916175581583000,6.9385830078125,0.08848083200752735,0.0020260601842193864,0.0007343786891549825
1761916175591638000,6.948637939453125,0.0869926392763853,-0.008108270741312299,-0.008209171549230813
1761916175601693200,6.958693115234375,0.09416647642850876,-0.0017615925702441017,-0.00673698010481894
1761916175611748000,6.968748046875,0.08938216476142406,-0.0005822922583378385,-0.004259630205854774
1761916175621802800,6.978802734375,0.08817921871244906,0.00491076818301226,-0.006120820967853069
1761916175631859000,6.98885888671875,0.0892231748074293,0.005786492713261395,-0.0009765168819576501
1761916175641913900,6.998913818359375,0.09670213238596916,0.0074660067654214795,0.0008644348096102475
1761916175651969000,7.008968994140625,0.08831775040030479,0.0029399464590125716,0.0001806172639131546
1761916175662023700,7.019023681640625,0.09743921448886395,-0.0060078940787119785,-0.008253302951902151
1761916175672078800,7.029078857421875,0.09144143537878989,-0.0014442074589431286,-0.0040237756233662365
1761916175682134800,7.039134765625,0.07482464709877967,-0.005685885307932039,0.0022114655043929815
1761916175692190000,7.04918994140625,0.08484393680989742,-0.003443733545974828,-0.00697320001348853
1761916175702245000,7.0592451171875,0.09007891485393046,0.0012244991520128678,-0.0018522768031805754
1761916175712299800,7.0692998046875,0.08648878140747547,0.003137337902857689,-0.0015690759476274252
1761916175722356000,7.07935595703125,0.08737257850468158,-0.002994698578753741,0.002681201907992363
1761916175732411000,7.089410888671875,0.09081658147871494,-0.0025220521237934008,-0.006633300534635782
1761916175742466000,7.099466064453125,0.09575754501223564,0.00668100642565987,-0.005328501546382904
1761916175752520700,7.109520751953125,0.09246201059818267,-0.0034983909092377867,0.005935308333113789
1761916175762576000,7.119575927734375,0.09141162476241588,0.005534568345383741,-0.006587634762004017
1761916175772631800,7.1296318359375,0.0908095672160387,0.002034496935713105,0.00034516017585992814
1761916175782687000,7.13968701171875,0.0984556980550289,0.0013047852885210887,0.010153291354328393
1761916175792742000,7.149741943359375,0.09217851748168468,-0.006611006504436955,0.0009110504303127527
1761916175802796800,7.159796875,0.09516951599121093,0.0026991919391206464,0.0027316169209778305
1761916175812852700,7.169852783203125,0.08993278438150883,-0.00039522356239613145,0.0028686142388731238
1761916175822908000,7.179907958984375,0.0888964270710945,-0.006210930953698698,-0.00642535687237978
1761916175832963000,7.189963134765625,0.09054010262489319,-0.0019745845836645457,-0.004586451007425785
1761916175843017700,7.200017822265625,0.09861468800902366,-0.008706356507114833,0.004623129756003618
1761916175853073000,7.210072998046875,0.08993921412229537,-0.0068724613190628584,-0.009188464910164475
1761916175863128800,7.22012890625,0.08935293866693973,-0.00024763178525026884,0.004388736478239298
1761916175873184000,7.23018408203125,0.08620704185664653,-0.0027804633146733975,-0.0016938713710755108
1761916175883239000,7.240239013671875,0.08696399770379067,-0.006236664758221013,-0.0057195466905832285
1761916175893293800,7.2502939453125,0.08455927464962006,0.0061801248234813096,-0.008260463345050812
1761916175903349000,7.260348876953125,0.09054536332190036,0.00014386316681047902,0.0014620353765785693
1761916175913405000,7.270405029296875,0.08530980075597762,0.0035359373074956234,0.0030835721638053652
1761916175923460000,7.280460205078125,0.09369126013219356,-0.0016979927070555276,0.00020998948886990547
1761916175933514800,7.2905146484375,0.0920470000565052,-0.0028632873264956287,0.0028765783496201036
1761916175943570000,7.30056982421875,0.08621756325066089,0.0005559202746429945,-0.0027460107725113627
1761916175953625900,7.3106259765625,0.08127776876091956,-0.0013512536371068562,0.00026807635165750977
1761916175963681000,7.320680908203125,0.09458967027664184,0.007568235305679263,-0.004272781948372721
1761916175973736000,7.33073583984375,0.08110884193480014,0.0005639517424046061,-0.001078954343125224
1761916175983790800,7.340790771484375,0.08634206641316414,0.0019190664205874781,-0.0052072863195091485
1761916175993846000,7.350845947265625,0.09456804296672344,-0.005041844933485845,-0.0009540858544409274
1761916176003902000,7.36090185546875,0.09156827662885189,-0.005967520969128236,0.0004969166714698076
1761916176013956900,7.370956787109375,0.08917641305625439,-0.0087748494578409,0.003752703597024083
1761916176024011800,7.38101171875,0.09395780211389064,-0.008363846087711863,0.0004012742772698402
1761916176034067000,7.39106689453125,0.09544190319180489,0.0026997365034592802,-0.0012048457451164722
1761916176044121900,7.401121826171875,0.10380991856455803,0.002123121642303886,0.0007703267853707075
1761916176054178000,7.411177978515625,0.08583177880346775,-0.003321230544312857,-0.006400368561595678
1761916176064232700,7.421232666015625,0.0951274304151535,-0.004172004438040312,-0.004729731935635209
1761916176074287900,7.431287841796875,0.10411094733774662,0.0022889431958843486,0.004477072348818183
1761916176084343000,7.441343017578125,0.07776362316012382,0.00504212577798753,0.0092669369738549
1761916176094399000,7.45139892578125,0.08073533244729042,0.005557435481029097,0.011082535028457642
1761916176104454000,7.461453857421875,0.10301847592592239,-0.013773591610183938,0.0006449468400329351
1761916176114508800,7.4715087890625,0.09990180521011352,-0.012728079454001272,-0.006020502398535609
1761916176124564000,7.48156396484375,0.07895312520563602,0.005219781616545515,-0.006474018319696188
1761916176134619000,7.491618896484375,0.0820820708811283,0.012885641210956963,0.0009188684105873108
1761916176144675000,7.501675048828125,0.09105857354104518,-0.0011739928074821363,-0.00010682137534022331
1761916176154729700,7.511729736328125,0.0937549730181694,-0.009370598277729004,-0.006888590469956398
1761916176164785000,7.521784912109375,0.08327741814553737,0.0022936513370426835,-0.009094429951161146
1761916176174840000,7.531840087890625,0.0874760388791561,-0.0060647707985248414,0.007387845228984951
1761916176184896000,7.54189599609375,0.09122574680149555,-0.007566150663158623,0.009201105196028948
1761916176194951000,7.551950927734375,0.08329553832411765,-0.003934154261287767,0.0015619155544787644
1761916176205005800,7.562005859375,0.08282850533425808,-0.005589984902116703,-0.004607786056399345
1761916176215061000,7.57206103515625,0.09030337125957012,-0.0023461624089919494,-0.006445888203755021
1761916176225116000,7.582115966796875,0.08312018175721168,0.0006468796438595745,-0.0003032937955111265
1761916176235171800,7.592171875,0.09074994598329067,0.002235215131094446,0.006459405272454023
1761916176245226800,7.602226806640625,0.09479074580669403,-0.004117347074777353,-0.006418854066357016
1761916176255282000,7.612281982421875,0.09719196172952652,-0.006388430386985419,-0.0026256723284721374
1761916176265337000,7.622337158203125,0.08881050235331057,0.005198120057297638,0.003239420312643051
1761916176275391700,7.632391845703125,0.09076280546486377,-0.0055044392102456185,-0.003299626067280769
1761916176285448000,7.642447998046875,0.08553016550838947,-0.005079853697691578,-0.005161620546877384
1761916176295502800,7.6525029296875,0.09899287367165088,-0.005788881033170036,0.0004423369400203228
1761916176305558000,7.66255810546875,0.08343816166520118,-0.009934208668483187,-0.0005680822115391493
1761916176315612700,7.67261279296875,0.07955226014256477,0.0006206457991269417,-0.001979044988006353
1761916176325667800,7.682667724609375,0.08209493036270141,-0.0028526198020088485,0.003419745315611362
1761916176335723800,7.692723876953125,0.09182312817275523,-0.001025307335081743,0.004597191597148776
1761916176345779000,7.702779052734375,0.09871405673027038,-0.003282653241237858,0.001787979395315051
1761916176355834000,7.712834228515625,0.09781681562960147,-0.005288425264321267,-0.0009204027805477381
1761916176365888800,7.722888671875,0.08135551017224789,-0.004657159889768809,-0.002400193009525537
1761916176375945000,7.732945068359375,0.09077566494643688,-0.003301002890325617,-0.004840425768494605
1761916176386000000,7.742999755859375,0.0837380213946104,0.0016327682840055785,-0.006270239375904202
1761916176396055000,7.753054931640625,0.08942191224992274,0.014619848017353797,0.0022849691320210694
1761916176406109700,7.763109619140625,0.07160919218361378,0.0009523711046786047,-0.000022869418933987616
1761916176416164900,7.773164794921875,0.08237374730408191,-0.0030426841726351995,-0.004969458975642919
1761916176426220800,7.783220703125,0.10720599074363708,0.0011983497889596036,0.0008297288224101067
1761916176436276000,7.79327587890625,0.08176759810447692,-0.0044603815089212726,0.0065174921352416275
1761916176446331000,7.803330810546875,0.0857990455776453,-0.004434393117716535,-0.006369242770969868
1761916176456385800,7.8133857421875,0.09372165527045727,0.004439873010432347,0.005272460510209203
1761916176466441000,7.82344091796875,0.08534078041613101,0.006584785217791795,-0.004892229020968079
1761916176476497000,7.833496826171875,0.0898380918353796,0.008932200010598171,0.003971753175184131
1761916176486552000,7.843552001953125,0.0877507641673088,-0.0025016235404065807,0.0010202098932117223
1761916176496606700,7.853606689453125,0.09118599931299685,0.005553673763008555,-0.00008855506628751754
1761916176506662000,7.863661865234375,0.09013093730211258,-0.005955610193981556,0.0024194091666489836
1761916176516717800,7.8737177734375,0.09971183559596537,-0.007030018509441288,-0.003468918219581246
1761916176526773000,7.88377294921875,0.082953593018651,0.0008436568830627948,0.0034059359859675165
1761916176536828000,7.893827880859375,0.07278641926944256,-0.0009576203852426261,0.007170841477438807
1761916176546882800,7.9038828125,0.08295943823754787,-0.0035824490385653915,0.004966097974777222
1761916176556938000,7.91393798828125,0.08895137212872505,-0.0015712621964921708,-0.0011246931809931993
1761916176566994000,7.923993896484375,0.09733049341738223,-0.001254701352387201,-0.0032109979357570406
1761916176577049000,7.934049072265625,0.0844528916656971,-0.0020550990490359254,0.002759893167391419
1761916176587103700,7.944103759765625,0.0854892489761114,0.0004982272791443392,0.0024761808551847933
1761916176597159000,7.954158935546875,0.09520867895781994,-0.005501750637881923,0.005433496290817856
1761916176607214000,7.964214111328125,0.0908703574925661,-0.010204720147466286,0.005264861725643277
1761916176617269800,7.974269775390625,0.08653203602731227,0.002042127686319873,-0.002395005377754569
1761916176627324700,7.98432470703125,0.09102993196845054,0.0019775962413696104,-0.0005739274304360151
1761916176637379600,7.994379638671875,0.08878127625882624,0.0005283187400200404,-0.005300882887095212
1761916176647434800,8.004434814453125,0.08683481836616992,-0.0017870443886204156,-0.0052939416896551844
1761916176657489700,8.01448974609375,0.07859656685292721,-0.0007704980320180766,-0.0017274813797324895
1761916176667545600,8.024545654296874,0.08547580497264862,-0.01069359279308701,-0.0006132365275174379
1761916176677600500,8.0346005859375,0.09699380880892276,0.0008029173056536819,-0.0077327862091362476
1761916176687655700,8.04465576171875,0.09594751462638378,0.0018207685617089736,-0.011935571661219
1761916176697710800,8.0547109375,0.0963952583938837,-0.00490514101817971,-0.003094458884000778
1761916176707766500,8.0647666015625,0.08429097910225392,-0.006824498558067716,0.0011580109287053345
1761916176717821700,8.07482177734375,0.09028466655910014,-0.0010590600492781958,-0.008688552564010023
1761916176727876600,8.084876708984375,0.08504735042750836,-0.00571419352038647,-0.007644523403793573
1761916176737931800,8.094931884765625,0.07921674457788468,-0.001232515778398374,0.005601765529811382
1761916176747986400,8.104986328125,0.09058861794173717,-0.005678713498340221,0.00740012018866837
1761916176758042600,8.115042724609374,0.09028174394965172,-0.0034444299490074626,-0.002954173630475998
1761916176768097500,8.12509765625,0.08996551760733128,-0.0020492469802731645,-0.0016553659915924071
1761916176778152700,8.135152587890625,0.09191022193431854,-0.007689722243900177,-0.0023947861820459364
1761916176788207900,8.145207763671875,0.09849369197785854,-0.006930075541103724,0.0010540390975773335
1761916176798262500,8.155262451171875,0.09833996272087096,0.00325681440543849,-0.003071370269358158
1761916176808318700,8.165318603515624,0.08740589625239371,0.005120641224161954,0.0006708119336515664
1761916176818373600,8.17537353515625,0.08696341318190097,0.0013622122808941638,0.005963657644763589
1761916176828428800,8.1854287109375,0.08861234943270682,-0.0012790138097363523,0.005319952913746238
1761916176838483500,8.1954833984375,0.08231471059322357,0.000022580582922091707,0.00506269021704793
1761916176848538600,8.20553857421875,0.08275660914182663,-0.002895906387886498,0.0006723463036119937
1761916176858594600,8.215594482421874,0.09338672422766685,-0.005644603449472924,-0.0003042436435818672
1761916176868649700,8.225649658203125,0.09562602758705616,0.0006723908277403097,-0.00862074802480638
1761916176878704600,8.23570458984375,0.09725859722495078,0.005183291239279787,-0.0066221946187317365
1761916176888759600,8.245759521484375,0.10368541540205478,0.0045852876718679905,-0.0027723142575472592
1761916176898814700,8.255814697265626,0.08080547507405281,-0.004987546046538045,-0.0023863106146454808
1761916176908870700,8.26587060546875,0.09054302523434161,0.0030023635786899827,0.007927651194110511
1761916176918925800,8.27592578125,0.08291267648637295,0.003123227179114474,0.007159735561534762
1761916176928980500,8.28598046875,0.07795651538372039,-0.000600443261314649,0.004437105664610862
1761916176939035600,8.29603564453125,0.08960837473273277,-0.0048118298616725945,0.010560703111439943
1761916176949091600,8.306091552734374,0.09544248771369457,-0.0017246569516952148,-0.00004398527219891548
1761916176959146800,8.316146728515625,0.08736030354499816,-0.004771456752088852,-0.002711231720075011
1761916176969201700,8.32620166015625,0.09903320568203926,-0.0037062569396803156,0.007596446478366851
1761916176979256600,8.336256591796875,0.08286942186653613,-0.00754706122855423,0.004798267127200961
1761916176989311700,8.346311767578126,0.09739069917201995,-0.0009135118154576048,0.0024517770662903786
1761916176999367700,8.35636767578125,0.09035890083909034,-0.002077656799071701,-0.008036883722245692
1761916177009422600,8.366422607421875,0.08721241950690746,-0.0062140681922785,-0.0022878186762332916
1761916177019477500,8.3764775390625,0.08362754675745963,-0.005914584063849179,0.007487360080704093
1761916177029532700,8.38653271484375,0.0860170722424984,-0.010555918480112449,0.00621682868823409
1761916177039587800,8.396587890625,0.08451952716112136,0.003558048674603924,0.007575403690338134
1761916177049643800,8.406643798828124,0.08826631247401237,0.004758229661046062,-0.00613601853698492
1761916177059698700,8.41669873046875,0.09485445869266987,-0.0043932984889252106,-0.002902808769419789
1761916177069753600,8.426753662109375,0.08543138130903244,0.0007935934965265914,0.007365487266704439
1761916177079808800,8.436808837890625,0.08872399311363696,-0.0033942044489784166,0.0007710574377328157
1761916177089863400,8.446863525390626,0.09292086028158664,-0.008798744073370472,0.002012581931427121
1761916177099919600,8.456919677734374,0.08814356287717819,0.001572164095501648,0.007235065820068121
1761916177109974500,8.466974609375,0.07901625356972217,0.008277141626860248,0.0016902181092649697
1761916177120029700,8.47702978515625,0.09516834694743156,-0.009361691168777178,-0.0014717530529946088
1761916177130084900,8.4870849609375,0.09937164385616779,-0.005173979988240171,-0.0057099020794034
1761916177140140500,8.497140625,0.08514730367064476,-0.001347478219354525,0.0023420330815017223
1761916177150195700,8.50719580078125,0.08514262749552726,-0.002057896077609621,-0.004026259841397405
1761916177160250600,8.517250732421875,0.09620879591107367,-0.007103331482468638,-0.00032630934491753577
1761916177170305800,8.527305908203125,0.08603811503052711,0.00041983284726738925,-0.006530936138704419
1761916177180360400,8.5373603515625,0.08439443947672844,-0.009483226056059356,0.0025525340270251035
1761916177190416600,8.547416748046874,0.08573650173544883,0.0008652316773426718,0.0003792816411703825
1761916177200471600,8.557471435546875,0.09425824636518955,-0.007522246447706129,0.008425663844123483
1761916177210526700,8.567526611328125,0.0887228240698576,-0.0025152342239394784,0.00495886451639235
1761916177220581600,8.57758154296875,0.09172375945150851,0.0013091897522914222,0.004235518677905201
1761916177230636500,8.587636474609376,0.08663958805501461,-0.003331681156379636,0.009718553198873997
1761916177240692700,8.597692626953124,0.08483224637210368,-0.002898274158197455,0.00031681086421012875
1761916177250747600,8.60774755859375,0.09589958383142948,-0.0016193014476564712,0.0005498889677226543
1761916177260802800,8.617802734375,0.0926093101143837,-0.007169003430090378,0.004267959642782807
1761916177270857500,8.627857421875,0.08930968404710292,0.0054504908081027675,-0.0010088847815990446
1761916177280912600,8.63791259765625,0.09140987119674682,-0.0033334575549350117,0.0020524755503982303
1761916177290968600,8.647968505859374,0.09709317753016948,0.002341834435390774,-0.006591507219523191
1761916177301023700,8.658023681640625,0.09634615855515002,-0.0021587489364668726,-0.007351970198005438
1761916177311078700,8.66807861328125,0.08528641988039017,-0.00165940969575895,-0.0033656770408153533
1761916177321133600,8.678133544921875,0.07945581403076649,0.0008487714495975523,0.0011998042438179253
1761916177331188700,8.688188720703126,0.08363865267336368,-0.008693370303022675,0.0077331515353173015
1761916177341244700,8.69824462890625,0.08722060281336307,-0.004661564353539142,0.007431099848821759
1761916177351299800,8.7082998046875,0.09290332462489605,-0.005573491566686425,-0.0011981237433850765
1761916177361354500,8.7183544921875,0.08601882580816746,-0.001482874951919075,0.0004668137941509485
1761916177371409700,8.72840966796875,0.0993406641960144,-0.0035795549702248536,0.014924816605076193
1761916177381465600,8.738465576171874,0.08703998554944992,0.006281340725230984,0.0019095599483698606
1761916177391520800,8.748520751953125,0.09617489364147186,-0.007635575195646379,-0.012114216163754462
1761916177401575700,8.75857568359375,0.1003904655098915,-0.003315145580109674,-0.00036810266003012656
1761916177411630600,8.768630615234375,0.07330138305425643,0.010158478986099362,0.008080503668263555
1761916177421685800,8.778685791015626,0.07762158434092999,0.004175778714148327,0.007012655241042375
1761916177431741700,8.78874169921875,0.10155775572359561,0.0004908294239779934,0.001420095930993557
1761916177441796600,8.798796630859375,0.09424538688361644,-0.006509087349788751,-0.009649433485418557
1761916177451851500,8.8088515625,0.08109130627810955,-0.004725669965159614,-0.0011748159330338239
1761916177461906700,8.81890673828125,0.08706570451259613,-0.0010501164077082647,0.0114056295029819
1761916177471961900,8.8289619140625,0.0988742157280445,-0.0022661982161807826,0.012353139486163853
1761916177482017800,8.839017822265625,0.09066811291873454,-0.0059482979621388946,-0.001623217287659645
1761916177492072700,8.84907275390625,0.08723580038249493,0.001627719932841137,-0.0014734335534274576
1761916177502127600,8.859127685546875,0.08153262030482292,0.0017863856598502024,0.005967822363227605
1761916177512182800,8.869182861328126,0.08930500787198543,-0.008073297609342263,-0.0012383096233010292
1761916177522237400,8.879237548828126,0.09964636914432048,-0.003594583575997967,-0.006418854066357016
1761916177532293600,8.889293701171875,0.08767068466842173,-0.0030914312432752922,0.0050303223174065345
1761916177542348500,8.8993486328125,0.085868603682518,-0.004596643607877195,0.01708981261923909
1761916177552403700,8.90940380859375,0.08780512470304966,-0.011860867023770696,0.002406549685075879
1761916177562459000,8.919458984375,0.09992635512948035,-0.01128524082659278,-0.0025371172621846197
1761916177572513500,8.929513427734374,0.08602700911462306,-0.011111868437507656,0.007530980026721954
1761916177582569500,8.939569580078125,0.08587795603275299,-0.00827759942623088,0.0073699442461133
1761916177592624600,8.949624755859375,0.08408522739708423,0.0008099098770879209,-0.0013525105874985456
1761916177602679800,8.9596796875,0.10083587118983268,0.004352781532157678,-0.0033146044407039877
1761916177612736000,8.969736083984374,0.09008008389770984,0.004540344560088123,0.001495645385235548
1761916177622792000,8.9797919921875,0.07452011119425296,-0.0028514233587658964,0.009985606637224554
1761916177632847000,8.98984716796875,0.08678162687420844,-0.001407419112510979,0.00009301204569637775
1761916177642902000,8.999902099609375,0.10085399136841297,-0.0069313541827374136,-0.0034498481929302214
1761916177652957000,9.00995703125,0.09937690455317497,0.0005232178732170723,-0.002678790755197406
1761916177663012000,9.02001220703125,0.09055530019402504,-0.003913504198903683,-0.003232771376147866
1761916177673067000,9.03006689453125,0.08874678946733475,-0.00816071788117988,-0.0013983224906027316
1761916177683123200,9.040123291015625,0.10235738166868687,-0.016418454979604574,0.000635521424561739
1761916177693177900,9.050177734375,0.09832184254229068,-0.0059176493788370855,-0.004660904483124614
1761916177703233000,9.06023291015625,0.09217968652546406,-0.006972729656030423,0.0005214665908366441
1761916177713288200,9.0702880859375,0.08408288930952548,-0.002814708077569958,0.005853913659974932
1761916177723344100,9.08034423828125,0.09185644592046738,-0.0023858197075896895,0.003729030460491776
1761916177733399000,9.09039892578125,0.09665537063479424,0.001843422209867276,-0.006455167488753796
1761916177743454000,9.100453857421876,0.07601122653484343,-0.0004993963229237124,0.003634995501488447
1761916177753509000,9.110509033203124,0.0914238997220993,-0.004821084030496422,-0.002799129199236631
1761916177763564000,9.12056396484375,0.09502397004067897,-0.003660901694302447,-0.003226487765833735
1761916177773620200,9.1306201171875,0.09204466196894645,-0.005993803904566448,-0.003124123369902372
1761916177783675000,9.1406748046875,0.08934943153560161,-0.005181804818380624,-0.0002549246091395616
1761916177793730000,9.15072998046875,0.0935369463533163,-0.0018015375632094218,-0.0038155397001653907
1761916177803785000,9.160784912109374,0.08335866668820381,-0.0054512602763716125,0.004909472416713833
1761916177813840000,9.17083984375,0.08815466879308223,-0.00021468393029645084,0.00046403731517493724
1761916177823895800,9.180895751953125,0.1002770682632923,-0.00009503047284670174,-0.003154299312457442
1761916177833951000,9.190950927734375,0.08800678475499153,-0.004109716324170586,-0.0062977849699556825
1761916177844006100,9.201006103515626,0.08681377557814121,-0.013139520073903259,0.01084616898931563
1761916177854061000,9.21106103515625,0.09443711006343364,-0.008513264495762996,0.004678586270287633
1761916177864116000,9.221115966796875,0.09923194312453269,0.004403084664000198,0.0006857903070747852
1761916177874172000,9.231171875,0.095641225156188,-0.000296021521219518,-0.009051467592269182
1761916177884227000,9.24122705078125,0.0712374362617731,-0.01179751489739865,0.00863945272527635
1761916177894282000,9.251281982421874,0.07885434100627899,-0.007795882607181556,0.0027056056968867777
1761916177904337000,9.2613369140625,0.11132570102214813,0.0013722747338935732,0.003753507314622402
1761916177914392000,9.27139208984375,0.10594459250569344,0.003143574705754872,0.00471029658280313
1761916177924447000,9.281447021484375,0.062085577034950254,-0.00482018898135284,0.007312295774742961
1761916177934502100,9.291502197265626,0.07283376554250717,-0.0038125622917897996,0.012024930445104836
1761916177944557000,9.30155712890625,0.11667173822522163,0.0034909976206487043,0.005527238988876342
1761916177954612000,9.311612060546874,0.09887713833749294,-0.006285457494633738,-0.002278027934581041
1761916177964668200,9.321668212890625,0.08048340351283549,-0.007583157738531008,0.0030900019045919176
1761916177974723000,9.33172314453125,0.09410393258631229,-0.011061435158213135,-0.0017481588415801524
1761916177984778000,9.341778076171876,0.09606500352621078,-0.010901874382060486,-0.00931399098597467
1761916177994833000,9.3518330078125,0.0853156459748745,-0.00436256085736677,-0.008621113350987433
1761916178004888000,9.36188818359375,0.0832324099600315,0.0012385516518959776,0.005724734322354198
1761916178014944000,9.371944091796875,0.07304770055413246,0.009907139140111394,0.0064629854690283536
1761916178024999200,9.381999267578125,0.08320610647499561,-0.003939492590108421,-0.0027144465904682872
1761916178035054000,9.39205419921875,0.10250526570677757,-0.0185629607615876,-0.005643485779687762
1761916178045109000,9.40210888671875,0.09100655109286308,-0.003913673162262421,0.006441212028637528
1761916178055164200,9.4121640625,0.0961076736241579,-0.014792796856397762,0.004606032490730286
1761916178065220000,9.42222021484375,0.08831190518140793,-0.01188040969116846,0.011262786966189741
1761916178075275000,9.43227490234375,0.06031506023108959,-0.006592486750346143,-0.006927534240856766
1761916178085330000,9.442329833984376,0.09129472038447857,-0.008190587863058317,-0.0032547640122473236
1761916178095385000,9.452385009765624,0.10343290194571017,-0.001999562619649805,0.004273220339789986
1761916178105440300,9.462440185546875,0.067507602083683,0.012528824846632779,-0.0000339022696018219
1761916178115496000,9.472495849609375,0.08949673105180263,-0.006465590701356995,0.005317760956659913
1761916178125551000,9.482551025390626,0.09459259288609027,-0.003862580012553371,-0.0009516016364097595
1761916178135606000,9.49260595703125,0.08995616525709628,0.00460605304032797,-0.003227583744376898
1761916178145661200,9.5026611328125,0.08935235414505005,0.0017284106782055459,0.0017881255257874726
1761916178155715800,9.5127158203125,0.0916021788984537,0.005009450776025187,-0.0014372662615031004
1761916178165772000,9.52277197265625,0.09086568131744861,-0.003931711142451968,-0.001313055359944701
1761916178175827000,9.532826904296876,0.09027882134020328,-0.0016521739540854468,0.009884338219836353
1761916178185882000,9.542882080078124,0.08984042992293834,-0.004897265955689363,0.009881634806096553
1761916178195937000,9.55293701171875,0.08266074755191803,-0.00655766431542579,0.006237067758664489
1761916178205992000,9.562991943359375,0.08909808712303638,-0.001302221155387815,0.006642579819634556
1761916178216048000,9.573048095703125,0.09883329919576644,0.0012319438145961612,0.005012640530243515
1761916178226103000,9.58310302734375,0.08432605041563511,-0.00554668575815158,0.003261997470632195
1761916178236158200,9.593158203125,0.07594517556130885,0.001099775652156677,0.005372925209999084
1761916178246212900,9.603212890625,0.08836275858581065,-0.0063272142771282226,0.00076433543600142
1761916178256268000,9.61326806640625,0.09105448188781738,-0.021441317793051713,0.005126403103023767
1761916178266324000,9.623323974609375,0.0894108063340187,-0.007965323173243086,-0.004491320069879293
1761916178276379100,9.633379150390626,0.08537351364195346,-0.0007411920224316417,0.0029505934339016673
1761916178286434000,9.64343408203125,0.0820867470562458,-0.00002583997744368389,0.010352613318711519
1761916178296489000,9.653489013671875,0.07594634460508823,0.0034136763344286007,-0.000635886750742793
1761916178306544000,9.663544189453125,0.0873152953594923,0.004660762919229455,-0.004323562287539244
1761916178316600000,9.67360009765625,0.09314414764344692,-0.0010542993924813344,0.005501154699549079
1761916178326655000,9.683655029296874,0.08669745572209357,-0.007069360714207868,0.0028464024070650336
1761916178336710000,9.6937099609375,0.08967793283760547,-0.013279378352453932,-0.0008620967220515012
1761916178346765000,9.70376513671875,0.08772621424794197,-0.004901460356905591,0.0040178573392331595
1761916178356820200,9.7138203125,0.09162614429593086,0.004033616597368382,-0.0010552081413567065
1761916178366876200,9.723876220703126,0.09731763393580913,0.0012807673754054122,0.008737725467979908
1761916178376931000,9.73393115234375,0.08534721015691757,-0.009397643831570166,0.002744695598259568
1761916178386986000,9.743986083984375,0.0871411078363657,-0.007010753261612262,0.00037628596648573874
1761916178397041200,9.754041259765625,0.09702654203474521,0.006424630786594935,0.005324921349808573
1761916178407095800,9.764095703125,0.0964350058823824,-0.010809588422148953,0.0034294629920274015
1761916178417152000,9.774152099609376,0.08625380360782146,-0.011404800669208634,0.0036669980749487875
1761916178427207000,9.78420703125,0.09357260218858718,-0.0031286465646815486,0.002967179242521524
1761916178437262000,9.794261962890625,0.09490648114085197,0.006073458711768035,0.001065729535371065
1761916178447317200,9.804317138671875,0.0967044704735279,-0.013820915050362237,0.0055211015090346335
1761916178457373200,9.814373291015626,0.10044073439240456,0.0019731929192435926,0.009328750163689255
1761916178467428000,9.824427978515626,0.08039104905426502,-0.005417319190863054,0.004218421412631869
1761916178477483000,9.83448291015625,0.09012216947376728,-0.002369875503075309,-0.001984378750249743
1761916178487540000,9.8445400390625,0.09731237323880194,0.00525711681060493,-0.0019529606986790895
1761916178497595100,9.85459521484375,0.07996142546534538,0.00415568349090172,0.00019062720127403736
1761916178507650000,9.864650146484376,0.08655015620589256,-0.014653009359794668,0.001470364813506603
1761916178517706000,9.8747060546875,0.09237199422717093,-0.003400332795665599,0.003920899770781397
1761916178527761000,9.884760986328125,0.08264145832955837,-0.003451119984698016,0.003688698450103402
1761916178537816000,9.894816162109375,0.0833849701732397,-0.006450434231420513,0.0013529489789158105
1761916178547871200,9.904871337890626,0.0874368759125471,-0.004393994891957845,0.005669204742833972
1761916178557926000,9.91492578125,0.08219371456205844,-0.0026101413992000743,-0.005765943115577102
1761916178567982000,9.924982177734375,0.09221417331695556,-0.004667151560820639,0.0037408670287579298
1761916178578037000,9.935037109375,0.09759586635529995,-0.005205820448207669,0.007102306285873055
1761916178588092200,9.945092041015625,0.07695113773345946,-0.007359781328414101,-0.00015570201836526392
1761916178598146800,9.955146728515626,0.10148585953116417,0.0015446927083306945,0.003217500741779804
1761916178608202000,9.965201904296874,0.09025310237705707,0.00041047136387787757,0.004862783730775117
1761916178618257400,9.97525732421875,0.10626081884801387,-0.00544284635776421,0.0041657413773238654
1761916178628312300,9.985312255859375,0.10626549502313136,-0.0029439376475405878,0.0032041298035532235
1761916178638367500,9.995367431640625,0.09758768304884433,-0.0013328035233193076,-0.0019061989475041626
1761916178648422400,10.00542236328125,0.10867898590564727,-0.0017488529613241552,0.003513195752725005
1761916178658477300,10.015477294921874,0.10225801294744014,-0.004695957530196756,0.000024988310784101486
1761916178668533200,10.025533203125,0.09028875821232796,-0.012704322977433912,-0.006434343896433711
1761916178678588400,10.03558837890625,0.08384148176908493,-0.008307894099794794,0.006481178712844848
1761916178688643300,10.045643310546875,0.15813187586069105,0.017669804464280604,-0.012597688831761478
1761916178698698200,10.0556982421875,0.5458826546907425,0.05756519983394537,-0.07954173874855042
1761916178708753400,10.06575341796875,-0.07993336841464042,-0.04353586619729176,0.044656157197803255
1761916178718809300,10.075809326171875,-0.5209995578467845,-0.06657088292257395,0.12766513366550206
1761916178728864500,10.085864501953125,0.04549801484942436,-0.004396301013475749,-0.001044321421161294
1761916178738919400,10.09591943359375,0.3505430379420519,-0.0014744553250900935,-0.05861782785914838
1761916178748974300,10.105974365234376,0.06564414629936217,0.001128659253346268,0.015075257926434278
1761916178759029500,10.116029541015624,-0.02368131983876228,0.006259402888058685,0.046304801187664266
1761916178769085400,10.12608544921875,0.2875263175368309,0.01929233219877351,-0.028385040550306436
1761916178779140400,10.136140380859375,0.29598142667114735,0.016547931144747417,-0.04951075762212276
