time,seconds_elapsed,z,y,x
1761916084553237200,0.0722373046875,-0.97247314453125,0.0006866455078125,-0.072540283203125
1761916084563292000,0.0822919921875,-0.9794921875,0.0008392333984375,-0.07635498046875
1761916084573347000,0.09234716796875,-0.99176025390625,0.0033721923828125,-0.064544677734375
1761916084583402200,0.10240234375,-0.9994354248046875,0.0029449462890625,-0.058013916015625
1761916084593457200,0.11245703125,-0.9960174560546875,0.0023193359375,-0.0655517578125
1761916084603511000,0.122510986328125,-0.97906494140625,0.000823974609375,-0.074432373046875
1761916084613566200,0.132566162109375,-0.975341796875,0.003265380859375,-0.070587158203125
1761916084623621000,0.14262109375,-0.9939422607421875,0.003631591796875,-0.06317138671875
1761916084633676000,0.152676025390625,-1.00360107421875,0.0007781982421875,-0.0626068115234375
1761916084643731200,0.162731201171875,-0.9882659912109375,0.0009002685546875,-0.068572998046875
1761916084653786000,0.1727861328125,-0.9751129150390625,0.00384521484375,-0.07061767578125
1761916084663841300,0.18284130859375,-0.98565673828125,0.0037994384765625,-0.065826416015625
1761916084673895200,0.192895263671875,-1.0010986328125,0.00115966796875,-0.0638275146484375
1761916084683950000,0.2029501953125,-0.9952392578125,0.001434326171875,-0.0655059814453125
1761916084694005200,0.213005126953125,-0.978759765625,0.0024261474609375,-0.0697479248046875
1761916084704060200,0.22306005859375,-0.980072021484375,0.003509521484375,-0.0688018798828125
1761916084714115000,0.233114990234375,-0.99530029296875,0.0014801025390625,-0.0653228759765625
1761916084724170200,0.243170166015625,-0.9978179931640625,0.001678466796875,-0.064422607421875
1761916084734224100,0.25322412109375,-0.9843597412109375,0.0020904541015625,-0.06829833984375
1761916084744279000,0.263279052734375,-0.980712890625,0.00213623046875,-0.0689239501953125
1761916084754334200,0.273334228515625,-0.9894256591796875,0.001861572265625,-0.066375732421875
1761916084764389000,0.28338916015625,-0.9960784912109375,0.001953125,-0.065399169921875
1761916084774444000,0.293444091796875,-0.9894561767578125,0.0019378662109375,-0.0662384033203125
1761916084784499200,0.303499267578125,-0.9827117919921875,0.00274658203125,-0.0681915283203125
1761916084794553000,0.313552978515625,-0.985198974609375,0.0027923583984375,-0.0684356689453125
1761916084804608000,0.32360791015625,-0.9922637939453125,0.002685546875,-0.0653533935546875
1761916084814663200,0.3336630859375,-0.9922332763671875,0.0030517578125,-0.06549072265625
1761916084824718300,0.34371826171875,-0.987060546875,0.002838134765625,-0.0680389404296875
1761916084834773000,0.35377294921875,-0.985015869140625,0.002288818359375,-0.068084716796875
1761916084844828200,0.363828125,-0.990264892578125,0.002899169921875,-0.0665130615234375
1761916084854883000,0.373883056640625,-0.99200439453125,0.003509521484375,-0.0650482177734375
1761916084864937000,0.38393701171875,-0.988677978515625,0.003448486328125,-0.0657196044921875
1761916084874992000,0.3939921875,-0.98516845703125,0.0041656494140625,-0.067047119140625
1761916084885047300,0.40404736328125,-0.9877777099609375,0.0023345947265625,-0.06744384765625
1761916084895102200,0.414102294921875,-0.9908294677734375,0.0021820068359375,-0.0671234130859375
1761916084905157000,0.4241572265625,-0.989593505859375,0.002227783203125,-0.0670166015625
1761916084915212000,0.4342119140625,-0.9872589111328125,0.0029754638671875,-0.0675506591796875
1761916084925266000,0.444265869140625,-0.988311767578125,0.002655029296875,-0.0667724609375
1761916084935321000,0.454321044921875,-0.989990234375,0.003173828125,-0.066650390625
1761916084945376300,0.464376220703125,-0.9881744384765625,0.002532958984375,-0.0670623779296875
1761916084955431200,0.47443115234375,-0.9881744384765625,0.0027008056640625,-0.0666351318359375
1761916084965486000,0.484486083984375,-0.9884185791015625,0.0027923583984375,-0.0670928955078125
1761916084975541000,0.494541015625,-0.98736572265625,0.0023956298828125,-0.0667724609375
1761916084985596200,0.50459619140625,-0.9897613525390625,0.0027313232421875,-0.0657196044921875
1761916084995650000,0.514650146484375,-0.9895782470703125,0.002685546875,-0.0666046142578125
1761916085005705200,0.524705322265625,-0.987091064453125,0.002166748046875,-0.0670013427734375
1761916085015760100,0.534760009765625,-0.9888916015625,0.002410888671875,-0.0669403076171875
1761916085025815300,0.544815185546875,-0.9903717041015625,0.0019073486328125,-0.066802978515625
1761916085035870000,0.554869873046875,-0.9875030517578125,0.0015716552734375,-0.067626953125
1761916085045925000,0.564925048828125,-0.988525390625,0.0010986328125,-0.0671234130859375
1761916085055979300,0.574979248046875,-0.98822021484375,0.0013427734375,-0.0666961669921875
1761916085066034200,0.5850341796875,-0.988677978515625,0.00164794921875,-0.0664520263671875
1761916085076089000,0.595089111328125,-0.989410400390625,0.0013427734375,-0.0669708251953125
1761916085086144300,0.605144287109375,-0.988250732421875,0.003509521484375,-0.068023681640625
1761916085096199000,0.615198974609375,-0.9889678955078125,0.004241943359375,-0.066650390625
1761916085106254000,0.625254150390625,-0.9894561767578125,0.00457763671875,-0.0659027099609375
1761916085116309200,0.635309326171875,-0.9896240234375,0.0030670166015625,-0.0667724609375
1761916085126363100,0.645363037109375,-0.9885406494140625,0.001922607421875,-0.067596435546875
1761916085136418000,0.65541796875,-0.9891357421875,0.002685546875,-0.0670166015625
1761916085146473200,0.66547314453125,-0.988311767578125,0.0028076171875,-0.0669708251953125
1761916085156528000,0.675528076171875,-0.9891204833984375,0.0035247802734375,-0.0667572021484375
1761916085166583000,0.6855830078125,-0.9882965087890625,0.0034332275390625,-0.0677337646484375
1761916085176638200,0.69563818359375,-0.98809814453125,0.003204345703125,-0.0674896240234375
1761916085186692400,0.7056923828125,-0.9881744384765625,0.0023040771484375,-0.067138671875
1761916085196747000,0.7157470703125,-0.9883575439453125,0.0009918212890625,-0.0661773681640625
1761916085206802200,0.72580224609375,-0.9896087646484375,0.001190185546875,-0.06671142578125
1761916085216857000,0.735857177734375,-0.9890899658203125,0.0022125244140625,-0.06707763671875
1761916085226912300,0.745912353515625,-0.9876861572265625,0.004638671875,-0.0679931640625
1761916085236967200,0.75596728515625,-0.987548828125,0.00457763671875,-0.066986083984375
1761916085247022000,0.76602197265625,-0.9888916015625,0.0022125244140625,-0.0670013427734375
1761916085257076200,0.776076171875,-0.989501953125,0.00189208984375,-0.066436767578125
1761916085267131100,0.786131103515625,-0.9883880615234375,0.0023193359375,-0.06756591796875
1761916085277186000,0.79618603515625,-0.9865875244140625,0.002410888671875,-0.0677947998046875
1761916085287241200,0.8062412109375,-0.987548828125,0.0023040771484375,-0.0669403076171875
1761916085297296100,0.816296142578125,-0.9890289306640625,0.0018157958984375,-0.0666351318359375
1761916085307351000,0.82635107421875,-0.988128662109375,0.00201416015625,-0.06707763671875
1761916085317405200,0.8364052734375,-0.986541748046875,0.0015106201171875,-0.0675048828125
1761916085327460000,0.846460205078125,-0.9896392822265625,0.0012969970703125,-0.06658935546875
1761916085337515000,0.856514892578125,-0.9889373779296875,0.0014801025390625,-0.065948486328125
1761916085347570200,0.866570068359375,-0.9882659912109375,0.0017547607421875,-0.0660247802734375
1761916085357625300,0.876625244140625,-0.988128662109375,0.003570556640625,-0.06646728515625
1761916085367680000,0.886679931640625,-0.987457275390625,0.00439453125,-0.0674285888671875
1761916085377735200,0.896735107421875,-0.985809326171875,0.006134033203125,-0.066375732421875
1761916085387789300,0.906789306640625,-0.98883056640625,0.0031585693359375,-0.0660247802734375
1761916085397844000,0.916843994140625,-0.99359130859375,0.002899169921875,-0.064971923828125
1761916085407899100,0.926899169921875,-0.9865875244140625,0.0034942626953125,-0.066558837890625
1761916085417954300,0.936954345703125,-0.9827423095703125,-0.0003509521484375,-0.0682220458984375
1761916085428009000,0.947009033203125,-0.9915008544921875,0.0011749267578125,-0.067138671875
1761916085438064000,0.957064208984375,-0.9920196533203125,0.002197265625,-0.066009521484375
1761916085448119000,0.967119140625,-0.9860687255859375,0.0026702880859375,-0.0663909912109375
1761916085458173000,0.9771728515625,-0.9863433837890625,0.002899169921875,-0.0679473876953125
1761916085468228000,0.98722802734375,-0.9889984130859375,0.0026397705078125,-0.066986083984375
1761916085478283300,0.997283203125,-0.987274169921875,0.002471923828125,-0.0664520263671875
1761916085488338200,1.007338134765625,-0.9891510009765625,0.0029754638671875,-0.0663299560546875
1761916085498393000,1.01739306640625,-0.991302490234375,0.002288818359375,-0.066253662109375
1761916085508448000,1.027447998046875,-0.986572265625,0.003204345703125,-0.067779541015625
1761916085518510300,1.03751025390625,-0.98419189453125,0.0027923583984375,-0.0668182373046875
1761916085528564200,1.047564208984375,-0.98870849609375,0.0015716552734375,-0.0663909912109375
1761916085538619400,1.057619384765625,-0.9921112060546875,0.0014495849609375,-0.06640625
1761916085548674300,1.06767431640625,-0.9890899658203125,0.00140380859375,-0.0667877197265625
1761916085558729200,1.077729248046875,-0.9535369873046875,0.0004119873046875,-0.0666046142578125
1761916085568784100,1.0877841796875,-0.9745635986328125,0.00714111328125,-0.070831298828125
1761916085578839300,1.09783935546875,-1.0443115234375,0.003204345703125,-0.068878173828125
1761916085588893200,1.10789306640625,-0.9981536865234375,-0.0027313232421875,-0.0628814697265625
1761916085598948400,1.1179482421875,-0.98834228515625,0.005401611328125,-0.0601654052734375
1761916085609003300,1.128003173828125,-0.989593505859375,0.0044097900390625,-0.065277099609375
1761916085619058400,1.138058349609375,-0.9748077392578125,-0.0039215087890625,-0.0707855224609375
1761916085629113000,1.148113037109375,-0.9770050048828125,0.00225830078125,-0.06884765625
1761916085639168300,1.158168212890625,-0.9955596923828125,0.00750732421875,-0.064849853515625
1761916085649223400,1.168223388671875,-0.9878387451171875,0.0002593994140625,-0.0666656494140625
1761916085659277300,1.17827734375,-0.9913482666015625,0.000091552734375,-0.067962646484375
1761916085669332200,1.188332275390625,-0.992340087890625,0.0052337646484375,-0.0665130615234375
1761916085679387400,1.198387451171875,-0.979278564453125,0.0031280517578125,-0.068267822265625
1761916085689442000,1.208442138671875,-0.9862823486328125,0.002593994140625,-0.0670013427734375
1761916085699497200,1.218497314453125,-0.9991607666015625,0.00421142578125,-0.0649871826171875
1761916085709552400,1.228552490234375,-0.9855804443359375,0.0025482177734375,-0.06732177734375
1761916085719607300,1.238607177734375,-0.981170654296875,0.0028839111328125,-0.068328857421875
1761916085729661200,1.2486611328125,-0.99224853515625,0.0053863525390625,-0.0665435791015625
1761916085739716400,1.25871630859375,-0.9907684326171875,0.00225830078125,-0.066314697265625
1761916085749771300,1.268771240234375,-0.9883575439453125,0.0010833740234375,-0.0664215087890625
1761916085759826200,1.278826171875,-0.9888458251953125,0.003021240234375,-0.0671234130859375
1761916085769881300,1.28888134765625,-0.98614501953125,0.0032806396484375,-0.0675201416015625
1761916085779936300,1.298936279296875,-0.98876953125,0.0015411376953125,-0.0666961669921875
1761916085789991400,1.308991455078125,-0.9911346435546875,0.0025787353515625,-0.066741943359375
1761916085800045300,1.31904541015625,-0.9869842529296875,0.00213623046875,-0.0671539306640625
1761916085810100200,1.329100341796875,-0.9864501953125,0.001983642578125,-0.06787109375
1761916085820155400,1.3391552734375,-0.98992919921875,0.003448486328125,-0.06689453125
1761916085830210300,1.349210205078125,-0.98870849609375,0.0026397705078125,-0.0660858154296875
1761916085840265200,1.35926513671875,-0.9883270263671875,0.0024566650390625,-0.0666656494140625
1761916085850320400,1.3693203125,-0.9882965087890625,0.0030517578125,-0.06658935546875
1761916085860375000,1.379375,-0.9877471923828125,0.002349853515625,-0.0677337646484375
1761916085870429200,1.38942919921875,-0.9884490966796875,0.0028076171875,-0.066009521484375
1761916085880484400,1.399484375,-0.9893646240234375,0.0014801025390625,-0.066375732421875
1761916085890539300,1.409539306640625,-0.98895263671875,0.0020294189453125,-0.0672149658203125
1761916085900594200,1.41959423828125,-0.988250732421875,0.003173828125,-0.0673828125
1761916085910649300,1.4296494140625,-0.9885101318359375,0.003631591796875,-0.066925048828125
1761916085920704300,1.439704345703125,-0.98846435546875,0.0038604736328125,-0.067169189453125
1761916085930759200,1.44975927734375,-0.989227294921875,0.003265380859375,-0.0670013427734375
1761916085940813300,1.459813232421875,-0.987701416015625,0.0018310546875,-0.0671844482421875
1761916085950868500,1.469868408203125,-0.98785400390625,0.001556396484375,-0.067291259765625
1761916085960923100,1.479923095703125,-0.9884490966796875,0.0023956298828125,-0.06695556640625
1761916085970978300,1.489978271484375,-0.9889678955078125,0.001983642578125,-0.0660247802734375
1761916085981033200,1.500033203125,-0.9893341064453125,0.0016326904296875,-0.066802978515625
1761916085991088000,1.510088134765625,-0.986480712890625,0.0031280517578125,-0.0678863525390625
1761916086001143300,1.520143310546875,-0.98712158203125,0.0025634765625,-0.0670318603515625
1761916086011197400,1.530197509765625,-0.9891204833984375,0.0023345947265625,-0.066436767578125
1761916086021252000,1.540252197265625,-0.9895172119140625,0.0020751953125,-0.0665283203125
1761916086031307300,1.550307373046875,-0.989227294921875,-0.0002899169921875,-0.0673980712890625
1761916086041362200,1.560362060546875,-0.9883270263671875,0.0014801025390625,-0.0684814453125
1761916086051417300,1.570417236328125,-0.988494873046875,0.0013427734375,-0.0670318603515625
1761916086061472300,1.58047216796875,-0.9898529052734375,0.00274658203125,-0.0662994384765625
1761916086071527200,1.590527099609375,-0.9895477294921875,0.00396728515625,-0.067901611328125
1761916086081581300,1.600581298828125,-0.988128662109375,0.002655029296875,-0.067718505859375
1761916086091636200,1.61063623046875,-0.9874420166015625,0.005706787109375,-0.0659942626953125
1761916086101691100,1.620691162109375,-0.9884185791015625,0.0037078857421875,-0.06695556640625
1761916086111746300,1.630746337890625,-0.99005126953125,0.00079345703125,-0.067138671875
1761916086121801500,1.640801513671875,-0.9882659912109375,0.00006103515625,-0.06793212890625
1761916086131856100,1.650856201171875,-0.9870147705078125,0.00177001953125,-0.0669708251953125
1761916086141911300,1.660911376953125,-0.9882965087890625,0.0052947998046875,-0.065887451171875
1761916086151965400,1.67096533203125,-0.9889984130859375,0.0054931640625,-0.066009521484375
1761916086162020000,1.68102001953125,-0.9880523681640625,0.002716064453125,-0.065155029296875
1761916086172075300,1.6910751953125,-0.9892730712890625,0.0012664794921875,-0.0677337646484375
1761916086182130400,1.70113037109375,-0.9880828857421875,0.0027923583984375,-0.067138671875
1761916086192185000,1.71118505859375,-0.9878082275390625,0.0036773681640625,-0.0670928955078125
1761916086202240300,1.721240234375,-0.989532470703125,0.001434326171875,-0.0669708251953125
1761916086212295200,1.731295166015625,-0.9886932373046875,0.0013885498046875,-0.067779541015625
1761916086222349000,1.74134912109375,-0.9883270263671875,0.001861572265625,-0.0674285888671875
1761916086232404200,1.751404296875,-0.98956298828125,0.004180908203125,-0.0670013427734375
1761916086242459400,1.76145947265625,-0.9898529052734375,0.0040130615234375,-0.0673370361328125
1761916086252514300,1.771514404296875,-0.988525390625,0.0029754638671875,-0.066986083984375
1761916086262569200,1.7815693359375,-0.9877471923828125,0.0006866455078125,-0.0677947998046875
1761916086272624000,1.7916240234375,-0.9866943359375,0.0010833740234375,-0.06646728515625
1761916086282679300,1.80167919921875,-0.9903564453125,0.0029296875,-0.0658416748046875
1761916086292733200,1.811733154296875,-0.990631103515625,0.003936767578125,-0.066986083984375
1761916086302788400,1.821788330078125,-0.9871063232421875,0.003753662109375,-0.0669403076171875
1761916086312843300,1.83184326171875,-0.9872589111328125,0.0027618408203125,-0.066253662109375
1761916086322898400,1.8418984375,-0.9897003173828125,0.0022125244140625,-0.06561279296875
1761916086332953000,1.851953125,-0.991241455078125,0.0029449462890625,-0.06719970703125
1761916086343008300,1.86200830078125,-0.987091064453125,0.0029449462890625,-0.06787109375
1761916086353063400,1.8720634765625,-0.986236572265625,0.0025634765625,-0.0682525634765625
1761916086363117300,1.882117431640625,-0.988861083984375,0.0021514892578125,-0.067138671875
1761916086373172200,1.892172119140625,-0.9909515380859375,0.0037994384765625,-0.066253662109375
1761916086383227400,1.902227294921875,-0.98895263671875,0.0032958984375,-0.0659027099609375
1761916086393282000,1.912281982421875,-0.986846923828125,0.002471923828125,-0.066253662109375
1761916086403337200,1.922337158203125,-0.988372802734375,0.0013275146484375,-0.06732177734375
1761916086413392400,1.932392333984375,-0.9909515380859375,0.0018463134765625,-0.06695556640625
1761916086423447300,1.942447265625,-0.9901123046875,0.0024871826171875,-0.066436767578125
1761916086433501200,1.952501220703125,-0.98699951171875,0.002960205078125,-0.067413330078125
1761916086443556400,1.962556396484375,-0.9881744384765625,0.0029449462890625,-0.06756591796875
1761916086453611300,1.972611328125,-0.98858642578125,0.0021514892578125,-0.067230224609375
1761916086463666200,1.982666259765625,-0.9888763427734375,0.002288818359375,-0.0670623779296875
1761916086473721300,1.992721435546875,-0.9877471923828125,0.0032958984375,-0.0667572021484375
1761916086483776300,2.0027763671875,-0.987762451171875,0.0038299560546875,-0.066650390625
1761916086493831200,2.0128310546875,-0.9889373779296875,0.003509521484375,-0.0670013427734375
1761916086503885300,2.02288525390625,-0.9885711669921875,0.002532958984375,-0.067474365234375
1761916086513940200,2.032940185546875,-0.9887237548828125,0.00274658203125,-0.0662994384765625
1761916086523987200,2.0429873046875,-0.9874267578125,0.002532958984375,-0.0671844482421875
1761916086534042400,2.05304248046875,-0.987945556640625,0.002777099609375,-0.0673980712890625
1761916086544097500,2.06309765625,-0.9878387451171875,0.0029449462890625,-0.0666961669921875
1761916086554152400,2.07315234375,-0.988372802734375,0.0034637451171875,-0.066497802734375
1761916086564207400,2.083207275390625,-0.989013671875,0.0029144287109375,-0.0673065185546875
1761916086574261500,2.093261474609375,-0.98858642578125,0.0030670166015625,-0.0673828125
1761916086584316400,2.10331640625,-0.9875030517578125,0.0021209716796875,-0.0673370361328125
1761916086594371300,2.113371337890625,-0.9866485595703125,0.0022125244140625,-0.066070556640625
1761916086604426500,2.123426513671875,-0.989593505859375,0.0025634765625,-0.06671142578125
1761916086614481400,2.1334814453125,-0.990203857421875,0.003631591796875,-0.06781005859375
1761916086624536600,2.14353662109375,-0.988067626953125,0.0029296875,-0.0671844482421875
1761916086634591200,2.15359130859375,-0.9879608154296875,0.003082275390625,-0.0666961669921875
1761916086644646400,2.163646484375,-0.9888763427734375,0.0029296875,-0.0659637451171875
1761916086654700300,2.1737001953125,-0.988433837890625,0.002685546875,-0.0670166015625
1761916086664755500,2.18375537109375,-0.9877777099609375,0.0028533935546875,-0.0660247802734375
1761916086674810400,2.193810302734375,-0.987518310546875,0.0027618408203125,-0.06658935546875
1761916086684865500,2.203865478515625,-0.9877166748046875,0.00286865234375,-0.0665740966796875
1761916086694920200,2.213920166015625,-0.9891204833984375,0.0025634765625,-0.0658111572265625
1761916086704975400,2.223975341796875,-0.9876708984375,0.0038299560546875,-0.0661163330078125
1761916086715030500,2.234030517578125,-0.9865875244140625,0.0033721923828125,-0.066497802734375
1761916086725084400,2.24408447265625,-0.987762451171875,0.0023956298828125,-0.067047119140625
1761916086735139300,2.254139404296875,-0.989288330078125,0.0028076171875,-0.067413330078125
1761916086745194500,2.264194580078125,-0.987548828125,0.00238037109375,-0.0659637451171875
1761916086755249400,2.27424951171875,-0.988006591796875,0.0035400390625,-0.0667724609375
1761916086765304300,2.28430419921875,-0.988189697265625,0.0038909912109375,-0.067352294921875
1761916086775359500,2.294359375,-0.987548828125,0.0021209716796875,-0.06689453125
1761916086785414400,2.304414306640625,-0.9894256591796875,0.00213623046875,-0.06719970703125
1761916086795468300,2.31446826171875,-0.988006591796875,0.0022125244140625,-0.0667877197265625
1761916086805523500,2.3245234375,-0.9879913330078125,0.002899169921875,-0.0673980712890625
1761916086815578400,2.334578369140625,-0.9882049560546875,0.003143310546875,-0.0676116943359375
1761916086825633300,2.34463330078125,-0.9877471923828125,0.00323486328125,-0.065887451171875
1761916086835688400,2.3546884765625,-0.9887847900390625,0.00390625,-0.066619873046875
1761916086845743400,2.364743408203125,-0.988128662109375,0.00396728515625,-0.0661468505859375
1761916086855798500,2.374798583984375,-0.987701416015625,0.002716064453125,-0.0666961669921875
1761916086865852400,2.384852294921875,-0.988372802734375,0.0025177001953125,-0.0679473876953125
1761916086875907300,2.3949072265625,-0.9890594482421875,0.001800537109375,-0.0675201416015625
1761916086885962500,2.40496240234375,-0.9888458251953125,0.0015716552734375,-0.0670166015625
1761916086896017400,2.415017333984375,-0.98785400390625,0.0018768310546875,-0.0662078857421875
1761916086906072300,2.425072265625,-0.988861083984375,0.0025482177734375,-0.06683349609375
1761916086916127500,2.43512744140625,-0.9870452880859375,0.002960205078125,-0.066680908203125
1761916086926182400,2.445182373046875,-0.9870147705078125,0.001861572265625,-0.06597900390625
1761916086936237300,2.4552373046875,-0.9892578125,0.0025177001953125,-0.0672760009765625
1761916086946291500,2.46529150390625,-0.9889984130859375,0.0023345947265625,-0.067169189453125
1761916086956346600,2.4753466796875,-0.9877166748046875,0.00335693359375,-0.06634521484375
1761916086966401300,2.4854013671875,-0.9877777099609375,0.002716064453125,-0.066497802734375
1761916086976456400,2.49545654296875,-0.9885101318359375,0.0030059814453125,-0.06591796875
1761916086986511400,2.505511474609375,-0.9880218505859375,0.002685546875,-0.06817626953125
1761916086996566300,2.515566162109375,-0.9862060546875,0.002532958984375,-0.067230224609375
1761916087006621400,2.525621337890625,-0.9874114990234375,0.0025787353515625,-0.067291259765625
1761916087016675600,2.535675537109375,-0.987335205078125,0.003082275390625,-0.0659027099609375
1761916087026730200,2.545730224609375,-0.9892425537109375,0.0027008056640625,-0.06634521484375
1761916087036785400,2.555785400390625,-0.989227294921875,0.0023193359375,-0.067535400390625
1761916087046840300,2.56584033203125,-0.9873504638671875,0.0022735595703125,-0.067718505859375
1761916087056895500,2.5758955078125,-0.987884521484375,0.0016021728515625,-0.0669708251953125
1761916087066950400,2.585950439453125,-0.988128662109375,0.002166748046875,-0.06561279296875
1761916087077005300,2.59600537109375,-0.989044189453125,0.001922607421875,-0.066192626953125
1761916087087059500,2.6060595703125,-0.99078369140625,0.002655029296875,-0.0673675537109375
1761916087097114400,2.6161142578125,-0.9875640869140625,0.0019378662109375,-0.068115234375
1761916087107169300,2.626169189453125,-0.98663330078125,0.0024566650390625,-0.0665130615234375
1761916087117224400,2.636224365234375,-0.9915313720703125,0.0025482177734375,-0.0667266845703125
1761916087127279400,2.646279296875,-0.9898834228515625,0.00286865234375,-0.0657958984375
1761916087137334300,2.656334228515625,-0.9880218505859375,0.0030517578125,-0.066741943359375
1761916087147389400,2.666389404296875,-0.9876556396484375,0.00335693359375,-0.067138671875
1761916087157444400,2.6764443359375,-0.986968994140625,0.0032196044921875,-0.066802978515625
1761916087167498200,2.686498291015625,-0.9898223876953125,0.003387451171875,-0.067047119140625
1761916087177553400,2.696553466796875,-0.9890289306640625,0.00225830078125,-0.0665283203125
1761916087187608600,2.706608642578125,-0.98712158203125,0.0021514892578125,-0.06671142578125
1761916087197663200,2.716663330078125,-0.9886932373046875,0.002685546875,-0.067138671875
1761916087207718400,2.726718505859375,-0.988616943359375,0.0023956298828125,-0.0667877197265625
1761916087217773300,2.736773193359375,-0.9888458251953125,0.0021514892578125,-0.066619873046875
1761916087227828500,2.746828369140625,-0.9880218505859375,0.0036468505859375,-0.0674591064453125
1761916087237882400,2.75688232421875,-0.988250732421875,0.00286865234375,-0.066986083984375
1761916087247937500,2.7669375,-0.989044189453125,0.003753662109375,-0.0663299560546875
1761916087257992400,2.776992431640625,-0.98974609375,0.00262451171875,-0.0661468505859375
1761916087268047400,2.78704736328125,-0.987945556640625,0.0023193359375,-0.066925048828125
1761916087278102300,2.797102294921875,-0.9885101318359375,0.0030975341796875,-0.0675048828125
1761916087288157400,2.807157470703125,-0.98773193359375,0.0028076171875,-0.066131591796875
1761916087298212400,2.81721240234375,-0.9894561767578125,0.0023651123046875,-0.06695556640625
1761916087308267300,2.827267333984375,-0.98944091796875,0.0029754638671875,-0.068115234375
1761916087318321400,2.8373212890625,-0.9858856201171875,0.0020294189453125,-0.0674285888671875
1761916087328376300,2.847376220703125,-0.988189697265625,0.0018768310546875,-0.067047119140625
1761916087338431200,2.85743115234375,-0.9900970458984375,0.000946044921875,-0.0672149658203125
1761916087348486400,2.867486328125,-0.9896087646484375,0.0004425048828125,-0.0666961669921875
1761916087358541600,2.87754150390625,-0.987548828125,0.0013275146484375,-0.06793212890625
1761916087368596200,2.88759619140625,-0.9866180419921875,0.0026702880859375,-0.0673828125
1761916087378651400,2.8976513671875,-0.988983154296875,0.004058837890625,-0.06634521484375
1761916087388706600,2.90770654296875,-0.99005126953125,0.00469970703125,-0.066009521484375
1761916087398760200,2.91776025390625,-0.9882354736328125,0.00335693359375,-0.067108154296875
1761916087408815400,2.9278154296875,-0.98748779296875,0.00445556640625,-0.0663604736328125
1761916087418870500,2.93787060546875,-0.9893798828125,0.003204345703125,-0.0663299560546875
1761916087428925400,2.947925537109375,-0.989166259765625,0.003082275390625,-0.066802978515625
1761916087438980400,2.95798046875,-0.989837646484375,0.0030975341796875,-0.06512451171875
1761916087449035500,2.968035400390625,-0.9864654541015625,0.002838134765625,-0.065643310546875
1761916087459090400,2.97809033203125,-0.988433837890625,0.0023193359375,-0.066192626953125
1761916087469145300,2.988145263671875,-0.989471435546875,0.0028076171875,-0.0659332275390625
1761916087479199500,2.998199462890625,-0.9894866943359375,0.0014495849609375,-0.0658721923828125
1761916087489254400,3.00825439453125,-0.98681640625,0.002655029296875,-0.066497802734375
1761916087499309300,3.018309326171875,-0.9874420166015625,0.003204345703125,-0.0672454833984375
1761916087509364500,3.028364501953125,-0.988922119140625,0.002899169921875,-0.0665130615234375
1761916087519419600,3.038419677734375,-0.9886627197265625,0.0028839111328125,-0.0662384033203125
1761916087529474600,3.048474609375,-0.9887847900390625,0.0031280517578125,-0.066650390625
1761916087539529500,3.058529541015625,-0.9876251220703125,0.00177001953125,-0.0677032470703125
1761916087549583600,3.06858349609375,-0.9881591796875,0.00238037109375,-0.0676727294921875
1761916087559638500,3.078638427734375,-0.9888153076171875,0.0012664794921875,-0.066986083984375
1761916087569693400,3.088693359375,-0.9898681640625,0.0018310546875,-0.06640625
1761916087579748600,3.09874853515625,-0.988006591796875,0.0021514892578125,-0.0671844482421875
1761916087589803500,3.108803466796875,-0.9871673583984375,0.0020294189453125,-0.0670166015625
1761916087599858400,3.1188583984375,-0.989105224609375,0.00372314453125,-0.0664520263671875
1761916087609913600,3.12891357421875,-0.989288330078125,0.0030670166015625,-0.0661468505859375
1761916087619968800,3.13896875,-0.987823486328125,0.003143310546875,-0.067047119140625
1761916087630022400,3.1490224609375,-0.98736572265625,0.0020751953125,-0.06756591796875
1761916087640077600,3.15907763671875,-0.987091064453125,0.0015106201171875,-0.0666961669921875
1761916087650132700,3.1691328125,-0.98907470703125,0.002349853515625,-0.0659027099609375
1761916087660187400,3.1791875,-0.9903106689453125,0.00347900390625,-0.0668487548828125
1761916087670242600,3.18924267578125,-0.9881744384765625,0.002197265625,-0.0673980712890625
1761916087680297700,3.199297607421875,-0.9878082275390625,0.00030517578125,-0.0672607421875
1761916087690352600,3.2093525390625,-0.988494873046875,0.0019073486328125,-0.0665435791015625
1761916087700407600,3.219407470703125,-0.98883056640625,0.0028076171875,-0.0659942626953125
1761916087710461700,3.229461669921875,-0.988800048828125,0.0041351318359375,-0.065521240234375
1761916087720516400,3.239516357421875,-0.9872589111328125,0.0035858154296875,-0.0665435791015625
1761916087730571500,3.249571533203125,-0.987274169921875,0.0015869140625,-0.0663909912109375
1761916087740626700,3.259626708984375,-0.988525390625,0.0022430419921875,-0.066375732421875
1761916087750681600,3.269681640625,-0.988677978515625,0.004241943359375,-0.0662384033203125
1761916087760736500,3.279736572265625,-0.98858642578125,0.0028839111328125,-0.0666656494140625
1761916087770791400,3.28979150390625,-0.9877471923828125,0.002288818359375,-0.067291259765625
1761916087780846600,3.2998466796875,-0.987762451171875,0.002166748046875,-0.067718505859375
1761916087790900500,3.309900390625,-0.98779296875,0.0028076171875,-0.0661468505859375
1761916087800955600,3.31995556640625,-0.9892578125,0.0032501220703125,-0.0663604736328125
1761916087811010600,3.330010498046875,-0.9880828857421875,0.00299072265625,-0.0675048828125
1761916087821065700,3.340065673828125,-0.98675537109375,0.001983642578125,-0.066802978515625
1761916087831120400,3.350120361328125,-0.989044189453125,0.0026702880859375,-0.066497802734375
1761916087841175600,3.360175537109375,-0.98944091796875,0.0025787353515625,-0.0670318603515625
1761916087851230700,3.370230712890625,-0.987823486328125,0.003173828125,-0.0676727294921875
1761916087861285400,3.380285400390625,-0.9871978759765625,0.0025634765625,-0.0670928955078125
1761916087871339500,3.390339599609375,-0.98858642578125,0.001739501953125,-0.0671539306640625
1761916087881394700,3.400394775390625,-0.98980712890625,0.0027313232421875,-0.0662994384765625
1761916087891449300,3.410449462890625,-0.9888458251953125,0.002960205078125,-0.0670623779296875
1761916087901504500,3.42050439453125,-0.9876708984375,0.0016326904296875,-0.0664215087890625
1761916087911559700,3.4305595703125,-0.989532470703125,0.0024566650390625,-0.0664215087890625
1761916087921614600,3.440614501953125,-0.990936279296875,0.0039520263671875,-0.067169189453125
1761916087931669500,3.45066943359375,-0.9880523681640625,0.003631591796875,-0.0658416748046875
1761916087941724400,3.460724365234375,-0.987823486328125,0.0032806396484375,-0.0657196044921875
1761916087951779600,3.470779541015625,-0.98907470703125,0.0025177001953125,-0.0667877197265625
1761916087961833500,3.48083349609375,-0.9884185791015625,0.00146484375,-0.066070556640625
1761916087971888600,3.490888671875,-0.9879302978515625,0.002960205078125,-0.066619873046875
1761916087981943600,3.500943603515625,-0.9873046875,0.0032501220703125,-0.06695556640625
1761916087991998700,3.510998779296875,-0.98773193359375,0.002838134765625,-0.06640625
1761916088002053400,3.521053466796875,-0.988006591796875,0.0023345947265625,-0.066162109375
1761916088012108500,3.531108642578125,-0.98944091796875,0.002838134765625,-0.0668182373046875
1761916088022163700,3.541163818359375,-0.9880828857421875,0.0010986328125,-0.067596435546875
1761916088032218400,3.55121826171875,-0.98834228515625,0.0022125244140625,-0.0671234130859375
1761916088042272500,3.5612724609375,-0.989349365234375,0.0030670166015625,-0.0663604736328125
1761916088052327700,3.57132763671875,-0.9888458251953125,0.0028076171875,-0.0668487548828125
1761916088062382300,3.58138232421875,-0.9881134033203125,0.00286865234375,-0.0671844482421875
1761916088072437500,3.5914375,-0.988250732421875,0.0031585693359375,-0.06695556640625
1761916088082492700,3.60149267578125,-0.988861083984375,0.001861572265625,-0.0680999755859375
1761916088092547600,3.611547607421875,-0.9882965087890625,0.0010833740234375,-0.06695556640625
1761916088102602500,3.6216025390625,-0.987701416015625,0.0023651123046875,-0.067413330078125
1761916088112657700,3.63165771484375,-0.9879150390625,0.0037994384765625,-0.0673065185546875
1761916088122711600,3.641711669921875,-0.98760986328125,0.0033721923828125,-0.0670013427734375
1761916088132766500,3.651766357421875,-0.9884796142578125,0.0036163330078125,-0.0672760009765625
1761916088142821600,3.661821533203125,-0.988250732421875,0.002838134765625,-0.0674896240234375
1761916088152876500,3.67187646484375,-0.98773193359375,0.0026397705078125,-0.0665740966796875
1761916088162931700,3.681931640625,-0.9876708984375,0.0013885498046875,-0.0668182373046875
1761916088172986600,3.691986572265625,-0.98834228515625,0.002716064453125,-0.06634521484375
1761916088183041500,3.70204150390625,-0.989013671875,0.0016937255859375,-0.066253662109375
1761916088193096700,3.7120966796875,-0.9879150390625,0.001068115234375,-0.0657501220703125
1761916088203151400,3.7221513671875,-0.98779296875,0.0017852783203125,-0.0672607421875
1761916088213205500,3.73220556640625,-0.9881439208984375,0.002471923828125,-0.0680694580078125
1761916088223260700,3.7422607421875,-0.98797607421875,0.0033111572265625,-0.066925048828125
1761916088233315600,3.752315673828125,-0.9887237548828125,0.003265380859375,-0.067108154296875
1761916088243370500,3.76237060546875,-0.98883056640625,0.0028228759765625,-0.0664215087890625
1761916088253425700,3.77242578125,-0.988067626953125,0.0027618408203125,-0.0674896240234375
1761916088263480600,3.78248046875,-0.988037109375,0.0014801025390625,-0.066650390625
1761916088273535500,3.792535400390625,-0.9887237548828125,0.00262451171875,-0.066680908203125
1761916088283590700,3.802590576171875,-0.9885711669921875,0.0020751953125,-0.066986083984375
1761916088293644500,3.81264453125,-0.988067626953125,0.0027618408203125,-0.06707763671875
1761916088303699500,3.822699462890625,-0.98773193359375,0.0022430419921875,-0.06671142578125
1761916088313754600,3.832754638671875,-0.988861083984375,0.0028839111328125,-0.0673675537109375
1761916088323809500,3.8428095703125,-0.9884185791015625,0.002471923828125,-0.067169189453125
1761916088333864400,3.852864501953125,-0.9876556396484375,0.001556396484375,-0.06689453125
1761916088343919600,3.862919677734375,-0.9873046875,0.002227783203125,-0.0662689208984375
1761916088353974500,3.872974609375,-0.9885711669921875,0.00244140625,-0.0665740966796875
1761916088364029700,3.88302978515625,-0.9884796142578125,0.0027313232421875,-0.066619873046875
1761916088374083600,3.89308349609375,-0.9874725341796875,0.0034332275390625,-0.067840576171875
1761916088384138500,3.903138427734375,-0.9878082275390625,0.0030670166015625,-0.0669097900390625
1761916088394193700,3.913193603515625,-0.98809814453125,0.0019683837890625,-0.0660858154296875
1761916088404248600,3.92324853515625,-0.989471435546875,0.0027923583984375,-0.066497802734375
1761916088414303500,3.933303466796875,-0.9886474609375,0.0021820068359375,-0.0672149658203125
1761916088424358700,3.943358642578125,-0.98797607421875,0.003021240234375,-0.0671844482421875
1761916088434413600,3.95341357421875,-0.9885101318359375,0.0019073486328125,-0.06658935546875
1761916088444468500,3.963468505859375,-0.9886932373046875,0.00274658203125,-0.0660400390625
1761916088454523600,3.973523681640625,-0.9884185791015625,0.0027313232421875,-0.067413330078125
1761916088464577800,3.983577880859375,-0.9869842529296875,0.0020294189453125,-0.067291259765625
1761916088474632400,3.993632568359375,-0.9874114990234375,0.002166748046875,-0.067840576171875
1761916088484687600,4.0036875,-0.9885406494140625,0.002349853515625,-0.0672760009765625
1761916088494742500,4.013742431640625,-0.9890289306640625,0.0024261474609375,-0.066925048828125
1761916088504797400,4.02379736328125,-0.988525390625,0.00335693359375,-0.0674285888671875
1761916088514852600,4.0338525390625,-0.987579345703125,0.003509521484375,-0.0663604736328125
1761916088524907800,4.04390771484375,-0.988006591796875,0.00286865234375,-0.0675048828125
1761916088534962700,4.053962646484375,-0.987548828125,0.0039825439453125,-0.0675201416015625
1761916088545016800,4.064016845703125,-0.9868621826171875,0.0032806396484375,-0.0660247802734375
1761916088555071700,4.07407177734375,-0.9876861572265625,0.001861572265625,-0.066986083984375
1761916088565126700,4.084126708984375,-0.9885711669921875,0.00030517578125,-0.0670318603515625
1761916088575181800,4.094181884765625,-0.9890899658203125,0.0006256103515625,-0.0676422119140625
1761916088585236700,4.10423681640625,-0.98687744140625,0.001434326171875,-0.0659332275390625
1761916088595292000,4.1142919921875,-0.9886322021484375,0.001983642578125,-0.066558837890625
1761916088605346600,4.1243466796875,-0.988922119140625,0.0035858154296875,-0.067291259765625
1761916088615401700,4.134401611328125,-0.98858642578125,0.0036773681640625,-0.0679931640625
1761916088625457000,4.144456787109375,-0.98681640625,0.002471923828125,-0.0680694580078125
1761916088635510800,4.1545107421875,-0.9874420166015625,0.00128173828125,-0.065704345703125
1761916088645565700,4.164565673828125,-0.9899444580078125,0.003570556640625,-0.066009521484375
1761916088655620900,4.174620849609375,-0.9890594482421875,0.0030059814453125,-0.06634521484375
1761916088665675800,4.18467578125,-0.9863128662109375,0.0024261474609375,-0.067352294921875
1761916088675730700,4.194730712890625,-0.987548828125,0.0027313232421875,-0.0677337646484375
1761916088685785900,4.204785888671875,-0.9885406494140625,0.0016937255859375,-0.0671844482421875
1761916088695840800,4.2148408203125,-0.98895263671875,0.00146484375,-0.066558837890625
1761916088705895700,4.224895751953125,-0.988189697265625,0.00286865234375,-0.066864013671875
1761916088715950800,4.234950927734375,-0.988311767578125,0.0022430419921875,-0.06683349609375
1761916088726004700,4.245004638671875,-0.9890289306640625,0.0019683837890625,-0.0673370361328125
1761916088736059600,4.2550595703125,-0.9896697998046875,0.0018157958984375,-0.0660858154296875
1761916088746114800,4.26511474609375,-0.98797607421875,0.0030059814453125,-0.066070556640625
1761916088756169700,4.275169677734375,-0.9877471923828125,0.0029754638671875,-0.06646728515625
1761916088766225000,4.285224853515625,-0.9883270263671875,0.0016937255859375,-0.067413330078125
1761916088776279800,4.29527978515625,-0.98895263671875,0.0027618408203125,-0.066131591796875
1761916088786334700,4.305334716796875,-0.988739013671875,0.002288818359375,-0.0669403076171875
1761916088796390000,4.315389892578125,-0.9875335693359375,0.0023193359375,-0.066986083984375
1761916088806444800,4.32544482421875,-0.9879913330078125,0.00177001953125,-0.0675506591796875
1761916088816498700,4.335498779296875,-0.98779296875,0.0016632080078125,-0.06561279296875
1761916088826553900,4.345553955078125,-0.988616943359375,0.002716064453125,-0.06683349609375
1761916088836608800,4.35560888671875,-0.9879302978515625,0.0036468505859375,-0.066741943359375
1761916088846663700,4.36566357421875,-0.98760986328125,0.003326416015625,-0.0662994384765625
1761916088856718800,4.37571875,-0.987884521484375,0.0028076171875,-0.066864013671875
1761916088866773800,4.385773681640625,-0.989044189453125,0.00250244140625,-0.0665130615234375
1761916088876828700,4.39582861328125,-0.9887237548828125,0.0021209716796875,-0.0668487548828125
1761916088886883800,4.4058837890625,-0.9879913330078125,0.0021209716796875,-0.066619873046875
1761916088896937700,4.415937744140625,-0.988433837890625,0.00286865234375,-0.067962646484375
1761916088906992600,4.42599267578125,-0.98870849609375,0.0028533935546875,-0.0662689208984375
1761916088917047800,4.4360478515625,-0.9879608154296875,0.00189208984375,-0.0659942626953125
1761916088927102700,4.446102783203125,-0.9878692626953125,0.001495361328125,-0.06634521484375
1761916088937158000,4.456157958984375,-0.98779296875,0.0028228759765625,-0.0670318603515625
1761916088947212800,4.466212890625,-0.988800048828125,0.0021209716796875,-0.066925048828125
1761916088957267700,4.476267822265625,-0.9876708984375,0.001983642578125,-0.0668182373046875
1761916088967323000,4.486322998046875,-0.9880523681640625,0.002227783203125,-0.0670013427734375
1761916088977377500,4.49637744140625,-0.9867095947265625,0.0030364990234375,-0.067230224609375
1761916088987431700,4.506431640625,-0.98822021484375,0.0027618408203125,-0.0668487548828125
1761916088997486800,4.51648681640625,-0.9891815185546875,0.002532958984375,-0.066864013671875
1761916089007541800,4.526541748046875,-0.988128662109375,0.001983642578125,-0.0671844482421875
1761916089017596700,4.5365966796875,-0.9879913330078125,0.0025634765625,-0.0670928955078125
1761916089027651800,4.54665185546875,-0.987213134765625,0.001953125,-0.06695556640625
1761916089037706800,4.556706787109375,-0.98797607421875,0.00238037109375,-0.0670623779296875
1761916089047761700,4.56676171875,-0.98870849609375,0.0029449462890625,-0.0670623779296875
1761916089057816800,4.57681689453125,-0.9874114990234375,0.0026397705078125,-0.0667877197265625
1761916089067871700,4.586871826171875,-0.9878387451171875,0.003143310546875,-0.0665435791015625
1761916089077927000,4.596927001953125,-0.9884490966796875,0.0032501220703125,-0.0673370361328125
1761916089087980800,4.606980712890625,-0.98931884765625,0.003204345703125,-0.0672607421875
1761916089098035700,4.61703564453125,-0.988494873046875,0.002166748046875,-0.067047119140625
1761916089108091000,4.6270908203125,-0.988067626953125,0.00244140625,-0.0675506591796875
1761916089118145800,4.637145751953125,-0.9878692626953125,0.0027618408203125,-0.0667877197265625
1761916089128200700,4.64720068359375,-0.98870849609375,0.0023040771484375,-0.0667572021484375
1761916089138256000,4.657255859375,-0.98883056640625,0.0030975341796875,-0.066436767578125
1761916089148310800,4.667310791015625,-0.98809814453125,0.002593994140625,-0.0668182373046875
1761916089158365700,4.67736572265625,-0.987030029296875,0.003448486328125,-0.0668182373046875
1761916089168420900,4.6874208984375,-0.988250732421875,0.0032196044921875,-0.06707763671875
1761916089178474800,4.697474853515625,-0.988739013671875,0.0033111572265625,-0.0669708251953125
1761916089188529700,4.70752978515625,-0.9881591796875,0.0021514892578125,-0.067596435546875
1761916089198584800,4.717584716796875,-0.9877777099609375,0.0034332275390625,-0.06689453125
1761916089208639700,4.7276396484375,-0.9879302978515625,0.0024566650390625,-0.0671234130859375
1761916089218694700,4.737694580078125,-0.988372802734375,0.0011444091796875,-0.0668487548828125
1761916089228749800,4.747749755859375,-0.988311767578125,0.00213623046875,-0.0669403076171875
1761916089238804700,4.7578046875,-0.9881591796875,0.00225830078125,-0.066314697265625
1761916089248860000,4.76785986328125,-0.9888763427734375,0.0026397705078125,-0.065887451171875
1761916089258914800,4.777914794921875,-0.988128662109375,0.00250244140625,-0.0667572021484375
1761916089268969700,4.7879697265625,-0.9879302978515625,0.0036468505859375,-0.067352294921875
1761916089279023900,4.79802392578125,-0.9888153076171875,0.002532958984375,-0.06756591796875
1761916089289078800,4.808078857421875,-0.9879302978515625,0.0020904541015625,-0.0669708251953125
1761916089299133700,4.8181337890625,-0.987060546875,0.0025482177734375,-0.0669097900390625
1761916089309188900,4.82818896484375,-0.986907958984375,0.0023651123046875,-0.06707763671875
1761916089319243800,4.838243896484375,-0.988616943359375,0.0032806396484375,-0.0673370361328125
1761916089329298700,4.848298583984375,-0.988433837890625,0.002349853515625,-0.0664215087890625
1761916089339353900,4.858353759765625,-0.9874267578125,0.0033721923828125,-0.0674591064453125
1761916089349408800,4.86840869140625,-0.9880523681640625,0.00244140625,-0.0665435791015625
1761916089359463700,4.878463623046875,-0.987762451171875,0.0018463134765625,-0.0669097900390625
1761916089369517800,4.888517822265625,-0.988525390625,0.002410888671875,-0.06658935546875
1761916089379573000,4.898572998046875,-0.988006591796875,0.00299072265625,-0.0672607421875
1761916089389627600,4.908627685546875,-0.9873046875,0.002105712890625,-0.066650390625
1761916089399682800,4.918682861328125,-0.9886474609375,0.00238037109375,-0.0664825439453125
1761916089409737700,4.92873779296875,-0.9890289306640625,0.00115966796875,-0.066650390625
1761916089419792600,4.938792724609375,-0.9877166748046875,0.002685546875,-0.0671539306640625
1761916089429847800,4.948847900390625,-0.98675537109375,0.0023193359375,-0.0671844482421875
1761916089439902700,4.95890283203125,-0.9882354736328125,0.0025787353515625,-0.0674285888671875
1761916089449958000,4.9689580078125,-0.9889984130859375,0.00335693359375,-0.0660858154296875
1761916089460011800,4.97901171875,-0.989532470703125,0.0030517578125,-0.0668487548828125
1761916089470066700,4.989066650390625,-0.9877471923828125,0.0037384033203125,-0.0672149658203125
1761916089480121900,4.999121826171875,-0.98797607421875,0.0038909912109375,-0.0669403076171875
1761916089490176800,5.0091767578125,-0.988067626953125,0.0028228759765625,-0.06732177734375
1761916089500231700,5.019231689453125,-0.98846435546875,0.0031280517578125,-0.066619873046875
1761916089510286800,5.029286865234375,-0.9878997802734375,0.0020599365234375,-0.0668487548828125
1761916089520341800,5.039341796875,-0.98748779296875,0.0020294189453125,-0.067901611328125
1761916089530396400,5.049396484375,-0.987945556640625,0.002777099609375,-0.0675201416015625
1761916089540451600,5.05945166015625,-0.9896697998046875,0.0024566650390625,-0.0667266845703125
1761916089550506200,5.06950634765625,-0.9887847900390625,0.0030364990234375,-0.0666961669921875
1761916089560561400,5.0795615234375,-0.987884521484375,0.002197265625,-0.0657958984375
1761916089570615600,5.089615478515625,-0.9876708984375,0.0023651123046875,-0.0670928955078125
1761916089580670500,5.09967041015625,-0.98773193359375,0.002960205078125,-0.0673980712890625
1761916089590725400,5.109725341796875,-0.9888458251953125,0.0028076171875,-0.06671142578125
1761916089600780500,5.119780517578125,-0.9885101318359375,0.0031280517578125,-0.0666046142578125
1761916089610835500,5.12983544921875,-0.9888458251953125,0.0026702880859375,-0.067657470703125
1761916089620890400,5.139890380859375,-0.98828125,0.002655029296875,-0.067291259765625
1761916089630945500,5.149945556640625,-0.9882965087890625,0.0027618408203125,-0.0666961669921875
1761916089640997400,5.159997314453125,-0.9878082275390625,0.002777099609375,-0.0667877197265625
1761916089651052500,5.170052490234375,-0.989288330078125,0.0031280517578125,-0.0662689208984375
1761916089661107500,5.180107421875,-0.987457275390625,0.0029296875,-0.0662689208984375
1761916089671162400,5.190162353515625,-0.9879302978515625,0.0022125244140625,-0.0669403076171875
1761916089681217500,5.200217529296875,-0.9886016845703125,0.002227783203125,-0.0672760009765625
1761916089691272400,5.2102724609375,-0.988433837890625,0.0028533935546875,-0.067138671875
1761916089701326300,5.220326416015625,-0.9877777099609375,0.00262451171875,-0.0666351318359375
1761916089711381500,5.230381591796875,-0.9877471923828125,0.002838134765625,-0.0669097900390625
1761916089721436400,5.2404365234375,-0.98876953125,0.0024871826171875,-0.0670318603515625
1761916089731491300,5.2504912109375,-0.98822021484375,0.0030059814453125,-0.0662384033203125
1761916089741546500,5.26054638671875,-0.9882049560546875,0.0037078857421875,-0.066741943359375
1761916089751601400,5.270601318359375,-0.9882659912109375,0.003326416015625,-0.0665283203125
1761916089761656600,5.280656494140625,-0.988433837890625,0.001983642578125,-0.066619873046875
1761916089771711200,5.290711181640625,-0.9886627197265625,0.0022125244140625,-0.0672607421875
1761916089781766400,5.300766357421875,-0.9883270263671875,0.0029754638671875,-0.0669403076171875
1761916089791821600,5.310821533203125,-0.9876251220703125,0.0032196044921875,-0.0665740966796875
1761916089801876500,5.32087646484375,-0.9883575439453125,0.0017242431640625,-0.0662384033203125
1761916089811930400,5.330930419921875,-0.989410400390625,0.002197265625,-0.0665130615234375
1761916089821985500,5.340985595703125,-0.98919677734375,0.002655029296875,-0.0668487548828125
1761916089832040400,5.35104052734375,-0.9886016845703125,0.0016021728515625,-0.0665130615234375
1761916089842095400,5.361095458984375,-0.9884185791015625,0.0029144287109375,-0.0669097900390625
1761916089852150500,5.371150634765625,-0.98828125,0.00311279296875,-0.0665435791015625
1761916089862205400,5.381205322265625,-0.988861083984375,0.002532958984375,-0.0666656494140625
1761916089872260400,5.39126025390625,-0.9875335693359375,0.0022735595703125,-0.066314697265625
1761916089882315500,5.4013154296875,-0.9878387451171875,0.0031280517578125,-0.0669097900390625
1761916089892370400,5.411370361328125,-0.9878997802734375,0.0027923583984375,-0.06719970703125
1761916089902425600,5.421425537109375,-0.9882659912109375,0.002349853515625,-0.0661163330078125
1761916089912479500,5.4314794921875,-0.98858642578125,0.0030364990234375,-0.0669708251953125
1761916089922534400,5.441534423828125,-0.98846435546875,0.0019378662109375,-0.0667266845703125
1761916089932589600,5.451589599609375,-0.9878997802734375,0.0027313232421875,-0.0678253173828125
1761916089942644500,5.46164453125,-0.9878692626953125,0.00244140625,-0.0678863525390625
1761916089952699400,5.471699462890625,-0.9878692626953125,0.0020294189453125,-0.0665283203125
1761916089962754600,5.481754638671875,-0.9879302978515625,0.0015716552734375,-0.066436767578125
1761916089972809500,5.4918095703125,-0.988006591796875,0.0020294189453125,-0.0672760009765625
1761916089982864400,5.501864501953125,-0.988067626953125,0.0016632080078125,-0.067230224609375
1761916089992919600,5.51191943359375,-0.9881744384765625,0.002838134765625,-0.067626953125
1761916090002974500,5.521974365234375,-0.9900054931640625,0.0025634765625,-0.0672454833984375
1761916090013028400,5.5320283203125,-0.9885406494140625,0.0023956298828125,-0.0666046142578125
1761916090023083500,5.54208349609375,-0.9875640869140625,0.0025482177734375,-0.0662384033203125
1761916090033138400,5.552138427734375,-0.989044189453125,0.0021209716796875,-0.0670166015625
1761916090043193300,5.562193359375,-0.988067626953125,0.002197265625,-0.0666351318359375
1761916090053248500,5.57224853515625,-0.987579345703125,0.0027008056640625,-0.0673675537109375
1761916090063303400,5.582303466796875,-0.9876556396484375,0.0037841796875,-0.0665283203125
1761916090073358600,5.592358642578125,-0.9882049560546875,0.0030670166015625,-0.0662689208984375
1761916090083413200,5.602413330078125,-0.989501953125,0.00323486328125,-0.0667572021484375
1761916090093468400,5.612468505859375,-0.988311767578125,0.0032196044921875,-0.0671539306640625
1761916090103523600,5.622523681640625,-0.98712158203125,0.0021514892578125,-0.0677032470703125
1761916090113578200,5.632578125,-0.98895263671875,0.0022735595703125,-0.067169189453125
1761916090123632400,5.64263232421875,-0.989349365234375,0.0016021728515625,-0.06744384765625
1761916090133687600,5.6526875,-0.9868927001953125,0.0016326904296875,-0.0667266845703125
1761916090143742200,5.6627421875,-0.9871978759765625,0.0022735595703125,-0.06756591796875
1761916090153797400,5.67279736328125,-0.98809814453125,0.0027008056640625,-0.0669403076171875
1761916090163852500,5.6828525390625,-0.9889678955078125,0.003326416015625,-0.0670013427734375
1761916090173907500,5.692907470703125,-0.9882659912109375,0.0019683837890625,-0.066680908203125
1761916090183964400,5.70296435546875,-0.9877166748046875,0.002288818359375,-0.0666961669921875
1761916090194019300,5.713019287109375,-0.9876708984375,0.003143310546875,-0.066864013671875
1761916090204074500,5.723074462890625,-0.9880828857421875,0.002105712890625,-0.066802978515625
1761916090214129400,5.73312939453125,-0.988922119140625,0.0028839111328125,-0.0666351318359375
1761916090224184600,5.7431845703125,-0.98876953125,0.0024261474609375,-0.066741943359375
1761916090234239200,5.7532392578125,-0.9877777099609375,0.0037994384765625,-0.0663909912109375
1761916090244294400,5.76329443359375,-0.9883575439453125,0.002777099609375,-0.0669097900390625
1761916090254349600,5.773349609375,-0.9877777099609375,0.00238037109375,-0.06689453125
1761916090264404500,5.783404541015625,-0.9883575439453125,0.0027008056640625,-0.06719970703125
1761916090274459400,5.79345947265625,-0.9886322021484375,0.002960205078125,-0.0665283203125
1761916090284514300,5.803514404296875,-0.9877471923828125,0.002410888671875,-0.06689453125
1761916090294568400,5.813568359375,-0.9877166748046875,0.0023040771484375,-0.066925048828125
1761916090304623400,5.823623291015625,-0.9870452880859375,0.00238037109375,-0.0677032470703125
1761916090314678500,5.833678466796875,-0.9875335693359375,0.0025177001953125,-0.0670166015625
1761916090324733400,5.8437333984375,-0.9879608154296875,0.0023040771484375,-0.0667266845703125
1761916090334788400,5.853788330078125,-0.9886322021484375,0.0027008056640625,-0.0671539306640625
1761916090344843300,5.86384326171875,-0.988800048828125,0.003265380859375,-0.06744384765625
1761916090354898400,5.8738984375,-0.98822021484375,0.002777099609375,-0.0666961669921875
1761916090364953600,5.88395361328125,-0.9882354736328125,0.00201416015625,-0.066558837890625
1761916090375008300,5.89400830078125,-0.9884185791015625,0.001708984375,-0.0665740966796875
1761916090385063400,5.9040634765625,-0.9884033203125,0.0019073486328125,-0.0672454833984375
1761916090395118600,5.91411865234375,-0.987548828125,0.003265380859375,-0.0674896240234375
1761916090405172200,5.924172119140625,-0.9874114990234375,0.0029296875,-0.0670623779296875
1761916090415227400,5.934227294921875,-0.988922119140625,0.0040435791015625,-0.06658935546875
1761916090425282600,5.944282470703125,-0.9882965087890625,0.002655029296875,-0.0661468505859375
1761916090435337500,5.95433740234375,-0.987213134765625,0.0029449462890625,-0.0662689208984375
1761916090445392400,5.964392333984375,-0.9882049560546875,0.0017242431640625,-0.0667266845703125
1761916090455447600,5.974447509765625,-0.9886627197265625,0.002716064453125,-0.0666656494140625
1761916090465502500,5.98450244140625,-0.9879150390625,0.0027618408203125,-0.065826416015625
1761916090475557400,5.994557373046875,-0.9880828857421875,0.002838134765625,-0.0665283203125
1761916090485612300,6.0046123046875,-0.9888153076171875,0.0034332275390625,-0.06640625
1761916090495667500,6.01466748046875,-0.9878997802734375,0.002960205078125,-0.066436767578125
1761916090505722600,6.02472265625,-0.9887542724609375,0.00244140625,-0.06671142578125
1761916090515776500,6.034776611328125,-0.9887237548828125,0.0020751953125,-0.0671539306640625
1761916090525831700,6.044831787109375,-0.987274169921875,0.0013885498046875,-0.0672607421875
1761916090535886800,6.054886962890625,-0.988739013671875,0.003387451171875,-0.066864013671875
1761916090545941500,6.06494140625,-0.9889984130859375,0.0028533935546875,-0.0666656494140625
1761916090555996700,6.07499658203125,-0.9883270263671875,0.002471923828125,-0.066986083984375
1761916090566051800,6.0850517578125,-0.988006591796875,0.0022735595703125,-0.0662689208984375
1761916090576106800,6.095106689453125,-0.9874114990234375,0.00225830078125,-0.0670623779296875
1761916090586161700,6.10516162109375,-0.9886474609375,0.0025482177734375,-0.0670318603515625
1761916090596216600,6.115216552734375,-0.98876953125,0.0034027099609375,-0.0664825439453125
1761916090606271700,6.125271728515625,-0.9883575439453125,0.00262451171875,-0.06640625
1761916090616326700,6.13532666015625,-0.988525390625,0.0025482177734375,-0.06719970703125
1761916090626380800,6.145380859375,-0.9886474609375,0.002410888671875,-0.067474365234375
1761916090636435700,6.155435791015625,-0.9879302978515625,0.002777099609375,-0.066802978515625
1761916090646490600,6.16549072265625,-0.988189697265625,0.0026702880859375,-0.0674896240234375
1761916090656545500,6.175545654296875,-0.98779296875,0.002349853515625,-0.0671539306640625
1761916090666600700,6.1856005859375,-0.9886932373046875,0.0033416748046875,-0.066650390625
1761916090676655900,6.19565576171875,-0.9876861572265625,0.0037384033203125,-0.066680908203125
1761916090686710500,6.20571044921875,-0.987091064453125,0.0023345947265625,-0.066741943359375
1761916090696765700,6.215765625,-0.98797607421875,0.0018768310546875,-0.0669708251953125
1761916090706820600,6.225820556640625,-0.987945556640625,0.0026397705078125,-0.066986083984375
1761916090716875800,6.235875732421875,-0.9887542724609375,0.0025787353515625,-0.066741943359375
1761916090726930700,6.2459306640625,-0.987884521484375,0.0013275146484375,-0.0666656494140625
1761916090736985600,6.255985595703125,-0.988189697265625,0.0027618408203125,-0.0668182373046875
1761916090747039700,6.266039794921875,-0.98858642578125,0.0022430419921875,-0.0668792724609375
1761916090757094700,6.2760947265625,-0.98785400390625,0.0025787353515625,-0.0669403076171875
1761916090767149600,6.286149658203125,-0.9871368408203125,0.002105712890625,-0.0674591064453125
1761916090777204700,6.296204833984375,-0.988067626953125,0.0034332275390625,-0.06768798828125
1761916090787259600,6.306259765625,-0.98797607421875,0.0028533935546875,-0.0669708251953125
1761916090797314600,6.316314453125,-0.987884521484375,0.003387451171875,-0.066741943359375
1761916090807369700,6.32636962890625,-0.988494873046875,0.0024871826171875,-0.0665740966796875
1761916090817425000,6.3364248046875,-0.9892730712890625,0.002105712890625,-0.0669403076171875
1761916090827479600,6.3464794921875,-0.98858642578125,0.00274658203125,-0.0670166015625
1761916090837534700,6.35653466796875,-0.9871978759765625,0.002899169921875,-0.0667724609375
1761916090847589600,6.366589599609375,-0.987457275390625,0.0033111572265625,-0.065765380859375
1761916090857644800,6.376644775390625,-0.9879150390625,0.0023956298828125,-0.06719970703125
1761916090867698700,6.38669873046875,-0.9876861572265625,0.002166748046875,-0.066741943359375
1761916090877753900,6.39675390625,-0.9882965087890625,0.0024261474609375,-0.0675506591796875
1761916090887808800,6.406808837890625,-0.988555908203125,0.003082275390625,-0.0670013427734375
1761916090897863700,6.41686376953125,-0.9872589111328125,0.0028533935546875,-0.066558837890625
1761916090907918600,6.426918701171875,-0.9880218505859375,0.002655029296875,-0.0657501220703125
1761916090917973800,6.436973876953125,-0.9884796142578125,0.0017242431640625,-0.066314697265625
1761916090928028700,6.447028564453125,-0.9873504638671875,0.0025634765625,-0.0667877197265625
1761916090938083600,6.45708349609375,-0.9863128662109375,0.00225830078125,-0.066680908203125
1761916090948138800,6.467138671875,-0.9881591796875,0.0017852783203125,-0.066375732421875
1761916090958193700,6.477193603515625,-0.988250732421875,0.002471923828125,-0.06658935546875
1761916090968248600,6.48724853515625,-0.988128662109375,0.0036773681640625,-0.0674285888671875
1761916090978303700,6.4973037109375,-0.9890289306640625,0.0016021728515625,-0.0667572021484375
1761916090988358000,6.50735791015625,-0.987762451171875,0.002593994140625,-0.067138671875
1761916090998412500,6.51741259765625,-0.9875946044921875,0.002593994140625,-0.066162109375
1761916091008467700,6.5274677734375,-0.9879150390625,0.00201416015625,-0.0667572021484375
1761916091018522600,6.537522705078125,-0.98822021484375,0.0020904541015625,-0.0659332275390625
1761916091028577800,6.547577880859375,-0.9882049560546875,0.0023193359375,-0.06683349609375
1761916091038632700,6.5576328125,-0.9876861572265625,0.002960205078125,-0.0674285888671875
1761916091048687600,6.5676875,-0.98876953125,0.0025482177734375,-0.06683349609375
1761916091058742800,6.57774267578125,-0.989105224609375,0.00225830078125,-0.0667877197265625
1761916091068797700,6.587797607421875,-0.9878387451171875,0.002593994140625,-0.06719970703125
1761916091078852600,6.5978525390625,-0.9876556396484375,0.0023345947265625,-0.0670928955078125
1761916091088907800,6.60790771484375,-0.9875335693359375,0.003265380859375,-0.067138671875
1761916091098962700,6.617962646484375,-0.9891204833984375,0.0027008056640625,-0.066680908203125
1761916091109016600,6.6280166015625,-0.9878082275390625,0.0026092529296875,-0.067291259765625
1761916091119071700,6.63807177734375,-0.9882354736328125,0.003204345703125,-0.0660552978515625
1761916091129127000,6.648126953125,-0.988250732421875,0.0019989013671875,-0.066253662109375
1761916091139181600,6.658181640625,-0.988555908203125,0.0026702880859375,-0.0670318603515625
1761916091149236700,6.66823681640625,-0.9885101318359375,0.0019073486328125,-0.0670166015625
1761916091159291600,6.678291748046875,-0.9870452880859375,0.0013885498046875,-0.0672760009765625
1761916091169346600,6.6883466796875,-0.988494873046875,0.00146484375,-0.0671234130859375
1761916091179401700,6.698401611328125,-0.988922119140625,0.00323486328125,-0.0673370361328125
1761916091189456600,6.70845654296875,-0.98809814453125,0.00225830078125,-0.067108154296875
1761916091199511800,6.71851171875,-0.9871063232421875,0.0030975341796875,-0.066680908203125
1761916091209566700,6.728566650390625,-0.9879150390625,0.002166748046875,-0.0668182373046875
1761916091219621600,6.73862158203125,-0.987945556640625,0.0013275146484375,-0.0673675537109375
1761916091229676800,6.7486767578125,-0.9876708984375,0.0016021728515625,-0.0666351318359375
1761916091239730700,6.758730712890625,-0.98834228515625,0.0023040771484375,-0.0667724609375
1761916091249785600,6.76878564453125,-0.9876556396484375,0.003570556640625,-0.06732177734375
1761916091259840800,6.7788408203125,-0.9877471923828125,0.002044677734375,-0.0672149658203125
1761916091269895700,6.788895751953125,-0.9880218505859375,0.002349853515625,-0.0666961669921875
1761916091279950600,6.79895068359375,-0.98809814453125,0.003143310546875,-0.0674896240234375
1761916091290005800,6.809005859375,-0.9881439208984375,0.002105712890625,-0.0668487548828125
1761916091300060700,6.819060791015625,-0.9887542724609375,0.002716064453125,-0.0662689208984375
1761916091310115600,6.829115478515625,-0.9885711669921875,0.0025787353515625,-0.0666046142578125
1761916091320170800,6.839170654296875,-0.987640380859375,0.003265380859375,-0.0667266845703125
1761916091330225700,6.8492255859375,-0.9879913330078125,0.0022430419921875,-0.066925048828125
1761916091340280800,6.85928076171875,-0.9879150390625,0.0024261474609375,-0.0664215087890625
1761916091350335500,6.86933544921875,-0.988861083984375,0.00335693359375,-0.0666961669921875
1761916091360389600,6.8793896484375,-0.9884490966796875,0.002532958984375,-0.0671234130859375
1761916091370444800,6.88944482421875,-0.9892578125,0.002593994140625,-0.0673828125
1761916091380499700,6.899499755859375,-0.9887237548828125,0.0023345947265625,-0.06683349609375
1761916091390554600,6.9095546875,-0.9879150390625,0.0026397705078125,-0.0667572021484375
1761916091400609800,6.91960986328125,-0.9871673583984375,0.0024566650390625,-0.0670013427734375
1761916091410664700,6.929664794921875,-0.988983154296875,0.0023040771484375,-0.0668487548828125
1761916091420719600,6.9397197265625,-0.9884796142578125,0.002471923828125,-0.0666351318359375
1761916091430774800,6.94977490234375,-0.98785400390625,0.0023345947265625,-0.066497802734375
1761916091440829700,6.95982958984375,-0.9881134033203125,0.00323486328125,-0.06646728515625
1761916091450884600,6.969884521484375,-0.98919677734375,0.004241943359375,-0.0674896240234375
1761916091460939500,6.979939453125,-0.98828125,0.0031890869140625,-0.066925048828125
1761916091470994700,6.98999462890625,-0.9881439208984375,0.0006103515625,-0.066650390625
1761916091481049900,7.0000498046875,-0.9873809814453125,0.0018310546875,-0.06756591796875
1761916091491104500,7.0101044921875,-0.9886932373046875,0.00189208984375,-0.0673980712890625
1761916091501158700,7.02015869140625,-0.988555908203125,0.0023956298828125,-0.0673065185546875
1761916091511213800,7.0302138671875,-0.9873504638671875,0.0025634765625,-0.0672760009765625
1761916091521268500,7.0402685546875,-0.9871368408203125,0.002044677734375,-0.0670013427734375
1761916091531323400,7.050323486328125,-0.987579345703125,0.0031585693359375,-0.066253662109375
1761916091541378600,7.060378662109375,-0.9872589111328125,0.0028228759765625,-0.0668182373046875
1761916091551433200,7.07043310546875,-0.987945556640625,0.00299072265625,-0.0660400390625
1761916091561488400,7.08048828125,-0.9885406494140625,0.0028228759765625,-0.066253662109375
1761916091571543600,7.09054345703125,-0.988800048828125,0.002716064453125,-0.067413330078125
1761916091581598200,7.10059814453125,-0.9871368408203125,0.00262451171875,-0.067626953125
1761916091591653400,7.1106533203125,-0.9871826171875,0.0033111572265625,-0.0672607421875
1761916091601708300,7.120708251953125,-0.98809814453125,0.0029296875,-0.0669097900390625
1761916091611763500,7.130763427734375,-0.9881134033203125,0.001739501953125,-0.066741943359375
1761916091621818400,7.140818359375,-0.9871368408203125,0.001617431640625,-0.06732177734375
1761916091631872500,7.15087255859375,-0.987396240234375,0.0018463134765625,-0.06744384765625
1761916091641927400,7.160927490234375,-0.9878997802734375,0.00250244140625,-0.066314697265625
1761916091651982300,7.170982421875,-0.98870849609375,0.00299072265625,-0.0667266845703125
1761916091662037200,7.181037353515625,-0.9890594482421875,0.0024566650390625,-0.06658935546875
1761916091672092400,7.191092529296875,-0.9878082275390625,0.0024261474609375,-0.06719970703125
1761916091682147600,7.201147705078125,-0.988067626953125,0.00262451171875,-0.0670166015625
1761916091692202200,7.2112021484375,-0.9899139404296875,0.00250244140625,-0.0667266845703125
1761916091702257400,7.22125732421875,-0.9884490966796875,0.00177001953125,-0.066925048828125
1761916091712312600,7.2313125,-0.9879150390625,0.002838134765625,-0.0662078857421875
1761916091722367200,7.2413671875,-0.9888153076171875,0.002227783203125,-0.0667724609375
1761916091732422400,7.25142236328125,-0.9887542724609375,0.002288818359375,-0.0678863525390625
1761916091742477300,7.261477294921875,-0.9867095947265625,0.002410888671875,-0.0666656494140625
1761916091752532500,7.271532470703125,-0.9881591796875,0.0024261474609375,-0.066375732421875
1761916091762587400,7.28158740234375,-0.98846435546875,0.003204345703125,-0.0666351318359375
1761916091772641500,7.2916416015625,-0.9888153076171875,0.0026702880859375,-0.0672607421875
1761916091782696400,7.301696533203125,-0.9886474609375,0.0026092529296875,-0.067657470703125
1761916091792751400,7.31175146484375,-0.9874267578125,0.00225830078125,-0.06683349609375
1761916091802806300,7.32180615234375,-0.9874725341796875,0.00286865234375,-0.0673370361328125
1761916091812861400,7.331861328125,-0.98797607421875,0.0021820068359375,-0.0669708251953125
1761916091822916600,7.34191650390625,-0.987579345703125,0.00250244140625,-0.0673675537109375
1761916091832971300,7.35197119140625,-0.9875946044921875,0.0027923583984375,-0.066497802734375
1761916091843026400,7.3620263671875,-0.988037109375,0.0028076171875,-0.0668182373046875
1761916091853081300,7.372081298828125,-0.987884521484375,0.0027313232421875,-0.0673065185546875
1761916091863136300,7.38213623046875,-0.988128662109375,0.002105712890625,-0.0679931640625
1761916091873191400,7.39219140625,-0.98870849609375,0.0025177001953125,-0.067718505859375
1761916091883246300,7.402246337890625,-0.988555908203125,0.0018463134765625,-0.0671234130859375
1761916091893301500,7.412301513671875,-0.988555908203125,0.0028228759765625,-0.066802978515625
1761916091903356400,7.4223564453125,-0.9879150390625,0.002532958984375,-0.066802978515625
1761916091913410300,7.432410400390625,-0.988037109375,0.0022125244140625,-0.0670013427734375
1761916091923465500,7.442465576171875,-0.9879608154296875,0.00225830078125,-0.06634521484375
1761916091933520400,7.452520263671875,-0.98846435546875,0.0020751953125,-0.0670166015625
1761916091943575300,7.4625751953125,-0.9877166748046875,0.0026702880859375,-0.0658721923828125
1761916091953630500,7.47263037109375,-0.988861083984375,0.0028533935546875,-0.0664520263671875
1761916091963685600,7.482685546875,-0.988739013671875,0.002593994140625,-0.0672454833984375
1761916091973740300,7.492740234375,-0.988037109375,0.0024566650390625,-0.0670623779296875
1761916091983795500,7.50279541015625,-0.98870849609375,0.0024261474609375,-0.0675506591796875
1761916091993850400,7.512850341796875,-0.9876251220703125,0.00262451171875,-0.0669403076171875
1761916092003905300,7.5229052734375,-0.988372802734375,0.00128173828125,-0.0669708251953125
1761916092013960400,7.53296044921875,-0.9888153076171875,0.00250244140625,-0.0659942626953125
1761916092024015400,7.543015380859375,-0.9885101318359375,0.003082275390625,-0.066741943359375
1761916092034070500,7.553070556640625,-0.986663818359375,0.0030670166015625,-0.0664825439453125
1761916092044125400,7.56312548828125,-0.98797607421875,0.00299072265625,-0.0673675537109375
1761916092054180400,7.573180419921875,-0.989105224609375,0.002349853515625,-0.0672149658203125
1761916092064234500,7.583234375,-0.98907470703125,0.002166748046875,-0.0662841796875
1761916092074289400,7.593289306640625,-0.987396240234375,0.002838134765625,-0.06683349609375
1761916092084344300,7.60334423828125,-0.98651123046875,0.0026092529296875,-0.066650390625
1761916092094399500,7.6133994140625,-0.98834228515625,0.0024261474609375,-0.066131591796875
1761916092104454400,7.623454345703125,-0.9893646240234375,0.0023040771484375,-0.066650390625
1761916092114509300,7.63350927734375,-0.9881591796875,0.0021820068359375,-0.0672607421875
1761916092124564500,7.643564453125,-0.9878387451171875,0.00213623046875,-0.066680908203125
1761916092134619400,7.653619384765625,-0.9875640869140625,0.00372314453125,-0.0664215087890625
1761916092144674300,7.66367431640625,-0.989288330078125,0.002593994140625,-0.066741943359375
1761916092154729500,7.6737294921875,-0.988555908203125,0.00189208984375,-0.0673065185546875
1761916092164784400,7.683784423828125,-0.9876556396484375,0.0023040771484375,-0.067962646484375
1761916092174839600,7.693839599609375,-0.987213134765625,0.0020904541015625,-0.0675048828125
1761916092184894200,7.703894287109375,-0.9880218505859375,0.0030517578125,-0.0663909912109375
1761916092194949400,7.713949462890625,-0.9892730712890625,0.002838134765625,-0.0672454833984375
1761916092205003500,7.72400341796875,-0.987579345703125,0.0032501220703125,-0.067352294921875
1761916092215058400,7.734058349609375,-0.9874114990234375,0.0030517578125,-0.066192626953125
1761916092225113300,7.74411328125,-0.9871978759765625,0.00164794921875,-0.065673828125
1761916092235168500,7.75416845703125,-0.9886016845703125,0.0020294189453125,-0.0660858154296875
1761916092245223200,7.76422314453125,-0.9886627197265625,0.003204345703125,-0.0666656494140625
1761916092255278300,7.7742783203125,-0.988525390625,0.0025787353515625,-0.066558837890625
1761916092265333500,7.78433349609375,-0.988189697265625,0.002166748046875,-0.0671539306640625
1761916092275388400,7.794388427734375,-0.9883575439453125,0.001800537109375,-0.0669097900390625
1761916092285443300,7.804443359375,-0.9876708984375,0.0020904541015625,-0.066864013671875
1761916092295498500,7.81449853515625,-0.987640380859375,0.0016937255859375,-0.066131591796875
1761916092305553400,7.824553466796875,-0.9876251220703125,0.0022735595703125,-0.0670166015625
1761916092315608600,7.834608642578125,-0.9877166748046875,0.0012054443359375,-0.066497802734375
1761916092325663200,7.844663330078125,-0.987335205078125,0.0016632080078125,-0.066375732421875
1761916092335718400,7.854718505859375,-0.9889068603515625,0.002655029296875,-0.0669708251953125
1761916092345773600,7.864773681640625,-0.9891357421875,0.0025787353515625,-0.0673675537109375
1761916092355827500,7.874827392578125,-0.986968994140625,0.0024261474609375,-0.06695556640625
1761916092365882400,7.88488232421875,-0.9885101318359375,0.001983642578125,-0.066650390625
1761916092375937500,7.8949375,-0.9893798828125,0.003448486328125,-0.0663909912109375
1761916092385992200,7.9049921875,-0.98876953125,0.0023651123046875,-0.0667877197265625
1761916092396047400,7.91504736328125,-0.9873199462890625,0.0025787353515625,-0.06658935546875
1761916092406102500,7.9251025390625,-0.988861083984375,0.00341796875,-0.0673980712890625
1761916092416157400,7.935157470703125,-0.98870849609375,0.002044677734375,-0.06622314453125
1761916092426212400,7.94521240234375,-0.988037109375,0.0023651123046875,-0.0658111572265625
1761916092436267300,7.955267333984375,-0.9875030517578125,0.002532958984375,-0.0671234130859375
1761916092446322400,7.965322509765625,-0.98828125,0.00250244140625,-0.0669097900390625
1761916092456377600,7.975377685546875,-0.98919677734375,0.0022430419921875,-0.066253662109375
1761916092466432300,7.985432373046875,-0.9869384765625,0.00225830078125,-0.066680908203125
1761916092476487400,7.9954873046875,-0.9873809814453125,0.00225830078125,-0.06689453125
1761916092486542300,8.005542236328125,-0.9888916015625,0.0028839111328125,-0.067352294921875
1761916092496597200,8.01559716796875,-0.9881744384765625,0.003173828125,-0.067535400390625
1761916092506652400,8.02565234375,-0.98699951171875,0.003448486328125,-0.0673980712890625
1761916092516706600,8.03570654296875,-0.9873046875,0.002899169921875,-0.066650390625
1761916092526762000,8.045761962890625,-0.9883575439453125,0.002532958984375,-0.0666961669921875
1761916092536817200,8.055817138671875,-0.9881591796875,0.0028228759765625,-0.0659332275390625
1761916092546872000,8.0658720703125,-0.9871368408203125,0.0017242431640625,-0.0662994384765625
1761916092556927000,8.075927001953126,-0.9878082275390625,0.0023345947265625,-0.066680908203125
1761916092566982100,8.085982177734374,-0.987213134765625,0.0023345947265625,-0.0672149658203125
1761916092577037000,8.096037109375,-0.9875030517578125,0.002410888671875,-0.067108154296875
1761916092587092000,8.106092041015625,-0.98858642578125,0.0019683837890625,-0.0665740966796875
1761916092597147000,8.11614697265625,-0.98760986328125,0.00299072265625,-0.06689453125
1761916092607202000,8.1262021484375,-0.98724365234375,0.00299072265625,-0.0667877197265625
1761916092617257200,8.13625732421875,-0.9878692626953125,0.003570556640625,-0.066650390625
1761916092627311900,8.146311767578124,-0.9892578125,0.002899169921875,-0.0670318603515625
1761916092637367000,8.156366943359375,-0.9881744384765625,0.00177001953125,-0.066619873046875
1761916092647422000,8.166421875,-0.9879150390625,0.0026092529296875,-0.06768798828125
1761916092657476900,8.176476806640625,-0.9877777099609375,0.0034332275390625,-0.066925048828125
1761916092667532000,8.186531982421876,-0.987548828125,0.0022735595703125,-0.0672607421875
1761916092677586200,8.196586181640624,-0.987884521484375,0.0024261474609375,-0.067779541015625
1761916092687640800,8.206640869140625,-0.9886322021484375,0.002532958984375,-0.067230224609375
1761916092697696000,8.216696044921875,-0.9876251220703125,0.002960205078125,-0.0670318603515625
1761916092707751000,8.2267509765625,-0.9883880615234375,0.0015106201171875,-0.067291259765625
1761916092717806000,8.23680615234375,-0.9888458251953125,0.00201416015625,-0.0664215087890625
1761916092727861000,8.246861083984374,-0.9879150390625,0.002166748046875,-0.067657470703125
1761916092737916000,8.256916015625,-0.9879608154296875,0.0024566650390625,-0.0678253173828125
1761916092747971000,8.26697119140625,-0.988555908203125,0.0024566650390625,-0.0668487548828125
1761916092758026200,8.277026123046875,-0.988525390625,0.002288818359375,-0.06671142578125
1761916092768081000,8.287080810546875,-0.9878082275390625,0.0026397705078125,-0.0664520263671875
1761916092778136000,8.297135986328126,-0.9886474609375,0.0024261474609375,-0.06671142578125
1761916092788191000,8.30719091796875,-0.9882965087890625,0.00274658203125,-0.0662841796875
1761916092798246000,8.317245849609375,-0.9875640869140625,0.0028533935546875,-0.0675506591796875
1761916092808301000,8.327301025390625,-0.9886474609375,0.00299072265625,-0.066436767578125
1761916092818356000,8.33735595703125,-0.9884490966796875,0.0029754638671875,-0.067291259765625
1761916092828411100,8.3474111328125,-0.988006591796875,0.0020904541015625,-0.0673065185546875
1761916092838466000,8.357466064453124,-0.98895263671875,0.0016937255859375,-0.0673065185546875
1761916092848520000,8.36752001953125,-0.98876953125,0.0022430419921875,-0.0652618408203125
1761916092858575000,8.3775751953125,-0.988525390625,0.0020294189453125,-0.0670318603515625
1761916092868630000,8.387630126953125,-0.987213134765625,0.0022430419921875,-0.0672607421875
1761916092878685000,8.397684814453125,-0.986785888671875,0.002410888671875,-0.0664215087890625
1761916092888740000,8.407739990234376,-0.9870452880859375,0.002685546875,-0.0669403076171875
1761916092898795000,8.417794921875,-0.9880218505859375,0.002197265625,-0.0666351318359375
1761916092908850000,8.427849853515625,-0.987457275390625,0.0022125244140625,-0.0663299560546875
1761916092918905000,8.437905029296875,-0.98681640625,0.0019989013671875,-0.0664825439453125
1761916092928960000,8.4479599609375,-0.98822021484375,0.0020751953125,-0.0668182373046875
1761916092939015000,8.458014892578126,-0.98809814453125,0.0023040771484375,-0.067047119140625
1761916092949070000,8.468070068359374,-0.9878692626953125,0.0030975341796875,-0.066986083984375
1761916092959125000,8.478125,-0.987060546875,0.0026092529296875,-0.0677947998046875
1761916092969180200,8.48818017578125,-0.9883270263671875,0.0034637451171875,-0.067291259765625
1761916092979234800,8.49823486328125,-0.9887237548828125,0.0022735595703125,-0.0665130615234375
1761916092989290000,8.5082900390625,-0.98797607421875,0.00341796875,-0.06689453125
1761916092999345200,8.51834521484375,-0.9878082275390625,0.0027923583984375,-0.06793212890625
1761916093009400000,8.528400146484374,-0.987823486328125,0.0020751953125,-0.0674285888671875
1761916093019455000,8.538455078125,-0.9871673583984375,0.0018157958984375,-0.0660400390625
1761916093029509000,8.548509033203125,-0.9871826171875,0.002899169921875,-0.067413330078125
1761916093039564000,8.55856396484375,-0.988006591796875,0.0027923583984375,-0.06768798828125
1761916093049619000,8.568618896484375,-0.987762451171875,0.00274658203125,-0.066925048828125
1761916093059674000,8.578674072265626,-0.9869384765625,0.002899169921875,-0.067108154296875
1761916093069729000,8.58872900390625,-0.9878082275390625,0.002227783203125,-0.0676422119140625
1761916093079784000,8.598783935546875,-0.987823486328125,0.00146484375,-0.0664215087890625
1761916093089839000,8.608839111328125,-0.98822021484375,0.001220703125,-0.0668792724609375
1761916093099894000,8.61889404296875,-0.987701416015625,0.00152587890625,-0.0662384033203125
1761916093109949200,8.62894921875,-0.9872283935546875,0.0025634765625,-0.0666961669921875
1761916093120003800,8.63900390625,-0.987548828125,0.0027618408203125,-0.06646728515625
1761916093130059000,8.64905908203125,-0.9877777099609375,0.0029449462890625,-0.0670928955078125
1761916093140114200,8.6591142578125,-0.9882354736328125,0.0021209716796875,-0.0670013427734375
1761916093150169000,8.669169189453125,-0.9874114990234375,0.00323486328125,-0.0662689208984375
1761916093160224000,8.67922412109375,-0.98822021484375,0.0035858154296875,-0.0670013427734375
1761916093170279000,8.68927880859375,-0.9875946044921875,0.0021209716796875,-0.06689453125
1761916093180334000,8.699333984375,-0.988861083984375,0.002716064453125,-0.067230224609375
1761916093190389000,8.709388916015625,-0.9877166748046875,0.00311279296875,-0.067352294921875
1761916093200444000,8.71944384765625,-0.9875946044921875,0.0031280517578125,-0.0661773681640625
1761916093210499000,8.7294990234375,-0.9875640869140625,0.0029144287109375,-0.0668487548828125
1761916093220554200,8.73955419921875,-0.9879302978515625,0.003387451171875,-0.066650390625
1761916093230608000,8.74960791015625,-0.9874114990234375,0.0024871826171875,-0.06707763671875
1761916093240663000,8.7596630859375,-0.9870147705078125,0.003265380859375,-0.067779541015625
1761916093250718200,8.76971826171875,-0.9874420166015625,0.0026397705078125,-0.0683746337890625
1761916093260772900,8.77977294921875,-0.9873504638671875,0.00201416015625,-0.0677490234375
1761916093270828000,8.789828125,-0.9877166748046875,0.0030975341796875,-0.0666656494140625
1761916093280883200,8.79988330078125,-0.9868316650390625,0.0029449462890625,-0.066650390625
1761916093290938000,8.809938232421874,-0.988677978515625,0.0028228759765625,-0.0671844482421875
1761916093300993000,8.819992919921875,-0.9889068603515625,0.002471923828125,-0.06671142578125
1761916093311048000,8.8300478515625,-0.9878692626953125,0.002960205078125,-0.0668182373046875
1761916093321103000,8.84010302734375,-0.9874267578125,0.0031280517578125,-0.0677337646484375
1761916093331158000,8.850157958984376,-0.9881134033203125,0.001922607421875,-0.066925048828125
1761916093341213000,8.860212890625,-0.9877471923828125,0.003204345703125,-0.0668792724609375
1761916093351268000,8.87026806640625,-0.9888153076171875,0.0020599365234375,-0.067413330078125
1761916093361323000,8.880322998046875,-0.987457275390625,0.001251220703125,-0.06732177734375
1761916093371378000,8.8903779296875,-0.98773193359375,0.0030364990234375,-0.0659027099609375
1761916093381433000,8.90043310546875,-0.9886016845703125,0.002227783203125,-0.0663604736328125
1761916093391488000,8.910488037109374,-0.988800048828125,0.001861572265625,-0.067718505859375
1761916093401543000,8.92054296875,-0.988677978515625,0.0033111572265625,-0.0668792724609375
1761916093411598000,8.93059814453125,-0.9881134033203125,0.0032806396484375,-0.0665283203125
1761916093421653000,8.940653076171875,-0.9882659912109375,0.0027313232421875,-0.066162109375
1761916093431708200,8.950708251953126,-0.9882354736328125,0.0017242431640625,-0.0666961669921875
1761916093441762800,8.9607626953125,-0.9880828857421875,0.001708984375,-0.0672607421875
1761916093451817000,8.97081689453125,-0.9884185791015625,0.0030059814453125,-0.06719970703125
1761916093461872000,8.9808720703125,-0.989044189453125,0.002166748046875,-0.06707763671875
1761916093471927000,8.990927001953125,-0.9881439208984375,0.00341796875,-0.0669403076171875
1761916093481982000,9.00098193359375,-0.989105224609375,0.00372314453125,-0.06683349609375
1761916093492037000,9.011037109375,-0.987945556640625,0.003082275390625,-0.06658935546875
1761916093502092000,9.021092041015624,-0.9880828857421875,0.0022430419921875,-0.06689453125
1761916093512147000,9.03114697265625,-0.988189697265625,0.0029754638671875,-0.0670623779296875
1761916093522202000,9.0412021484375,-0.98785400390625,0.0027008056640625,-0.0663299560546875
1761916093532257000,9.051257080078125,-0.9886932373046875,0.002838134765625,-0.067474365234375
1761916093542312200,9.061312255859375,-0.988555908203125,0.002410888671875,-0.0683441162109375
1761916093552367000,9.0713671875,-0.988250732421875,0.0027313232421875,-0.0667572021484375
1761916093562422000,9.081422119140624,-0.9884033203125,0.0027313232421875,-0.0671539306640625
1761916093572477200,9.091477294921875,-0.9881744384765625,0.00299072265625,-0.0672607421875
1761916093582532000,9.101531982421875,-0.988006591796875,0.0030364990234375,-0.0672454833984375
1761916093592587300,9.111587158203125,-0.9882354736328125,0.0027618408203125,-0.067047119140625
1761916093602642200,9.12164208984375,-0.9876251220703125,0.0023956298828125,-0.067138671875
1761916093612697000,9.131697021484374,-0.987762451171875,0.0027008056640625,-0.066253662109375
1761916093622752300,9.141752197265625,-0.9891815185546875,0.002227783203125,-0.0668792724609375
1761916093632807200,9.15180712890625,-0.9872589111328125,0.0018157958984375,-0.0667266845703125
1761916093642859300,9.161859375,-0.9879302978515625,0.00299072265625,-0.068359375
1761916093652914000,9.171913818359375,-0.98809814453125,0.0031585693359375,-0.0675201416015625
1761916093662969000,9.181968994140625,-0.988800048828125,0.0033721923828125,-0.0671539306640625
1761916093673024300,9.192024169921876,-0.9897003173828125,0.0023651123046875,-0.0673065185546875
1761916093683079200,9.2020791015625,-0.9876861572265625,0.0027923583984375,-0.067718505859375
1761916093693134000,9.212134033203125,-0.98809814453125,0.0030364990234375,-0.0677337646484375
1761916093703189200,9.222189208984375,-0.988983154296875,0.002349853515625,-0.066925048828125
1761916093713244200,9.232244140625,-0.98760986328125,0.0025634765625,-0.0668487548828125
1761916093723299000,9.242299072265626,-0.986785888671875,0.002899169921875,-0.066375732421875
1761916093733354000,9.25235400390625,-0.9881439208984375,0.0026092529296875,-0.0660552978515625
1761916093743409200,9.2624091796875,-0.988861083984375,0.0023956298828125,-0.0672454833984375
1761916093753464300,9.27246435546875,-0.988311767578125,0.002777099609375,-0.0667572021484375
1761916093763519000,9.28251904296875,-0.9881744384765625,0.0025177001953125,-0.0671844482421875
1761916093773574100,9.29257421875,-0.988311767578125,0.0026092529296875,-0.067535400390625
1761916093783629000,9.302629150390626,-0.9879608154296875,0.0019073486328125,-0.06695556640625
1761916093793684200,9.312684326171874,-0.98828125,0.002716064453125,-0.067474365234375
1761916093803738000,9.322738037109374,-0.9892578125,0.0032196044921875,-0.0674896240234375
1761916093813793300,9.332793212890625,-0.987701416015625,0.0028533935546875,-0.06689453125
1761916093823848200,9.34284814453125,-0.9877471923828125,0.00244140625,-0.06781005859375
1761916093833903000,9.352903076171875,-0.9882354736328125,0.0021209716796875,-0.067291259765625
1761916093843958000,9.3629580078125,-0.9889068603515625,0.00323486328125,-0.0672149658203125
1761916093854013200,9.37301318359375,-0.9882659912109375,0.003936767578125,-0.0675506591796875
1761916093864068000,9.383068115234375,-0.9883575439453125,0.0028533935546875,-0.0669708251953125
1761916093874123000,9.393123046875,-0.98736572265625,0.0019683837890625,-0.067169189453125
1761916093884178200,9.40317822265625,-0.9885711669921875,0.0022430419921875,-0.0671539306640625
1761916093894233300,9.4132333984375,-0.9880523681640625,0.003082275390625,-0.0670013427734375
1761916093904288000,9.4232880859375,-0.9873046875,0.00335693359375,-0.067352294921875
1761916093914343200,9.43334326171875,-0.988037109375,0.0026702880859375,-0.0674285888671875
1761916093924398000,9.443398193359375,-0.98760986328125,0.002227783203125,-0.067108154296875
1761916093934453200,9.453453369140625,-0.9874420166015625,0.00335693359375,-0.0665283203125
1761916093944508200,9.463508056640626,-0.9862060546875,0.003692626953125,-0.0670318603515625
1761916093954563000,9.47356298828125,-0.988555908203125,0.0028228759765625,-0.066650390625
1761916093964618200,9.4836181640625,-0.9901275634765625,0.002593994140625,-0.0662078857421875
1761916093974673200,9.493673095703125,-0.988250732421875,0.0034027099609375,-0.0667266845703125
1761916093984728000,9.50372802734375,-0.9871826171875,0.0034942626953125,-0.067352294921875
1761916093994783200,9.513783203125,-0.9877777099609375,0.003662109375,-0.067413330078125
1761916094004838100,9.523838134765626,-0.98895263671875,0.0023345947265625,-0.0662689208984375
1761916094014893000,9.53389306640625,-0.9894561767578125,0.002716064453125,-0.0664215087890625
1761916094024948200,9.5439482421875,-0.9873809814453125,0.002044677734375,-0.067413330078125
1761916094035003100,9.554003173828125,-0.9871673583984375,0.0023345947265625,-0.06781005859375
1761916094045058300,9.564058349609375,-0.9900054931640625,0.0028228759765625,-0.0673828125
1761916094055113000,9.574113037109376,-0.9880523681640625,0.0018463134765625,-0.0671844482421875
1761916094065168100,9.584168212890624,-0.9865875244140625,0.0028228759765625,-0.067138671875
1761916094075222300,9.59422216796875,-0.9873809814453125,0.0028228759765625,-0.067474365234375
1761916094085277200,9.604277099609375,-0.987884521484375,0.0030670166015625,-0.0655670166015625
1761916094095332000,9.61433203125,-0.989105224609375,0.002471923828125,-0.0673828125
1761916094105387300,9.62438720703125,-0.987945556640625,0.0025634765625,-0.0673675537109375
1761916094115442000,9.63444189453125,-0.9872283935546875,0.003204345703125,-0.0673675537109375
1761916094125497000,9.6444970703125,-0.9883270263671875,0.0025177001953125,-0.067474365234375
1761916094135552300,9.65455224609375,-0.98895263671875,0.0022125244140625,-0.0679168701171875
1761916094145607200,9.664607177734375,-0.987579345703125,0.002227783203125,-0.0672454833984375
1761916094155662000,9.674662109375,-0.9874114990234375,0.0027313232421875,-0.066925048828125
1761916094165717200,9.68471728515625,-0.9888153076171875,0.003204345703125,-0.06707763671875
1761916094175772200,9.694772216796874,-0.9863128662109375,0.00347900390625,-0.0664825439453125
1761916094185828000,9.704828125,-0.9863128662109375,0.0031280517578125,-0.06787109375
1761916094195883000,9.714883056640625,-0.9881744384765625,0.0020751953125,-0.0673675537109375
1761916094205938200,9.724938232421875,-0.989532470703125,0.0018310546875,-0.0672760009765625
1761916094215993000,9.7349931640625,-0.9735260009765625,0.005035400390625,-0.0679779052734375
1761916094226048300,9.74504833984375,-0.9907379150390625,0.0011138916015625,-0.0679168701171875
1761916094236103200,9.755103271484375,-1.0046844482421875,-0.0005950927734375,-0.0645599365234375
1761916094246158000,9.765157958984375,-0.988739013671875,0.0033416748046875,-0.06689453125
1761916094256213200,9.775213134765625,-0.9743194580078125,0.003997802734375,-0.067901611328125
1761916094266268200,9.78526806640625,-0.98712158203125,0.0041656494140625,-0.0650787353515625
1761916094276323000,9.795322998046874,-0.996551513671875,0.0021514892578125,-0.065887451171875
1761916094286378200,9.805378173828124,-0.9898834228515625,0.001220703125,-0.0657196044921875
1761916094296433200,9.81543310546875,-0.9856719970703125,0.0028076171875,-0.06591796875
1761916094306488000,9.825488037109375,-0.9886322021484375,0.002288818359375,-0.0671234130859375
1761916094316543000,9.83554296875,-0.990875244140625,0.0018463134765625,-0.065948486328125
1761916094326598100,9.84559814453125,-0.99517822265625,0.0025177001953125,-0.0649871826171875
1761916094336652000,9.855652099609374,-0.9877777099609375,0.00177001953125,-0.064605712890625
1761916094346707200,9.865707275390625,-0.9783782958984375,0.0028076171875,-0.0668792724609375
1761916094356762000,9.87576220703125,-0.98394775390625,0.0034027099609375,-0.0665283203125
1761916094366817300,9.8858173828125,-0.9932403564453125,0.0025634765625,-0.064788818359375
1761916094376872000,9.895871826171875,-0.9986572265625,0.00152587890625,-0.0628814697265625
1761916094386927000,9.905927001953126,-0.992523193359375,0.001556396484375,-0.066131591796875
1761916094396982300,9.915982177734374,-0.9726104736328125,0.0033111572265625,-0.0700531005859375
1761916094407037200,9.926037109375,-0.977020263671875,0.001861572265625,-0.0699462890625
1761916094417092000,9.936092041015625,-0.9983367919921875,0.0005035400390625,-0.0637664794921875
1761916094427147300,9.946147216796875,-0.997039794921875,0.0012969970703125,-0.063995361328125
1761916094437202200,9.9562021484375,-0.9957275390625,0.001983642578125,-0.063812255859375
1761916094447257000,9.966257080078124,-0.9742279052734375,0.0045166015625,-0.0703277587890625
1761916094457312000,9.97631201171875,-0.9756317138671875,0.003662109375,-0.070220947265625
1761916094467367200,9.9863671875,-0.995269775390625,0.000335693359375,-0.0642852783203125
1761916094477422300,9.99642236328125,-1.004119873046875,0.000823974609375,-0.0610504150390625
1761916094487477000,10.00647705078125,-0.98553466796875,0.002410888671875,-0.0674591064453125
1761916094497532200,10.0165322265625,-0.9710540771484375,0.0035247802734375,-0.071380615234375
1761916094507587000,10.026587158203125,-0.985595703125,0.002227783203125,-0.0676116943359375
1761916094517642200,10.036642333984375,-1.00213623046875,0.001495361328125,-0.061798095703125
1761916094527697200,10.046697265625,-0.9946136474609375,0.0021514892578125,-0.0646209716796875
1761916094537756200,10.056756103515625,-0.9797210693359375,0.0026092529296875,-0.071380615234375
1761916094547811300,10.066811279296875,-0.9763641357421875,0.0029449462890625,-0.0700531005859375
1761916094557866000,10.076865966796875,-0.9942169189453125,0.0013580322265625,-0.0639495849609375
1761916094567921200,10.086921142578126,-1.001800537109375,0.0020904541015625,-0.061492919921875
1761916094577976300,10.096976318359374,-0.9864501953125,0.0023040771484375,-0.066925048828125
1761916094588031200,10.10703125,-0.9764404296875,0.003936767578125,-0.070709228515625
1761916094598086100,10.117086181640625,-0.98663330078125,0.0029296875,-0.06695556640625
1761916094608141000,10.12714111328125,-0.9966583251953125,0.00164794921875,-0.062652587890625
1761916094618196200,10.1371962890625,-0.9925079345703125,0.0015716552734375,-0.064300537109375
1761916094628251100,10.147251220703126,-0.9822845458984375,0.0019683837890625,-0.0692901611328125
1761916094638306000,10.15730615234375,-0.9815216064453125,0.0035552978515625,-0.069000244140625
1761916094648361200,10.167361328125,-0.990753173828125,0.002593994140625,-0.064544677734375
1761916094658416400,10.17741650390625,-0.9958953857421875,0.0020751953125,-0.0638427734375
1761916094668471000,10.187470947265625,-0.9888763427734375,0.00189208984375,-0.067352294921875
1761916094678526200,10.197526123046876,-0.9813995361328125,0.0029449462890625,-0.0688934326171875
1761916094688580400,10.207580322265626,-0.986114501953125,0.0022430419921875,-0.0666961669921875
1761916094698635000,10.217635009765624,-0.9938201904296875,0.0022735595703125,-0.0647430419921875
1761916094708690200,10.227690185546875,-0.990478515625,0.0024871826171875,-0.0659027099609375
1761916094718745300,10.237745361328125,-0.9849700927734375,0.0027923583984375,-0.0687103271484375
1761916094728800300,10.24780029296875,-0.9858245849609375,0.0035858154296875,-0.0686798095703125
1761916094738855200,10.257855224609376,-0.9910888671875,0.0027923583984375,-0.0654449462890625
1761916094748910000,10.26791015625,-0.9922027587890625,0.0018768310546875,-0.0648345947265625
1761916094758965200,10.27796533203125,-0.9875640869140625,0.0025482177734375,-0.0673828125
1761916094769020200,10.288020263671875,-0.9843292236328125,0.003387451171875,-0.0677642822265625
1761916094779075000,10.298074951171875,-0.987823486328125,0.0035858154296875,-0.0664825439453125
1761916094789130200,10.308130126953126,-0.9444427490234375,0.0047607421875,-0.0747833251953125
1761916094799185200,10.31818505859375,-0.900115966796875,0.0069427490234375,-0.08221435546875
1761916094809240000,10.328239990234374,-0.980987548828125,-0.0017547607421875,-0.0675811767578125
1761916094819295200,10.338295166015625,-1.068939208984375,-0.0066986083984375,-0.0459136962890625
1761916094829350100,10.34835009765625,-1.0695648193359375,-0.0078582763671875,-0.03607177734375
1761916094839405300,10.3584052734375,-1.051788330078125,-0.00567626953125,-0.0398101806640625
1761916094849460200,10.368460205078126,-1.0355682373046875,-0.001983642578125,-0.051605224609375
1761916094859515100,10.37851513671875,-0.9987335205078125,0.00885009765625,-0.0673065185546875
1761916094869570300,10.3885703125,-0.9280242919921875,-0.0005950927734375,-0.0775299072265625
1761916094879625000,10.398625,-0.8411102294921875,0.0136566162109375,-0.093170166015625
