time,seconds_elapsed,z,y,x
1761916084600996400,0.119996337890625,-0.0029113320633769035,0.02805490791797638,-0.0045105693861842155
1761916084611051000,0.130051025390625,0.0030566230416297913,0.036460164934396744,0.0050363484770059586
1761916084621106200,0.140106201171875,0.0004499210335779935,-0.017624638974666595,0.006266195327043533
1761916084631161000,0.1501611328125,0.0005831372109241784,-0.034160908311605453,-0.0039612106047570705
1761916084641215000,0.160215087890625,0.0010702293366193771,-0.0028277505189180374,-0.007191358599811792
1761916084651270100,0.170270263671875,0.0017727402737364173,0.026934746652841568,0.00515446811914444
1761916084661325300,0.1803251953125,0.0005775135941803455,0.00916640181094408,0.0057283807545900345
1761916084671380000,0.1903798828125,-0.003288841573521495,-0.02033550851047039,-0.0053093391470611095
1761916084681435100,0.20043505859375,-0.0011814823374152184,-0.015728505328297615,-0.007370626088231802
1761916084691490000,0.210489990234375,0.0013875891454517841,0.011738096363842487,0.0011953040957450867
1761916084701544000,0.2205439453125,-0.0002063126303255558,0.01750543899834156,0.004731982015073299
1761916084711599000,0.23059912109375,0.0005036831717006862,-0.004601792898029089,-0.003490947186946869
1761916084721654300,0.240654296875,0.002207573503255844,-0.01509411446750164,-0.00373862124979496
1761916084731709200,0.250709228515625,-0.0011262265034019947,-0.004513964056968689,-0.0010080374777317047
1761916084741764000,0.26076416015625,-0.0002071696799248457,0.01257154531776905,-0.00009191036224365234
1761916084751819000,0.270819091796875,0.0008125860476866364,0.006243595387786627,0.0020625321194529533
1761916084761874200,0.280874267578125,-0.0012849195627495646,-0.01267310418188572,-0.002657121978700161
1761916084771928000,0.290927978515625,0.0003390446654520929,-0.009533223696053028,-0.0008666235953569412
1761916084781983200,0.300983154296875,-0.001511053298600018,0.007603418547660112,-0.00013958103954792023
1761916084792038100,0.3110380859375,-0.0019343482563272119,0.013138496316969395,0.000670713372528553
1761916084802093000,0.321093017578125,-0.00002193226828239858,-0.0006260520312935114,-0.002180999144911766
1761916084812148000,0.33114794921875,0.0013221841072663665,-0.010714116506278515,-0.0038107228465378284
1761916084822203100,0.341203125,-0.0016134182224050164,-0.0011826623231172562,-0.004462131764739752
1761916084832257000,0.351257080078125,0.00020963800488971174,0.006097995676100254,-0.0005670040845870972
1761916084842312200,0.361312255859375,0.0019297737162560225,0.0019136371556669474,-0.0025768913328647614
1761916084852367000,0.3713671875,0.0006820252165198326,-0.005043189972639084,-0.003824691753834486
1761916084862422300,0.38142236328125,-0.0006610068958252668,-0.002653268864378333,-0.0015634018927812576
1761916084872477000,0.391476806640625,0.0019485378870740533,0.0006308967131190002,0.0006926637142896652
1761916084882532000,0.401531982421875,-0.0004102239036001265,0.002899643499404192,0.0019432837143540382
1761916084892587300,0.411587158203125,-0.00007276958785951138,-0.0009022947633638978,0.001426040194928646
1761916084902641200,0.42164111328125,-0.0011441592359915376,-0.005501840263605118,0.001534431241452694
1761916084912696000,0.431696044921875,-0.0036799341905862093,0.0013332089874893427,-0.0005775587633252144
1761916084922751200,0.441751220703125,0.0006168097024783492,0.0030773133039474487,-0.0009123180061578751
1761916084932806100,0.45180615234375,0.0016860109753906727,-0.0014320706250146031,-0.0016671670600771904
1761916084942861000,0.461861083984375,-0.0003579651238396764,-0.004528261721134186,-0.0032983534038066864
1761916084952916200,0.471916259765625,0.000717213551979512,-0.0016489358386024833,-0.004522078670561314
1761916084962970400,0.481970458984375,0.0020269560627639294,0.005048115737736225,0.00003166031092405319
1761916084973025000,0.49202490234375,-0.0009770895121619105,0.0007460449123755097,0.0016577867791056633
1761916084983080200,0.502080078125,-0.0013635142240673304,-0.00419172178953886,-0.00035263411700725555
1761916084993135000,0.512135009765625,-0.0003128367243334651,0.0002857657091226429,-0.0005172183737158775
1761916085003190000,0.52218994140625,-0.00282100192271173,0.0026080422103405,-0.001718304120004177
1761916085013245200,0.5322451171875,0.0002857432118616998,0.00023139780387282372,0.0008066603913903236
1761916085023299300,0.54229931640625,-0.0009739319211803377,-0.0031071410048753023,-0.0007891058921813965
1761916085033354000,0.55235400390625,0.0019262570422142744,-0.001496858661994338,-0.00010969582945108414
1761916085043409200,0.5624091796875,0.00013155280612409115,0.0003079655289184302,0.003310868516564369
1761916085053464000,0.572464111328125,-0.001156592508777976,0.003048751037567854,0.0004934119060635567
1761916085063519200,0.582519287109375,-0.001569382380694151,0.0016985281836241484,-0.00004960689693689346
1761916085073574100,0.59257421875,-0.00047200924018397927,-0.0009624725789763033,0.0005895989015698433
1761916085083629000,0.602629150390625,-0.00018571940017864108,-0.00046446145279332995,-0.0032783756032586098
1761916085093683200,0.61268310546875,0.0007424550130963326,0.0009281422826461494,0.0000821063295006752
1761916085103738000,0.622738037109375,-0.0019928778056055307,0.00007699598063481972,0.0027860132977366447
1761916085113793000,0.63279296875,-0.0003278139338362962,-0.0019233778584748507,-0.00021664611995220184
1761916085123848200,0.64284814453125,-0.00014938213280402124,-0.001120967441238463,-0.0012139994651079178
1761916085133903000,0.652903076171875,0.0006598377367481589,-0.00002824531838996336,-0.0032997392117977142
1761916085143958000,0.6629580078125,-0.000122332654427737,-0.0026959336828440428,-0.00074736587703228
1761916085154013200,0.67301318359375,0.0018155985744670033,-0.00262839044444263,-0.00211196206510067
1761916085164067000,0.683067138671875,-0.00015034698299132288,-0.0031210752204060555,0.0001948680728673935
1761916085174122000,0.6931220703125,0.0011531281052157283,0.00011663063924061134,-0.0008216677233576775
1761916085184177200,0.70317724609375,-0.0008876521605998278,0.000035137913073413074,0.0009117834270000458
1761916085194232300,0.713232421875,-0.0018475481774657965,-0.00021137954900041223,0.0010274257510900497
1761916085204287000,0.723286865234375,-0.0005585782346315682,0.0010395072167739272,-0.0012514414265751839
1761916085214342100,0.733342041015625,0.0024095973931252956,-0.002509449142962694,-0.0007843067869544029
1761916085224396300,0.743396240234375,0.0017046587308868766,0.0018536075949668884,0.0008988110348582268
1761916085234451000,0.753450927734375,-0.00031799337011761963,-0.00007117226778063923,0.0021168915554881096
1761916085244506000,0.763506103515625,-0.000996034243144095,0.00034401455195620656,0.0007373746484518051
1761916085254561300,0.773561279296875,-0.00036793455365113914,-0.0034705190919339657,-0.0012617213651537895
1761916085264616200,0.7836162109375,-0.00140417052898556,-0.0015037745470181108,-0.00328199565410614
1761916085274671000,0.793671142578125,0.0005437990184873343,0.0035802433267235756,-0.0009052250534296036
1761916085284726000,0.80372607421875,-0.0002713946159929037,0.0006734030903317034,-0.00006499793380498886
1761916085294780200,0.8137802734375,0.000850523414555937,-0.000994164147414267,-0.00039257481694221497
1761916085304835000,0.8238349609375,-0.0012717496138066053,-0.0015646133106201887,-0.0000703316181898117
1761916085314890200,0.83389013671875,-0.0011151953367516398,0.00076087168417871,0.0016746893525123596
1761916085324945200,0.843945068359375,0.0014052202459424734,0.001825869781896472,-0.0009767534211277962
1761916085335000000,0.854,-0.0006159241311252117,-0.0009295687777921557,-0.00003608688712120056
1761916085345055000,0.864054931640625,0.00040939287282526493,-0.003536803415045142,-0.0010587414726614952
1761916085355109000,0.874109130859375,0.0008423641556873918,-0.0013817003928124905,0.0023186253383755684
1761916085365164000,0.8841640625,-0.0009158548200502992,0.00015334575437009335,0.005045435391366482
1761916085375219200,0.89421923828125,0.00009115791181102395,0.0007426452939398587,0.005255199037492275
1761916085385274000,0.904274169921875,-0.0007698420085944235,0.004763485863804817,-0.0044464305974543095
1761916085395329300,0.914329345703125,-0.0002595770638436079,-0.005829968955367804,0.002893926575779915
1761916085405384000,0.924384033203125,-0.005142482928931713,-0.002728185150772333,0.00692462082952261
1761916085415439000,0.934439208984375,0.0018430473282933235,0.0049062161706388,0.002367415465414524
1761916085425493200,0.9444931640625,0.0017256017308682203,0.0077917505986988544,0.0027083000168204308
1761916085435548200,0.954548095703125,0.0009319628588855267,-0.0015869021881371737,-0.00030735041946172714
1761916085445603000,0.96460302734375,-0.0009788551833480597,-0.0059739272110164165,-0.00221923366189003
1761916085455658200,0.974658203125,-0.0019253245554864407,-0.0008178554708138108,0.0008032433688640594
1761916085465713200,0.984713134765625,-0.00033222147612832487,0.003417369443923235,0.0030120695009827614
1761916085475768000,0.99476806640625,0.0019074680749326944,0.0037801663856953382,-0.0013486463576555252
1761916085485822200,1.004822265625,0.0022313084919005632,-0.0026463076937943697,-0.004262144677340984
1761916085495877000,1.014877197265625,0.0020845935214310884,-0.004765262361615896,-0.004679556470364332
1761916085505932000,1.02493212890625,0.002925087232142687,0.0008553389343433082,0.0013200128450989723
1761916085515987200,1.0349873046875,-0.0008032760815694928,0.004774745553731918,0.001013527624309063
1761916085526049300,1.04504931640625,-0.000007257214747369289,0.00202556443400681,0.000903804786503315
1761916085536104200,1.055104248046875,-0.0010711869690567255,-0.001627234392799437,0.0007660603150725365
1761916085546159400,1.065159423828125,-0.0005348263657651842,-0.00140379520598799,0.0006041405722498894
1761916085556213500,1.075213623046875,0.0022211612667888403,-0.00339992786757648,0.0043484847992658615
1761916085566268200,1.08526806640625,-0.0004965947009623051,0.03925538808107376,0.02641570381820202
1761916085576323300,1.0953232421875,-0.001893683336675167,0.04304364696145058,0.005836723372340202
1761916085586378200,1.105378173828125,0.0009601601050235331,0.00028632819885388017,-0.032653942704200745
1761916085596433200,1.11543310546875,0.0016821332974359393,-0.0479118712246418,0.006936977617442608
1761916085606488300,1.12548828125,0.0023908005096018314,-0.029469216242432594,0.017706267535686493
1761916085616543200,1.135543212890625,-0.0018536304123699665,0.0017141664866358042,-0.023430507630109787
1761916085626597000,1.14559716796875,-0.00005359994247555733,0.010267174802720547,-0.00982228759676218
1761916085636652300,1.15565234375,0.0014762557111680508,-0.0008896126528270543,0.015114428475499153
1761916085646707200,1.165707275390625,-0.0021970425732433796,-0.004010837525129318,-0.010361104272305965
1761916085656762400,1.175762451171875,-0.00021609419491142035,-0.00772718945518136,-0.012636585161089897
1761916085666817300,1.1858173828125,-0.0005876052309758961,-0.001296187867410481,0.008450058288872242
1761916085676872200,1.1958720703125,-0.0005530008347705007,0.011048167943954468,0.0007488150149583817
1761916085686927400,1.20592724609375,-0.00041584804421290755,0.003485322929918766,-0.006980211474001408
1761916085696981200,1.215981201171875,-0.000130909844301641,-0.011301991529762745,0.00015940703451633453
1761916085707036200,1.2260361328125,0.0011708432575687766,-0.0015066186897456646,-0.003593252971768379
1761916085717091300,1.23609130859375,-0.0003724071430042386,0.004778566770255566,-0.001927466131746769
1761916085727146500,1.246146484375,0.002194613916799426,0.0016168622532859445,0.004810330457985401
1761916085737201200,1.256201171875,-0.0015934358816593885,-0.003173799254000187,-0.0041606733575463295
1761916085747256300,1.26625634765625,-0.002249638782814145,-0.0058548036031425,-0.0012796660885214806
1761916085757311200,1.276311279296875,0.002585690701380372,-0.0009553927229717374,0.0022359145805239677
1761916085767365000,1.286365234375,0.0009185519302263856,0.004191166255623102,-0.0008964957669377327
1761916085777420300,1.296420166015625,-0.0019595003686845303,0.004755324684083462,-0.0037708524614572525
1761916085787475500,1.306475341796875,0.00021949804795440286,-0.004896237514913082,0.002905959263443947
1761916085797530000,1.316530029296875,0.0021341152023524046,-0.004555101506412029,0.0006652465090155602
1761916085807585300,1.326585205078125,-0.0003934910346288234,0.004111091140657663,0.0005352841690182686
1761916085817640200,1.33664013671875,0.0002500747796148062,0.004094951786100864,-0.00026473961770534515
1761916085827695400,1.3466953125,0.000016515550669282675,-0.002661753911525011,-0.00014436524361371994
1761916085837749200,1.356749267578125,-0.00023668029461987317,-0.002362142549827695,-0.00018904544413089752
1761916085847804400,1.366804443359375,0.002577215665951371,0.000945769832469523,0.0011939341202378273
1761916085857859300,1.376859375,-0.0012480509467422962,0.003321579657495022,0.000735132023692131
1761916085867914200,1.386914306640625,-0.001182803651317954,0.0008538945694454014,0.0015426026657223701
1761916085877969200,1.39696923828125,0.00035719608422368765,-0.003939304035156965,-0.000970521941781044
1761916085888024300,1.4070244140625,0.0005561342113651335,-0.0006569578545168042,-0.0005508074536919594
1761916085898079200,1.417079345703125,-0.0018049560021609068,0.0019446499645709991,-0.0012366166338324547
1761916085908133400,1.42713330078125,0.0009066745406016707,-0.0011366273974999785,0.0014925915747880936
1761916085918188300,1.437188232421875,0.0008120277780108154,-0.0004952232702635229,-0.0006482135504484177
1761916085928243200,1.4472431640625,-0.0009696269407868385,-0.003724039765074849,-0.0021936455741524696
1761916085938298000,1.457298095703125,0.0014247625367715955,-0.0011227036593481898,-0.0020302943885326385
1761916085948353300,1.467353271484375,-0.000040242361137643456,0.001060822163708508,0.0005228780210018158
1761916085958408400,1.477408447265625,-0.00039424444548785686,0.001652501174248755,-0.0012509971857070923
1761916085968462300,1.48746240234375,0.0015029915375635028,-0.0004101170925423503,-0.0006682975217700005
1761916085978517200,1.497517333984375,0.0004963245010003448,-0.004491752944886684,-0.0020040832459926605
1761916085988572400,1.507572509765625,0.0004265496972948313,0.00022523754159919918,0.0006377724930644035
1761916085998627000,1.517626953125,-0.00038390280678868294,0.0017353254370391369,-0.002909613773226738
1761916086008682200,1.52768212890625,-0.0005125335301272571,-0.0014104003785178065,0.0014680903404951096
1761916086018737400,1.5377373046875,-0.0014612410450354218,-0.0021703895181417465,0.0007580975070595741
1761916086028792300,1.547792236328125,0.00027647148817777634,-0.0014143181033432484,-0.0018004011362791061
1761916086038847200,1.55784716796875,0.0003589545958675444,0.0018560324097052217,-0.00032466091215610504
1761916086048901400,1.5679013671875,-0.0009641037904657423,0.0015425783349201083,-0.0017419951036572456
1761916086058956300,1.577956298828125,-0.0019390909001231194,-0.0017791085410863161,-0.0011367127299308777
1761916086069011200,1.58801123046875,0.002182417083531618,-0.0020768498070538044,-0.0005883676931262016
1761916086079066400,1.59806640625,-0.0002176436537411064,0.0038071447052061558,-0.0025550536811351776
1761916086089121300,1.608121337890625,-0.0005955462111160159,0.0018814129289239645,-0.0031566619873046875
1761916086099176200,1.61817626953125,-0.0008095643715932965,-0.0038618389517068863,0.0033073313534259796
1761916086109231400,1.6282314453125,-0.00010968561400659382,0.0006868399796076119,0.00001646392047405243
1761916086119285200,1.63828515625,0.0009071819367818534,0.0023304219357669353,-0.001299106515944004
1761916086129340200,1.648340087890625,-0.00017912144539877772,-0.00151172059122473,-0.000780855305492878
1761916086139395300,1.658395263671875,-0.0006925129564478993,-0.003454496618360281,0.0015616603195667267
1761916086149450200,1.6684501953125,0.00015463863383047283,-0.0006336763617582619,-0.00035501644015312195
1761916086159505400,1.67850537109375,-0.000706886756233871,-0.0010059794876724482,0.00010216794908046722
1761916086169560300,1.688560302734375,-0.0009380490519106388,-0.0008504508878104389,-0.00009144376963376999
1761916086179615200,1.698615234375,0.0019356380216777325,0.00032122465199790895,-0.00010786391794681549
1761916086189669400,1.70866943359375,-0.000283574074273929,0.0010184402344748378,0.0001882798969745636
1761916086199724300,1.718724365234375,-0.00043562037171795964,-0.002198886824771762,0.0017210347577929497
1761916086209779200,1.728779296875,0.0010725277243182063,0.0001870390260592103,-0.0009562410414218903
1761916086219834400,1.73883447265625,0.0019839867018163204,-0.00006790091720176861,-0.0006122449412941933
1761916086229889300,1.74888916015625,0.00009527275688014925,0.0014088219031691551,-0.0017872322350740433
1761916086239944200,1.758944091796875,0.0006771507323719561,-0.0003905670018866658,-0.00005498342216014862
1761916086249999400,1.768999267578125,0.004293190781027079,-0.0011208057403564453,0.0012888479977846146
1761916086260053200,1.77905322265625,-0.0014684631023555994,0.0007424831856042147,0.0006148992106318474
1761916086270108200,1.789108154296875,0.0016157437348738313,0.004245072603225708,-0.00041893962770700455
1761916086280163300,1.799163330078125,-0.0003616370668169111,-0.0013883712235838175,-0.0010862946510314941
1761916086290218200,1.80921826171875,0.0015363978454843163,-0.0006291040917858481,0.0010716645047068596
1761916086300273200,1.819273193359375,0.0004223730356898159,0.0009866601321846247,-0.001096593216061592
1761916086310328300,1.829328369140625,0.0015025511384010315,0.007367860525846481,-0.00007314048707485199
1761916086320383200,1.83938330078125,-0.0012241618242114782,0.000550181430298835,0.0002303915098309517
1761916086330437000,1.84943701171875,-0.0009937984868884087,-0.005497324746102095,-0.0003184862434864044
1761916086340492300,1.8594921875,0.0020190300419926643,-0.00006071449752198532,0.0012738443911075592
1761916086350547200,1.869547119140625,-0.0008915385697036982,0.003350528422743082,0.00011457037180662155
1761916086360602400,1.879602294921875,-0.001943814568221569,0.004197194240987301,0.002905900590121746
1761916086370657300,1.8896572265625,0.001355841988697648,-0.0019104997627437115,-0.0006765834987163544
1761916086380712200,1.899712158203125,0.0011230356758460402,0.001427756156772375,0.0016438188031315804
1761916086390767400,1.909767333984375,-0.00026553645147942007,0.0008312080171890557,0.0008230321109294891
1761916086400821200,1.9198212890625,-0.0014991953503340483,0.004040566273033619,-0.0006625950336456299
1761916086410876200,1.929876220703125,-0.0016555229667574167,-0.0021076069679111242,-0.001224256120622158
1761916086420931300,1.939931396484375,-0.0020452220924198627,-0.00018428332987241447,0.0004985248669981956
1761916086430986200,1.949986328125,-0.00006196586764417589,0.00004075377728440799,-0.0034639928489923477
1761916086441041200,1.960041259765625,0.0009098096052184701,-0.0014472610782831907,0.0002118060365319252
1761916086451096300,1.970096435546875,0.0015114176785573363,-0.002114915521815419,-0.0011043287813663483
1761916086461151500,1.9801513671875,-0.0004727764171548188,-0.0013372998218983412,0.0011822041124105453
1761916086471205000,1.990205078125,-0.0018227328546345234,-0.0007775032427161932,0.000789388082921505
1761916086481260300,2.00026025390625,0.000035321718314662576,-0.00008601529407314956,-0.001244889572262764
1761916086491315500,2.0103154296875,0.0008574395906180143,0.0001688492193352431,-0.0005474081262946129
1761916086501370000,2.0203701171875,0.00028980200295336545,0.0018756010103970766,-0.0020401589572429657
1761916086511425300,2.03042529296875,-0.0001834417344070971,-0.0015257883351296186,0.0038912333548069
1761916086521472500,2.040472412109375,0.00016363151371479034,-0.0026486502029001713,-0.001530068926513195
1761916086531527200,2.050527099609375,-0.0006576873129233718,-0.0026222849264740944,0.0006505269557237625
1761916086541581300,2.060581298828125,0.00087542156688869,0.0013349840883165598,0.0006451895460486412
1761916086551636500,2.070636474609375,0.0008884710841812193,-0.0008288341923616827,-0.0022118492051959038
1761916086561691400,2.08069140625,-0.0018184585496783257,-0.0018242871155962348,-0.0019137747585773468
1761916086571746300,2.090746337890625,-0.0006131117115728557,0.00025244581047445536,0.0006750840693712234
1761916086581801500,2.100801513671875,-0.0000414534006267786,0.002705124206840992,-0.001687963493168354
1761916086591856400,2.1108564453125,0.0027620564214885235,0.0010164139093831182,-0.0001774188131093979
1761916086601911300,2.120911376953125,0.00036467486643232405,0.000823683338239789,0.002705746330320835
1761916086611965400,2.13096533203125,-0.0012952734250575304,-0.00220113480463624,0.00006149336695671082
1761916086622020600,2.1410205078125,-0.0006909650983288884,0.002595695899799466,-0.00008702557533979416
1761916086632075300,2.1510751953125,0.0019484938820824027,-0.0014227477367967367,0.0023636147379875183
1761916086642130400,2.16113037109375,0.001549513777717948,-0.0011065038852393627,0.0027549592778086662
1761916086652185300,2.171185302734375,-0.0019219168461859226,0.0003321356780361384,-0.00032392051070928574
1761916086662240500,2.181240478515625,-0.00013576692435890436,-0.003480583894997835,-0.0012410646304488182
1761916086672295400,2.19129541015625,-0.0015256707556545734,0.00046302503324113786,0.0034088147804141045
1761916086682349600,2.201349609375,-0.0024568818043917418,-0.0013892664574086666,0.00211426243185997
1761916086692404500,2.211404541015625,-0.0014472772600129247,-0.002051861025393009,-0.002115902490913868
1761916086702459400,2.22145947265625,-0.0004978283541277051,-0.000780736852902919,-0.0022308863699436188
1761916086712514300,2.231514404296875,-0.003098671557381749,-0.001277416362427175,0.00047781504690647125
1761916086722569500,2.241569580078125,0.0017642336897552013,0.0017750200349837542,0.0004167752340435982
1761916086732624400,2.251624267578125,-0.0012587204109877348,0.0015888650668784976,0.0009653866291046143
1761916086742679300,2.26167919921875,-0.0011104987934231758,-0.0032198685221374035,-0.00008456408977508545
1761916086752734500,2.271734375,0.00007886896491982043,-0.005144269205629826,0.00043288804590702057
1761916086762788400,2.281788330078125,0.0012000517453998327,0.00027741939993575215,-0.002169966697692871
1761916086772843300,2.29184326171875,-0.0010838750749826431,-0.00008556943794246763,0.0007571140304207802
1761916086782898400,2.3018984375,-0.0005050488980486989,-0.0018614151049405336,0.00054889265447855
1761916086792953600,2.31195361328125,0.0028257668018341064,-0.0013791166711598635,-0.00026763323694467545
1761916086803008300,2.32200830078125,-0.0002640697348397225,0.000875334138981998,0.0007288837805390358
1761916086813063400,2.3320634765625,0.0011474055936560035,-0.00040271683246828616,0.00015816837549209595
1761916086823118300,2.342118408203125,-0.0012811271008104086,-0.0013770096702501178,-0.00023342855274677277
1761916086833172200,2.352172119140625,0.0031253392808139324,-0.0036779807414859533,0.0004760380834341049
1761916086843227400,2.362227294921875,-0.00013028705143369734,-0.002561162691563368,-0.0009879842400550842
1761916086853282600,2.372282470703125,0.0010100785875692964,-0.0006972161936573684,0.0019990168511867523
1761916086863337200,2.382337158203125,-0.0029461579397320747,-0.0020018802024424076,-0.00044917501509189606
1761916086873392400,2.392392333984375,0.0018555214628577232,-0.00031237065559253097,0.0015149060636758804
1761916086883447300,2.402447265625,0.0015627399552613497,0.0012682114029303193,-0.0018773404881358147
1761916086893502500,2.41250244140625,0.000434624933404848,0.0019265448208898306,-0.0007580136880278587
1761916086903556400,2.422556396484375,-0.0005583865568041801,-0.0019009168026968837,0.00014507398009300232
1761916086913611500,2.432611572265625,0.0008528225007466972,-0.0010220736730843782,0.0006817011162638664
1761916086923666400,2.44266650390625,-0.0017362355720251799,0.0021796359214931726,0.00007535330951213837
1761916086933721300,2.452721435546875,-0.0014582015573978424,0.0013242284767329693,-0.0003712587058544159
1761916086943776300,2.4627763671875,0.0029950710013508797,-0.002838483778759837,-0.0022476715967059135
1761916086953831400,2.47283154296875,0.00048157968558371067,-0.0008767993422225118,-0.0006535034626722336
1761916086963886600,2.482886474609375,-0.0008415970951318741,-0.0014458050718531013,0.0004731127992272377
1761916086973941200,2.492941162109375,0.0009315354982391,0.00025409061345271766,0.0036555901169776917
1761916086983995400,2.502995361328125,-0.0010549461003392935,-0.00082003342686221,0.0006871558725833893
1761916086994050600,2.513050537109375,-0.0012307147262617946,0.0031829639337956905,0.000986761413514614
1761916087004105200,2.523105224609375,0.002130077453330159,-0.0024578396696597338,-0.004439653363078833
1761916087014160400,2.533160400390625,-0.0014047360746189952,0.0011424878612160683,0.000028331764042377472
1761916087024215600,2.543215576171875,-0.002093716524541378,-0.0005698862369172275,0.0003536464646458626
1761916087034270200,2.553270263671875,0.0011819713981822133,-0.0017121159471571445,0.000125945545732975
1761916087044325400,2.563325439453125,-0.00020088060409761965,0.004361268132925034,-0.001875326968729496
1761916087054379500,2.573379638671875,-0.00040487878140993416,-0.000010577032298897393,-0.0016851769760251045
1761916087064434200,2.58343408203125,0.00011117747635580599,0.0005361476796679199,-0.001374436542391777
1761916087074489300,2.5934892578125,-0.0009141395566985011,-0.001843919395469129,-0.0013448754325509071
1761916087084544500,2.60354443359375,-0.00022956551401875913,-0.0013313333038240671,0.0009523872286081314
1761916087094599400,2.613599365234375,0.0005795027827844024,0.0029275938868522644,-0.001973360776901245
1761916087104654300,2.623654296875,0.002602506196126342,0.0017464717384427786,0.000723925419151783
1761916087114709500,2.63370947265625,-0.000014848454156890512,-0.0007465133676305413,0.0035202447324991226
1761916087124764400,2.643764404296875,0.0014863315736874938,-0.002524090465158224,-0.0017039058730006218
1761916087134818300,2.653818359375,-0.0026460953522473574,-0.003973116632550955,0.00024552829563617706
1761916087144873500,2.66387353515625,-0.003045757068321109,-0.00008374647586606443,-0.0006282245740294456
1761916087154928400,2.673928466796875,0.00038039981154724956,0.0019170864252373576,0.000022118911147117615
1761916087164983600,2.683983642578125,-0.001555213937535882,-0.005050980020314455,0.002699611708521843
1761916087175038500,2.69403857421875,0.00039421996916644275,-0.0026139209512621164,0.00004603806883096695
1761916087185093400,2.70409326171875,0.001919400761835277,0.0036930651403963566,0.0008951695635914803
1761916087195148500,2.7141484375,-0.002749120583757758,0.0035886692348867655,0.000004608184099197388
1761916087205202400,2.724202392578125,-0.0015118400333449244,-0.0015299542574211955,-0.0007544038817286491
1761916087215257300,2.73425732421875,-0.0019805561751127243,-0.0024514079559594393,-0.000482228584587574
1761916087225312500,2.7443125,-0.0011861484963446856,-0.0013181377435103059,0.0003918064758181572
1761916087235367400,2.754367431640625,-0.002094552619382739,-0.0003860313445329666,0.002485317178070545
1761916087245422300,2.76442236328125,0.0005860881647095084,-0.0014155294047668576,0.0006762752309441566
1761916087255477500,2.7744775390625,-0.0020294024143368006,-0.0024586895015090704,0.0012182286009192467
1761916087265532400,2.784532470703125,0.0010842957999557257,-0.0006293587503023446,0.00039265677332878113
1761916087275587300,2.79458740234375,0.000005182926543056965,0.00045002048136666417,-0.003381575457751751
1761916087285641500,2.804641357421875,-0.0008064506691880524,0.003325225319713354,0.0008830633014440536
1761916087295696400,2.8146962890625,-0.00004851503763347864,-0.0039313556626439095,0.00016454234719276428
1761916087305751300,2.824751220703125,-0.0003148693940602243,-0.003365954151377082,-0.0012525422498583794
1761916087315806500,2.834806396484375,0.002264934591948986,0.005101566202938557,-0.000799272209405899
1761916087325861400,2.844861328125,-0.00045816547935828567,0.003495190292596817,0.0021689552813768387
1761916087335916300,2.854916259765625,0.00012027309276163578,-0.0004119333461858332,0.000245886854827404
1761916087345971500,2.864971435546875,-0.00014213670510798693,-0.0026536600198596716,0.0006215022876858711
1761916087356025300,2.875025390625,-0.001662269001826644,0.0015812988858669996,-0.001905570738017559
1761916087366080300,2.885080322265625,-0.0008662405889481306,0.003691402031108737,-0.001057896763086319
1761916087376135400,2.895135498046875,-0.0016193825285881758,0.0024343901313841343,0.00236506387591362
1761916087386190300,2.9051904296875,0.0009338206145912409,-0.00561598502099514,-0.0023330552503466606
1761916087396245500,2.91524560546875,0.0003708284057211131,-0.0026122056879103184,0.002435600385069847
1761916087406300400,2.925300537109375,0.002237259643152356,0.0017902724212035537,0.0016575604677200317
1761916087416355300,2.935355224609375,-0.000020568259060382843,0.00045256654266268015,0.00036938954144716263
1761916087426410500,2.945410400390625,0.0011456951033324003,-0.0032207441981881857,-0.0008482774719595909
1761916087436464400,2.95546435546875,-0.0022053606808185577,-0.002664942527189851,-0.0011670570820569992
1761916087446519300,2.965519287109375,-0.0015522597823292017,0.0027668222319334745,0.0008280528709292412
1761916087456574500,2.975574462890625,0.0009242138476110995,-0.0016066209645941854,0.001403561793267727
1761916087466629600,2.985629638671875,-0.0002501229755580425,-0.0032611535862088203,0.00043564941734075546
1761916087476684300,2.995684326171875,-0.002946839900687337,-0.0014944124268367887,0.0020117079839110374
1761916087486739500,3.005739501953125,0.0027578691951930523,0.003164492081850767,0.0001073591411113739
1761916087496794400,3.01579443359375,-0.0018272954039275646,0.0004347519134171307,0.002318582497537136
1761916087506849300,3.025849365234375,-0.0007289619534276426,-0.00046098261373117566,0.00045430660247802734
1761916087516903400,3.0359033203125,0.0007024871301837265,-0.001749686198309064,0.003945177420973778
1761916087526958600,3.04595849609375,-0.00039444112917408347,0.0010981399100273848,0.00011821743100881577
1761916087537013500,3.056013427734375,-5.596084520220757e-7,0.0017181237926706672,0.002010127529501915
1761916087547068700,3.066068603515625,-0.00020054791821166873,-0.00010580233356449753,0.0001275334507226944
1761916087557123600,3.07612353515625,-0.0007108096033334732,-0.0019489761907607317,0.0012172991409897804
1761916087567178500,3.086178466796875,-0.0016783146420493722,-0.00026552207418717444,-0.000382082536816597
1761916087577233700,3.096233642578125,0.0020921886898577213,-0.0021619589533656836,0.0005343109369277954
1761916087587288600,3.10628857421875,-0.00040244130650535226,0.0032874385360628366,-0.0009473385289311409
1761916087597342500,3.116342529296875,-0.0007390648825094104,0.003161204745993018,0.0003805132582783699
1761916087607397600,3.126397705078125,0.001663309521973133,-0.0019973372109234333,0.0004023769870400429
1761916087617452500,3.13645263671875,-0.0003324634744785726,0.00024264765670523047,0.002078304998576641
1761916087627507500,3.146507568359375,-0.0015681606018915772,0.0037709150929003954,-0.0008449070155620575
1761916087637562600,3.156562744140625,0.002074244897812605,0.004543231334537268,0.0014123879373073578
1761916087647617500,3.166617431640625,-0.0006198602495715022,0.0005306873354129493,-0.002811894752085209
1761916087657672700,3.176672607421875,-0.000022513209842145443,-0.0033127868082374334,0.00029122084379196167
1761916087667727400,3.186727294921875,0.0005758964107371867,0.0016014655120670795,0.0002415413036942482
1761916087677781500,3.196781494140625,0.0018992210971191525,0.002413463080301881,-0.00042984168976545334
1761916087687836700,3.206836669921875,0.0011032961774617434,0.0012224618112668395,-0.0018971459940075874
1761916087697891600,3.2168916015625,0.00015281399828381836,-0.0004705095780082047,-0.00039246026426553726
1761916087707946500,3.226946533203125,0.0007049370324239135,-0.0018884437158703804,0.000593528151512146
1761916087718001700,3.237001708984375,-0.0009313091286458075,0.0011840452207252383,-0.0011103618890047073
1761916087728056600,3.247056640625,0.004525475669652224,0.001052183797582984,-0.0015928922221064568
1761916087738111500,3.257111572265625,0.0013254213845357299,-0.0006469129584729671,-0.00013960525393486023
1761916087748166700,3.267166748046875,0.0012075339909642935,0.0014225931372493505,0.0014900071546435356
1761916087758220800,3.277220703125,-0.0009765244321897626,0.0012196602765470743,-0.000234922394156456
1761916087768275500,3.287275390625,0.000641282822471112,0.00047497969353571534,-0.0010475320741534233
1761916087778330600,3.29733056640625,-0.0014391785953193903,-0.00045472983038052917,-0.001598539762198925
1761916087788385500,3.307385498046875,0.0006103627383708954,0.00021993494010530412,-0.0011909306049346924
1761916087798440400,3.3174404296875,0.001251918263733387,-0.0015449419151991606,0.0006530424579977989
1761916087808495600,3.32749560546875,-0.000687838182784617,0.0015321476384997368,-0.0010107867419719696
1761916087818550500,3.337550537109375,0.0011342966463416815,0.001351319020614028,0.001237453892827034
1761916087828605700,3.347605712890625,0.0011014069896191359,-0.0011982095893472433,0.00004156585782766342
1761916087838659600,3.35765966796875,0.0009520036401227117,-0.001905278884805739,-0.0012966720387339592
1761916087848714500,3.367714599609375,0.0022299103438854218,0.00011752012505894527,-0.00011871382594108582
1761916087858769700,3.377769775390625,-0.0011810662690550089,0.0009052831446751952,0.0011004814878106117
1761916087868824600,3.387824462890625,-0.0005627953796647489,0.0003544469946064055,0.00012313202023506165
1761916087878879500,3.39787939453125,-0.0006980839534662664,0.0005722935893572867,-0.00038899388164281845
1761916087888934700,3.4079345703125,0.0016372210811823606,0.00044006024836562574,-0.002221343107521534
1761916087898989600,3.417989501953125,-0.0007068933919072151,0.0018278334755450487,0.0006615286692976952
1761916087909044500,3.42804443359375,0.0015550268581137061,0.0014612993691116571,-0.0001474609598517418
1761916087919098600,3.4380986328125,-0.0007752390811219811,-0.0007137043285183609,-0.001574115827679634
1761916087929153800,3.44815380859375,-0.0006060648593120277,-0.0026219296269118786,-0.000026650726795196533
1761916087939208400,3.45820849609375,0.000773718929849565,-0.001636027591302991,0.0002740202471613884
1761916087949263600,3.468263671875,0.0017908870941028,0.0013428323436528444,0.0010951189324259758
1761916087959318500,3.478318603515625,-0.0006136810407042503,-0.00303247501142323,-0.0010223602876067162
1761916087969373400,3.48837353515625,-0.0006801780546084046,0.0003366441815160215,-0.000006903894245624542
1761916087979428600,3.4984287109375,0.00040932107367552817,-0.00044952097232453525,-0.0005171662196516991
1761916087989483500,3.5084833984375,0.0004271427751518786,0.0009043359896168113,0.0016854805871844292
1761916087999537400,3.518537353515625,0.0007315421244129539,-0.00123498123139143,-0.0015742285177111626
1761916088009592600,3.528592529296875,0.0011812268057838082,-0.006628244183957577,0.00009087380021810532
1761916088019647500,3.5386474609375,-0.0009857872501015663,-0.0011764871887862682,0.0012538759037852287
1761916088029702700,3.54870263671875,0.00023764328216202557,0.0030081551522016525,0.000675225630402565
1761916088039757600,3.558757568359375,0.0015500490553677082,0.0008240967290475965,0.002402285113930702
1761916088049812500,3.5688125,-0.000852940371260047,-0.002375028096139431,-0.00007273443043231964
1761916088059867600,3.57886767578125,-0.002158688148483634,-0.0009699442889541388,0.0012567155063152313
1761916088069922600,3.588922607421875,-0.0013822396285831928,0.001176516991108656,0.001278964802622795
1761916088079976400,3.5989765625,-0.0016765189357101917,-0.0014011566527187824,-0.0005343817174434662
1761916088090031600,3.609031494140625,-0.001201097620651126,-0.0021113825496286154,-0.0021917838603258133
1761916088100086500,3.61908642578125,0.001479374011978507,-0.0006964451167732477,-0.0018769977614283562
1761916088110141400,3.629141357421875,-0.002912065014243126,-0.00032493885373696685,-0.0009296005591750145
1761916088120196600,3.639196533203125,0.000595318153500557,-0.0002402503596385941,-0.0008020345121622086
1761916088130251500,3.64925146484375,0.0013930643908679485,-0.0016557304188609123,0.0008699949830770493
1761916088140306400,3.659306396484375,0.0009682901436462998,0.0007818609592504799,-0.0007707783952355385
1761916088150361600,3.669361572265625,0.0010643466375768185,0.0009111959952861071,0.0006940122693777084
1761916088160416500,3.67941650390625,0.0008755284361541271,0.002218009205535054,-0.0006157299503684044
1761916088170470400,3.689470458984375,-0.003663977375254035,-0.002189092105254531,-0.0007690759375691414
1761916088180525600,3.699525634765625,-0.00012090784730389714,-0.0008556474349461496,-0.0008537638932466507
1761916088190580500,3.70958056640625,0.00005369132850319147,-0.001535267336294055,-0.0011222362518310547
1761916088200635600,3.7196357421875,0.003131240140646696,0.0005952615756541491,-0.0026857778429985046
1761916088210690600,3.729690673828125,0.00009789835894480348,-0.001975797349587083,-0.0021868860349059105
1761916088220745500,3.739745361328125,0.0004257334803696722,-0.0004745734913740307,-0.0017253607511520386
1761916088230800600,3.749800537109375,-0.002251200843602419,0.0012680371291935444,-0.0017475932836532593
1761916088240855600,3.75985546875,0.0018756336066871881,-0.001392993493936956,-0.0002471683546900749
1761916088250909400,3.769909423828125,0.00020463435794226825,0.0024404670111835003,-0.000336318276822567
1761916088260964600,3.779964599609375,0.0005415242630988359,0.0010039578191936016,-0.0005019670352339745
1761916088271019500,3.79001953125,0.0019200239330530167,-0.001092645456083119,0.0016750842332839966
1761916088281074400,3.800074462890625,-0.0006126422667875886,0.0010738361161202192,-0.0017199134454131126
1761916088291129600,3.810129638671875,-0.0009659993229433894,0.003062579082325101,-0.0008678585290908813
1761916088301184800,3.820184814453125,-0.0005257787415757775,0.0007802499458193779,-0.0015975646674633026
1761916088311239400,3.830239501953125,0.00004992485628463328,-0.003927838057279587,-0.0007224548608064651
1761916088321294600,3.840294677734375,-0.0002864323905669153,0.0008727762615308166,0.0013098036870360374
1761916088331349500,3.850349609375,0.00084610132034868,-0.00016513098671566695,-0.0002585947513580322
1761916088341403400,3.8604033203125,-0.001096674706786871,0.0020229220390319824,-0.00256196316331625
1761916088351458600,3.87045849609375,0.0009034588583745062,-0.0021779644303023815,0.0010595452040433884
1761916088361513700,3.880513671875,-0.0011849920265376568,-0.003051481209695339,0.0023418571799993515
1761916088371568600,3.890568603515625,0.001105376286432147,0.0012023921590298414,0.0016417689621448517
1761916088381623600,3.90062353515625,-0.0018246336840093136,-0.0002831190649885684,0.0019253958016633987
1761916088391678500,3.910678466796875,0.0016675618244335055,0.0002710793341975659,0.0021550869569182396
1761916088401733600,3.920733642578125,-0.0018909538630396128,-0.002177697140723467,-0.0010945023968815804
1761916088411788500,3.93078857421875,-0.0017342257779091597,-0.0013747808989137411,-0.0006522834300994873
1761916088421842700,3.9408427734375,0.00029696719138883054,0.0027893376536667347,-0.0005862368270754814
1761916088431897600,3.950897705078125,0.0001909168204292655,0.0005281228804960847,-0.0005183666944503784
1761916088441952500,3.960952392578125,0.00029318220913410187,-0.00039253191789612174,0.0004174681380391121
1761916088452007400,3.97100732421875,-0.00017105170991271734,-0.004030425101518631,-0.0022458452731370926
1761916088462062600,3.9810625,0.001951487734913826,-0.002626140369102359,-0.0008697900921106339
1761916088472117800,3.99111767578125,0.002110731555148959,0.0009122647461481392,-0.0019894568249583244
1761916088482172400,4.00117236328125,0.0007003213977441192,0.001291765132918954,0.001088092103600502
1761916088492227600,4.0112275390625,0.001979411579668522,-0.0015017135301604867,-0.00023189280182123184
1761916088502282500,4.021282470703125,-0.0029189407359808683,0.0011052548652514815,-0.0015882402658462524
1761916088512336400,4.03133642578125,0.0007042753859423101,0.001049129874445498,0.00005038361996412277
1761916088522391600,4.0413916015625,0.0014265247154980898,-0.00019749579951167107,-0.001965629868209362
1761916088532447000,4.051447021484375,-0.0029546841979026794,-0.001977660460397601,0.0008818991482257843
1761916088542501600,4.061501708984375,-0.0018713102908805013,0.001434914069250226,0.0024728719145059586
1761916088552556800,4.071556884765625,0.0016047594835981727,-0.001931210164912045,-0.00016242172569036484
1761916088562611700,4.08161181640625,0.000010058633051812649,-0.0012630230048671365,-0.00040583405643701553
1761916088572667000,4.0916669921875,0.0004659810510929674,-0.0007708882330916822,0.00019316468387842178
1761916088582721800,4.1017216796875,0.0003967388765886426,0.0006302007823251188,0.0007689399644732475
1761916088592776000,4.11177587890625,0.0015538493171334267,0.0013362544123083353,0.000026112422347068787
1761916088602830800,4.121830810546875,0.0010989813599735498,-0.005064386874437332,-0.001343551091849804
1761916088612885800,4.1318857421875,-0.0006482053431682289,-0.0005852151080034673,-0.0019230479374527931
1761916088622940700,4.141940673828125,0.00024768203729763627,0.0037046046927571297,0.0006117494776844978
1761916088632995800,4.151995849609375,0.0005512165371328592,-0.000021655738237313926,-0.0021542292088270187
1761916088643050800,4.16205078125,0.0017781348433345556,-0.002606786321848631,-0.00044261571019887924
1761916088653105700,4.172105712890625,0.000557317805942148,0.00004570928285829723,0.0018665296956896782
1761916088663160800,4.182160888671875,-0.0007388427038677037,0.004773885477334261,0.0007703723385930061
1761916088673215700,4.1922158203125,-0.00012024404713883996,0.001940843416377902,0.00013049133121967316
1761916088683269600,4.20226953125,-0.0011905685532838106,-0.0026336682494729757,0.00034034810960292816
1761916088693324800,4.21232470703125,-0.0025376181583851576,-0.0022691329941153526,-0.0012679370120167732
1761916088703380000,4.2223798828125,-0.0007857907912693918,0.00007258453115355223,0.001356341876089573
1761916088713434600,4.2324345703125,0.002594251185655594,0.0013958889758214355,-0.0009506614878773689
1761916088723489800,4.24248974609375,0.00007303676102310419,0.0007367565995082259,0.000056546181440353394
1761916088733544700,4.252544677734375,0.0012224349193274975,0.00013287697220221162,0.0016085468232631683
1761916088743599600,4.262599609375,0.0031625477131456137,-0.001564888167195022,-0.0023550353944301605
1761916088753654800,4.27265478515625,-0.0007882969221100211,-0.0012207527179270983,-0.0006209267303347588
1761916088763709700,4.282709716796875,-0.000024768640287220478,-0.00004363557673059404,0.001567126251757145
1761916088773763600,4.292763671875,0.0008142484584823251,0.0023060846142470837,-0.001283278688788414
1761916088783818800,4.30281884765625,-0.002089662477374077,-0.00010061405919259414,0.000612359493970871
1761916088793873700,4.312873779296875,0.002322714775800705,-0.00043786849710159004,-0.0009995680302381516
1761916088803928800,4.3229287109375,0.00008086563320830464,-0.0005451939068734646,0.001980242319405079
1761916088813983700,4.332983642578125,-0.0013615064090117812,-0.0011479693930596113,0.0005629071965813637
1761916088824038700,4.34303857421875,0.0003407862095627934,-0.0016686173621565104,-0.0008155452087521553
1761916088834093800,4.35309375,-0.0018212026916444302,-0.0022467526141554117,-0.001253390684723854
1761916088844149000,4.36314892578125,0.00170695292763412,-0.0002469850587658584,0.00005422160029411316
1761916088854203600,4.37320361328125,0.0032584010623395443,-0.00019938375044148415,-0.0006994418799877167
1761916088864257800,4.3832578125,-0.003319340292364359,-0.001259854412637651,-0.0014909328892827034
1761916088874313000,4.39331298828125,-0.00025716726668179035,-0.0027628715615719557,-0.0023548034951090813
1761916088884367600,4.40336767578125,0.00024244171800091863,0.0013764796312898397,0.002445811405777931
1761916088894422800,4.4134228515625,0.0033301489893347025,-0.001614470616914332,0.0015027718618512154
1761916088904478000,4.42347802734375,0.0003388865734450519,-0.0031812083907425404,-0.001322043128311634
1761916088914532600,4.43353271484375,0.000980525859631598,-0.0019523648079484701,-0.000593419186770916
1761916088924587800,4.443587890625,0.0007709350902587175,-0.0011885701678693295,-0.0009052753448486328
1761916088934642700,4.453642578125,-0.00041646603494882584,0.0009743028786033392,0.00041861552745103836
1761916088944697900,4.46369775390625,0.0020480232778936625,-0.0015477107372134924,0.000042310915887355804
1761916088954751700,4.473751708984375,0.000669822795316577,0.0011465299176052213,0.001595393754541874
1761916088964807000,4.483806884765625,0.00029112130869179964,-0.0014274152927100658,-0.0025847041979432106
1761916088974861800,4.49386181640625,0.001126947347074747,0.0025189719162881374,0.0007676780223846436
1761916088984916700,4.503916748046875,0.0008254775311797857,-0.00018893033848144114,-0.0009146407246589661
1761916088994971600,4.5139716796875,0.0003487240173853934,-0.0032316779252141714,0.0004101777449250221
1761916089005026800,4.52402685546875,0.0001636343076825142,0.0010693272342905402,-0.0007190033793449402
1761916089015082000,4.53408203125,0.002367802197113633,-0.0013660715194419026,-0.0006597135215997696
1761916089025136600,4.54413671875,-0.0014269361272454262,0.0010917598847299814,-0.00008686725050210953
1761916089035191800,4.55419189453125,-0.0008423379622399807,-0.0012856826651841402,-0.0011249566450715065
1761916089045246000,4.564245849609375,-0.0004684301093220711,-0.0011083161225542426,-0.0010852757841348648
1761916089055300600,4.574300537109375,-0.002975979121401906,-0.00048452208284288645,0.0009436309337615967
1761916089065355800,4.584355712890625,0.0010728246998041868,0.003338445443660021,0.0013337843120098114
1761916089075411000,4.594410888671875,0.0008475156500935555,0.0018908404745161533,0.0015056496486067772
1761916089085465600,4.604465576171875,0.0019279599655419588,-0.0015156087465584278,-0.001438475213944912
1761916089095520800,4.614520751953125,0.0010054449085146189,-0.0020489615853875875,0.002436419017612934
1761916089105575700,4.62457568359375,-0.00193681544624269,0.001034446177072823,0.001135198399424553
1761916089115630800,4.634630859375,-0.00031046965159475803,0.0007111977902241051,-0.0017945999279618263
1761916089125685800,4.644685791015625,-0.0014332584105432034,0.0011996214743703604,-0.0012212218716740608
1761916089135740000,4.654739990234375,-0.0002372227027080953,0.0020069791935384274,-0.0016790935769677162
1761916089145794800,4.664794921875,0.0007928879931569099,-0.000552318524569273,0.0018860800191760063
1761916089155849700,4.674849609375,-0.0007853282731957734,0.002147830091416836,-0.0011913152411580086
1761916089165904600,4.684904541015625,-0.001439134357497096,-0.0037042000330984592,-0.001694386824965477
1761916089175959800,4.694959716796875,-0.00029808434192091227,-0.0005040036048740149,-0.0026895301416516304
1761916089186014700,4.7050146484375,0.0021403059363365173,-0.0035975317005068064,-0.001614677719771862
1761916089196069600,4.715069580078125,0.0013857875019311905,-0.00010694237425923347,-0.0002966783940792084
1761916089206124800,4.725124755859375,-0.0002211638493463397,0.0006211658474057913,-0.0012857764959335327
1761916089216180000,4.735179931640625,-0.0008757098694331944,-0.0005691354162991047,-0.0009402725845575333
1761916089226233600,4.745233642578125,0.0009549470851197839,-0.0005318511393852532,-0.0017733089625835419
1761916089236288800,4.755288818359375,0.00006740965181961656,0.003264959203079343,-0.001372218132019043
1761916089246344000,4.765343994140625,-0.0007946555851958692,0.0034995838068425655,0.0016858894377946854
1761916089256398600,4.775398681640625,0.0011041078250855207,0.0018279760843142867,0.0008277799934148788
1761916089266453800,4.785453857421875,0.0022287608589977026,-0.001777145080268383,-0.0008848989382386208
1761916089276509000,4.795509033203125,-0.0018598231254145503,0.00118435884360224,0.00008454453200101852
1761916089286563800,4.805563720703125,-0.00027524225879460573,0.0021731904707849026,-0.0009636757895350456
1761916089296618800,4.81561865234375,-0.0002686171792447567,0.002227687742561102,-0.002051222138106823
1761916089306673700,4.825673583984375,0.000381993071641773,0.0018058429704979062,0.000355742871761322
1761916089316728800,4.835728759765625,-0.0008146485779434443,-0.0004980618832632899,-0.0006914101541042328
1761916089326782700,4.84578271484375,0.0008873776532709599,0.002066296059638262,-0.001359330490231514
1761916089336838000,4.855837890625,-0.000898086407687515,-0.0007657147943973541,-0.0008934019133448601
1761916089346892800,4.865892822265625,0.0004697131225839257,0.0020958518143743277,-0.0012745000422000885
1761916089356947700,4.87594775390625,-0.0010660531697794795,0.0013847878435626626,0.0013623358681797981
1761916089367002600,4.886002685546875,0.0006287824944593012,-0.002017666818574071,-0.001657688058912754
1761916089377057800,4.896057861328125,-0.0004544295952655375,-0.0011495548533275723,0.0015272218734025955
1761916089387113000,4.906113037109375,-0.0015889363130554557,0.0023184134624898434,-0.0015636421740055084
1761916089397167600,4.916167724609375,0.0006092498078942299,-0.0007454915903508663,-0.0028551816940307617
1761916089407222800,4.926222900390625,-0.00028557225596159697,-0.002577746519818902,0.0014037452638149261
1761916089417277000,4.93627685546875,0.0002848864533007145,-0.00010869837569771335,0.0013846149668097496
1761916089427331600,4.94633154296875,0.0018156713340431452,0.0032807067036628723,-0.0007746759802103043
1761916089437386800,4.95638671875,-0.001603149576112628,0.003432095982134342,-0.002459213137626648
1761916089447442000,4.96644189453125,0.0011380421929061413,-0.000593271863181144,-0.0019268477335572243
1761916089457496800,4.976496826171875,-0.0006069894880056381,-0.0008410540176555514,-0.00039641745388507843
1761916089467551700,4.9865517578125,-0.0018157982267439365,0.0013240959960967302,0.00006644055247306824
1761916089477606700,4.996606689453125,-0.0036461595445871353,-0.0003633576270658523,-0.000008596107363700867
1761916089487661800,5.006661865234375,-0.0004562255344353616,0.0016731616342440248,0.0011506779119372368
1761916089497716700,5.016716796875,-0.00028785879840143025,-0.0026178264524787664,0.00022560730576515198
1761916089507771600,5.026771728515625,-0.00048599796718917787,0.0016054143197834492,0.0017454735934734344
1761916089517825800,5.03682568359375,-0.0006759667303413153,0.0024269521236419678,0.0006457073614001274
1761916089527880400,5.04688037109375,-0.0008490722393617034,0.0026080470997840166,-0.0009593795984983444
1761916089537935600,5.056935546875,-0.0026125898584723473,-0.0002295796584803611,0.00037151016294956207
1761916089547990300,5.066990234375,0.0010790841188281775,0.00025990934227593243,-0.0004508746787905693
1761916089558045400,5.07704541015625,0.0009368209866806865,-0.0012189263943582773,0.0005303174257278442
1761916089568100400,5.087100341796875,-0.0008118106052279472,-0.0005747076938860118,0.0006727967411279678
1761916089578155500,5.097155517578125,0.0007700365968048573,-0.000340381171554327,-0.0024068960919976234
1761916089588210400,5.10721044921875,0.00028614018810912967,0.0016037262976169586,0.0014855805784463882
1761916089598265300,5.117265380859375,-0.0013452274724841118,0.002295894781127572,-0.000690750777721405
1761916089608320500,5.127320556640625,-0.0019425743957981467,0.0008207696955651045,-0.00000977981835603714
1761916089618374400,5.13737451171875,0.0005935977678745985,-0.0007651696214452386,-0.00015324726700782776
1761916089628429300,5.14742919921875,-0.002990218112245202,0.0025552597362548113,0.0025386763736605644
1761916089638484500,5.157484375,-0.0009011435904540122,-0.0018483337480574846,-0.0001900913193821907
1761916089648538400,5.167538330078125,-0.0016814495902508497,-0.0019015969010069966,-0.0031193019822239876
1761916089658593500,5.177593505859375,0.003381052054464817,0.0004768083163071424,0.0015326878055930138
1761916089668648400,5.1876484375,-0.002643817337229848,0.0001519026845926419,-0.00016188155859708786
1761916089678703600,5.19770361328125,-0.00039805215783417225,-0.0010105341207236052,-0.001316647045314312
1761916089688758300,5.20775830078125,0.00038518349174410105,-0.0006342295091599226,0.0002908371388912201
1761916089698813400,5.2178134765625,-0.001878413837403059,-0.0016988059505820274,0.002263846807181835
1761916089708868600,5.22786865234375,0.0015272365417331457,-0.00024977995781227946,0.00047473516315221786
1761916089718923300,5.23792333984375,-0.00043065077625215054,-0.0029103774577379227,0.000711638480424881
1761916089728978400,5.247978515625,0.0018953541293740273,0.0001828840177040547,-0.0013970518484711647
1761916089739032600,5.258032470703125,0.0006596106686629355,0.0023859210778027773,-0.0004941560328006744
1761916089749087200,5.268087158203125,-0.001106331474147737,-0.0016807257197797298,-0.002157566137611866
1761916089759142400,5.278142333984375,-0.0003950022510252893,-0.00035795458825305104,0.0004578493535518646
1761916089769197600,5.288197509765625,0.0008228612714447081,-0.0009928521467372775,-0.0021485863253474236
1761916089779252500,5.29825244140625,0.00006968114757910371,-0.002207093173637986,-0.003794012125581503
1761916089789307400,5.308307373046875,-0.0000783905852586031,0.0019383833277970552,-0.0004315050318837166
1761916089799362300,5.3183623046875,0.0032011799048632383,0.0005064060096628964,0.00281608197838068
1761916089809417500,5.32841748046875,0.00015532271936535835,0.0011695331195369363,0.0014757132157683372
1761916089819472600,5.33847265625,-0.0012751088943332434,0.00023939917446114123,0.0018086796626448631
1761916089829527300,5.34852734375,0.0013616869691759348,-0.0013891238486394286,-0.0006086723878979683
1761916089839581400,5.35858154296875,-0.0001530352747067809,0.0004623650456778705,0.0004144180566072464
1761916089849636600,5.36863671875,0.0006291351746767759,0.002143086167052388,0.002705802209675312
1761916089859691300,5.378691162109375,-0.00011278956662863493,-0.00030933201196603477,0.0025732852518558502
1761916089869746400,5.388746337890625,0.001575920730829239,0.0017583462176844478,-0.0013303766027092934
1761916089879801600,5.398801513671875,-0.0016744022723287344,0.00008748933032620698,-0.0021656937897205353
1761916089889856300,5.408856201171875,0.00046358341933228076,-0.00016604359552729875,0.00043008942157030106
1761916089899911400,5.418911376953125,-0.00012790499022230506,-0.0008329422562383115,0.0008121198043227196
1761916089909966600,5.428966552734375,0.000038276222767308354,0.0014781488571316004,-0.00025314465165138245
1761916089920021500,5.439021484375,-0.0003199343627784401,-0.0009492207318544388,0.001086326315999031
1761916089930076400,5.449076416015625,0.0002052409981843084,-0.003282416146248579,0.0026349537074565887
1761916089940130600,5.459130615234375,-0.0016839365707710385,-0.003707151859998703,0.0025254348292946815
1761916089950185500,5.469185546875,-0.000026385067030787468,-0.00030096888076514006,0.000025792047381401062
1761916089960240400,5.479240478515625,-0.0002532876387704164,-0.0014368327101692557,0.00028551463037729263
1761916089970295600,5.489295654296875,-0.00029003925737924874,0.0033778962679207325,-0.0010924050584435463
1761916089980350500,5.4993505859375,0.00252641923725605,-0.002519912552088499,0.00017666537314653397
1761916089990405400,5.5094052734375,-0.0029652852099388838,-0.00014224227925296873,0.0011790795251727104
1761916090000460300,5.519460205078125,0.0016714747762307525,0.000508661032654345,-0.0011630821973085403
1761916090010515500,5.529515380859375,0.0010075487662106752,-0.0022626244463026524,-0.00013962946832180023
1761916090020570600,5.539570556640625,-0.0014242937322705984,-0.0023177911061793566,-0.0015252847224473953
1761916090030625300,5.549625244140625,-0.00037394306855276227,0.0013866657391190529,-0.002035013400018215
1761916090040679400,5.559679443359375,-0.00001666875323280692,-0.003185087349265814,0.00040704943239688873
1761916090050734600,5.569734619140625,-0.00033544914913363755,-0.0018172877607867122,-0.00046726595610380173
1761916090060789200,5.579789306640625,0.001952898339368403,0.0016625607386231422,0.0003136890009045601
1761916090070844400,5.589844482421875,-0.0008878955850377679,0.002682018792256713,0.0014434019103646278
1761916090080899600,5.599899658203125,-0.001653372310101986,-0.001582645927555859,-0.000884663313627243
1761916090090954500,5.60995458984375,0.00030405109282583,0.00022484158398583531,-0.00231052003800869
1761916090101009400,5.620009521484375,-0.00047733145765960217,0.000523506838362664,0.000932927243411541
1761916090111064300,5.630064208984375,0.0006574415019713342,0.0011285769287496805,0.0011457139626145363
1761916090121119500,5.640119384765625,-0.0017100516706705093,-0.00008148749475367367,-0.0019736560061573982
1761916090131174400,5.65017431640625,0.0007957165944389999,-0.0014128016773611307,-0.002211475744843483
1761916090141229300,5.660229248046875,-0.0017834558384492993,-0.00012384312867652625,0.000506322830915451
1761916090151283500,5.670283447265625,0.0022357867565006018,0.000975243397988379,0.0009177811443805695
1761916090161338400,5.68033837890625,-0.00003514456329867244,-0.0023204749450087547,-0.0034036291763186455
1761916090171393300,5.690393310546875,0.00036592752439901233,0.0008561436552554369,-0.001913590356707573
1761916090181449500,5.700449462890625,-0.0018609046237543225,-0.0006381858256645501,0.0003647077828645706
1761916090191504400,5.71050439453125,0.0009274251060560346,0.002485435688868165,0.00022569112479686737
1761916090201559600,5.7205595703125,-0.001008898252621293,0.0017941929399967194,0.0012431852519512177
1761916090211614500,5.730614501953125,-0.0006432462250813842,0.0014849998988211155,0.00004156678915023804
1761916090221669400,5.74066943359375,0.0011363271623849869,0.0016430182149633765,-0.0022990303114056587
1761916090231724500,5.750724609375,-0.000559041160158813,0.00011143436859128997,0.001466679386794567
1761916090241778400,5.7607783203125,0.0007109667640179396,0.0001872841385193169,0.0017088185995817184
1761916090251833300,5.770833251953125,0.001140801003202796,0.0003356222005095333,-0.0016712658107280731
1761916090261888500,5.780888427734375,-0.0008713419083505869,0.0007429673569276929,-0.00016891490668058395
1761916090271943400,5.790943359375,0.000181405630428344,0.0009051538654603064,-0.00021871645003557205
1761916090281998300,5.800998291015625,0.0017832010053098202,-0.0018067533383145928,0.001804678700864315
1761916090292053500,5.811053466796875,-0.0016693209763616323,-0.0014064803253859282,-0.0005948292091488838
1761916090302108400,5.8211083984375,0.0004102491366211325,-0.0002986668550875038,0.0018898490816354752
1761916090312163300,5.831163330078125,0.0002374099858570844,-0.00004326968701207079,0.00025040749460458755
1761916090322218500,5.841218505859375,0.00011622373131103814,0.000900459592230618,0.0006025331094861031
1761916090332273400,5.8512734375,-0.0006499677547253668,0.00008366809197468683,-0.000028102658689022064
1761916090342328600,5.86132861328125,0.0012209267588332295,0.00017878519429359585,-0.0008202837780117989
1761916090352382500,5.871382568359375,0.0004038689658045769,0.002536215353757143,-0.00006740819662809372
1761916090362437400,5.881437255859375,0.001614533830434084,0.0011025250423699617,0.00034259166568517685
1761916090372492500,5.891492431640625,0.003253975650295615,0.0008455300703644753,-0.000745309516787529
1761916090382547500,5.90154736328125,-0.0005408177967183292,-0.001356971450150013,-0.0008823573589324951
1761916090392602400,5.911602294921875,0.0016576217021793127,-0.00014363531954586506,-0.0004288209602236748
1761916090402657500,5.921657470703125,0.0019339245045557618,-0.0009415353997610509,-0.0014312118291854858
1761916090412712400,5.93171240234375,-0.0010072705335915089,0.0008204119512811303,0.00005083717405796051
1761916090422767400,5.941767333984375,-0.0005246381042525172,-0.00031593607855029404,0.00030911900103092194
1761916090432822500,5.951822509765625,-0.001053275540471077,0.002053211908787489,-0.002132999710738659
1761916090442877400,5.96187744140625,0.0006997236050665379,0.003433909732848406,-0.001069110818207264
1761916090452932400,5.971932373046875,-0.0009556973236612976,-0.004071676637977362,-0.0009018648415803909
1761916090462986500,5.981986572265625,0.000546417199075222,0.00007815659046173096,0.0006872145459055901
1761916090473041400,5.99204150390625,-0.00025466165971010923,-0.0010835143039003015,0.001210525631904602
1761916090483096300,6.002096435546875,0.0002957219840027392,-0.0012167893582955003,0.00047936104238033295
1761916090493151500,6.0121513671875,0.000469093763967976,-0.0015587392263114452,0.001772059127688408
1761916090503206400,6.022206298828125,0.0007628913735970855,-0.00014160142745822668,0.000364476814866066
1761916090513261300,6.03226123046875,-0.00006641697837039828,0.00008822937525110319,0.0015069730579853058
1761916090523316500,6.04231640625,0.0017783164512366056,-0.003793685929849744,-0.0009509781375527382
1761916090533371600,6.05237158203125,-0.0002720511984080076,-0.0008511592168360949,-0.0018495284020900726
1761916090543426800,6.0624267578125,0.0009118351154029369,-0.00018587129306979477,-0.0008839843794703484
1761916090553481500,6.0724814453125,0.000653508526738733,-0.0012972083641216159,-0.0002613374963402748
1761916090563536600,6.08253662109375,0.0007451392593793571,-0.0019565143156796694,-0.0017299344763159752
1761916090573590800,6.0925908203125,0.00013500906061381102,-0.00010641639528330415,0.0004101814702153206
1761916090583645700,6.102645751953125,0.001916554756462574,-0.0006685027619823813,-0.001667655073106289
1761916090593700600,6.11270068359375,-0.001692561199888587,-0.0003292160399723798,0.00045808032155036926
1761916090603755800,6.122755859375,-0.0007411579135805368,0.0002124017773894593,-0.001069219782948494
1761916090613810700,6.132810791015625,0.0006215816247276962,-0.0010350228985771537,-0.0013975882902741432
1761916090623865600,6.142865478515625,0.0004422594793140888,0.0009615725139155984,0.002861590124666691
1761916090633920800,6.152920654296875,-0.000140440184623003,-0.002234487095847726,0.0015497170388698578
1761916090643975700,6.1629755859375,0.0007888498948886991,0.0008125323220156133,-0.0002708127722144127
1761916090654030800,6.17303076171875,0.0006772634806111455,0.0012349096359685063,-0.0020487383008003235
1761916090664085500,6.18308544921875,-0.0008869754383340478,0.0010339797008782625,0.0012077316641807556
1761916090674140700,6.193140625,0.0010355605045333505,-0.0012917588464915752,0.0002047847956418991
1761916090684195800,6.20319580078125,0.000041034509195014834,-0.00030605634674429893,0.0017123520374298096
1761916090694249700,6.213249755859375,-0.0013382165925577283,0.0027091747615486383,-0.002346305176615715
1761916090704304600,6.2233046875,-0.0018482969608157873,-0.001289821695536375,0.0017565051093697548
1761916090714359800,6.23335986328125,-0.0004898184561170638,0.0010700053535401821,0.002215367741882801
1761916090724414500,6.24341455078125,0.0014504340942949057,-0.0013602107064798474,-0.0013325084000825882
1761916090734469600,6.2534697265625,0.0011588179040700197,-0.00033542627352289855,0.000025437213480472565
1761916090744524800,6.26352490234375,-0.000031452684197574854,-0.000548924261238426,-0.001971163786947727
1761916090754579700,6.273579833984375,-0.0009686190169304609,0.0008393816533498466,-0.0019663693383336067
1761916090764634600,6.283634521484375,-0.000029221409931778908,-0.0002766968391370028,0.000646655447781086
1761916090774689800,6.293689697265625,-0.003391196019947529,0.00114915962330997,0.0013782251626253128
1761916090784744700,6.30374462890625,-0.0001807024236768484,-0.0022079036571085453,-0.00020129047334194183
1761916090794799900,6.3137998046875,0.0004467383259907365,-0.0003692573809530586,0.0028978297486901283
1761916090804854500,6.3238544921875,0.0006370651535689831,0.00044413426076062024,0.0009970376268029213
1761916090814908700,6.33390869140625,-0.0009560377220623195,-0.001220607664436102,-0.0009808922186493874
1761916090824963600,6.343963623046875,-0.001421985449269414,0.001307352096773684,0.0007010111585259438
1761916090835018800,6.354018798828125,-0.0020592797081917524,0.000346483604516834,0.0018448391929268837
1761916090845073700,6.36407373046875,-0.0002073650248348713,-0.001496851327829063,-0.00045942235738039017
1761916090855128800,6.37412890625,0.0006120896432548761,0.001864324207417667,-0.0012471852824091911
1761916090865183500,6.38418359375,-0.002897517755627632,-0.00159184611402452,-0.00045914575457572937
1761916090875238700,6.39423876953125,0.0007925584213808179,0.002142971148714423,-0.0008623488247394562
1761916090885293800,6.4042939453125,0.00031524000223726034,-0.0019292160868644714,0.00033422932028770447
1761916090895348700,6.4143486328125,0.0008539975387975574,0.0006916006677784026,-0.000001062639057636261
1761916090905403600,6.424403564453125,-0.0005984160816296935,-0.0024303579702973366,0.0003818850964307785
1761916090915458600,6.43445849609375,-0.0012783210258930922,-0.0013014439027756453,-0.0013190759345889091
1761916090925513700,6.444513671875,-0.000053573690820485353,0.0004571737954393029,-0.004483734257519245
1761916090935567600,6.454567626953125,-0.00008792849257588387,-0.00019290381169412285,-0.0014711664989590645
1761916090945622800,6.464622802734375,0.00040994177106767893,-0.003505637403577566,0.0013473881408572197
1761916090955677700,6.474677734375,-0.00015225153765641153,-0.002371397102251649,-0.0007224204018712044
1761916090965732600,6.484732666015625,-0.0005182395689189434,0.0012689155992120504,-0.00045180320739746094
1761916090975787500,6.49478759765625,-0.00007322538294829428,0.0002188311773352325,-0.0007857633754611015
1761916090985842700,6.5048427734375,0.0010641609551385045,-0.001673808554187417,0.0014527719467878342
1761916090995897900,6.51489794921875,0.0007160858367569745,0.0011504737194627523,0.0009616846218705177
1761916091005952500,6.524952392578125,-0.0004293795791454613,-0.003411836689338088,-0.0006230780854821205
1761916091016007700,6.535007568359375,-0.0017724116332828999,-0.0003966055519413203,-0.0012529157102108002
1761916091026062800,6.545062744140625,0.002060080412775278,-0.0006175556918606162,0.0007455116137862206
1761916091036117800,6.55511767578125,0.0012142605846747756,0.00033772020833566785,0.0026709772646427155
1761916091046172700,6.565172607421875,-0.0006917548016645014,-0.00114130147267133,-0.0008413232862949371
1761916091056226800,6.575226806640625,-0.0004997409414499998,-0.0038843571674078703,0.0006942553445696831
1761916091066281700,6.58528173828125,0.0005636924761347473,-0.001030229264870286,-0.0032552145421504974
1761916091076336600,6.595336669921875,-0.00045310240238904953,0.0010518301278352737,0.0020332904532551765
1761916091086391800,6.605391845703125,-0.0015089110238477588,0.00040818919660523534,-0.0011179540306329727
1761916091096446700,6.61544677734375,-0.0009315377101302147,-0.0004983508260920644,-0.000408221036195755
1761916091106501600,6.625501708984375,0.0007978519424796104,0.0013780215522274375,-0.0018355008214712143
1761916091116556500,6.635556640625,0.0009190257405862212,0.0006768112652935088,0.0014143548905849457
1761916091126611700,6.64561181640625,0.0006207512342371047,0.0004618274397216737,-0.0017399145290255547
1761916091136667000,6.6556669921875,-0.0007987135904841125,0.00022480610641650856,0.00295284204185009
1761916091146721500,6.665721435546875,-0.0013112409505993128,-0.0006989676039665937,-0.0018966160714626312
1761916091156776700,6.675776611328125,0.0006693519535474479,0.001409989665262401,0.0007028952240943909
1761916091166831600,6.68583154296875,0.00044486913247965276,-0.0022917380556464195,-0.0006032148376107216
1761916091176885500,6.695885498046875,-0.0006222594529390335,-0.001859240815974772,-0.0008383719250559807
1761916091186940700,6.705940673828125,-0.0015882642474025488,-0.000759678368922323,-0.002080335281789303
1761916091196995800,6.715995849609375,-0.0006130147376097739,0.002244367264211178,0.00014606676995754242
1761916091207050800,6.72605078125,-0.0002851432072930038,0.000816694984678179,-0.0014778245240449905
1761916091217105700,6.736105712890625,0.0007225969457067549,-0.0019037240417674184,-0.0007627662271261215
1761916091227160600,6.74616064453125,0.0004933620803058147,0.00021684152306988835,0.0014115292578935623
1761916091237215700,6.7562158203125,-0.0010962787782773376,-0.002173345535993576,-0.0006870413199067116
1761916091247270700,6.766270751953125,0.000855846970807761,-0.0006917623104527593,-0.0013062059879302979
1761916091257325600,6.77632568359375,0.0009687650017440319,-0.002141586970537901,-0.000632159411907196
1761916091267380700,6.786380615234375,0.0005110395140945911,0.0002896128862630576,-0.0005183452740311623
1761916091277436000,6.796435791015625,0.00030517714913003147,0.00020945172582287341,0.000777282752096653
1761916091287490600,6.806490478515625,0.00004614063072949648,-0.0010366353671997786,-0.000613049603998661
1761916091297545700,6.816545654296875,0.0017710700631141663,0.0014603444142267108,0.00041226763278245926
1761916091307600000,6.826599853515625,0.002909813541918993,0.001953395316377282,-0.0010643955320119858
1761916091317654500,6.836654541015625,-0.0007917140610516071,0.0010604375274851918,0.0012096771970391273
1761916091327709700,6.846709716796875,0.0005942441639490426,0.0007170785102061927,-0.00015351362526416779
1761916091337764900,6.856764892578125,0.00217269966378808,0.0004009612603113055,0.0006827190518379211
1761916091347819800,6.86681982421875,0.0023271292448043823,-0.000668706139549613,0.0008498970419168472
1761916091357874700,6.876874755859375,0.0015473556704819202,0.002356911078095436,-0.0000678282231092453
1761916091367929600,6.8869296875,-0.0017226403579115868,0.0011638145660981536,-0.0006752917543053627
1761916091377984800,6.89698486328125,-0.0010432680137455463,0.001938528148457408,-0.0010465364903211594
1761916091388039700,6.907039794921875,-0.0003042228636331856,0.0012353912461549044,-0.0020716171711683273
1761916091398094600,6.917094482421875,0.0014508003368973732,-0.0035010408610105515,-0.0013190079480409622
1761916091408149800,6.927149658203125,0.00034223718103021383,-0.003058637725189328,-0.0003131534904241562
1761916091418204700,6.93720458984375,-0.0015368892345577478,0.0001384872302878648,-0.0015872102230787277
1761916091428259600,6.947259521484375,-0.00030807856819592416,0.002476121298968792,0.0009606191888451576
1761916091438313700,6.957313720703125,-0.0005000925157219172,0.0019434889545664191,-0.0009973365813493729
1761916091448369000,6.967368896484375,0.00037831137888133526,-0.0007094985339790583,0.000864516943693161
1761916091458423600,6.977423583984375,0.00154690642375499,0.001189335365779698,-0.0009006261825561523
1761916091468478700,6.987478759765625,-0.0029895221814513206,0.0009656668989919126,-0.0004168003797531128
1761916091478533600,6.99753369140625,-0.0005476698279380798,0.0008104045991785824,0.00008653756231069565
1761916091488588500,7.007588623046875,0.00010760786244645715,0.0007690145284868777,-0.001955936662852764
1761916091498643700,7.017643798828125,0.0018546415958553553,0.0013788784854114056,0.0037104710936546326
1761916091508698600,7.02769873046875,-0.003027640050277114,0.0005956746754236519,0.00016636960208415985
1761916091518753800,7.03775390625,-0.00005262286867946386,0.003550718305632472,0.001152537763118744
1761916091528808400,7.047808349609375,0.0004002124769613147,0.0015277587808668613,0.0013995785266160965
1761916091538863400,7.05786328125,-0.001732446951791644,-0.0025838955771178007,-0.000013494864106178284
1761916091548918500,7.06791845703125,0.002076396718621254,0.0003021586162503809,0.0007557375356554985
1761916091558973400,7.077973388671875,0.0002161786542274058,-0.00028959577321074903,-0.000849883072078228
1761916091569027300,7.08802734375,-0.0009749972959980369,0.0005426638526841998,-0.00007541384547948837
1761916091579082500,7.09808251953125,-0.00015820589032955468,0.00280448654666543,-0.0006328132003545761
1761916091589137400,7.108137451171875,-0.0007249336340464652,-0.004742026329040527,0.000333334319293499
1761916091599192300,7.1181923828125,0.0024548806250095367,-0.00275743892416358,0.0004076370969414711
1761916091609247500,7.12824755859375,0.0008205042686313391,-0.0015064254403114319,-0.00012448150664567947
1761916091619302400,7.138302490234375,0.0017534096259623766,0.001417459105141461,-0.0006113070994615555
1761916091629357300,7.148357421875,-0.0007762373425066471,0.0027947030030190945,0.00040731392800807953
1761916091639412500,7.15841259765625,0.0008211266249418259,-0.0012647532857954502,-0.0009911125525832176
1761916091649467400,7.16846728515625,-0.0013594126794487238,-0.0020680115558207035,-0.001033182255923748
1761916091659522300,7.178522216796875,0.0012366367736831307,-0.0002836935454979539,-0.0019269390031695366
1761916091669577500,7.188577392578125,-0.0008369892020709813,-0.00004032329889014363,0.00009967386722564697
1761916091679632400,7.19863232421875,0.0006306788418442011,0.0004979015211574733,0.0010552164167165756
1761916091689687600,7.2086875,-0.0009175690938718617,0.00023841977235861123,-0.00027144700288772583
1761916091699742200,7.2187421875,-0.00095964694628492,0.00048795793554745615,-0.0015582861378788948
1761916091709796400,7.22879638671875,0.000024817301891744137,0.0005080567207187414,-0.0018487200140953064
1761916091719851500,7.2388515625,0.000655187526717782,-0.0012509612133726478,-0.0019043805077672005
1761916091729906400,7.248906494140625,-0.0017453362233936787,0.0008044583955779672,-0.0005562929436564445
1761916091739961300,7.25896142578125,0.0016073172446340322,0.0020015493500977755,0.0002903258427977562
1761916091750016500,7.2690166015625,0.000365686253644526,0.00018472765805199742,-0.0006933817639946938
1761916091760071200,7.2790712890625,0.000002164742909371853,0.000007094809916452505,0.0005894629284739494
1761916091770126300,7.289126220703125,-0.00013592891627922654,0.0008886135765351355,0.0029026567935943604
1761916091780181500,7.299181396484375,-0.0017793657025322318,-0.0013819976011291146,0.0019830670207738876
1761916091790236400,7.309236328125,-0.0006110745016485453,-0.00016938429325819016,-0.0009401487186551094
1761916091800291300,7.319291259765625,0.0022510248236358166,0.00017309823306277394,-0.001748683862388134
1761916091810346200,7.32934619140625,-0.001649372512474656,-0.00041758580482564867,0.0003718137741088867
1761916091820401400,7.3394013671875,0.0005930090555921197,-0.0013992269523441792,0.0020200442522764206
1761916091830456600,7.34945654296875,0.00020879844669252634,0.0026344917714595795,0.0004061199724674225
1761916091840511200,7.35951123046875,-0.0018327808938920498,-0.0016025974182412028,0.0006585875526070595
1761916091850565400,7.3695654296875,0.000739339564461261,-0.0030444611329585314,0.003697519190609455
1761916091860620500,7.37962060546875,0.0003545127692632377,0.0015375073999166489,-0.0011465046554803848
1761916091870675200,7.38967529296875,-0.0008305000956170261,-0.00030217086896300316,-0.0011587832123041153
1761916091880730400,7.39973046875,0.0019418506417423487,0.00028505612863227725,-0.0003001801669597626
1761916091890785500,7.40978564453125,-0.0012884266907349229,0.0008287591044791043,-0.0033341916278004646
1761916091900840200,7.419840087890625,0.0014588902704417706,-0.0013595602940768003,-0.0020952895283699036
1761916091910895400,7.429895263671875,0.0009663085802458227,-0.0017118372488766909,-0.00032810308039188385
1761916091920950500,7.439950439453125,-0.0012009718921035528,0.0005680950125679374,-0.0005842996761202812
1761916091931005400,7.45000537109375,-0.0011053679045289755,-0.0016632118495181203,0.0005750125274062157
1761916091941060400,7.460060302734375,-0.00023824273375794291,-0.001828860491514206,-0.0010785441845655441
1761916091951115300,7.470115234375,0.001176134217530489,-0.0034593462478369474,-0.0008830083534121513
1761916091961170400,7.48017041015625,0.00086108228424564,-0.001392999431118369,-0.001247861422598362
1761916091971225600,7.4902255859375,0.0010133737232536077,0.0012117305304855108,-0.0018733218312263489
1761916091981279500,7.500279541015625,-0.0006082251202315092,0.0020857800263911486,0.002920367754995823
1761916091991334400,7.51033447265625,-0.0015186109812930226,-0.0005925747682340443,0.0005361642688512802
1761916092001389600,7.5203896484375,0.0006601210916414857,0.0015470088692381978,0.0026014456525444984
1761916092011444200,7.5304443359375,0.0001254253729712218,-0.0015338073717430234,-0.0015452755615115166
1761916092021499400,7.54049951171875,-0.0016261357814073563,0.0008997892728075385,-0.0017820307984948158
1761916092031554600,7.550554443359375,0.000009688083082437515,0.0012922636233270168,-0.0002777865156531334
1761916092041609200,7.560609130859375,-0.0012457261327654123,0.001036866451613605,0.0009547239169478416
1761916092051664400,7.570664306640625,0.0010940651409327984,-0.0011985995806753635,0.000008093193173408508
1761916092061719300,7.58071923828125,-0.000019935076124966145,0.00016174311167560518,-0.004233256913721561
1761916092071774500,7.5907744140625,-0.0016395230777561665,-0.0008175236871466041,-0.0011619627475738525
1761916092081829400,7.600829345703125,0.0020620045252144337,0.000825114082545042,0.00040610693395137787
1761916092091884300,7.61088427734375,-0.0004999413504265249,-0.0003659145440906286,0.0009527383372187614
1761916092101939500,7.620939453125,-0.0015039530117064714,-0.0010359659790992737,-0.0010062828660011292
1761916092111994600,7.63099462890625,0.0019907974638044834,0.0015973139088600874,-0.0007392494007945061
1761916092122049300,7.64104931640625,0.002910653129220009,-0.0003316137008368969,-0.0005496321246027946
1761916092132104400,7.6511044921875,-0.0005470486357808113,0.00006266818672884256,0.0038283318281173706
1761916092142158600,7.66115869140625,-0.0014615780673921108,-0.00240208744071424,-0.0025366228073835373
1761916092152213200,7.671213134765625,-0.002684672363102436,-0.0005733110010623932,-0.0004292018711566925
1761916092162268400,7.681268310546875,-0.0009416332468390465,0.00016944461094681174,-0.001149587333202362
1761916092172323600,7.691323486328125,-0.0011524140136316419,0.0022306039463728666,-0.0004684058949351311
1761916092182378200,7.701378173828125,0.0007906282553449273,-0.0009651893051341176,0.0015670480206608772
1761916092192433400,7.711433349609375,-0.000776487635448575,0.0015421521384269,-0.0015554903075098991
1761916092202488300,7.72148828125,-0.0018635899759829044,0.0021773159969598055,-0.00030806567519903183
1761916092212543500,7.73154345703125,-0.0007193413912318647,-0.0003689232107717544,0.0012718932703137398
1761916092222598400,7.741598388671875,-0.0007691424689255655,-0.0007721257279627025,0.0005219466984272003
1761916092232653300,7.7516533203125,-0.00002650381065905094,-0.0027135468553751707,-0.0020783431828022003
1761916092242708500,7.76170849609375,0.0017596783582121134,0.0030764315742999315,0.0005579199641942978
1761916092252763400,7.771763427734375,0.003977923654019833,-0.0010060358326882124,-0.0009598704054951668
1761916092262818300,7.781818359375,-0.0006735536735504866,0.0003761447733268142,-0.00230476725846529
1761916092272873500,7.79187353515625,0.0020325928926467896,0.003999675158411264,-0.0003149900585412979
1761916092282928400,7.801928466796875,-0.0013799816370010376,-0.0005932120839133859,-0.00032244715839624405
1761916092292982300,7.811982177734375,0.0002223883057013154,0.0015385430306196213,-0.0005763741210103035
1761916092303037400,7.822037353515625,0.0021808769088238478,-0.0022519342601299286,0.00011018849909305573
1761916092313092400,7.83209228515625,-0.00048413308104500175,0.0027393540367484093,-0.0014696288853883743
1761916092323147300,7.842147216796875,0.0017329484689980745,-0.0033547573257237673,-0.0006349943578243256
1761916092333202400,7.852202392578125,0.0009572886046953499,-0.0012131213443353772,0.0005812682211399078
1761916092343257300,7.86225732421875,0.0006931030075065792,0.0006689346046186984,0.00152535829693079
1761916092353312500,7.8723125,-0.0018637911416590214,0.001526443986222148,0.0003847479820251465
1761916092363367400,7.882367431640625,-0.00038600305560976267,-0.0000706537757650949,0.00031523965299129486
1761916092373422300,7.89242236328125,-0.0023837187327444553,0.0015305016422644258,-0.0007610777392983437
1761916092383477500,7.9024775390625,0.0004277805855963379,-0.0021326763089746237,-0.000059334561228752136
1761916092393532200,7.9125322265625,-0.002484300173819065,-0.0021264178212732077,0.000021850690245628357
1761916092403587300,7.92258740234375,-0.0007274129311554134,-0.0023461284581571817,0.0008074836805462837
1761916092413642500,7.932642578125,0.0017317425226792693,0.002270989352837205,0.0018964456394314766
1761916092423697400,7.942697509765625,-0.001567913917824626,0.00022035531583242118,0.00356997549533844
1761916092433752300,7.95275244140625,0.0015216706087812781,-0.0005299085169099271,0.0016319388523697853
1761916092443806500,7.962806396484375,0.00005027410225011408,0.0011388282291591167,0.0008425777778029442
1761916092453861400,7.972861328125,-0.0017425849800929427,0.002461274852976203,-0.0020983861759305
1761916092463916300,7.982916259765625,-0.0009239292703568935,-0.00044876112951897085,-0.00018783379346132278
1761916092473971500,7.992971435546875,0.0004860796616412699,0.00023289861564990133,-0.0007341094315052032
1761916092484026400,8.0030263671875,-0.00012804527068510652,0.0019162826938554645,0.0008161170408129692
1761916092494081500,8.01308154296875,-0.0006157507305033505,-0.0017829141579568386,-0.0030844835564494133
1761916092504136400,8.023136474609375,0.002914535580202937,-0.001349884201772511,-0.0004905639216303825
1761916092514191400,8.03319140625,-0.0003775011864490807,-0.0014922877307981253,0.0022785337641835213
1761916092524246500,8.04324658203125,-0.0001782967010512948,0.003477703547105193,-0.000012584030628204346
1761916092534302000,8.053302001953124,0.0009516900172457099,0.0015713429311290383,0.000753636471927166
1761916092544357000,8.063357177734375,-0.0029794019646942616,0.00026985618751496077,0.0006140870973467827
1761916092554412000,8.073412109375,-0.0008028610609471798,-0.002370336791500449,0.0011384161189198494
1761916092564467000,8.083467041015625,-0.0008284273790195584,-0.001406272524036467,0.0005953973159193993
1761916092574522000,8.093522216796876,-0.0018418029649183154,0.0011371469590812922,-0.00041019171476364136
1761916092584577000,8.103576904296874,0.0011670364765450358,0.0014615199761465192,-0.0008456185460090637
1761916092594632000,8.1136318359375,-0.001199229503981769,0.0026279406156390905,0.00039418134838342667
1761916092604686000,8.12368603515625,0.0003291586763225496,-0.0006384265143424273,0.0010341387242078781
1761916092614741000,8.133740966796875,0.0016082494985312223,0.000734768167603761,0.000934068113565445
1761916092624796000,8.1437958984375,-0.0020336234010756016,-0.0013158658985048532,-0.00015969201922416687
1761916092634851000,8.15385107421875,-0.00021207501413300633,-0.0027999868616461754,0.0018556639552116394
1761916092644906000,8.163906005859374,-0.00128506263718009,-0.0008052793564274907,0.0005938578397035599
1761916092654961200,8.173961181640625,-0.0020485185086727142,-0.0017255553975701332,0.0017484510317444801
1761916092665015800,8.184015869140625,0.0020972243510186672,-0.00023604949819855392,-0.0021432265639305115
1761916092675071000,8.194071044921875,0.00043579109478741884,-0.0010716344695538282,-0.0011941902339458466
1761916092685126100,8.204126220703126,0.000005424255505204201,-0.0011470018653199077,0.001973372884094715
1761916092695181000,8.21418115234375,0.0019224199932068586,0.0013000023318454623,0.00026784371584653854
1761916092705236000,8.224236083984374,-0.0009231676813215017,-0.0010688795009627938,-0.00218785647302866
1761916092715291100,8.234291015625,0.000605336797889322,0.0002678706659935415,-0.000514693558216095
1761916092725346000,8.244345947265625,-0.0004793687257915735,0.0009637546609155834,-0.0020420169457793236
1761916092735401000,8.25440087890625,-0.0010160852689296007,0.0016566161066293716,-0.002144460566341877
1761916092745455900,8.264455810546876,-0.0005268626264296472,0.0008462162804789841,0.00018340814858675003
1761916092755511000,8.274510986328124,-0.00027719681384041905,0.0007033926085568964,-0.00047255679965019226
1761916092765565000,8.28456494140625,-0.001939808251336217,-0.0008529587066732347,-0.001639287918806076
1761916092775620000,8.2946201171875,0.00014470450696535408,-0.0012300539528951049,-0.0022272439673542976
1761916092785675000,8.304675048828125,-0.0017227039206773043,0.001331374398432672,0.00007079727947711945
1761916092795730200,8.314730224609375,-0.00046522775664925575,0.0014461299870163202,0.0008813785389065742
1761916092805784800,8.324784912109376,0.00007912237197160721,0.0016392091056331992,-0.0011817719787359238
1761916092815840000,8.334840087890624,-0.00020073942141607404,0.0004879899206571281,-0.0012973407283425331
1761916092825895200,8.344895263671875,-0.00356005085632205,0.00009970104292733595,-0.0009215688332915306
1761916092835950000,8.3549501953125,0.0003244775580242276,0.00018960282613988966,-0.0013831593096256256
1761916092846005000,8.3650048828125,0.00006375406519509852,-0.00352657213807106,0.0006078192964196205
1761916092856060000,8.375059814453126,0.00006741186371073127,-0.0022112238220870495,0.0009551336988806725
1761916092866115000,8.385114990234374,0.002273041754961014,-0.0011478234082460403,0.0010033370926976204
1761916092876170000,8.395169921875,0.002976657822728157,0.0018940211739391088,-0.0023980513215065002
1761916092886225000,8.405224853515625,0.0007529185386374593,-0.0003773889329750091,-0.0008512875065207481
1761916092896280000,8.415280029296875,-0.0005029739113524556,-0.003392239799723029,-0.0021344535052776337
1761916092906335200,8.425335205078126,-0.0009655649773776531,-0.002467057667672634,0.00048769451677799225
1761916092916390000,8.435389892578126,-0.00018307100981473923,-0.00017286620277445763,0.0009364336729049683
1761916092926445000,8.445445068359374,0.0006140130572021008,0.0018748383736237884,0.0005532056093215942
1761916092936499200,8.455499267578125,0.0027397924568504095,-0.0004924164386466146,0.0007188683375716209
1761916092946553900,8.465553955078125,0.0010284450836479664,-0.0001992024335777387,0.00018437206745147705
1761916092956609000,8.475609130859375,-0.0009672731976024806,0.0038532079197466373,-0.00044054165482521057
1761916092966664200,8.485664306640626,-0.0018003098666667938,-0.00152477971278131,-0.0009414823725819588
1761916092976718800,8.49571875,0.0000657549244351685,0.0031320862472057343,-0.0019490746781229973
1761916092986774000,8.50577392578125,-0.00004663044819608331,-0.0024871837813407183,-0.0029403027147054672
1761916092996829000,8.515828857421875,-0.0005691652768291533,-0.0020942443516105413,-0.001069067046046257
1761916093006884000,8.525884033203125,-0.0016759750433266163,0.002048302674666047,-0.0012136772274971008
1761916093016939000,8.53593896484375,0.0010780682787299156,0.0015839121770113707,-0.0008039064705371857
1761916093026994000,8.545993896484376,0.00037499377503991127,-0.000863000110257417,0.0018515316769480705
1761916093037049000,8.556049072265624,0.0014897045912221074,-0.0018724064575508237,0.0012820791453123093
1761916093047104000,8.56610400390625,-0.0004133903421461582,0.001092224381864071,0.00044584646821022034
1761916093057159000,8.576158935546875,0.0019610347226262093,0.0009796939557418227,0.0005908012390136719
1761916093067214000,8.586214111328125,0.0003961613401770592,-0.0021148992236703634,-0.000633985735476017
1761916093077269000,8.59626904296875,0.0009540727478452027,-0.0019401564495638013,0.000022987835109233856
1761916093087324000,8.606323974609374,-0.0012536877766251564,-0.0008626414928585291,0.0008325893431901932
1761916093097379000,8.616379150390625,-0.0019519836641848087,0.000883456610608846,-0.0016861651092767715
1761916093107434000,8.62643408203125,-0.0007074885070323944,0.00021899791317991912,-0.0019663292914628983
1761916093117489200,8.6364892578125,-0.0016666665906086564,-0.00034778850385919213,0.00014334917068481445
1761916093127543800,8.646543701171876,-0.0011558723635971546,0.002764381468296051,0.0023567024618387222
1761916093137598000,8.656597900390626,-0.0015752045437693596,0.0017052979674190283,0.0006033116951584816
1761916093147653000,8.666653076171874,-0.00012031965889036655,0.0008168674539774656,-0.0020563872531056404
1761916093157708000,8.6767080078125,0.0015098194126039743,-0.0005585597245953977,-0.000028859823942184448
1761916093167763000,8.686762939453125,0.000568658288102597,-0.0007812000112608075,-0.00021315086632966995
1761916093177818000,8.696818115234375,-0.00030859996331855655,-0.0031507161911576986,-0.00028466247022151947
1761916093187873000,8.706873046875,0.0009675868204794824,-0.0015197965549305081,-0.0007011806592345238
1761916093197928000,8.716927978515624,0.000607677036896348,0.0002959826379083097,0.001509721390902996
1761916093207983000,8.726983154296875,0.0015989055391401052,-0.002455329056829214,0.0017028013244271278
1761916093218038000,8.7370380859375,0.0011255498975515366,-0.0014260999159887433,0.0013197017833590508
1761916093228093000,8.747093017578125,0.0008302052738144994,-0.0008676350698806345,-0.0006417157128453255
1761916093238148000,8.757148193359376,-0.0007686603348702192,0.00234109815210104,-0.001444883644580841
1761916093248203000,8.767203125,0.000966655439697206,-0.000059475001762621105,0.0018563708290457726
1761916093258258200,8.777258056640624,-0.0003141568158753216,0.00047340220771729946,0.0002431292086839676
1761916093268312800,8.787312744140625,0.0002919786493293941,-0.0016395497368648648,-0.0002466253936290741
1761916093278368000,8.797367919921875,-0.0016509408596903086,0.0015277690254151821,0.0005524316802620888
1761916093288423200,8.807423095703125,-0.0004178974195383489,-0.002447797916829586,0.0013830717653036118
1761916093298478000,8.81747802734375,0.000021037878468632698,0.001821882906369865,-0.0008654240518808365
1761916093308533000,8.827532958984374,0.0009379642433486879,-0.0014040041714906693,-0.0006273370236158371
1761916093318588000,8.837587890625,-0.0027921698056161404,0.0037942121271044016,-0.001517411321401596
1761916093328643000,8.84764306640625,-0.0016382221365347505,0.00029322062619030476,-0.002975226379930973
1761916093338697000,8.857697021484375,-0.0005041059339419007,-0.0013151009334251285,0.000704190693795681
1761916093348752100,8.867752197265625,-0.0015051880618557334,0.002407731954008341,0.0004181666299700737
1761916093358807000,8.87780712890625,0.0017554007936269045,0.00006847011536592618,0.0024897120893001556
1761916093368862000,8.887862060546874,-0.00036287755938246846,-0.0028556808829307556,0.00010325293987989426
1761916093378916900,8.897916748046875,-0.0012048495700582862,0.000659927842207253,-0.0008654752746224403
1761916093388972000,8.907971923828125,-0.0004650234477594495,0.0003009337233379483,0.0013707811012864113
1761916093399027200,8.918027099609375,-0.0009386544697917998,0.0019369166111573577,-0.001349390484392643
1761916093409081900,8.928081787109376,0.0009876099647954106,0.00013155964552424848,-0.001097455620765686
1761916093419137000,8.938136962890624,0.0014672825345769525,0.003566260915249586,0.0016845883801579475
1761916093429192200,8.948192138671875,0.0013490382116287947,-0.0014516670489683747,0.000712268054485321
1761916093439247000,8.9582470703125,-0.0006026508053764701,0.0005534649244509637,0.0006090225651860237
1761916093449302000,8.968302001953125,-0.0015544644556939602,-0.001117668696679175,0.0027909502387046814
1761916093459357000,8.97835693359375,-0.000976990326307714,0.0013012279523536563,-0.003948003053665161
1761916093469412000,8.988412109375,-0.00025713787181302905,-0.00011424213880673051,-0.0026385262608528137
1761916093479467000,8.998467041015624,-0.0001823356724344194,0.0013106665574014187,-0.0006547309458255768
1761916093489522000,9.00852197265625,-0.0008132385555654764,0.00035911909071728587,-0.00044886860996484756
1761916093499577000,9.0185771484375,-0.0007213554927147925,-0.0012193425791338086,-0.0009826654568314552
1761916093509632000,9.028632080078125,0.0018730959855020046,0.0012358255917206407,0.0005726208910346031
1761916093519687000,9.03868701171875,0.0007640277617610991,-0.0003930006641894579,0.00040247663855552673
1761916093529742300,9.048742431640624,0.000017810030840337276,0.00006186724931467324,-0.001304876059293747
1761916093539797000,9.058796875,0.0016878282185643911,-0.0011079392861574888,0.0025765541940927505
1761916093549852200,9.06885205078125,-0.0008890465251170099,0.003803462255746126,-0.0009065940976142883
1761916093559907000,9.078906982421875,-0.0016857996815815568,0.0006759811658412218,0.0019565029069781303
1761916093569962200,9.088962158203126,-0.000029313494451344013,-0.0029874632600694895,-0.00013407878577709198
1761916093580016000,9.09901611328125,-0.0016554384492337704,0.00223792577162385,-0.0008287150412797928
1761916093590071300,9.1090712890625,0.0003118387539871037,0.0035684409085661173,-0.002642061561346054
1761916093600126000,9.1191259765625,-0.0003619125345721841,0.001168249174952507,0.0020340057089924812
1761916093610181000,9.12918115234375,0.000599222257733345,-0.0013670801417902112,0.002602323889732361
1761916093620236000,9.139236083984375,0.00018656079191714525,-0.0036439429968595505,-0.0009550070390105247
1761916093630291200,9.149291259765626,-0.0022760643623769283,-0.002687601838260889,-0.0009384956210851669
1761916093640346000,9.15934619140625,-0.00005544483428820968,0.0010169998276978731,0.0018278127536177635
1761916093650400300,9.169400146484374,0.0009618826443329453,0.00037864010664634407,0.001194247044622898
1761916093660455200,9.179455078125,-0.001682523638010025,-0.0006520070019178092,-0.00027259718626737595
1761916093670510000,9.189510009765625,-0.000843627902213484,-0.001383577473461628,-0.00014849379658699036
1761916093680565000,9.19956494140625,-0.0005082758143544197,0.00026370250270701945,0.002236989326775074
1761916093690620200,9.2096201171875,-0.0003559429314918816,0.00045065642916597426,-0.0008706534281373024
1761916093700675300,9.21967529296875,0.0014694288838654757,0.00029003017698414624,-0.0029759760946035385
1761916093710730000,9.22972998046875,0.0008425208507105708,-0.0013850980903953314,-0.0014971233904361725
1761916093720785200,9.23978515625,-0.0013697186950594187,-0.0008111897623166442,-0.0005188193172216415
1761916093730840300,9.24984033203125,-0.002709554973989725,-0.0013265113811939955,0.0018109139055013657
1761916093740895000,9.25989501953125,0.0005237024743109941,-0.0003149490221403539,0.00006473809480667114
1761916093750950100,9.2699501953125,0.0012866981560364366,-0.0012385332956910133,0.000142768956720829
1761916093761005000,9.280005126953125,0.000935003743506968,0.0013038170291110873,0.00005863141268491745
1761916093771060200,9.290060302734375,0.0016450025141239166,-0.0010818425798788667,-0.0020223623141646385
1761916093781115100,9.300115234375,0.00021905126050114632,-0.00025486492086201906,0.0002504335716366768
1761916093791170000,9.310170166015626,0.003224162384867668,0.0003243726387154311,-0.001275557093322277
1761916093801225200,9.32022509765625,-0.0021470426581799984,-0.002384436083957553,0.00020164716988801956
1761916093811280100,9.330280029296874,0.00011185070616193116,0.0005871188477613032,0.0003688940778374672
1761916093821335000,9.3403349609375,-0.0009873360395431519,0.0025737548712641,0.00027151405811309814
1761916093831390200,9.35039013671875,-0.0008374000899493694,-0.0027208756655454636,-0.0011460864916443825
1761916093841445000,9.360445068359375,0.0027333656325936317,-0.0016024608630686998,-0.0034650955349206924
1761916093851500000,9.3705,-0.00033193291164934635,-0.0024397587403655052,0.0015235375612974167
1761916093861555200,9.38055517578125,0.0008781049400568008,0.0004948382265865803,0.0018670866265892982
1761916093871609000,9.390609130859374,0.001426449860446155,0.0010421178303658962,0.0007903706282377243
1761916093881664000,9.4006640625,0.0005164071335457265,-0.0009070361265912652,-0.0008096406236290932
1761916093891719200,9.41071923828125,0.0003283879777882248,0.0002288020623382181,0.0004188753664493561
1761916093901774000,9.420774169921875,-0.0004593917401507497,0.00042528260382823646,0.0025072582066059113
1761916093911829200,9.430829345703126,0.000548348412849009,-0.0012868635822087526,0.0036944951862096786
1761916093921884200,9.44088427734375,0.0016471302369609475,-0.0016745489556342363,-0.0011350112035870552
1761916093931939000,9.45093896484375,-0.0005616955459117889,-0.0021954632829874754,-0.00014804303646087646
1761916093941994200,9.460994140625,-0.0028645480051636696,-0.0005174995749257505,0.0013644825667142868
1761916093952049200,9.471049072265625,0.000395161216147244,0.00166496098972857,0.0012781955301761627
1761916093962104000,9.48110400390625,0.001085282419808209,-0.0014434282202273607,0.0005517136305570602
1761916093972159200,9.4911591796875,-0.0016191576141864061,-0.0011611331719905138,0.0020337626338005066
1761916093982214100,9.501214111328125,0.0020922075491398573,0.0023998606484383345,0.0016478467732667923
1761916093992269000,9.51126904296875,-0.0013664397411048412,0.003839032957330346,0.0019919276237487793
1761916094002324200,9.52132421875,-0.0010524679673835635,-0.00017495540669187903,0.0012023989111185074
1761916094012379100,9.531379150390626,-0.0017962888814508915,-0.0013057335745543242,0.002876994200050831
1761916094022434300,9.541434326171874,0.002555384300649166,-0.000590113690122962,0.0007091183215379715
1761916094032489000,9.551489013671874,0.00026852800510823727,0.0014967393362894654,0.0009695747867226601
1761916094042544000,9.561544189453125,0.002089626155793667,-0.00017666953499428928,-0.0001721912994980812
1761916094052599300,9.571599365234375,0.0004967895220033824,0.0020249655935913324,0.00038334354758262634
1761916094062654200,9.581654296875,-0.0011693208944052458,-0.0008596020634286106,0.0015341183170676231
1761916094072709000,9.591709228515626,0.000029900489607825875,0.002548711374402046,-0.001168724149465561
1761916094082764000,9.601763916015624,-0.0003080909955315292,0.00013215033686719835,0.0016925409436225891
1761916094092819200,9.611819091796875,0.004199309274554253,-0.004335568752139807,0.001347661018371582
1761916094102874000,9.6218740234375,-0.000459965318441391,0.0009375400259159505,-0.00018386170268058777
1761916094112929000,9.631928955078125,-0.00032574200304225087,0.0033668754622340202,0.001498989760875702
1761916094122984200,9.641984130859376,0.0031743068248033524,0.00018746523710433394,-0.0003376202657818794
1761916094133039400,9.652039306640624,0.00040541813359595835,0.0003552443813532591,-0.001027112826704979
1761916094143094000,9.662093994140625,0.002230305690318346,-0.0008006279240362346,0.0010485406965017319
1761916094153148200,9.672148193359375,-0.0016712251817807555,0.001015914254821837,0.0011249734088778496
1761916094163203300,9.682203369140625,-0.0001960654917638749,0.000627674104180187,-0.0006971629336476326
1761916094173258000,9.692258056640625,0.002191192004829645,0.0003536348231136799,-0.0011240681633353233
1761916094183316200,9.702316162109375,-0.002170990454033017,0.0011096438392996788,0.0056875478476285934
1761916094193371100,9.71237109375,-0.0003927977231796831,0.0031754577066749334,0.001170559786260128
1761916094203426000,9.722426025390625,-0.004950220230966806,0.006351999007165432,0.0034204479306936264
1761916094213481200,9.732481201171876,-0.0041174497455358505,0.03274259343743324,0.021655112504959106
1761916094223536000,9.7425361328125,-0.0010027140378952026,0.013667748309671879,0.003542788326740265
1761916094233591000,9.752591064453124,-0.0000530308170709759,0.0016787295462563634,-0.008154081180691719
1761916094243646200,9.762646240234375,-0.0007340197917073965,0.005945699755102396,0.0033386973664164543
1761916094253701000,9.772701171875,0.0009613485890440643,0.016688358038663864,0.006977907381951809
1761916094263756000,9.782756103515625,0.0009568408131599426,0.0129059087485075,0.009235230274498463
1761916094273811200,9.792811279296876,-0.0026879615616053343,0.006342548411339521,0.0021933000534772873
1761916094283866000,9.8028662109375,-0.0015686674742028117,0.0016142353415489197,-0.0074971807189285755
1761916094293921300,9.81292138671875,0.0012119390303269029,0.001406775088980794,0.005287855863571167
1761916094303976000,9.822975830078125,-0.0010140896774828434,0.006262653507292271,0.0038495194166898727
1761916094314031000,9.833031005859375,-0.00024416972883045673,-0.004171344917267561,-0.009582665748894215
1761916094324086300,9.843086181640626,0.0009541992330923676,-0.017370788380503654,-0.00380774587392807
1761916094334140200,9.85314013671875,0.002015202771872282,-0.015336665324866772,-0.00036880653351545334
1761916094344195000,9.863195068359374,-0.0006073763943277299,0.0051860022358596325,0.0021653203293681145
1761916094354250200,9.873250244140625,-0.0006190942949615419,0.014468982815742493,0.0040066298097372055
1761916094364305200,9.88330517578125,-0.0002731709973886609,-0.007869299501180649,-0.0021425075829029083
1761916094374360000,9.893360107421875,-0.0008500116528011858,-0.033540572971105576,-0.009327183477580547
1761916094384415200,9.903415283203126,0.002500877482816577,-0.029627034440636635,-0.007702433504164219
1761916094394470100,9.91347021484375,0.0008079060935415328,0.018462995067238808,0.004430130124092102
1761916094404525000,9.923525146484375,0.0015851708594709635,0.031460147351026535,0.005218842998147011
1761916094414580200,9.933580322265625,-0.002932082861661911,0.004279922228306532,0.0026438329368829727
1761916094424635100,9.94363525390625,0.003093519015237689,-0.025426536798477173,-0.00634350860491395
1761916094434690300,9.953690185546876,-0.0001755111152306199,-0.029235124588012695,-0.008981635794043541
1761916094444745000,9.963744873046876,-0.001969936303794384,0.012628507800400257,0.008040281943976879
1761916094454800100,9.973800048828124,0.0009614048758521676,0.03516817092895508,0.009321528486907482
1761916094464855300,9.983855224609375,-0.000517019594553858,0.0016271014465019107,-0.0043103136122226715
1761916094474910200,9.99391015625,0.0001959086221177131,-0.03018595464527607,-0.007385732140392065
1761916094484965000,10.003965087890625,0.0008582606678828597,-0.01457731518894434,-0.0012091714888811111
1761916094495020000,10.01402001953125,-0.0007614739006385207,0.023997506126761436,0.004091051407158375
1761916094505075200,10.0240751953125,0.0019991055596619844,0.02179591730237007,0.0023651588708162308
1761916094515130000,10.034130126953125,0.0004305037728045136,-0.016330428421497345,-0.0018370430916547775
1761916094525185000,10.04418505859375,0.0008472335757687688,-0.023887289687991142,-0.003287171944975853
1761916094535244300,10.054244384765624,0.003186287824064493,0.010774018242955208,0.004398711025714874
1761916094545299200,10.06429931640625,0.0007594532798975706,0.0354880727827549,0.0026757828891277313
1761916094555354000,10.07435400390625,-0.0005902367411181331,0.006416741292923689,0.00029252003878355026
1761916094565409300,10.0844091796875,0.0031803648453205824,-0.025536425411701202,-0.0008155759423971176
1761916094575464200,10.094464111328126,0.0016748800408095121,-0.010359869338572025,-0.00009172875434160233
1761916094585519000,10.10451904296875,0.0008404313120990992,0.023558340966701508,0.0034174658358097076
1761916094595574000,10.114573974609375,0.00393768772482872,0.014902268536388874,0.004126665182411671
1761916094605629200,10.124629150390625,0.0005147847114130855,-0.012467421591281891,-0.001207537017762661
1761916094615684400,10.134684326171875,-0.000040750717744231224,-0.020914437249302864,-0.004608393646776676
1761916094625739000,10.144739013671876,0.00027322923415340483,0.006324659567326307,-0.001294211484491825
1761916094635794200,10.154794189453124,-0.00018989446107298136,0.023061828687787056,0.0022845445200800896
1761916094645849300,10.164849365234375,0.0004596328944899142,0.0012352127814665437,-0.000462348572909832
1761916094655904300,10.174904296875,-0.0002466374426148832,-0.017198653891682625,-0.005026473663747311
1761916094665959200,10.184959228515625,-0.0010462813079357147,-0.005906201899051666,-0.002561827190220356
1761916094676014000,10.19501416015625,0.001550300745293498,0.011197683401405811,0.001998569816350937
1761916094686068200,10.205068115234376,-0.00006703892722725868,0.00913330353796482,0.0016299961134791374
1761916094696123100,10.215123046875,-0.00019566959235817194,-0.008546357043087482,-0.0016856398433446884
1761916094706178300,10.22517822265625,-0.0010117634665220976,-0.009877368807792664,-0.002628103829920292
1761916094716233200,10.235233154296875,0.0004830688703805208,0.0008471803739666939,-0.0020105168223381042
1761916094726288100,10.2452880859375,0.001058230991475284,0.010290905833244324,0.0010618874803185463
1761916094736343000,10.255343017578125,-0.0005279476754367352,0.0009517323924228549,-0.000203646719455719
1761916094746398200,10.265398193359376,0.00003224785905331373,-0.005629325285553932,-0.0006336336955428123
1761916094756453400,10.275453369140624,-0.0003206209512427449,-0.004490024875849485,-0.0008402951061725616
1761916094766508000,10.285508056640625,-0.0007570983143523335,0.008641647174954414,0.0019447533413767815
1761916094776563200,10.295563232421875,-0.0018306185957044363,0.009654980152845383,0.004114696756005287
1761916094786618000,10.3056181640625,-0.0014309094985947013,0.143959641456604,0.08430229127407074
1761916094796673300,10.31567333984375,0.0009456954430788755,0.3018757402896881,0.12162623554468155
1761916094806728200,10.325728271484374,0.0006734277703799307,0.30191734433174133,0.10901543498039246
1761916094816783000,10.335783203125,-0.00020648061763495207,0.1396770179271698,0.045948855578899384
1761916094826838300,10.34583837890625,-0.0020036702044308186,-0.07483430206775665,-0.03911450505256653
1761916094836893200,10.35589306640625,-0.0002808712888509035,-0.25401362776756287,-0.09834666550159454
1761916094846948000,10.365947998046876,0.0005393796600401402,-0.31371429562568665,-0.11897021532058716
1761916094857003300,10.376003173828124,-0.0025264513678848743,-0.28076061606407166,-0.1141219288110733
1761916094867058200,10.38605810546875,0.000972484122030437,-0.08535869419574738,-0.02681184560060501
1761916094877113000,10.396113037109375,-0.0019439435563981533,0.15517720580101013,0.059642888605594635
