time,seconds_elapsed,z,y,x
1761914427156853500,0.124853515625,0.04810900241136551,-0.016763390973210335,0.6504479050636292
1761914427166908400,0.134908447265625,0.04610230773687363,-0.0814070999622345,0.5903456807136536
1761914427176964600,0.144964599609375,0.04945682734251022,-0.10711558908224106,0.5108991861343384
1761914427187020300,0.155020263671875,0.06472872942686081,-0.11983004957437515,0.42002785205841064
1761914427197076200,0.165076171875,0.07155776023864746,-0.12614287436008453,0.34752708673477173
1761914427207131400,0.17513134765625,0.07618953287601471,-0.14224806427955627,0.28404343128204346
1761914427217187300,0.185187255859375,0.07222715765237808,-0.14036621153354645,0.23063813149929047
1761914427227243500,0.195243408203125,0.051565021276474,-0.141935333609581,0.1934521496295929
1761914427237298400,0.20529833984375,0.032385531812906265,-0.18726767599582672,0.15281227231025696
1761914427247354600,0.215354736328125,0.003734180238097906,-0.2200421392917633,0.10476724803447723
1761914427257410300,0.225410400390625,-0.02596762590110302,-0.2340451180934906,0.06012765318155289
1761914427267465500,0.235465576171875,-0.047538161277770996,-0.22187234461307526,0.00258446391671896
1761914427277521400,0.245521484375,-0.08041548728942871,-0.18360291421413422,-0.06593538820743561
1761914427287577300,0.255577392578125,-0.1342555433511734,-0.14308053255081177,-0.11436843872070312
1761914427297633500,0.265633544921875,-0.19562935829162598,-0.110145203769207,-0.15345297753810883
1761914427307688400,0.2756884765625,-0.24782145023345947,-0.08543426543474197,-0.16993768513202667
1761914427317744400,0.285744384765625,-0.29655972123146057,-0.045450881123542786,-0.18300646543502808
1761914427327800600,0.295800537109375,-0.3353976607322693,-0.009188750758767128,-0.1804671436548233
1761914427337855200,0.305855224609375,-0.3575532138347626,0.0009645132813602686,-0.17085757851600647
1761914427347911400,0.315911376953125,-0.3533446192741394,-0.006956792902201414,-0.1580941081047058
1761914427357967400,0.32596728515625,-0.35390740633010864,-0.014788556843996048,-0.1400708109140396
1761914427368022500,0.3360224609375,-0.35173535346984863,-0.03793276101350784,-0.11975248903036118
1761914427378078500,0.346078369140625,-0.329527884721756,-0.04237790405750275,-0.10739138722419739
1761914427388134400,0.356134521484375,-0.32443884015083313,-0.014307920821011066,-0.08503947407007217
1761914427398189300,0.366189208984375,-0.3138861656188965,-0.020919479429721832,-0.07227639853954315
1761914427408245200,0.376245361328125,-0.30511876940727234,-0.008830061182379723,-0.0628938153386116
1761914427418301400,0.386301513671875,-0.30412793159484863,0.00989723950624466,-0.0615021213889122
1761914427428357400,0.396357421875,-0.2980346381664276,0.017920546233654022,-0.07102584838867188
1761914427438412500,0.40641259765625,-0.29679471254348755,0.0383625291287899,-0.08043839037418365
1761914427448468500,0.416468505859375,-0.28412631154060364,0.04412507638335228,-0.09589458256959915
1761914427458524400,0.4265244140625,-0.2572557330131531,0.0631008893251419,-0.12331809103488922
1761914427468579300,0.436579345703125,-0.22639848291873932,0.10769739001989365,-0.14333681762218475
1761914427478635300,0.44663525390625,-0.19782721996307373,0.12512405216693878,-0.14402149617671967
1761914427488691500,0.45669140625,-0.15671972930431366,0.11069344729185104,-0.13477659225463867
1761914427498746400,0.466746337890625,-0.12399105727672577,0.08116777241230011,-0.12206681072711945
1761914427508802300,0.47680224609375,-0.10207830369472504,0.06550119817256927,-0.10115434229373932
1761914427518858500,0.4868583984375,-0.09350711852312088,0.026551607996225357,-0.08261988312005997
1761914427528914400,0.49691455078125,-0.07737928628921509,-0.018358075991272926,-0.07304955273866653
1761914427538969600,0.506969482421875,-0.061721790581941605,-0.012257261201739311,-0.09262598305940628
1761914427549025300,0.517025390625,-0.0564468689262867,0.02312922477722168,-0.12066880613565445
1761914427559081200,0.527081298828125,-0.0364948995411396,0.02773272804915905,-0.14917786419391632
1761914427569136400,0.537136474609375,-0.016844233497977257,0.058033108711242676,-0.16941842436790466
1761914427579192300,0.5471923828125,0.00806135218590498,0.10777541249990463,-0.18327677249908447
1761914427589248500,0.55724853515625,0.03753881901502609,0.16565415263175964,-0.1801299899816513
1761914427599303400,0.567303466796875,0.052035197615623474,0.211294025182724,-0.1770019382238388
1761914427609359600,0.577359619140625,0.04440737143158913,0.2515319585800171,-0.16197292506694794
1761914427619415600,0.58741552734375,0.016318518668413162,0.28493261337280273,-0.12589934468269348
1761914427629471200,0.59747119140625,-0.014499581418931484,0.30928856134414673,-0.07650382816791534
1761914427639526400,0.6075263671875,-0.03173265978693962,0.32179081439971924,-0.02255735546350479
1761914427649582300,0.617582275390625,-0.026875056326389313,0.37473976612091064,0.018688617274165154
1761914427659638500,0.627638427734375,-0.0024802738334983587,0.4684438407421112,0.048014067113399506
1761914427669693400,0.637693359375,0.024747619405388832,0.5447402000427246,0.06806261092424393
1761914427679749400,0.647749267578125,0.04148275405168533,0.5761489868164062,0.11613279581069946
1761914427689805600,0.6578056640625,0.04922003671526909,0.5557909607887268,0.18936386704444885
1761914427699860200,0.667860107421875,0.05265897884964943,0.5421529412269592,0.2702810764312744
1761914427709916400,0.67791650390625,0.05069036781787872,0.5104357600212097,0.336733341217041
1761914427719972400,0.687972412109375,0.020693497732281685,0.4828931391239166,0.3823031783103943
1761914427730028300,0.6980283203125,-0.015373692847788334,0.4505530595779419,0.4054093062877655
1761914427740083500,0.70808349609375,-0.0015861834399402142,0.4367378354072571,0.38971149921417236
1761914427750139400,0.718139404296875,0.08642330020666122,0.4468938112258911,0.3065764009952545
1761914427760195600,0.728195556640625,0.23844578862190247,0.5207906365394592,0.15881222486495972
1761914427770250200,0.738250244140625,0.41350120306015015,0.6433823108673096,-0.026469485834240913
1761914427780306400,0.748306396484375,0.5747459530830383,0.7408950328826904,-0.2118295133113861
1761914427790362400,0.7583623046875,0.705228865146637,0.7883427143096924,-0.36379799246788025
1761914427800417500,0.76841748046875,0.8148667216300964,0.8035153746604919,-0.4589206576347351
1761914427810473500,0.778473388671875,0.8960702419281006,0.7683566212654114,-0.504514217376709
1761914427820529400,0.788529296875,0.9362537264823914,0.684948742389679,-0.4924876093864441
1761914427830581800,0.798581787109375,0.9312552809715271,0.5434251427650452,-0.43514737486839294
1761914427840636700,0.80863671875,0.8975377082824707,0.389414519071579,-0.3486752212047577
1761914427850692600,0.818692626953125,0.8429626226425171,0.2473284900188446,-0.24066804349422455
1761914427860748500,0.82874853515625,0.783839225769043,0.16333699226379395,-0.14909183979034424
1761914427870803700,0.8388037109375,0.73325115442276,0.16091032326221466,-0.07764694839715958
1761914427880859600,0.848859619140625,0.6974743008613586,0.2369166910648346,-0.033426061272621155
1761914427890915600,0.85891552734375,0.6867492198944092,0.3280511200428009,0.0007710559293627739
1761914427900970800,0.868970703125,0.6823977828025818,0.43589335680007935,0.02969633974134922
1761914427911026700,0.879026611328125,0.6712205410003662,0.46787285804748535,0.07176735997200012
1761914427921082600,0.88908251953125,0.6473903656005859,0.4506499469280243,0.11733075976371765
1761914427931138600,0.899138671875,0.5923784971237183,0.4147476255893707,0.16298958659172058
1761914427941193500,0.909193359375,0.5237017273902893,0.3571503758430481,0.20946665108203888
1761914427951249700,0.919249755859375,0.46389028429985046,0.2904578745365143,0.25643444061279297
1761914427961305600,0.9293056640625,0.4310790002346039,0.2398492991924286,0.2802219092845917
1761914427971360800,0.93936083984375,0.4142574071884155,0.23138631880283356,0.2836504578590393
1761914427981416700,0.949416748046875,0.4286671578884125,0.24425385892391205,0.27050530910491943
1761914427991472600,0.95947265625,0.4506411552429199,0.2710239291191101,0.25329118967056274
1761914428001527600,0.969527587890625,0.4894769787788391,0.31225162744522095,0.2337961196899414
1761914428011583500,0.97958349609375,0.5270901322364807,0.36042556166648865,0.20983567833900452
1761914428021639700,0.9896396484375,0.5703669786453247,0.3899487257003784,0.18539132177829742
1761914428031695600,0.999695556640625,0.6257982850074768,0.38385969400405884,0.14720770716667175
1761914428041750800,1.009750732421875,0.6889865398406982,0.34031942486763,0.10455430299043655
1761914428051806700,1.019806640625,0.7822182178497314,0.26835575699806213,0.06623141467571259
1761914428061862700,1.029862548828125,0.8853292465209961,0.19543865323066711,0.038190849125385284
1761914428071917600,1.03991748046875,0.974087119102478,0.14075437188148499,0.022167138755321503
1761914428081973500,1.049973388671875,1.0408265590667725,0.11393691599369049,0.0007111905142664909
1761914428092029700,1.06002978515625,1.080214262008667,0.14074429869651794,-0.026257310062646866
1761914428102084600,1.070084716796875,1.0977483987808228,0.1879979968070984,-0.06475397944450378
1761914428112140500,1.080140625,1.10593843460083,0.23016862571239471,-0.11623527854681015
1761914428122196700,1.09019677734375,1.097777009010315,0.2453625202178955,-0.16596536338329315
1761914428132252700,1.100252685546875,1.0802422761917114,0.2340661883354187,-0.21209131181240082
1761914428142307600,1.1103076171875,1.043101191520691,0.21460196375846863,-0.24666792154312134
1761914428152363500,1.120363525390625,1.0007473230361938,0.19243620336055756,-0.26015254855155945
1761914428162419500,1.13041943359375,0.9461706280708313,0.16510795056819916,-0.25597864389419556
1761914428172474600,1.140474609375,0.8730348944664001,0.1333865076303482,-0.23580974340438843
1761914428182530600,1.150530517578125,0.7914162874221802,0.09644973278045654,-0.19893638789653778
1761914428192586800,1.160586669921875,0.7178781628608704,0.057232022285461426,-0.1797962486743927
1761914428202641700,1.1706416015625,0.6471373438835144,0.06945046782493591,-0.16890719532966614
1761914428212697600,1.180697509765625,0.5906296372413635,0.11397212743759155,-0.16912156343460083
1761914428222753500,1.19075341796875,0.5473068356513977,0.18646834790706635,-0.16513961553573608
1761914428232809500,1.2008095703125,0.5145992636680603,0.2595667839050293,-0.14687618613243103
1761914428242864600,1.21086474609375,0.4892052114009857,0.2969150245189667,-0.10139941424131393
1761914428252920600,1.220920654296875,0.4663957953453064,0.3038102090358734,-0.037212975323200226
1761914428262976800,1.230976806640625,0.4282115399837494,0.26344677805900574,0.04206755757331848
1761914428273031700,1.24103173828125,0.39538222551345825,0.17677634954452515,0.13014203310012817
1761914428283087600,1.251087646484375,0.3857559859752655,0.11782163381576538,0.19948680698871613
1761914428293143600,1.2611435546875,0.40090858936309814,0.11652173846960068,0.24166357517242432
1761914428303198500,1.271198486328125,0.42351391911506653,0.14080417156219482,0.27491044998168945
1761914428313254700,1.281254638671875,0.4509202539920807,0.17756298184394836,0.29022306203842163
1761914428323310600,1.291310546875,0.47567322850227356,0.25523093342781067,0.29005512595176697
1761914428333366500,1.301366455078125,0.493196576833725,0.3393532633781433,0.2792690694332123
1761914428343421700,1.311421630859375,0.4959758520126343,0.3665415346622467,0.27518486976623535
1761914428353477600,1.3214775390625,0.48420894145965576,0.3448721766471863,0.2616397738456726
1761914428363533600,1.331533447265625,0.47492220997810364,0.2978188693523407,0.2397778332233429
1761914428373588500,1.34158837890625,0.456021249294281,0.23291045427322388,0.19871829450130463
1761914428383644700,1.351644775390625,0.4323400557041168,0.12310375273227692,0.13976489007472992
1761914428393700600,1.36170068359375,0.41017112135887146,-0.01653297431766987,0.0601840540766716
1761914428403755800,1.371755859375,0.3981644809246063,-0.10688655823469162,-0.013460187241435051
1761914428413811700,1.381811767578125,0.40169557929039,-0.16334983706474304,-0.059028737246990204
1761914428423867600,1.39186767578125,0.406535267829895,-0.20248176157474518,-0.07379353046417236
1761914428433923800,1.401923828125,0.39403998851776123,-0.2418147772550583,-0.06717823445796967
1761914428443978500,1.411978515625,0.3479665517807007,-0.3237237334251404,-0.041574932634830475
1761914428454034700,1.42203466796875,0.2649401128292084,-0.44171828031539917,0.005786726251244545
1761914428464090600,1.432090576171875,0.1987513154745102,-0.5387029051780701,0.04253336787223816
1761914428474145500,1.4421455078125,0.14894939959049225,-0.5368083715438843,0.07190803438425064
1761914428484201700,1.45220166015625,0.12076414376497269,-0.5313389897346497,0.09593816846609116
1761914428494257700,1.462257568359375,0.0774448961019516,-0.5139232277870178,0.11151260137557983
1761914428504313600,1.472313720703125,0.024974515661597252,-0.4697652757167816,0.11863185465335846
1761914428514368500,1.482368408203125,-0.001598770497366786,-0.3774292469024658,0.1028241366147995
1761914428524424400,1.492424560546875,0.03503185510635376,-0.24915042519569397,0.06281189620494843
1761914428534480600,1.502480712890625,0.13497017323970795,-0.09636435657739639,0.007481792010366917
1761914428544535600,1.51253564453125,0.2679620385169983,0.03333255276083946,-0.05613727495074272
1761914428554591700,1.522591796875,0.4126175045967102,0.11364655941724777,-0.11615774035453796
1761914428564647700,1.532647705078125,0.5285025238990784,0.11428202688694,-0.15947774052619934
1761914428574702600,1.54270263671875,0.6049291491508484,0.04578446224331856,-0.18180248141288757
1761914428584758500,1.552758544921875,0.657169759273529,-0.03899356722831726,-0.17657819390296936
1761914428594814500,1.562814453125,0.6551335453987122,-0.15852290391921997,-0.13875305652618408
1761914428604870700,1.57287060546875,0.5793597102165222,-0.36673468351364136,-0.06282993406057358
1761914428614925600,1.582925537109375,0.41500166058540344,-0.6579625606536865,0.04232444241642952
1761914428624981800,1.592981689453125,0.17319892346858978,-0.966031551361084,0.15956509113311768
1761914428635037700,1.60303759765625,-0.08951979130506516,-1.2541569471359253,0.2706942856311798
1761914428645092600,1.613092529296875,-0.3227441608905792,-1.4704207181930542,0.3429029881954193
1761914428655148500,1.6231484375,-0.5117306113243103,-1.5637799501419067,0.3724118769168854
1761914428665204500,1.63320458984375,-0.6394577026367188,-1.5886632204055786,0.37149107456207275
1761914428675259600,1.643259765625,-0.7067248821258545,-1.5623775720596313,0.338785856962204
1761914428685315600,1.653315673828125,-0.7458704710006714,-1.466727375984192,0.29474809765815735
1761914428695371500,1.66337158203125,-0.7676628828048706,-1.3832910060882568,0.2587645351886749
1761914428705427700,1.673427734375,-0.7770423293113708,-1.3057029247283936,0.25192075967788696
1761914428715482600,1.683482666015625,-0.7828948497772217,-1.2289868593215942,0.2556118965148926
1761914428725538800,1.693538818359375,-0.7761591076850891,-1.1541725397109985,0.2637152671813965
1761914428735594500,1.703594482421875,-0.7567723989486694,-1.08369779586792,0.26256582140922546
1761914428745649700,1.713649658203125,-0.7255902290344238,-1.037931203842163,0.2551589012145996
1761914428755705600,1.72370556640625,-0.6723403334617615,-1.0104866027832031,0.24179941415786743
1761914428765761500,1.733761474609375,-0.5970858335494995,-0.9967919588088989,0.21585142612457275
1761914428775816700,1.743816650390625,-0.521944522857666,-0.9896664023399353,0.18187294900417328
1761914428785872600,1.75387255859375,-0.4446943700313568,-0.9976877570152283,0.14655247330665588
1761914428795928800,1.7639287109375,-0.37678563594818115,-0.9959748387336731,0.1229025274515152
1761914428805984500,1.773984619140625,-0.31084588170051575,-0.9925015568733215,0.10749778896570206
1761914428816039700,1.784039794921875,-0.26830053329467773,-0.9597923755645752,0.0959460586309433
1761914428826099200,1.79409912109375,-0.256240576505661,-0.8862236142158508,0.07446438074111938
1761914428836155100,1.804155029296875,-0.2640257775783539,-0.8068004250526428,0.04880215972661972
1761914428846210000,1.8142099609375,-0.2811671793460846,-0.7257868051528931,0.005458262749016285
1761914428856266000,1.824265869140625,-0.29089972376823425,-0.6365876793861389,-0.05772150307893753
1761914428866322000,1.834322021484375,-0.28643789887428284,-0.5421282649040222,-0.1406686007976532
1761914428876377000,1.844377197265625,-0.2702650725841522,-0.43450701236724854,-0.22341886162757874
1761914428886433000,1.85443310546875,-0.2405243217945099,-0.33250582218170166,-0.2990682125091553
1761914428896489200,1.8644892578125,-0.1954125016927719,-0.23943501710891724,-0.3638080656528473
1761914428906545200,1.874545166015625,-0.13726577162742615,-0.15313635766506195,-0.4142893850803375
1761914428916600300,1.884600341796875,-0.08071170002222061,-0.05117005109786987,-0.4574941098690033
1761914428926656000,1.894656005859375,-0.02559717185795307,0.06257786601781845,-0.5066810250282288
1761914428936712000,1.9047119140625,0.02224891260266304,0.17869248986244202,-0.5605136752128601
1761914428946767000,1.91476708984375,0.0616389624774456,0.2966902256011963,-0.6180047988891602
1761914428956823000,1.924822998046875,0.08570434898138046,0.3945094645023346,-0.6734377145767212
1761914428966879200,1.934879150390625,0.09196731448173523,0.4617833197116852,-0.7185768485069275
1761914428976934100,1.94493408203125,0.08515947312116623,0.5115626454353333,-0.7422728538513184
1761914428986990300,1.954990234375,0.07473160326480865,0.5461573600769043,-0.7582686543464661
1761914428997046300,1.96504638671875,0.08083397150039673,0.6056843400001526,-0.7725170850753784
1761914429007102000,1.97510205078125,0.11715658009052277,0.7030308246612549,-0.7996059060096741
1761914429017157000,1.9851572265625,0.18329086899757385,0.8164361715316772,-0.8283592462539673
1761914429027213000,1.995213134765625,0.26547038555145264,0.934284508228302,-0.8478646278381348
1761914429037269000,2.00526904296875,0.35142096877098083,1.0351096391677856,-0.8580195307731628
1761914429047324200,2.01532421875,0.41782426834106445,1.0901671648025513,-0.8388479948043823
1761914429057380000,2.025380126953125,0.47803622484207153,1.1072005033493042,-0.8027264475822449
1761914429067436300,2.035436279296875,0.517838180065155,1.0990372896194458,-0.7429268956184387
1761914429077492000,2.045491943359375,0.5568702220916748,1.0562613010406494,-0.6796112656593323
1761914429087547100,2.055547119140625,0.6004406213760376,0.9930475354194641,-0.6276780962944031
1761914429097603000,2.06560302734375,0.6555595397949219,0.9330289363861084,-0.5990081429481506
1761914429107659000,2.075658935546875,0.7249085307121277,0.8992556929588318,-0.6114168167114258
1761914429117714200,2.085714111328125,0.7933171391487122,0.9213104248046875,-0.6536361575126648
1761914429127770000,2.09577001953125,0.8599077463150024,0.9773030877113342,-0.7019801139831543
1761914429137826300,2.105826416015625,0.9191974401473999,1.0305343866348267,-0.7226928472518921
1761914429147881000,2.115880859375,0.9410772919654846,1.0277199745178223,-0.7158721685409546
1761914429157937200,2.125937255859375,0.9583801031112671,1.048003077507019,-0.6610568761825562
1761914429167993000,2.1359931640625,0.9632878303527832,0.9875519871711731,-0.539903461933136
1761914429178049000,2.146049072265625,0.9263737201690674,0.8434851169586182,-0.34322044253349304
1761914429188104200,2.156104248046875,0.8569449782371521,0.6372556090354919,-0.0867076963186264
1761914429198160100,2.16616015625,0.7601843476295471,0.37747645378112793,0.19289785623550415
1761914429208216000,2.176216064453125,0.6870056390762329,0.11427754908800125,0.44048818945884705
1761914429218271000,2.18627099609375,0.6540335416793823,-0.03761850669980049,0.6018094420433044
1761914429228327000,2.196326904296875,0.6725199818611145,-0.02073468081653118,0.6676714420318604
1761914429238383000,2.206383056640625,0.7420439720153809,0.07912107557058334,0.6629304885864258
1761914429248438000,2.21643798828125,0.8503350019454956,0.1718316674232483,0.6078439354896545
1761914429258494200,2.226494140625,0.955720841884613,0.291553795337677,0.5062409043312073
1761914429268550100,2.236550048828125,1.0467618703842163,0.42327186465263367,0.3646727502346039
1761914429278606000,2.246606201171875,1.100134015083313,0.5334457755088806,0.21558846533298492
1761914429288661000,2.256660888671875,1.115545392036438,0.5834972262382507,0.08151307702064514
1761914429298717000,2.266717041015625,1.113288402557373,0.5649272799491882,-0.023302558809518814
1761914429308773000,2.276773193359375,1.087109088897705,0.5035704970359802,-0.09818349033594131
1761914429318828000,2.286828125,1.0491383075714111,0.41700631380081177,-0.14657339453697205
1761914429328884200,2.29688427734375,1.0091379880905151,0.32188481092453003,-0.17232128977775574
1761914429338940200,2.306940185546875,0.9855016469955444,0.2165631800889969,-0.17269065976142883
1761914429348996000,2.31699609375,0.967370867729187,0.11561872065067291,-0.15343093872070312
1761914429359051300,2.32705126953125,0.9486595988273621,0.013765069656074047,-0.1082988828420639
1761914429369107000,2.33710693359375,0.9086534380912781,-0.07453366369009018,-0.03287354111671448
1761914429379163100,2.3471630859375,0.8355163931846619,-0.16596238315105438,0.07071810215711594
1761914429389218000,2.357218017578125,0.7308453321456909,-0.25415635108947754,0.1917543113231659
1761914429399274000,2.36727392578125,0.5996018052101135,-0.33486053347587585,0.3281611502170563
1761914429409330200,2.377330078125,0.45521843433380127,-0.384683758020401,0.45386090874671936
1761914429419385000,2.387385009765625,0.3061130940914154,-0.4018443524837494,0.560998797416687
1761914429429441300,2.397441162109375,0.14159135520458221,-0.3942229747772217,0.648779571056366
1761914429439497200,2.407497314453125,-0.022622358053922653,-0.3676081597805023,0.7323032021522522
1761914429449553000,2.417552978515625,-0.15245653688907623,-0.3240374028682709,0.8130958080291748
1761914429459608000,2.427608154296875,-0.2481846660375595,-0.26262012124061584,0.88556307554245
1761914429469664000,2.4376640625,-0.2853236198425293,-0.16404098272323608,0.9329096078872681
1761914429479720200,2.44772021484375,-0.2721766531467438,-0.05847673490643501,0.9595094919204712
1761914429489775000,2.457775146484375,-0.21991239488124847,0.06683731824159622,0.9679808020591736
1761914429499831300,2.467831298828125,-0.14789971709251404,0.20687618851661682,0.9523634910583496
1761914429509887200,2.47788720703125,-0.06800080090761185,0.3740934729576111,0.9236602783203125
1761914429519943000,2.48794287109375,0.002750595100224018,0.5425482392311096,0.890600860118866
1761914429529998000,2.497998046875,0.05734018608927727,0.6485976576805115,0.8781406283378601
1761914429540054000,2.508053955078125,0.10108447074890137,0.7125404477119446,0.8790327310562134
1761914429550110200,2.518110107421875,0.13537414371967316,0.7623983025550842,0.896114706993103
1761914429560165000,2.5281650390625,0.16726070642471313,0.8114407062530518,0.9180295467376709
1761914429570221300,2.53822119140625,0.2007783055305481,0.8532671928405762,0.9468429684638977
1761914429580277200,2.54827734375,0.233849436044693,0.8652061223983765,0.9827213287353516
1761914429590332000,2.558331787109375,0.27780359983444214,0.8499332070350647,1.0126705169677734
1761914429600388000,2.56838818359375,0.34736722707748413,0.8020919561386108,1.0341532230377197
1761914429610444000,2.578444091796875,0.4460192620754242,0.7755556106567383,1.014272689819336
1761914429620500000,2.5885,0.5818337798118591,0.7951871156692505,0.9516026973724365
1761914429630555100,2.59855517578125,0.7325407862663269,0.8267029523849487,0.8566502332687378
1761914429640611000,2.608611083984375,0.8520908951759338,0.8641936182975769,0.73917156457901
1761914429650667300,2.618667236328125,0.9401351809501648,0.9225926399230957,0.6115005016326904
1761914429660722000,2.628721923828125,1.0111708641052246,0.9878994822502136,0.47188422083854675
1761914429670778000,2.638778076171875,1.0683921575546265,1.0434590578079224,0.3299877345561981
1761914429680834000,2.648833984375,1.1155037879943848,1.0934932231903076,0.19828033447265625
1761914429690889200,2.65888916015625,1.1707428693771362,1.132734775543213,0.07906502485275269
1761914429700945200,2.668945068359375,1.220016360282898,1.1513854265213013,-0.01843889243900776
1761914429711001000,2.6790009765625,1.2546913623809814,1.1284066438674927,-0.08970314264297485
1761914429721057300,2.689057373046875,1.2697736024856567,1.0823938846588135,-0.1485595405101776
1761914429731112000,2.69911181640625,1.2738333940505981,1.0547564029693604,-0.20180128514766693
1761914429741168000,2.709168212890625,1.2767285108566284,1.0432379245758057,-0.2533920407295227
1761914429751224000,2.71922412109375,1.278820514678955,1.0229017734527588,-0.30600878596305847
1761914429761279200,2.729279296875,1.2737072706222534,0.9729238152503967,-0.339517742395401
1761914429771335200,2.739335205078125,1.2634509801864624,0.8912617564201355,-0.3715800344944
1761914429781391000,2.74939111328125,1.242880940437317,0.7920001745223999,-0.3938176929950714
1761914429791447000,2.759447021484375,1.2087812423706055,0.7093424797058105,-0.4048443138599396
1761914429801502200,2.769502197265625,1.1516830921173096,0.654154360294342,-0.4006381332874298
1761914429811558000,2.779557861328125,1.082189917564392,0.6203599572181702,-0.37251555919647217
1761914429821614000,2.789614013671875,1.0157642364501953,0.5915402770042419,-0.3358587622642517
1761914429831666000,2.799666015625,0.9626206159591675,0.5764957666397095,-0.29109856486320496
1761914429841722000,2.80972216796875,0.9370138049125671,0.5610177516937256,-0.24423067271709442
1761914429851778000,2.819778076171875,0.9384343028068542,0.5474111437797546,-0.20799511671066284
1761914429861834000,2.829833984375,0.9618770480155945,0.5417745113372803,-0.17163845896720886
1761914429871889200,2.83988916015625,0.9819862842559814,0.5264281034469604,-0.14112479984760284
1761914429881945000,2.849945068359375,0.9934389591217041,0.49144408106803894,-0.10591807961463928
1761914429892001000,2.8600009765625,0.9929927587509155,0.4220633804798126,-0.07390078157186508
1761914429902056000,2.870055908203125,0.9735101461410522,0.33461421728134155,-0.044495224952697754
1761914429912111900,2.88011181640625,0.9495512843132019,0.24438975751399994,-0.00950666330754757
1761914429922168000,2.89016796875,0.9082403182983398,0.17755213379859924,0.04506656527519226
1761914429932223000,2.900222900390625,0.8544470071792603,0.11186635494232178,0.12855029106140137
1761914429942279200,2.910279052734375,0.8019151091575623,0.04584392532706261,0.25612080097198486
1761914429952335000,2.920335205078125,0.7499226927757263,-0.038209423422813416,0.4006592035293579
1761914429962391000,2.93039111328125,0.7010188102722168,-0.12966184318065643,0.5294800400733948
1761914429972446000,2.940446044921875,0.6728480458259583,-0.17091989517211914,0.6161954998970032
1761914429982502000,2.950501953125,0.6678812503814697,-0.1579234004020691,0.6458607316017151
1761914429992558000,2.96055810546875,0.6794286966323853,-0.09724461287260056,0.6336064338684082
1761914430002613000,2.970613037109375,0.7058922648429871,-0.007875317707657814,0.6162780523300171
1761914430012669200,2.980669189453125,0.7389887571334839,0.08503150939941406,0.6099183559417725
1761914430022725000,2.99072509765625,0.7801159024238586,0.18397699296474457,0.6325445771217346
1761914430032780000,3.000780029296875,0.8365533351898193,0.28787702322006226,0.6621447801589966
1761914430042836000,3.0108359375,0.9001821279525757,0.3927783966064453,0.6841714978218079
1761914430052892000,3.020891845703125,0.9704416394233704,0.4933317005634308,0.7013882994651794
1761914430062948000,3.030947998046875,1.034425973892212,0.574414849281311,0.7093296051025391
1761914430073003000,3.0410029296875,1.1012834310531616,0.6358231902122498,0.709958553314209
1761914430083059200,3.05105908203125,1.1550679206848145,0.6749320030212402,0.7107913494110107
1761914430093115100,3.061115234375,1.1973280906677246,0.682542085647583,0.7018167972564697
1761914430103169800,3.071169677734375,1.2126902341842651,0.6375131011009216,0.692970335483551
1761914430113226000,3.08122607421875,1.1957277059555054,0.5560586452484131,0.681996762752533
1761914430123282000,3.091281982421875,1.1228770017623901,0.4461689293384552,0.6633210778236389
1761914430133337900,3.101337890625,0.9961119890213013,0.293208509683609,0.6406645774841309
1761914430143393000,3.11139306640625,0.836601972579956,0.14324751496315002,0.6125612854957581
1761914430153449000,3.121448974609375,0.6791921257972717,0.03824237734079361,0.5784197449684143
1761914430163505200,3.131505126953125,0.561423659324646,0.009181434288620949,0.5417882204055786
1761914430173560000,3.14156005859375,0.4957377314567566,0.04198269918560982,0.5212404727935791
1761914430183616000,3.151615966796875,0.46992823481559753,0.10674651712179184,0.520584762096405
1761914430193672000,3.161671875,0.45898622274398804,0.18078629672527313,0.5490735173225403
1761914430203728000,3.171727783203125,0.446326345205307,0.22655591368675232,0.601916491985321
1761914430213783000,3.181782958984375,0.42627835273742676,0.2430076003074646,0.654885470867157
1761914430223839000,3.1918388671875,0.3898915648460388,0.24641430377960205,0.6937236785888672
1761914430233895200,3.201895263671875,0.3438815772533417,0.2491791993379593,0.7026746869087219
1761914430243950000,3.2119501953125,0.2884548008441925,0.267642080783844,0.6757581233978271
1761914430254006300,3.22200634765625,0.23047858476638794,0.3183337152004242,0.6125223636627197
1761914430264062000,3.23206201171875,0.18088680505752563,0.429971843957901,0.5265006422996521
1761914430274117000,3.2421171875,0.1484159380197525,0.5949920415878296,0.4414516091346741
1761914430284173000,3.252173095703125,0.15419046580791473,0.8074864149093628,0.3566339313983917
1761914430294229000,3.26222900390625,0.20319072902202606,1.0174150466918945,0.2869436740875244
1761914430304285000,3.272284912109375,0.2718305289745331,1.175301194190979,0.2371678650379181
1761914430314340000,3.282340087890625,0.3465779423713684,1.2655969858169556,0.21236196160316467
1761914430324396000,3.29239599609375,0.4157141447067261,1.296496868133545,0.20743083953857422
1761914430334452000,3.302451904296875,0.4792320132255554,1.2864794731140137,0.2246028631925583
1761914430344507000,3.3125068359375,0.5046688914299011,1.2546472549438477,0.2600897550582886
1761914430354563000,3.32256298828125,0.5073421001434326,1.2333048582077026,0.3001932203769684
1761914430364619000,3.332618896484375,0.4875239431858063,1.2055786848068237,0.32928958535194397
1761914430374675000,3.342675048828125,0.4572635591030121,1.1732168197631836,0.34020984172821045
1761914430384730000,3.352730224609375,0.4270710349082947,1.127004861831665,0.3163710832595825
1761914430394786000,3.3627861328125,0.4053700864315033,1.0902312994003296,0.25613346695899963
1761914430404842200,3.37284228515625,0.38608720898628235,1.059367060661316,0.175996795296669
1761914430414897000,3.38289697265625,0.3755597472190857,1.0430831909179688,0.08912050724029541
1761914430424953000,3.392953125,0.3730712831020355,1.0274500846862793,0.009005436673760414
1761914430435009000,3.403009033203125,0.39452701807022095,0.9946539402008057,-0.06796485185623169
1761914430445065000,3.41306494140625,0.436895489692688,0.930608868598938,-0.1447131633758545
1761914430455120100,3.4231201171875,0.4903525412082672,0.8393470048904419,-0.2337764948606491
1761914430465176000,3.433176025390625,0.5424037575721741,0.7379303574562073,-0.3346959054470062
1761914430475232000,3.44323193359375,0.5826550722122192,0.6440560221672058,-0.44933825731277466
1761914430485287000,3.453286865234375,0.6061263084411621,0.5896124839782715,-0.557788074016571
1761914430495342800,3.4633427734375,0.6255441308021545,0.5785118341445923,-0.6520295143127441
1761914430505399000,3.47339892578125,0.642469048500061,0.603630006313324,-0.7270630598068237
1761914430515454000,3.483453857421875,0.6617990732192993,0.6274921894073486,-0.7616710662841797
1761914430525510100,3.49351025390625,0.6911495327949524,0.6587638258934021,-0.7674261927604675
1761914430535566000,3.503566162109375,0.7337824702262878,0.6923738718032837,-0.7470566034317017
1761914430545622000,3.5136220703125,0.7867317199707031,0.7295886278152466,-0.7175788879394531
1761914430555677000,3.523677001953125,0.8410355448722839,0.7861130237579346,-0.6757323741912842
1761914430565732900,3.53373291015625,0.8921701312065125,0.8287608623504639,-0.622008204460144
1761914430575789000,3.5437890625,0.940923273563385,0.8764338493347168,-0.5538448691368103
1761914430585844000,3.553843994140625,0.9708598256111145,0.9110459089279175,-0.4759737551212311
1761914430595900200,3.563900146484375,0.9880470633506775,0.9486345052719116,-0.4033309817314148
1761914430605956000,3.5739560546875,0.9903959631919861,0.9590053558349609,-0.3478943407535553
1761914430616012000,3.584011962890625,0.9839223623275757,0.9509128928184509,-0.3081139028072357
1761914430626067000,3.59406689453125,0.9763177633285522,0.9212501049041748,-0.285380095243454
1761914430636123000,3.604122802734375,0.977959156036377,0.8771834373474121,-0.2790931165218353
1761914430646179000,3.614178955078125,0.9893162250518799,0.8431708812713623,-0.2889646589756012
1761914430656234000,3.62423388671875,1.0056986808776855,0.8324024677276611,-0.29714658856391907
1761914430666290000,3.6342900390625,1.0291252136230469,0.822686493396759,-0.2978411316871643
1761914430676346000,3.64434619140625,1.0474910736083984,0.8178097009658813,-0.28256499767303467
1761914430686402000,3.654402099609375,1.0564571619033813,0.7981944680213928,-0.24875350296497345
1761914430696457200,3.664457275390625,1.0591782331466675,0.7626199722290039,-0.20309436321258545
1761914430706513000,3.674512939453125,1.0528918504714966,0.7335246801376343,-0.1549856811761856
1761914430716568800,3.68456884765625,1.0335688591003418,0.7131359577178955,-0.10296402126550674
1761914430726624000,3.6946240234375,1.000465750694275,0.6963111758232117,-0.05329021438956261
1761914430736680000,3.704679931640625,0.9644626379013062,0.7081633806228638,-0.022363776341080666
1761914430746736000,3.714736083984375,0.9409043192863464,0.7245511412620544,-0.0024209609255194664
1761914430756792000,3.7247919921875,0.9296319484710693,0.7256552577018738,0.004218044690787792
1761914430766847200,3.73484716796875,0.938255786895752,0.719725489616394,0.002437721937894821
1761914430776903000,3.74490283203125,0.9565670490264893,0.712254524230957,-0.009741539135575294
1761914430786958800,3.754958740234375,0.9633623957633972,0.7018833756446838,-0.02018565684556961
1761914430797014000,3.765013916015625,0.9594303965568542,0.6984644532203674,-0.020667504519224167
1761914430807070000,3.775070068359375,0.9426282048225403,0.6905130743980408,-0.012904922477900982
1761914430817126100,3.785126220703125,0.9137422442436218,0.6703848242759705,0.010511779226362705
1761914430827185000,3.795184814453125,0.8811981678009033,0.645247757434845,0.03932931274175644
1761914430837240000,3.805239990234375,0.8474769592285156,0.6139582395553589,0.07587222009897232
1761914430847296000,3.8152958984375,0.8250395655632019,0.5808402299880981,0.11419510841369629
1761914430857352000,3.82535205078125,0.8107251524925232,0.5599720478057861,0.16976962983608246
1761914430867406800,3.83540673828125,0.8153833150863647,0.572612464427948,0.22100645303726196
1761914430877462800,3.845462890625,0.8471762537956238,0.5861578583717346,0.2641586661338806
1761914430887519000,3.85551904296875,0.8767021894454956,0.5407083034515381,0.3105999231338501
1761914430897575000,3.865574951171875,0.9049671292304993,0.4757528305053711,0.3429136574268341
1761914430907630000,3.875630126953125,0.9422918558120728,0.43648770451545715,0.341729074716568
1761914430917686000,3.88568603515625,0.9748215675354004,0.39478549361228943,0.3121095895767212
1761914430927742000,3.895741943359375,0.9713991284370422,0.3327266573905945,0.27628767490386963
1761914430937796900,3.905796875,0.9369418025016785,0.2570505440235138,0.2525685131549835
1761914430947852800,3.915852783203125,0.8884299397468567,0.17234869301319122,0.2196931093931198
1761914430957909000,3.925908935546875,0.8515241742134094,0.12050631642341614,0.16436173021793365
1761914430967965000,3.93596484375,0.8296763896942139,0.10684749484062195,0.08368313312530518
1761914430978019800,3.946019775390625,0.8221685290336609,0.11856160312891006,-0.02453809604048729
1761914430988076000,3.956075927734375,0.8472667336463928,0.15891008079051971,-0.15708895027637482
1761914430998132000,3.966132080078125,0.9139217734336853,0.2219710350036621,-0.31100985407829285
1761914431008187000,3.976186767578125,1.0024702548980713,0.3109475076198578,-0.47757619619369507
1761914431018242800,3.986242919921875,1.0707945823669434,0.4001673758029938,-0.6156201362609863
1761914431028298800,3.996298828125,1.0982134342193604,0.4628871977329254,-0.6936421990394592
1761914431038355000,4.00635498046875,1.0864769220352173,0.4741668105125427,-0.6965088248252869
1761914431048409000,4.0164091796875,1.0377610921859741,0.42761608958244324,-0.6109097599983215
1761914431058465000,4.026465087890625,0.9531134366989136,0.3134688138961792,-0.44996577501296997
1761914431068521000,4.03652099609375,0.8515074849128723,0.1574285924434662,-0.22466662526130676
1761914431078575900,4.046575927734375,0.7431328892707825,-0.04690321907401085,0.02196260541677475
1761914431088631800,4.0566318359375,0.6489227414131165,-0.22214321792125702,0.24634698033332825
1761914431098688000,4.06668798828125,0.5792111754417419,-0.30034536123275757,0.39241132140159607
1761914431108744000,4.076743896484375,0.5364122986793518,-0.25935932993888855,0.4405450224876404
1761914431118798800,4.086798828125,0.5011032819747925,-0.13607366383075714,0.42797231674194336
1761914431128855000,4.09685498046875,0.4717179536819458,0.029606111347675323,0.3791898787021637
1761914431138911000,4.106910888671875,0.4579450786113739,0.21107637882232666,0.31539514660835266
1761914431148966000,4.1169658203125,0.4622253179550171,0.37200987339019775,0.24987313151359558
1761914431159021800,4.127021728515625,0.4756348431110382,0.4631187319755554,0.21419112384319305
1761914431169077800,4.137077880859375,0.5055109858512878,0.4842679500579834,0.18762822449207306
1761914431179134000,4.147134033203125,0.5330154895782471,0.4581727385520935,0.1656341552734375
1761914431189188900,4.15718896484375,0.5681319236755371,0.40783658623695374,0.12942396104335785
1761914431199245000,4.1672451171875,0.6085953712463379,0.32575127482414246,0.08674567937850952
1761914431209301000,4.177301025390625,0.6358709335327148,0.21018393337726593,0.047249935567379
1761914431219356000,4.18735595703125,0.629575252532959,0.1231909915804863,-0.001265774480998516
1761914431229411800,4.197411865234375,0.6003081798553467,0.12045379728078842,-0.06566819548606873
1761914431239467800,4.2074677734375,0.5746307373046875,0.17246341705322266,-0.12981969118118286
1761914431249524000,4.21752392578125,0.5504314303398132,0.22174254059791565,-0.17197248339653015
1761914431259579000,4.227578857421875,0.5260618329048157,0.24570733308792114,-0.18125617504119873
1761914431269635000,4.237635009765625,0.5010385513305664,0.23249885439872742,-0.15957137942314148
1761914431279691000,4.24769091796875,0.47927117347717285,0.17153827846050262,-0.10617488622665405
1761914431289746000,4.257745849609375,0.48190557956695557,0.08632031828165054,-0.04700664058327675
1761914431299801900,4.2678017578125,0.5039379000663757,0.029101012274622917,0.009232976473867893
1761914431309857800,4.27785791015625,0.5506761074066162,0.02665143646299839,0.048682644963264465
1761914431319914000,4.2879140625,0.6052436232566833,0.08580588549375534,0.0886189416050911
1761914431329969000,4.297968994140625,0.6640483140945435,0.18563181161880493,0.1416912078857422
1761914431340024800,4.30802490234375,0.7202334403991699,0.3039432466030121,0.21255242824554443
1761914431350081000,4.3180810546875,0.782398521900177,0.42544516921043396,0.28988954424858093
1761914431360135700,4.3281357421875,0.8513627648353577,0.537108302116394,0.35386934876441956
1761914431370192000,4.33819189453125,0.9078201651573181,0.6184231638908386,0.392762154340744
1761914431380247800,4.348247802734375,0.9346746802330017,0.6416028141975403,0.4031923711299896
1761914431390303700,4.3583037109375,0.9359588623046875,0.6173180341720581,0.3857622444629669
1761914431400359000,4.36835888671875,0.9217959642410278,0.5534060597419739,0.3431550860404968
1761914431410414800,4.378414794921875,0.8896660208702087,0.4948059022426605,0.2791215181350708
1761914431420471000,4.388470947265625,0.8461564183235168,0.4439221918582916,0.1987304985523224
1761914431430526000,4.39852587890625,0.8065304160118103,0.4083077311515808,0.11814484000205994
1761914431440582000,4.408581787109375,0.7733467221260071,0.3666284382343292,0.0399533249437809
1761914431450637800,4.418637939453125,0.7590364813804626,0.3179173469543457,-0.042082689702510834
1761914431460693800,4.42869384765625,0.7680911421775818,0.24962861835956573,-0.11385484039783478
1761914431470749000,4.4387490234375,0.7823553085327148,0.1769607961177826,-0.17320924997329712
1761914431480804900,4.448804931640625,0.7784538269042969,0.11795946210622787,-0.21157696843147278
1761914431490861000,4.458861083984375,0.7466511726379395,0.07854920625686646,-0.21807800233364105
1761914431500916000,4.468916015625,0.6912537813186646,0.033506639301776886,-0.19111400842666626
1761914431510972000,4.478971923828125,0.6098827719688416,0.0011079554678872228,-0.14585226774215698
1761914431521027800,4.48902783203125,0.5304010510444641,-0.0182678010314703,-0.09051128476858139
1761914431531083800,4.499083740234375,0.46501222252845764,-0.029213659465312958,-0.027162941172719002
1761914431541139000,4.509138916015625,0.4224960505962372,-0.033464137464761734,0.030043669044971466
1761914431551195000,4.51919482421875,0.3961688280105591,-0.019084131345152855,0.08870245516300201
1761914431561250800,4.529250732421875,0.3832609951496124,0.01002029050141573,0.1464100480079651
1761914431571307000,4.53930712890625,0.3765042722225189,0.06651312857866287,0.20077049732208252
1761914431581362000,4.54936181640625,0.3816030025482178,0.1398848444223404,0.2373766154050827
1761914431591417900,4.55941796875,0.38456764817237854,0.21478518843650818,0.2583543360233307
1761914431601475800,4.569475830078125,0.3833061158657074,0.2662734091281891,0.2726275324821472
1761914431611531000,4.579531005859375,0.3736705183982849,0.27497661113739014,0.30111163854599
1761914431621586700,4.589586669921875,0.35754019021987915,0.2366446852684021,0.33998942375183105
1761914431631643000,4.599642822265625,0.3251556158065796,0.1521415114402771,0.39739012718200684
1761914431641697800,4.60969775390625,0.2629214823246002,-0.016165796667337418,0.47183725237846375
1761914431651754000,4.61975390625,0.1758696734905243,-0.2255730777978897,0.5451756119728088
1761914431661810000,4.629809814453125,0.11002282053232193,-0.33853647112846375,0.5681323409080505
1761914431671865900,4.639865966796875,0.08621762692928314,-0.3297637403011322,0.5421846508979797
1761914431681921000,4.649921142578125,0.07857343554496765,-0.31199657917022705,0.4984811842441559
1761914431691977000,4.65997705078125,0.08165071904659271,-0.3291364312171936,0.4586024582386017
1761914431702033000,4.670032958984375,0.10151799768209457,-0.33872362971305847,0.4235764741897583
1761914431712088800,4.6800888671875,0.13841210305690765,-0.3094877004623413,0.38026416301727295
1761914431722144000,4.69014404296875,0.21163411438465118,-0.2455124706029892,0.3188585638999939
1761914431732200000,4.700199951171875,0.3145067095756531,-0.12036173790693283,0.23306217789649963
1761914431742255900,4.710255859375,0.4573320150375366,0.05511525645852089,0.1363043189048767
1761914431752311000,4.72031103515625,0.5902061462402344,0.21906369924545288,0.05540919676423073
1761914431762367000,4.730366943359375,0.6878400444984436,0.32310009002685547,0.019216956570744514
1761914431772423000,4.7404228515625,0.7580782771110535,0.3709067404270172,0.04416518285870552
1761914431782478800,4.750478759765625,0.7863852977752686,0.3678988516330719,0.10563815385103226
1761914431792533800,4.76053369140625,0.7592654824256897,0.31152746081352234,0.20007064938545227
1761914431802590000,4.77058984375,0.6797565221786499,0.2106250822544098,0.3091338872909546
1761914431812646000,4.78064599609375,0.5646549463272095,0.08646264672279358,0.40462711453437805
1761914431822701000,4.790701171875,0.43398430943489075,-0.022934487089514732,0.4697847366333008
1761914431832753400,4.80075341796875,0.3129742443561554,-0.09920582175254822,0.4929656982421875
1761914431842809300,4.810809326171875,0.2303173840045929,-0.1664903610944748,0.48029857873916626
1761914431852865500,4.820865478515625,0.18602235615253448,-0.20913636684417725,0.44517600536346436
1761914431862920400,4.83092041015625,0.17114678025245667,-0.2114497274160385,0.39406847953796387
1761914431872976400,4.840976318359375,0.1884317696094513,-0.19802020490169525,0.32846924662590027
1761914431883032300,4.8510322265625,0.22167891263961792,-0.16906379163265228,0.25904086232185364
1761914431893087500,4.86108740234375,0.25155213475227356,-0.08792020380496979,0.17430149018764496
1761914431903143400,4.871143310546875,0.2739676237106323,0.025487355887889862,0.08812551200389862
1761914431913199400,4.881199462890625,0.29872941970825195,0.15120667219161987,-0.010548603720963001
1761914431923255600,4.891255615234375,0.3321840465068817,0.2738252580165863,-0.117878258228302
1761914431933310500,4.901310546875,0.376997709274292,0.3623513877391815,-0.23286660015583038
1761914431943366400,4.911366455078125,0.4187384843826294,0.4072754681110382,-0.35487228631973267
1761914431953422300,4.92142236328125,0.4421897232532501,0.39202725887298584,-0.4628661274909973
1761914431963478300,4.931478271484375,0.4478571116924286,0.3230450451374054,-0.5408060550689697
1761914431973533400,4.941533447265625,0.42250221967697144,0.20602308213710785,-0.5932245254516602
1761914431983589400,4.95158935546875,0.36140015721321106,0.08728227019309998,-0.6181584000587463
1761914431993645300,4.961645263671875,0.2715813219547272,-0.03647935390472412,-0.6141743063926697
1761914432003700500,4.971700439453125,0.17285388708114624,-0.16735289990901947,-0.5860018730163574
1761914432013756400,4.98175634765625,0.06690321117639542,-0.2871626615524292,-0.5424200296401978
1761914432023812400,4.991812255859375,-0.017054356634616852,-0.37323012948036194,-0.48829910159111023
1761914432033868300,5.001868408203125,-0.08234547078609467,-0.41718775033950806,-0.4356191158294678
1761914432043923500,5.01192333984375,-0.1237483099102974,-0.38980627059936523,-0.38234975934028625
1761914432053979400,5.0219794921875,-0.15401406586170197,-0.30411773920059204,-0.3287866711616516
1761914432064035300,5.032035400390625,-0.16137000918388367,-0.1949664205312729,-0.2650974690914154
1761914432074090500,5.042090576171875,-0.14690318703651428,-0.06718342006206512,-0.21872545778751373
1761914432084146400,5.052146484375,-0.10999079048633575,0.060447726398706436,-0.18230067193508148
1761914432094202600,5.06220263671875,-0.051321081817150116,0.18786586821079254,-0.17132844030857086
1761914432104258300,5.07225830078125,0.027983035892248154,0.2997879683971405,-0.1726236790418625
1761914432114313500,5.0823134765625,0.11759787052869797,0.39013731479644775,-0.17905788123607635
1761914432124369400,5.092369384765625,0.2019709199666977,0.469145268201828,-0.18786048889160156
1761914432134425300,5.10242529296875,0.2836519181728363,0.5469798445701599,-0.19171515107154846
1761914432144480500,5.11248046875,0.3608569800853729,0.6141479015350342,-0.18998940289020538
1761914432154536400,5.122536376953125,0.4410777986049652,0.6584240198135376,-0.18502873182296753
1761914432164592400,5.13259228515625,0.5177429914474487,0.6981884837150574,-0.17971566319465637
1761914432174648600,5.142648681640625,0.5830037593841553,0.7238879799842834,-0.1666262447834015
1761914432184703200,5.152703125,0.6345828771591187,0.7198392748832703,-0.1577175408601761
1761914432194759400,5.162759521484375,0.6800107955932617,0.6936545372009277,-0.15504293143749237
1761914432204815400,5.1728154296875,0.7206611037254333,0.6864874958992004,-0.1719772070646286
1761914432214871300,5.182871337890625,0.7542265057563782,0.7039591670036316,-0.20914988219738007
1761914432224926500,5.192926513671875,0.7906978726387024,0.707094132900238,-0.2487926185131073
1761914432234982400,5.202982421875,0.8051300644874573,0.6519834399223328,-0.2597656548023224
1761914432245038600,5.21303857421875,0.8107007145881653,0.5248346328735352,-0.23493161797523499
1761914432255093200,5.22309326171875,0.8196662664413452,0.3578391969203949,-0.1898070126771927
1761914432265149400,5.2331494140625,0.8414434790611267,0.24775320291519165,-0.15322889387607574
1761914432275205400,5.243205322265625,0.8813698887825012,0.19760480523109436,-0.14993830025196075
1761914432285261300,5.25326123046875,0.9234832525253296,0.19602365791797638,-0.1593860238790512
1761914432295316500,5.26331640625,0.9495430588722229,0.20143094658851624,-0.1677534133195877
1761914432305372400,5.273372314453125,0.945431649684906,0.2435116320848465,-0.16296681761741638
1761914432315428600,5.2834287109375,0.9353060722351074,0.33910393714904785,-0.15531475841999054
1761914432325483300,5.293483154296875,0.9367263317108154,0.46045824885368347,-0.153926283121109
1761914432335539500,5.30353955078125,0.9466918706893921,0.573805570602417,-0.16892734169960022
1761914432345595400,5.313595458984375,0.9473450779914856,0.6660276055335999,-0.20471011102199554
1761914432355651300,5.3236513671875,0.9389452338218689,0.702694833278656,-0.25095295906066895
1761914432365706500,5.33370654296875,0.9277523159980774,0.6861562132835388,-0.29283422231674194
1761914432375762400,5.343762451171875,0.9180847406387329,0.6312921643257141,-0.335862398147583
1761914432385818400,5.353818359375,0.904588520526886,0.5731765031814575,-0.3819928467273712
1761914432395873300,5.363873291015625,0.8807654976844788,0.5395373106002808,-0.4282330572605133
1761914432405929200,5.37392919921875,0.8447772264480591,0.5313194394111633,-0.46950992941856384
1761914432415985400,5.3839853515625,0.8155969977378845,0.5410892367362976,-0.49823132157325745
1761914432426041300,5.394041259765625,0.8006615042686462,0.5620802044868469,-0.500885009765625
1761914432436096500,5.404096435546875,0.7917755842208862,0.5913283824920654,-0.4683641195297241
1761914432446152400,5.41415234375,0.7892966270446777,0.6065630912780762,-0.39086639881134033
1761914432456208400,5.42420849609375,0.7881024479866028,0.5970737338066101,-0.26804807782173157
1761914432466264600,5.4342646484375,0.7837969660758972,0.571857213973999,-0.09917892515659332
1761914432476319200,5.4443193359375,0.756547212600708,0.4830663204193115,0.10483118891716003
1761914432486375400,5.45437548828125,0.7025711536407471,0.31909796595573425,0.31217944622039795
1761914432496431400,5.464431396484375,0.6225583553314209,0.16574543714523315,0.4655444920063019
1761914432506486500,5.474486572265625,0.5566090941429138,0.10533271729946136,0.5181547403335571
1761914432516542500,5.48454248046875,0.5260855555534363,0.16445621848106384,0.4670521318912506
1761914432526598400,5.494598388671875,0.5359683632850647,0.3172111213207245,0.32885387539863586
1761914432536654600,5.504654541015625,0.5811417102813721,0.526116669178009,0.14800338447093964
1761914432546709200,5.514709228515625,0.6502469182014465,0.7215141654014587,-0.029281195253133774
1761914432556765400,5.524765380859375,0.7284612655639648,0.8409193754196167,-0.15386787056922913
1761914432566821400,5.5348212890625,0.7953670620918274,0.8710399866104126,-0.2031024694442749
1761914432576876300,5.544876220703125,0.8409105539321899,0.8331277370452881,-0.18965882062911987
1761914432586932500,5.554932373046875,0.8485391736030579,0.7434481382369995,-0.137335866689682
1761914432596988400,5.564988525390625,0.8122565150260925,0.5931510329246521,-0.058556899428367615
1761914432607044400,5.57504443359375,0.7430261373519897,0.4153919816017151,0.015769019722938538
1761914432617099500,5.585099609375,0.670079231262207,0.26148471236228943,0.06458822637796402
1761914432627155200,5.5951552734375,0.6035683155059814,0.18879938125610352,0.0639006644487381
1761914432637211400,5.60521142578125,0.563407301902771,0.16777239739894867,0.03194539621472359
1761914432647267300,5.615267333984375,0.5482849478721619,0.15440572798252106,-0.015505451709032059
1761914432657322500,5.625322509765625,0.5442774295806885,0.13561473786830902,-0.05292366445064545
1761914432667378400,5.63537841796875,0.54216068983078,0.11930092424154282,-0.06357002258300781
1761914432677434400,5.645434326171875,0.5436632037162781,0.11543188244104385,-0.037525638937950134
1761914432687489500,5.655489501953125,0.5443434715270996,0.14086376130580902,0.011733961291611195
1761914432697545200,5.665545166015625,0.5517081618309021,0.1909881830215454,0.06348343938589096
1761914432707601400,5.675601318359375,0.5708432197570801,0.24421708285808563,0.10314566642045975
1761914432717657300,5.6856572265625,0.6124843955039978,0.26129060983657837,0.11295115947723389
1761914432727712500,5.69571240234375,0.6674220561981201,0.28341543674468994,0.08316430449485779
1761914432737768400,5.7057685546875,0.7275879383087158,0.3267306685447693,0.038094036281108856
1761914432747824400,5.715824462890625,0.785548746585846,0.353472501039505,-0.012961842119693756
1761914432757879600,5.725879638671875,0.8450035452842712,0.3872072994709015,-0.052858125418424606
1761914432767935500,5.735935546875,0.8889161348342896,0.39891085028648376,-0.06908941268920898
1761914432777991200,5.7459912109375,0.9097138047218323,0.3903146982192993,-0.06220833212137222
1761914432788047400,5.75604736328125,0.9124780893325806,0.3605804443359375,-0.03495759516954422
1761914432798102300,5.766102294921875,0.8964157700538635,0.3434329032897949,0.007552845403552055
1761914432808158500,5.776158447265625,0.8669919371604919,0.3338886499404907,0.056864745914936066
1761914432818214400,5.78621435546875,0.816997766494751,0.3452851176261902,0.10641206055879593
1761914432828275700,5.796275634765625,0.7508202195167542,0.33825257420539856,0.16526010632514954
1761914432838330600,5.80633056640625,0.6720582842826843,0.30337023735046387,0.21770787239074707
1761914432848386800,5.81638671875,0.5873030424118042,0.23542149364948273,0.24794921278953552
1761914432858442500,5.8264423828125,0.5246313810348511,0.1752457618713379,0.24024680256843567
1761914432868497700,5.83649755859375,0.48283493518829346,0.16476750373840332,0.19768185913562775
1761914432878553600,5.8465537109375,0.4597722291946411,0.19142095744609833,0.13726592063903809
1761914432888609500,5.856609619140625,0.44248244166374207,0.22801737487316132,0.08810415863990784
1761914432898665700,5.866665771484375,0.42349037528038025,0.26793786883354187,0.07928163558244705
1761914432908720600,5.876720703125,0.4018864333629608,0.28884977102279663,0.10568191111087799
1761914432918776800,5.88677685546875,0.36978521943092346,0.29388394951820374,0.16261336207389832
1761914432928832800,5.896832763671875,0.3203622102737427,0.2783130407333374,0.2423105090856552
1761914432938887700,5.9068876953125,0.2617601454257965,0.24370445311069489,0.33282870054244995
1761914432948943600,5.916943603515625,0.21022330224514008,0.21938911080360413,0.3980049788951874
1761914432958999600,5.92699951171875,0.14729999005794525,0.21679465472698212,0.4443293511867523
1761914432969055700,5.9370556640625,0.08366359025239944,0.18773651123046875,0.48364734649658203
1761914432979110700,5.947110595703125,0.004853731486946344,0.1377820074558258,0.5160607099533081
1761914432989166800,5.957166748046875,-0.07261838018894196,0.13379234075546265,0.5197802186012268
1761914432999222800,5.967222900390625,-0.12288501858711243,0.2063208669424057,0.495587557554245
1761914433009277700,5.977277587890625,-0.1484849900007248,0.2959849536418915,0.464894562959671
1761914433019333600,5.987333740234375,-0.16947123408317566,0.35790371894836426,0.4338724613189697
1761914433029389600,5.9973896484375,-0.18145142495632172,0.3880951702594757,0.4115222692489624
1761914433039445800,6.00744580078125,-0.17436981201171875,0.4007137715816498,0.37625643610954285
1761914433049500700,6.017500732421875,-0.1337348222732544,0.4045543372631073,0.32771557569503784
1761914433059556600,6.027556640625,-0.052454885095357895,0.38643285632133484,0.25799986720085144
1761914433069612800,6.03761279296875,0.0621364489197731,0.3641684651374817,0.17249128222465515
1761914433079668700,6.047668701171875,0.19061852991580963,0.3539121150970459,0.08052700012922287
1761914433089723600,6.0577236328125,0.30046015977859497,0.34813496470451355,0.01622168906033039
1761914433099779600,6.067779541015625,0.3739740550518036,0.32373908162117004,0.013059716671705246
1761914433109835500,6.07783544921875,0.4029494822025299,0.26472049951553345,0.09235202521085739
1761914433119890700,6.087890625,0.3940340280532837,0.17297674715518951,0.22634205222129822
1761914433129946600,6.097946533203125,0.37318676710128784,0.07323841005563736,0.390447735786438
1761914433140002800,6.1080029296875,0.34413275122642517,-0.018366875126957893,0.560565173625946
1761914433150058800,6.118058837890625,0.3228599727153778,-0.1176588237285614,0.7097843289375305
1761914433160113700,6.12811376953125,0.31273171305656433,-0.23262988030910492,0.8311232924461365
1761914433170169600,6.138169677734375,0.3256491720676422,-0.3324374556541443,0.9168317317962646
1761914433180225500,6.1482255859375,0.37726178765296936,-0.37264561653137207,0.9547298550605774
1761914433190280700,6.15828076171875,0.45746880769729614,-0.31222912669181824,0.92722088098526
1761914433200336600,6.168336669921875,0.5411709547042847,-0.15162880718708038,0.8385701179504395
1761914433210392800,6.178392822265625,0.604278564453125,0.03470870107412338,0.7166651487350464
1761914433220448800,6.18844873046875,0.632373571395874,0.19648827612400055,0.6004964709281921
1761914433230503700,6.198503662109375,0.6246782541275024,0.3245398998260498,0.5060089826583862
1761914433240559600,6.2085595703125,0.5960208177566528,0.3985765874385834,0.4326183795928955
1761914433250615600,6.218615478515625,0.5516186356544495,0.46864086389541626,0.3746422827243805
1761914433260670700,6.228670654296875,0.500914990901947,0.5282943248748779,0.3180423974990845
1761914433270726700,6.2387265625,0.4560554325580597,0.5633360147476196,0.26667365431785583
1761914433280782600,6.248782470703125,0.431897908449173,0.5583558678627014,0.2096165120601654
1761914433290838800,6.2588388671875,0.4207533299922943,0.5128018856048584,0.14085981249809265
1761914433300893400,6.2688935546875,0.4235725402832031,0.46177732944488525,0.05516303330659866
1761914433310949600,6.27894970703125,0.42215460538864136,0.41113731265068054,-0.03272742033004761
1761914433321005600,6.289005615234375,0.4080483615398407,0.3655157685279846,-0.11759011447429657
1761914433331061500,6.2990615234375,0.381937175989151,0.3382972180843353,-0.18352380394935608
1761914433341116700,6.30911669921875,0.3241446912288666,0.30960407853126526,-0.22091138362884521
1761914433351172600,6.319172607421875,0.24352973699569702,0.2648419141769409,-0.21958941221237183
1761914433361228800,6.329228759765625,0.14462047815322876,0.18579956889152527,-0.19244486093521118
1761914433371283700,6.33928369140625,0.042029865086078644,0.0820443406701088,-0.1485455334186554
1761914433381339600,6.349339599609375,-0.042331889271736145,-0.01636185683310032,-0.10711392760276794
1761914433391395600,6.3593955078125,-0.09159969538450241,-0.07278507202863693,-0.07542790472507477
1761914433401451500,6.369451416015625,-0.10860397666692734,-0.07793828845024109,-0.06358323246240616
1761914433411506700,6.379506591796875,-0.1060715764760971,-0.0607876256108284,-0.053697824478149414
1761914433421562600,6.389562744140625,-0.09923417866230011,-0.030926933512091637,-0.060689687728881836
1761914433431618800,6.399618896484375,-0.09356346726417542,0.001778572564944625,-0.08333677798509598
1761914433441674800,6.4096748046875,-0.09154239296913147,0.04525254666805267,-0.13238155841827393
1761914433451729700,6.419729736328125,-0.08521709591150284,0.09465239942073822,-0.20374806225299835
1761914433461785600,6.42978564453125,-0.08366207778453827,0.14446310698986053,-0.27152976393699646
1761914433471841500,6.439841552734375,-0.0868200734257698,0.15329468250274658,-0.31950274109840393
1761914433481896700,6.449896728515625,-0.0850251093506813,0.12781408429145813,-0.3558588922023773
1761914433491952600,6.45995263671875,-0.06663376092910767,0.07698620110750198,-0.3946932256221771
1761914433502008600,6.470008544921875,-0.039502546191215515,0.004880846478044987,-0.43912941217422485
1761914433512064800,6.480064697265625,0.009889361448585987,-0.09726649522781372,-0.4903377890586853
1761914433522119700,6.49011962890625,0.06295683979988098,-0.24569112062454224,-0.5459070801734924
1761914433532175600,6.500175537109375,0.09522965550422668,-0.4469424784183502,-0.5913849472999573
1761914433542231600,6.5102314453125,0.09986169636249542,-0.6512436866760254,-0.6334112286567688
1761914433552286700,6.52028662109375,0.08784591406583786,-0.8262024521827698,-0.6661661863327026
1761914433562342700,6.5303427734375,0.07974271476268768,-0.9238389730453491,-0.6961619257926941
1761914433572398600,6.540398681640625,0.08658424764871597,-0.9087600111961365,-0.7199119925498962
1761914433582454800,6.550454833984375,0.08506783843040466,-0.8330863118171692,-0.7311305403709412
1761914433592509700,6.560509765625,0.06962614506483078,-0.7317504286766052,-0.7022966146469116
1761914433602566000,6.57056591796875,0.04416658729314804,-0.6148901581764221,-0.6627039313316345
1761914433612621600,6.58062158203125,0.04194103553891182,-0.5026864409446716,-0.6302390098571777
1761914433622676700,6.5906767578125,0.052076760679483414,-0.43065059185028076,-0.6441020965576172
1761914433632732700,6.600732666015625,0.07865916937589645,-0.32850876450538635,-0.6916226744651794
1761914433642788600,6.61078857421875,0.157155841588974,-0.2671271562576294,-0.7362045645713806
1761914433652844500,6.620844482421875,0.23904144763946533,-0.23507754504680634,-0.737729012966156
1761914433662899700,6.630899658203125,0.29480883479118347,-0.1479002982378006,-0.6888863444328308
1761914433672955600,6.64095556640625,0.33449241518974304,-0.058719318360090256,-0.6052402257919312
1761914433683011800,6.65101171875,0.3670263886451721,0.02363334223628044,-0.5186262726783752
1761914433693067500,6.661067626953125,0.374827116727829,0.06967189908027649,-0.4302222430706024
1761914433703122700,6.671122802734375,0.3326575458049774,0.06701032817363739,-0.3320818245410919
1761914433713178600,6.6811787109375,0.25491487979888916,0.0867861956357956,-0.22637096047401428
1761914433723234600,6.691234619140625,0.18159697949886322,0.15342460572719574,-0.13352730870246887
1761914433733289700,6.701289794921875,0.11277242004871368,0.23299483954906464,-0.05635247007012367
1761914433743345700,6.711345703125,0.10060310363769531,0.27428314089775085,-0.002245827578008175
1761914433753401900,6.72140185546875,0.2222827672958374,0.3180793225765228,-0.0010453443974256516
1761914433763457500,6.73145751953125,0.28101667761802673,0.4252118766307831,-0.08126454800367355
1761914433773512700,6.7415126953125,0.2998853027820587,0.44754356145858765,-0.13199615478515625
1761914433783568600,6.751568603515625,0.3152983486652374,0.5766000747680664,-0.21350671350955963
1761914433793624600,6.76162451171875,0.3101884722709656,0.6731308102607727,-0.3043692409992218
1761914433803679700,6.7716796875,0.28258001804351807,0.6356090307235718,-0.3853045701980591
1761914433813735700,6.781735595703125,0.23522919416427612,0.5038676261901855,-0.4390126168727875
1761914433823791600,6.79179150390625,0.18060402572155,0.39236292243003845,-0.47224435210227966
1761914433833842700,6.8018427734375,0.13852554559707642,0.36978989839553833,-0.5179327726364136
1761914433843897900,6.81189794921875,0.10002502053976059,0.3692876398563385,-0.5538998246192932
1761914433853953800,6.821953857421875,0.05183010175824165,0.3387952744960785,-0.5448889136314392
1761914433864010000,6.832010009765625,0.003888672450557351,0.2673162817955017,-0.45605966448783875
1761914433874066000,6.84206591796875,-0.0359051488339901,0.20387180149555206,-0.29982322454452515
1761914433884120800,6.852120849609375,-0.1093713790178299,0.16674228012561798,-0.10779785364866257
1761914433894177000,6.862177001953125,-0.22483815252780914,0.09590459614992142,0.10180078446865082
1761914433904233000,6.87223291015625,-0.34365081787109375,0.03372323885560036,0.27734652161598206
1761914433914287900,6.882287841796875,-0.42468804121017456,-0.00709934625774622,0.38815125823020935
1761914433924343800,6.89234375,-0.452107697725296,-0.009798992425203323,0.42197686433792114
1761914433934399700,6.902399658203125,-0.4463155269622803,0.027450133115053177,0.3783365786075592
1761914433944456000,6.9124560546875,-0.41432881355285645,0.06135882809758186,0.27965661883354187
1761914433954510800,6.9225107421875,-0.35058650374412537,0.09125233441591263,0.16000698506832123
1761914433964567000,6.932567138671875,-0.2577223479747772,0.13515214622020721,0.04651397466659546
1761914433974623000,6.942623046875,-0.15630397200584412,0.17720910906791687,-0.03445909917354584
1761914433984678000,6.952677978515625,-0.06931447237730026,0.19344401359558105,-0.06797125190496445
1761914433994733800,6.96273388671875,-0.0007524612592533231,0.20324088633060455,-0.06316661834716797
1761914434004789800,6.972789794921875,0.053532082587480545,0.2261083871126175,-0.04796050488948822
1761914434014846000,6.982845947265625,0.10813071578741074,0.28025123476982117,-0.0411839634180069
1761914434024900900,6.99290087890625,0.17090700566768646,0.339293509721756,-0.04386790096759796
1761914434034957000,7.00295703125,0.2386501431465149,0.40181949734687805,-0.060628071427345276
1761914434045013000,7.013012939453125,0.29484260082244873,0.4728976786136627,-0.07162852585315704
1761914434055068000,7.02306787109375,0.34244441986083984,0.5252739787101746,-0.05943724513053894
1761914434065123800,7.033123779296875,0.38578176498413086,0.548250675201416,-0.03211348131299019
1761914434075179800,7.0431796875,0.40980812907218933,0.5472466945648193,0.003223157487809658
1761914434085235700,7.053235595703125,0.41017723083496094,0.5244897603988647,0.05199762061238289
1761914434095291000,7.063290771484375,0.3932870030403137,0.47901496291160583,0.09007715433835983
1761914434105346800,7.073346923828125,0.38385623693466187,0.40111616253852844,0.12999580800533295
1761914434115403000,7.083403076171875,0.3853529989719391,0.3269694745540619,0.1680973470211029
1761914434125459000,7.093458984375,0.39987894892692566,0.2998550236225128,0.19037654995918274
1761914434135513900,7.103513916015625,0.4279232919216156,0.34015560150146484,0.2029523104429245
1761914434145569800,7.11356982421875,0.4600396752357483,0.4320937991142273,0.2211877703666687
1761914434155625700,7.123625732421875,0.5007421374320984,0.5193708539009094,0.25485923886299133
1761914434165681000,7.133680908203125,0.5284126400947571,0.5840558409690857,0.3023572564125061
1761914434175736800,7.14373681640625,0.5319702625274658,0.6136118173599243,0.35802221298217773
1761914434185793000,7.15379296875,0.5011452436447144,0.6017064452171326,0.42165258526802063
1761914434195849000,7.163848876953125,0.4395439922809601,0.5483319759368896,0.4766453206539154
1761914434205904000,7.17390380859375,0.3809501826763153,0.49344927072525024,0.5324007272720337
1761914434215959800,7.183959716796875,0.3364000618457794,0.448809951543808,0.5678560137748718
1761914434226015700,7.194015625,0.3111191987991333,0.42083796858787537,0.5793108344078064
1761914434236071000,7.20407080078125,0.28543606400489807,0.38678377866744995,0.5740278959274292
1761914434246126800,7.214126953125,0.2508741021156311,0.33445584774017334,0.5546786785125732
1761914434256182800,7.224182861328125,0.21432732045650482,0.28258371353149414,0.5163556933403015
1761914434266239000,7.234239013671875,0.17676343023777008,0.22804322838783264,0.46553194522857666
1761914434276293600,7.244293701171875,0.13992667198181152,0.19005447626113892,0.4137767255306244
1761914434286349800,7.254349853515625,0.09287129342556,0.15193772315979004,0.37149930000305176
1761914434296405800,7.26440576171875,0.049436237663030624,0.10424718260765076,0.35026291012763977
1761914434306461700,7.274461669921875,-0.001450377982109785,0.043339092284440994,0.35174840688705444
1761914434316516900,7.284516845703125,-0.05225484073162079,-0.01810990460216999,0.37732964754104614
1761914434326572800,7.29457275390625,-0.11208835244178772,-0.1339571475982666,0.4240769147872925
1761914434336629000,7.30462890625,-0.1830744594335556,-0.29036960005760193,0.49010562896728516
1761914434346684000,7.314683837890625,-0.2507259249687195,-0.3797130584716797,0.5325676202774048
1761914434356739800,7.32473974609375,-0.27433279156684875,-0.40080055594444275,0.5185826420783997
1761914434366795800,7.334795654296875,-0.255791574716568,-0.3711124360561371,0.4487402141094208
1761914434376851700,7.344851806640625,-0.2288593053817749,-0.29641449451446533,0.350277304649353
1761914434386907000,7.354906982421875,-0.19243791699409485,-0.22053329646587372,0.27310553193092346
1761914434396962800,7.364962890625,-0.14562688767910004,-0.16663092374801636,0.24966877698898315
1761914434407019000,7.37501904296875,-0.09692167490720749,-0.15053264796733856,0.29957321286201477
1761914434417074000,7.385073974609375,-0.0690687894821167,-0.15657132863998413,0.3895803689956665
1761914434427129900,7.3951298828125,-0.08373402059078217,-0.1811717450618744,0.4974711537361145
1761914434437185800,7.405185791015625,-0.13354481756687164,-0.2017129808664322,0.5944082140922546
1761914434447241700,7.41524169921875,-0.19461962580680847,-0.1814654916524887,0.6501561403274536
1761914434457297000,7.425296875,-0.23809115588665009,-0.12598362565040588,0.6591339111328125
1761914434467352800,7.435352783203125,-0.2662929594516754,-0.05838886648416519,0.645418643951416
1761914434477408800,7.44540869140625,-0.2649945914745331,-0.00874130055308342,0.6339506506919861
1761914434487465000,7.45546484375,-0.23782478272914886,0.009724525734782219,0.621485710144043
1761914434497519900,7.465519775390625,-0.19023649394512177,-0.003976105712354183,0.6197099685668945
1761914434507575800,7.475575927734375,-0.1365378499031067,-0.049322910606861115,0.6099178194999695
1761914434517631700,7.4856318359375,-0.09035596996545792,-0.13518215715885162,0.5942136645317078
1761914434527687000,7.49568701171875,-0.0437900684773922,-0.23147885501384735,0.550704300403595
1761914434537742800,7.505742919921875,-0.011157331056892872,-0.290130615234375,0.4754748046398163
1761914434547798800,7.515798828125,0.006473860703408718,-0.2944960594177246,0.3734927773475647
1761914434557855000,7.52585498046875,0.01751512847840786,-0.2615307867527008,0.25915244221687317
1761914434567910000,7.535909912109375,0.0348869264125824,-0.18538621068000793,0.13419665396213531
1761914434577966000,7.545966064453125,0.06238335371017456,-0.03350156545639038,-0.008587866090238094
1761914434588021800,7.556021728515625,0.09248106926679611,0.1082901880145073,-0.1449182778596878
1761914434598077700,7.56607763671875,0.10841517150402069,0.1794869750738144,-0.25330647826194763
1761914434608132900,7.5761328125,0.10554241389036179,0.18863838911056519,-0.3161381483078003
1761914434618188800,7.586188720703125,0.07978524267673492,0.1376083940267563,-0.32452502846717834
1761914434628245000,7.596244873046875,0.02308361791074276,0.03059512749314308,-0.28058022260665894
1761914434638300000,7.6062998046875,-0.0847419872879982,-0.09621928632259369,-0.2031933218240738
1761914434648355800,7.61635595703125,-0.22861206531524658,-0.2230382114648819,-0.11645521968603134
1761914434658412000,7.626412109375,-0.3734513819217682,-0.3191137909889221,-0.037440650165081024
1761914434668467700,7.6364677734375,-0.49583056569099426,-0.38490718603134155,0.01690620929002762
1761914434678523000,7.64652294921875,-0.5983708500862122,-0.430106520652771,0.03921494260430336
1761914434688578800,7.656578857421875,-0.6687999963760376,-0.45875921845436096,0.03320738673210144
1761914434698634800,7.666634765625,-0.7117959260940552,-0.46585601568222046,0.008738414384424686
1761914434708690000,7.67668994140625,-0.7174271941184998,-0.46757614612579346,-0.02544139325618744
1761914434718745900,7.686745849609375,-0.685679018497467,-0.4498770534992218,-0.06314778327941895
1761914434728802000,7.696802001953125,-0.6276732683181763,-0.42398449778556824,-0.09060230851173401
1761914434738857700,7.706857666015625,-0.5685477256774902,-0.4239066541194916,-0.09956925362348557
1761914434748913000,7.716912841796875,-0.5186493992805481,-0.4466330111026764,-0.0877181887626648
1761914434758968800,7.72696875,-0.4990260899066925,-0.4742462933063507,-0.05537797510623932
1761914434769024800,7.737024658203125,-0.4906861484050751,-0.49182769656181335,-0.010534337721765041
1761914434779081000,7.7470810546875,-0.4881562888622284,-0.4786921441555023,0.028186185285449028
1761914434789136000,7.757135986328125,-0.4773145616054535,-0.43451908230781555,0.055253222584724426
1761914434799192000,7.767192138671875,-0.45414382219314575,-0.3562656044960022,0.06461592018604279
1761914434809248000,7.777248046875,-0.41993099451065063,-0.24901743233203888,0.0740072950720787
1761914434819303000,7.787302978515625,-0.3795495331287384,-0.11275646090507507,0.09036359190940857
1761914434829359400,7.797359375,-0.33854299783706665,0.02549968659877777,0.13529138267040253
1761914434839415300,7.807415283203125,-0.30105942487716675,0.14867402613162994,0.18676942586898804
1761914434849471200,7.81747119140625,-0.25808292627334595,0.23257850110530853,0.23107802867889404
1761914434859526400,7.8275263671875,-0.20700420439243317,0.27433937788009644,0.263065904378891
1761914434869582300,7.837582275390625,-0.15294575691223145,0.25152966380119324,0.27599236369132996
1761914434879638500,7.847638427734375,-0.10628464818000793,0.16827915608882904,0.27960047125816345
1761914434889693200,7.857693115234375,-0.0791156068444252,0.0689842700958252,0.26838162541389465
1761914434899749400,7.867749267578125,-0.06757763028144836,-0.021489709615707397,0.24237969517707825
1761914434909805300,7.877805419921875,-0.054544657468795776,-0.08619067072868347,0.19745004177093506
1761914434919861200,7.887861328125,-0.04966882988810539,-0.12388591468334198,0.1314145028591156
1761914434929916400,7.89791650390625,-0.04568687081336975,-0.1716582328081131,0.05774959921836853
1761914434939972400,7.907972412109375,-0.039314739406108856,-0.24205590784549713,-0.004748203791677952
1761914434950028500,7.918028564453125,-0.026486026123166084,-0.3165985941886902,-0.04886133596301079
1761914434960084500,7.92808447265625,-0.0009104763739742339,-0.36831945180892944,-0.07728365808725357
1761914434970139400,7.938139404296875,0.05988922715187073,-0.36436891555786133,-0.10310486704111099
1761914434980195300,7.9481953125,0.1494576781988144,-0.3046060800552368,-0.12483235448598862
1761914434990251300,7.958251220703125,0.25097259879112244,-0.21779607236385345,-0.14228378236293793
1761914435000306400,7.968306396484375,0.33429646492004395,-0.13813385367393494,-0.13173913955688477
1761914435010362400,7.9783623046875,0.380575567483902,-0.09798776358366013,-0.07964637875556946
1761914435020418300,7.988418212890625,0.37085288763046265,-0.1010982021689415,0.005969480611383915
1761914435030474500,7.998474609375,0.3230142593383789,-0.138240247964859,0.11318594962358475
1761914435040527400,8.00852734375,0.24316942691802979,-0.17561084032058716,0.21934056282043457
1761914435050583300,8.018583251953125,0.17451205849647522,-0.1804460734128952,0.29900607466697693
1761914435060639500,8.028639404296875,0.13388919830322266,-0.14669442176818848,0.352720707654953
1761914435070694400,8.0386943359375,0.12260459363460541,-0.09130199998617172,0.3922121822834015
1761914435080750600,8.04875048828125,0.13147877156734467,-0.05477204546332359,0.42706790566444397
1761914435090806300,8.05880615234375,0.14304062724113464,-0.03839467093348503,0.45604097843170166
1761914435100862200,8.0688623046875,0.16366064548492432,-0.010583971627056599,0.4707782566547394
1761914435110917400,8.07891748046875,0.19237485527992249,-0.0012876746477559209,0.46386468410491943
1761914435120973300,8.088973388671874,0.21994450688362122,-0.023523516952991486,0.420315682888031
1761914435131029200,8.099029296875,0.23571841418743134,-0.04974127188324928,0.35070011019706726
1761914435141085400,8.10908544921875,0.23236757516860962,-0.07518508285284042,0.2522366940975189
1761914435151140400,8.119140380859376,0.22152744233608246,-0.10377199202775955,0.13443894684314728
1761914435161196500,8.129196533203125,0.1843554824590683,-0.15813256800174713,0.020458810031414032
1761914435171252200,8.139252197265625,0.12829993665218353,-0.2313830852508545,-0.09076438099145889
1761914435181307400,8.149307373046875,0.060841407626867294,-0.2875981032848358,-0.19372376799583435
1761914435191363300,8.15936328125,0.0013266829773783684,-0.31279507279396057,-0.2898644208908081
1761914435201419300,8.169419189453125,-0.04899361729621887,-0.31077420711517334,-0.3727779686450958
1761914435211475500,8.179475341796875,-0.11153555661439896,-0.30647534132003784,-0.4448593556880951
1761914435221530400,8.1895302734375,-0.17539045214653015,-0.3076828122138977,-0.4886108338832855
1761914435231586600,8.199586669921874,-0.24698607623577118,-0.2991985082626343,-0.5048558712005615
1761914435241642500,8.209642578125,-0.3171002268791199,-0.2572401165962219,-0.5075200796127319
1761914435251698200,8.2196982421875,-0.3921145498752594,-0.19690461456775665,-0.5041921734809875
1761914435261753300,8.22975341796875,-0.4607875645160675,-0.1284831315279007,-0.5098749995231628
1761914435271809300,8.239809326171875,-0.5263412594795227,-0.08083758503198624,-0.5146577954292297
1761914435281865500,8.249865478515625,-0.5726118087768555,-0.06287787854671478,-0.518613338470459
1761914435291920400,8.25992041015625,-0.5999770760536194,-0.06602413952350616,-0.5068230032920837
1761914435301976300,8.269976318359374,-0.615463137626648,-0.09036967158317566,-0.48293378949165344
1761914435312032500,8.280032470703125,-0.6117078065872192,-0.12566587328910828,-0.4483281373977661
1761914435322088400,8.29008837890625,-0.5818313956260681,-0.17664006352424622,-0.40025854110717773
1761914435332143400,8.300143310546876,-0.5340678691864014,-0.22611840069293976,-0.3461897075176239
1761914435342199300,8.31019921875,-0.4680119752883911,-0.2456623613834381,-0.3004511892795563
1761914435352255200,8.320255126953125,-0.38455435633659363,-0.23217344284057617,-0.2551359236240387
1761914435362310400,8.330310302734375,-0.27752685546875,-0.18357416987419128,-0.20643985271453857
1761914435372366300,8.340366455078126,-0.16486795246601105,-0.11982103437185287,-0.1564754843711853
1761914435382422500,8.350422607421875,-0.060642313212156296,-0.05828656256198883,-0.10576850175857544
1761914435392478500,8.360478515625,0.0321882925927639,-0.016135379672050476,-0.06469030678272247
1761914435402533400,8.370533447265625,0.10757362097501755,0.012368685565888882,-0.018206579610705376
1761914435412589300,8.38058935546875,0.171451136469841,0.03308115154504776,0.02683440037071705
1761914435422645200,8.390645263671875,0.22498545050621033,0.04296979308128357,0.06770932674407959
1761914435432701400,8.400701416015625,0.2782827913761139,0.019662605598568916,0.10437679290771484
1761914435442756400,8.41075634765625,0.31934887170791626,-0.043048761785030365,0.12608414888381958
1761914435452812500,8.4208125,0.33686554431915283,-0.12189751118421555,0.13899755477905273
1761914435462868500,8.430868408203125,0.3321078419685364,-0.21822166442871094,0.14752404391765594
1761914435472923400,8.44092333984375,0.29330745339393616,-0.35080045461654663,0.1589101254940033
1761914435482979300,8.450979248046876,0.22261416912078857,-0.5107565522193909,0.17571407556533813
1761914435493035300,8.46103515625,0.14299364387989044,-0.6970710158348083,0.17840895056724548
1761914435503091500,8.471091552734375,0.04600472003221512,-0.8965455293655396,0.16914832592010498
1761914435513146400,8.481146484375,-0.046265289187431335,-1.1000959873199463,0.13228990137577057
1761914435523202300,8.491202392578124,-0.14173927903175354,-1.2666652202606201,0.07665974646806717
1761914435533258500,8.501258544921875,-0.23206810653209686,-1.3665971755981445,0.0007868194952607155
1761914435543313200,8.511313232421875,-0.30680468678474426,-1.3657708168029785,-0.08668854832649231
1761914435553369300,8.521369384765626,-0.3826914429664612,-1.253001093864441,-0.1689077913761139
1761914435563425300,8.53142529296875,-0.4339349865913391,-1.1014057397842407,-0.228852316737175
1761914435573481200,8.541481201171875,-0.4565196633338928,-0.9365126490592957,-0.2588365972042084
1761914435583536400,8.551536376953125,-0.4618765115737915,-0.780983030796051,-0.2563014328479767
1761914435593592300,8.56159228515625,-0.4514515697956085,-0.6170575022697449,-0.23488588631153107
1761914435603648500,8.5716484375,-0.4237513244152069,-0.4347240924835205,-0.20787405967712402
1761914435613704400,8.581704345703125,-0.38790732622146606,-0.23765894770622253,-0.17785650491714478
1761914435623759400,8.59175927734375,-0.3412248492240906,-0.044197872281074524,-0.15247724950313568
1761914435633815300,8.601815185546876,-0.30529800057411194,0.10691095143556595,-0.11596716940402985
1761914435643871200,8.611871337890625,-0.30228549242019653,0.2122000753879547,-0.06042897328734398
1761914435653926400,8.621926513671875,-0.3220725357532501,0.278268039226532,0.029440462589263916
1761914435663982300,8.631982421875,-0.36317741870880127,0.32422882318496704,0.158601313829422
1761914435674038500,8.64203857421875,-0.432003378868103,0.2985093295574188,0.31386467814445496
1761914435684094500,8.652094482421875,-0.54049152135849,0.195268452167511,0.49133095145225525
1761914435694149400,8.6621494140625,-0.6603622436523438,0.09980131685733795,0.6383339762687683
1761914435704205300,8.672205322265626,-0.7080808877944946,0.09206117689609528,0.7052186727523804
1761914435714261200,8.68226123046875,-0.6966716647148132,0.12767642736434937,0.6985660791397095
1761914435724317400,8.6923173828125,-0.6554706692695618,0.1702883094549179,0.6365512013435364
1761914435734372400,8.702372314453125,-0.5760254263877869,0.29528218507766724,0.5213175415992737
1761914435744428300,8.71242822265625,-0.4372135102748871,0.4838069975376129,0.3616955578327179
1761914435754484500,8.722484375,-0.2697211802005768,0.6496534943580627,0.20476345717906952
1761914435764539400,8.732539306640625,-0.11973604559898376,0.7064571380615234,0.08648515492677689
1761914435774595300,8.74259521484375,-0.03191964700818062,0.6812913417816162,0.02260097861289978
1761914435784651300,8.7526513671875,0.009363919496536255,0.5880945324897766,0.012620678171515465
1761914435794707200,8.762707275390625,0.014347759075462818,0.44677576422691345,0.034947022795677185
1761914435804762400,8.772762451171875,-0.0201820507645607,0.3126595914363861,0.035582952201366425
1761914435814818300,8.782818359375,-0.09064130485057831,0.21685265004634857,0.007250646129250526
1761914435824874500,8.79287451171875,-0.1868113875389099,0.12064481526613235,-0.02588089555501938
1761914435834930000,8.802929931640625,-0.2740536034107208,0.012366806156933308,-0.021449662744998932
1761914435844984800,8.81298486328125,-0.34141167998313904,-0.12368232756853104,0.033383145928382874
1761914435855040800,8.823040771484376,-0.38465237617492676,-0.26783472299575806,0.13731247186660767
1761914435865096700,8.8330966796875,-0.4012938141822815,-0.3791019320487976,0.24453707039356232
1761914435875152000,8.84315185546875,-0.3806503415107727,-0.4179220199584961,0.31000345945358276
1761914435885207800,8.853207763671875,-0.33457738161087036,-0.3768157958984375,0.3284708261489868
1761914435895264000,8.863263916015624,-0.27465468645095825,-0.2732579708099365,0.3046853542327881
1761914435905320000,8.87331982421875,-0.20308305323123932,-0.14760953187942505,0.2464141547679901
1761914435915374800,8.883374755859375,-0.1202012225985527,-0.012964367866516113,0.16598643362522125
1761914435925430800,8.8934306640625,-0.037357691675424576,0.09804224222898483,0.06839320808649063
1761914435935486700,8.90348681640625,0.029732659459114075,0.1401958167552948,-0.02233988791704178
1761914435945542000,8.9135419921875,0.069737009704113,0.1222703829407692,-0.10066927969455719
1761914435955597800,8.923597900390625,0.08586058765649796,0.05509214103221893,-0.1692773699760437
1761914435965654000,8.933654052734376,0.08494928479194641,-0.0372835174202919,-0.22537249326705933
1761914435975710000,8.9437099609375,0.04992765188217163,-0.12033525854349136,-0.27490782737731934
1761914435985764900,8.953764892578125,0.0043089743703603745,-0.20094814896583557,-0.32879123091697693
1761914435995820800,8.96382080078125,-0.05102059617638588,-0.2844821810722351,-0.3725278079509735
1761914436005876700,8.973876708984376,-0.11572222411632538,-0.36637163162231445,-0.40492066740989685
1761914436015932700,8.9839326171875,-0.17521218955516815,-0.40543460845947266,-0.4368674159049988
1761914436025987800,8.99398779296875,-0.2310192883014679,-0.39858874678611755,-0.4633065462112427
1761914436036043800,9.004043701171875,-0.29459959268569946,-0.36419668793678284,-0.46268683671951294
1761914436046100000,9.014099853515624,-0.3586312234401703,-0.2990421652793884,-0.4260376989841461
1761914436056155000,9.02415478515625,-0.3991298973560333,-0.1936129629611969,-0.3479447662830353
1761914436066210800,9.0342109375,-0.4172888696193695,-0.0758054107427597,-0.24454641342163086
1761914436076266800,9.044266845703126,-0.42134565114974976,0.0020137582905590534,-0.14017179608345032
1761914436086322700,9.05432275390625,-0.4116143584251404,0.07303204387426376,-0.05062709376215935
1761914436096377900,9.0643779296875,-0.39021000266075134,0.09766388684511185,0.015761252492666245
1761914436106433800,9.074433837890625,-0.35655754804611206,0.09199594706296921,0.05771384388208389
1761914436116490000,9.084489990234376,-0.32253193855285645,0.09751055389642715,0.06516936421394348
1761914436126546000,9.0945458984375,-0.29723843932151794,0.1043633222579956,0.05189115181565285
1761914436136601000,9.10460107421875,-0.2861258387565613,0.10802357643842697,0.03908134996891022
1761914436146656800,9.11465673828125,-0.29478737711906433,0.13468797504901886,0.01942617818713188
1761914436156712700,9.124712646484374,-0.32246479392051697,0.19731992483139038,0.017320681363344193
1761914436166767900,9.134767822265625,-0.3391996920108795,0.27383458614349365,0.026019945740699768
1761914436176823800,9.14482373046875,-0.33892911672592163,0.33578822016716003,0.04256616532802582
1761914436186880000,9.1548798828125,-0.31962618231773376,0.39041608572006226,0.056170400232076645
1761914436196936000,9.16493603515625,-0.2798002064228058,0.38949650526046753,0.05854034796357155
1761914436206990800,9.174990966796875,-0.2209673523902893,0.3196127414703369,0.04932275414466858
1761914436217047000,9.185047119140625,-0.14208531379699707,0.22187075018882751,0.026839017868041992
1761914436227102700,9.195102783203126,-0.055500563234090805,0.11981496214866638,-0.016666105017066002
1761914436237158000,9.205157958984374,0.019102567806839943,0.037090517580509186,-0.06281069666147232
1761914436247213800,9.2152138671875,0.065705306828022,-0.018384940922260284,-0.10920822620391846
1761914436257269800,9.225269775390625,0.07467377185821533,-0.021420679986476898,-0.1541552096605301
1761914436267326000,9.235325927734374,0.054578255861997604,-0.02870175614953041,-0.1838807314634323
1761914436277380900,9.245380859375,0.024940472096204758,-0.09282507747411728,-0.20123308897018433
1761914436287437000,9.25543701171875,0.00131555600091815,-0.17507028579711914,-0.20923271775245667
1761914436297493000,9.265492919921876,-0.0030565557535737753,-0.2564399540424347,-0.2205687314271927
1761914436307548700,9.275548583984374,0.022657789289951324,-0.28192582726478577,-0.25033730268478394
1761914436317603800,9.285603759765625,0.06838347017765045,-0.2658989131450653,-0.2840745151042938
1761914436327659800,9.29565966796875,0.1380028873682022,-0.19005446135997772,-0.3184084892272949
1761914436337716000,9.305716064453126,0.21189655363559723,-0.09886089712381363,-0.327823281288147
1761914436347771000,9.31577099609375,0.2670269012451172,-0.014286665245890617,-0.2947079837322235
1761914436357827000,9.3258271484375,0.29575470089912415,0.03141983598470688,-0.21791361272335052
1761914436367883000,9.335883056640625,0.2927993834018707,0.01400995347648859,-0.10054410994052887
1761914436377938700,9.345938720703124,0.2570400536060333,-0.026368895545601845,0.029078330844640732
1761914436387993900,9.355993896484375,0.2319631725549698,-0.011069819331169128,0.11653056740760803
1761914436398049800,9.3660498046875,0.23548173904418945,0.02971808984875679,0.15380176901817322
1761914436408105700,9.376105712890626,0.24316343665122986,0.05309000238776207,0.14723123610019684
1761914436418161000,9.386160888671874,0.2452542781829834,0.06993795931339264,0.11610367894172668
1761914436428216800,9.396216796875,0.25661271810531616,0.06353684514760971,0.07687072455883026
1761914436438273000,9.40627294921875,0.2668699026107788,0.0466204509139061,0.02680702693760395
1761914436448329000,9.416328857421876,0.26751336455345154,0.02214568853378296,-0.024832651019096375
1761914436458384000,9.4263837890625,0.2506140172481537,-0.016583865508437157,-0.0920332595705986
1761914436468439800,9.436439697265625,0.2063031792640686,-0.06744761019945145,-0.1700078547000885
1761914436478495700,9.446495849609375,0.14273566007614136,-0.12452820688486099,-0.26189303398132324
1761914436488552000,9.456552001953124,0.0803709626197815,-0.17305320501327515,-0.35089850425720215
1761914436498606800,9.46660693359375,0.023683445528149605,-0.21612077951431274,-0.42411306500434875
1761914436508663000,9.4766630859375,-0.035024695098400116,-0.2630634903907776,-0.46554872393608093
1761914436518719000,9.486718994140626,-0.09169436246156693,-0.29694899916648865,-0.4609909951686859
1761914436528774000,9.49677392578125,-0.1442115157842636,-0.35681089758872986,-0.39705902338027954
1761914436538829800,9.506829833984375,-0.20155735313892365,-0.43325427174568176,-0.2810863256454468
1761914436548885800,9.5168857421875,-0.2502927780151367,-0.4612065553665161,-0.16749709844589233
1761914436558942000,9.52694189453125,-0.2693479657173157,-0.43011176586151123,-0.07038278877735138
1761914436568996900,9.536996826171874,-0.28541266918182373,-0.3720359802246094,-0.005640314891934395
1761914436579052800,9.547052734375,-0.2964724898338318,-0.2815907597541809,0.0342775397002697
1761914436589109000,9.55710888671875,-0.30301588773727417,-0.14386697113513947,0.046549536287784576
1761914436599163600,9.56716357421875,-0.2994997203350067,0.01569552533328533,0.03773953393101692
1761914436609219800,9.5772197265625,-0.2789437472820282,0.1756037026643753,0.00413562823086977
1761914436619275800,9.58727587890625,-0.2613508999347687,0.2743403911590576,-0.04030880331993103
1761914436629331700,9.597331787109376,-0.25411683320999146,0.28437551856040955,-0.07541677355766296
1761914436639387000,9.607386962890626,-0.24289320409297943,0.22904302179813385,-0.10241669416427612
1761914436649442800,9.61744287109375,-0.21999168395996094,0.1474871188402176,-0.12244973331689835
1761914436659499000,9.6274990234375,-0.19611483812332153,0.05540672317147255,-0.11568796634674072
1761914436669555000,9.637554931640626,-0.16635166108608246,-0.04514472931623459,-0.09404002875089645
1761914436679609900,9.64760986328125,-0.12869030237197876,-0.12778209149837494,-0.06168873980641365
1761914436689665800,9.657665771484375,-0.0852702185511589,-0.16506525874137878,-0.038095925003290176
1761914436699721700,9.6677216796875,-0.03397906944155693,-0.1675284206867218,-0.021102026104927063
1761914436709777000,9.67777685546875,0.022144563496112823,-0.1531042903661728,-0.013266847468912601
1761914436719832800,9.687832763671874,0.07553667575120926,-0.12684179842472076,-0.012522493489086628
1761914436729889000,9.697888916015625,0.12563809752464294,-0.0889158546924591,-0.008538772352039814
1761914436739945000,9.707945068359376,0.17447994649410248,-0.051129333674907684,0.0006339540705084801
1761914436749999900,9.717999755859376,0.2252577692270279,-0.023789161816239357,0.016623036935925484
1761914436760055800,9.728055908203125,0.27765893936157227,-0.004483374301344156,0.04024074971675873
1761914436770111700,9.73811181640625,0.314516544342041,0.026085224002599716,0.06528010219335556
1761914436780168000,9.74816796875,0.33754676580429077,0.05776272714138031,0.08025798946619034
1761914436790222800,9.758222900390624,0.34892693161964417,0.09008163958787918,0.08915215730667114
1761914436800278800,9.76827880859375,0.3493024408817291,0.11075202375650406,0.08881127089262009
1761914436810335000,9.7783349609375,0.3364204466342926,0.11213278770446777,0.08385249227285385
1761914436820389600,9.7883896484375,0.31576818227767944,0.07050811499357224,0.08584320545196533
1761914436830445800,9.79844580078125,0.2892041802406311,-0.004736201837658882,0.09112304449081421
1761914436840505900,9.808505859375,0.2522839903831482,-0.08006531000137329,0.08595837652683258
1761914436850561800,9.818561767578124,0.2070998251438141,-0.13472650945186615,0.07164936512708664
1761914436860617000,9.828616943359375,0.16502293944358826,-0.15000134706497192,0.044253960251808167
1761914436870673000,9.8386728515625,0.12576445937156677,-0.15483279526233673,0.013065497390925884
1761914436880729000,9.84872900390625,0.0880596861243248,-0.14983536303043365,-0.013411649502813816
1761914436890783700,9.85878369140625,0.054105743765830994,-0.14198517799377441,-0.03332239016890526
1761914436900839700,9.868839599609375,0.023561948910355568,-0.11461614072322845,-0.04131746664643288
1761914436910895900,9.878895751953126,-0.006348687224090099,-0.07028837502002716,-0.052141912281513214
1761914436920951800,9.888951904296874,-0.022119127213954926,-0.014586498960852623,-0.07087644934654236
1761914436931007000,9.899007080078125,-0.030579177662730217,0.03428911045193672,-0.09210683405399323
1761914436941063000,9.90906298828125,-0.03384208679199219,0.04774366691708565,-0.11579405516386032
1761914436951118800,9.919118896484376,-0.036106325685977936,0.027035299688577652,-0.13580331206321716
1761914436961175000,9.929175048828125,-0.03733271360397339,-0.007233191281557083,-0.15613523125648499
1761914436971229700,9.939229736328125,-0.04968864843249321,-0.02933484874665737,-0.17565962672233582
1761914436981286000,9.949285888671875,-0.06134770065546036,-0.032419852912425995,-0.185434490442276
1761914436991341800,9.959341796875,-0.08375875651836395,0.0006077119614928961,-0.19214606285095215
1761914437001397000,9.96939697265625,-0.11589671671390533,0.05369782820343971,-0.17925076186656952
1761914437011453000,9.979452880859375,-0.15042154490947723,0.1293700486421585,-0.15305957198143005
1761914437021508900,9.9895087890625,-0.17823505401611328,0.19751954078674316,-0.10705426335334778
1761914437031565000,9.99956494140625,-0.19121579825878143,0.22008134424686432,-0.049956995993852615
1761914437041620000,10.009619873046875,-0.18724742531776428,0.22655415534973145,0.015595648437738419
1761914437051676000,10.019676025390625,-0.1662786900997162,0.2406550645828247,0.09223797172307968
1761914437061731800,10.02973193359375,-0.13070844113826752,0.2542422413825989,0.17960935831069946
1761914437071787000,10.039787109375,-0.08731649070978165,0.25409018993377686,0.26023179292678833
1761914437081843000,10.049843017578125,-0.042968835681676865,0.2735014259815216,0.31209349632263184
1761914437091899000,10.05989892578125,-0.0032724146731197834,0.34363633394241333,0.3308317959308624
1761914437101954800,10.069954833984376,0.035011325031518936,0.45292234420776367,0.336506724357605
1761914437112010000,10.080010009765624,0.06694723665714264,0.5573167204856873,0.34448137879371643
1761914437122066000,10.09006591796875,0.09865056723356247,0.6184386610984802,0.3529299795627594
1761914437132121900,10.100121826171875,0.13034804165363312,0.6164805889129639,0.34942206740379333
1761914437142177800,10.110177734375,0.0750160813331604,0.5162343978881836,0.2808459401130676
1761914437152233000,10.12023291015625,-0.12608979642391205,0.6396111845970154,0.1351073980331421
1761914437162289000,10.130288818359375,-0.14343123137950897,0.5721400380134583,0.017269179224967957
1761914437172344800,10.1403447265625,-0.005413341335952282,0.184701070189476,-0.06132911890745163
1761914437182400000,10.15039990234375,0.04284766688942909,-0.026101451367139816,-0.1451158970594406
1761914437192456000,10.1604560546875,0.06254342198371887,-0.16499198973178864,-0.24197924137115479
1761914437202512000,10.170511962890625,0.07693514972925186,-0.3112344443798065,-0.338901549577713
1761914437212567800,10.18056787109375,0.07117018848657608,-0.37421706318855286,-0.42675313353538513
1761914437222623000,10.190623046875,0.09960874915122986,-0.35540637373924255,-0.5080967545509338
1761914437232679000,10.200678955078125,0.15297985076904297,-0.2842249274253845,-0.5759031176567078
1761914437242734800,10.21073486328125,0.19385084509849548,-0.20598018169403076,-0.6118955016136169
1761914437252791000,10.220791015625,0.20648744702339172,-0.20042721927165985,-0.5848432183265686
1761914437262846000,10.230845947265625,0.19813230633735657,-0.2902359366416931,-0.5021291971206665
1761914437272902000,10.24090185546875,0.14595934748649597,-0.44806790351867676,-0.3592584431171417
1761914437282957800,10.250957763671876,0.06434039771556854,-0.6423441767692566,-0.17097535729408264
1761914437293012700,10.2610126953125,-0.04356653243303299,-0.8022251725196838,0.03413291648030281
1761914437303069000,10.27106884765625,-0.15708483755588531,-0.8787474036216736,0.22651967406272888
1761914437313124900,10.281124755859375,-0.26367127895355225,-0.8558945059776306,0.38439109921455383
1761914437323180800,10.291180908203126,-0.33877426385879517,-0.7834488153457642,0.48115891218185425
1761914437333236000,10.301236083984374,-0.3588885962963104,-0.6344133019447327,0.5198386311531067
1761914437343292000,10.3112919921875,-0.34520500898361206,-0.3995901346206665,0.5317109823226929
1761914437353348000,10.32134814453125,-0.3103729784488678,-0.14014758169651031,0.5359902381896973
1761914437363402800,10.33140283203125,-0.25789088010787964,0.10467227548360825,0.5547564625740051
1761914437373459000,10.341458984375,-0.1952674239873886,0.30331021547317505,0.5861890316009521
1761914437383515000,10.351514892578125,-0.12390775233507156,0.40863823890686035,0.6160725951194763
1761914437393570800,10.36157080078125,-0.050593506544828415,0.4015485942363739,0.6034849882125854
1761914437403626000,10.3716259765625,0.013025150634348392,0.3118072748184204,0.5365301966667175
1761914437413682000,10.381681884765625,0.059233490377664566,0.19927626848220825,0.4104900658130646
1761914437423738000,10.391738037109375,0.07911878824234009,0.09966525435447693,0.24772217869758606
1761914437433794000,10.4017939453125,0.05346135422587395,0.03582395613193512,0.06040582433342934
1761914437443849000,10.411848876953124,-0.011748806573450565,0.050239380449056625,-0.13432984054088593
1761914437453905000,10.42190478515625,-0.10750734061002731,0.12462353706359863,-0.3184588849544525
1761914437463960800,10.4319609375,-0.21751374006271362,0.2087879627943039,-0.461953729391098
1761914437474016000,10.44201611328125,-0.3123748302459717,0.26108667254447937,-0.5639870166778564
1761914437484072000,10.452072021484375,-0.3808601498603821,0.244658425450325,-0.6175408363342285
1761914437494127900,10.4621279296875,-0.4327322840690613,0.15862606465816498,-0.6174372434616089
1761914437504184000,10.47218408203125,-0.4693238437175751,-0.012166989035904408,-0.5590578317642212
1761914437514238700,10.48223876953125,-0.49140727519989014,-0.2397802472114563,-0.4511825442314148
1761914437524295000,10.492294921875,-0.4889600872993469,-0.45688724517822266,-0.30878332257270813
1761914437534350800,10.502350830078125,-0.46617060899734497,-0.5951327085494995,-0.16039328277111053
1761914437544406000,10.512406005859376,-0.43755680322647095,-0.6104065179824829,-0.03548942878842354
1761914437554462000,10.5224619140625,-0.40379104018211365,-0.5386707186698914,0.05033206194639206
1761914437564518000,10.532517822265625,-0.36014288663864136,-0.4125567078590393,0.10684353858232498
1761914437574574000,10.542573974609375,-0.313713937997818,-0.252390056848526,0.12080410122871399
1761914437584628700,10.552628662109376,-0.2701752483844757,-0.10456517338752747,0.12533040344715118
1761914437594685000,10.562684814453124,-0.22692018747329712,-0.015142848715186119,0.14056241512298584
1761914437604740900,10.572740966796875,-0.1834142506122589,0.010401659645140171,0.18604972958564758
1761914437614796800,10.582796875,-0.1251298487186432,0.01491391658782959,0.26543745398521423
1761914437624852000,10.59285205078125,-0.05929117277264595,0.018797604367136955,0.3656098544597626
1761914437634908000,10.602907958984375,-0.004985495936125517,0.011462988331913948,0.4543718099594116
1761914437644964000,10.612964111328125,0.040319669991731644,0.004456477705389261,0.519052267074585
1761914437655018800,10.623018798828125,0.10021819174289703,0.00104543287307024,0.5537161231040955
1761914437665075000,10.633074951171874,0.1846209466457367,0.032089900225400925,0.57115638256073
1761914437675131000,10.643130859375,0.29900825023651123,0.07669950276613235,0.5919982194900513
1761914437685186800,10.653186767578125,0.401314377784729,0.0914803147315979,0.6278933882713318
1761914437695242000,10.663241943359376,0.4668801724910736,0.09543482214212418,0.6737822890281677
1761914437705298000,10.6732978515625,0.4863063395023346,0.07301046699285507,0.7160775661468506
1761914437715353900,10.683353759765625,0.47607865929603577,0.020756859332323074,0.7485415935516357
1761914437725408800,10.69340869140625,0.4463820159435272,-0.0456586517393589,0.781696617603302
1761914437735464700,10.703464599609376,0.4098154604434967,-0.14776162803173065,0.7917729020118713
1761914437745521000,10.71352099609375,0.3749876916408539,-0.24619604647159576,0.765504002571106
1761914437755576800,10.723576904296875,0.344181090593338,-0.361847460269928,0.6978675723075867
1761914437765632000,10.733632080078126,0.35300707817077637,-0.49084538221359253,0.572769045829773
1761914437775688000,10.74368798828125,0.39124178886413574,-0.5932679772377014,0.40971463918685913
1761914437785744000,10.753743896484375,0.4324805736541748,-0.5812914967536926,0.24005980789661407
1761914437795800000,10.763800048828125,0.47030457854270935,-0.45748189091682434,0.10863325744867325
1761914437805854700,10.773854736328126,0.47628018260002136,-0.3420383930206299,0.04630783945322037
1761914437815911000,10.783910888671874,0.4649958312511444,-0.31964024901390076,0.060786135494709015
1761914437825966800,10.793966796875,0.4652040898799896,-0.38991039991378784,0.1193985790014267
1761914437836022000,10.80402197265625,0.4999440014362335,-0.5433701872825623,0.23939932882785797
1761914437846078000,10.814077880859376,0.6038802266120911,-0.4935166537761688,0.45751407742500305
1761914437856134000,10.8241337890625,0.6188745498657227,-0.232828751206398,0.47370293736457825
1761914437866190000,10.834190185546875,0.541212797164917,0.07696719467639923,0.35386013984680176
1761914437876244700,10.84424462890625,0.4898882806301117,0.343062162399292,0.19285130500793457
1761914437886301000,10.854301025390624,0.5176634788513184,0.45474714040756226,0.02085982821881771
1761914437896356900,10.86435693359375,0.5734821557998657,0.3771868348121643,-0.055139996111392975
1761914437906411800,10.874411865234375,0.6491122245788574,0.41286468505859375,-0.08724493533372879
