time,seconds_elapsed,z,y,x
1761914498870001000,0.1270009765625,-0.38168227257132525,-0.8424690615177154,0.5740928501307964
1761914498880056800,0.137056884765625,-0.443947882348299,-0.8888514579862355,0.5697041867177933
1761914498890112000,0.147112060546875,-0.5309346764057874,-0.9193386584475636,0.574379338921979
1761914498900168000,0.15716796875,-0.5866887123316527,-0.897023074004054,0.5936077710051089
1761914498910224000,0.167223876953125,-0.5364268440812826,-0.8918240440562367,0.6131624393679201
1761914498920278800,0.17727880859375,-0.45271512617170806,-1.0050324900850653,0.6373793273881078
1761914498930334700,0.187334716796875,-0.3732727561444044,-1.2159794258102774,0.6406933473069221
1761914498940391000,0.197390869140625,-0.27629940560162064,-1.3349188167065382,0.6498273055508732
1761914498950445800,0.20744580078125,-0.2121756007373333,-1.3928168789237736,0.6631419835455715
1761914498960502000,0.217501953125,-0.20708266151249408,-1.4583277542322872,0.6635257221661508
1761914498970558000,0.227557861328125,-0.2545598674803972,-1.4947615881383418,0.7159410421233624
1761914498980614000,0.23761376953125,-0.31290275085568425,-1.4803513699918984,0.7699244881801307
1761914498990668800,0.247668701171875,-0.30525720453858374,-1.3767074556440113,0.8035210528336465
1761914499000724700,0.257724853515625,-0.2865910825133324,-1.2205460030734538,0.8693043153427541
1761914499010781000,0.267781005859375,-0.30269933674931526,-1.0662637883782387,0.9212174579314887
1761914499020835800,0.2778359375,-0.2415899112701416,-0.896845963871479,0.936977556316927
1761914499030891800,0.287891845703125,-0.1784118628233671,-0.6793307556718587,0.90471421302855
1761914499040948000,0.297947998046875,-0.09887304668426514,-0.39855274335145946,0.8432024903587997
1761914499051002600,0.308002685546875,-0.0480886158645153,-0.14072598302960396,0.6385016824815422
1761914499061058800,0.318058837890625,-0.22012919009029863,0.05233282930552959,0.5081894683733582
1761914499071114800,0.32811474609375,-0.4259662354558706,0.18680325907170772,0.4966688707211986
1761914499081170700,0.338170654296875,-0.6853156753003596,0.2514431967645883,0.5030122118659317
1761914499091225900,0.348225830078125,-0.8843629143953323,0.29968086571097374,0.4634892163055017
1761914499101281800,0.35828173828125,-0.7445955472648144,0.41217911764383314,0.2955568628498353
1761914499111338000,0.368337890625,-0.5213637149840593,0.49022155774533743,0.12897208807822316
1761914499121393000,0.378392822265625,-0.49864451817572114,0.4589572354316711,0.0525259772574529
1761914499131448800,0.38844873046875,-0.5763315689682961,0.395282343378663,0.016669468315318226
1761914499141504800,0.3985048828125,-0.6856652193903923,0.3986608799010515,0.04056618447043001
1761914499151560000,0.408559814453125,-0.7387965055972338,0.5032862065017223,0.06585515870153903
1761914499161616000,0.418615966796875,-0.6448883878439664,0.6190986975491046,0.0708619905455038
1761914499171671800,0.428671875,-0.45401568737626075,0.7552274159163236,-0.021686127433553335
1761914499181727000,0.43872705078125,-0.3292190948843956,0.9317191243320703,-0.1568987173365429
1761914499191783000,0.448782958984375,-0.2690396437317133,1.1188187360018491,-0.29223774663079527
1761914499201838800,0.4588388671875,-0.25211188980638977,1.2826900322973727,-0.34900578190479425
1761914499211894800,0.468894775390625,-0.20920622953772544,1.4273399107724427,-0.32947946285363283
1761914499221949700,0.47894970703125,-0.22454759105443953,1.5863240195482968,-0.3065255074413493
1761914499232006000,0.489005859375,-0.1482224762648344,1.6984505155593155,-0.3580245528038591
1761914499242061800,0.499061767578125,0.07403261993825436,1.710570576941967,-0.5590295749031007
1761914499252117000,0.509116943359375,0.38599136794209477,1.6061609389185905,-0.9711345313321799
1761914499262173000,0.5191728515625,0.7808943566143512,1.551779944911599,-1.2161571935299784
1761914499272228900,0.529228759765625,0.7712982607513665,1.4903496169149875,-1.3233859075620769
1761914499282283800,0.53928369140625,0.6810761380344629,1.4445914898246526,-1.3861892774775624
1761914499292339700,0.549339599609375,0.6186345871686935,1.519618381497264,-1.363546653036773
1761914499302396000,0.55939599609375,0.5079904386699199,1.6131693563759326,-1.2666397918589412
1761914499312451800,0.569451904296875,0.46209787154495713,1.5690788702368734,-1.1258486346386372
1761914499322507000,0.579507080078125,0.5123351898759603,1.4036802182435988,-0.9592857611715793
1761914499332563000,0.58956298828125,0.46212300598621364,1.223746260419488,-0.8718928705312311
1761914499342619000,0.599618896484375,0.3713081780731678,1.1311585776150226,-0.9065481504574417
1761914499352673800,0.609673828125,0.35402620388269423,1.0945581549704073,-0.9505862488221376
1761914499362729700,0.619729736328125,0.31397944017648693,1.0500327845454216,-0.9377936950054019
1761914499372786000,0.629785888671875,0.24505495703220365,0.9253285465121268,-0.9061481913544237
1761914499382840800,0.6398408203125,0.25429858619570733,0.7701461681067943,-0.8552087161034345
1761914499392896800,0.649896728515625,0.2340086623609066,0.6106582014620304,-0.8008212192904204
1761914499402953000,0.659952880859375,0.19565525856912136,0.48746319894790646,-0.7580059407189488
1761914499413007600,0.670007568359375,0.20523674138486384,0.39841538070738314,-0.7165086128782481
1761914499423063800,0.680063720703125,0.195008777359128,0.30195757847130295,-0.6145411803752183
1761914499433119700,0.69011962890625,0.16726912204027175,0.23227146330475806,-0.4888669282659888
1761914499443175700,0.70017578125,0.19451076470911502,0.15367022027671337,-0.3948839186456054
1761914499453230800,0.71023095703125,0.2397369768798351,0.06778875711262226,-0.2890185288559645
1761914499463286800,0.720286865234375,0.33610067109167574,-0.08960895925462245,-0.14695282165519893
1761914499473343000,0.730343017578125,0.4579676398724317,-0.28898353060781956,0.025308774910122154
1761914499483398000,0.74039794921875,0.5631055921703577,-0.44680502534508704,0.1719397441998124
1761914499493453800,0.750453857421875,0.5703852277845144,-0.5343775103360414,0.3193365102302283
1761914499503509800,0.760509765625,0.5153583370894194,-0.5537783763766289,0.5035344821743667
1761914499513565000,0.77056494140625,0.4638555288672447,-0.5850906294852495,0.7139880814246833
1761914499523620900,0.780620849609375,0.5725315921634435,-0.6825362737149,0.882063332216069
1761914499533676800,0.7906767578125,0.72158935020864,-0.75573770352602,1.021522948571667
1761914499543733000,0.80073291015625,0.8253302951902151,-0.7798959932267665,1.1697457170974463
1761914499553788000,0.810787841796875,0.9243290140807628,-0.7891425449997186,1.3287838210828602
1761914499563843800,0.82084375,0.915891440603137,-0.7503881591916084,1.4848521885424852
1761914499573899800,0.830899658203125,0.8394330548226833,-0.6801391494452953,1.6545704573005438
1761914499583954700,0.84095458984375,0.7976023303091525,-0.6667986063569784,1.8435037141382693
1761914499594011000,0.851010986328125,0.7500690102398395,-0.678604779484868,2.025250128211826
1761914499604066800,0.86106689453125,0.7273837157011032,-0.6882201645702123,2.193035383080691
1761914499614122000,0.8711220703125,0.773054164507985,-0.7149380756258964,2.3225150188222528
1761914499624178000,0.881177978515625,0.8287631922483444,-0.6879922010332346,2.405178396722674
1761914499634233900,0.89123388671875,0.7879647333920001,-0.6352133815258741,2.474386080722511
1761914499644290000,0.9012900390625,0.7701514288038015,-0.5561228936761617,2.5263228964477777
1761914499654344700,0.9113447265625,0.7869388974756002,-0.4793704933851957,2.600983877417445
1761914499664401000,0.92140087890625,0.7001356432914734,-0.40955110722780225,2.73223417609334
1761914499674456800,0.931456787109375,0.5651888281852007,-0.40881870130002496,2.862962496721744
1761914499684512000,0.941511962890625,0.4658014022380113,-0.5068365924596786,2.93427007561028
1761914499694568000,0.95156787109375,0.4494283595860004,-0.5396347002118825,2.9821283898502586
1761914499704623900,0.961623779296875,0.49348143632411956,-0.42437224426269526,2.878343897987902
1761914499714678800,0.9716787109375,0.5468406860679388,-0.29242870262563225,2.683760360303521
1761914499724734700,0.981734619140625,0.6257073020339011,-0.3006663696169853,2.5244451198771594
1761914499734791000,0.991791015625,0.665193509247899,-0.3200292417347431,2.424561727106571
1761914499744845800,1.001845703125,0.7491817060112953,-0.25798165862262246,2.3135928766980767
1761914499754901800,1.01190185546875,0.8872446073114871,-0.19419921454191208,2.1585405544131993
1761914499764958000,1.0219580078125,1.004853918647766,-0.1096270804107189,2.003095141157508
1761914499775014000,1.032013916015625,1.0246709642738103,-0.07804711627662181,1.8642273532152174
1761914499785068800,1.04206884765625,1.0569985319048165,-0.10313479578197002,1.7590490689069032
1761914499795124700,1.052124755859375,1.0221382309257983,-0.12007248657941817,1.7085048765838144
1761914499805180700,1.0621806640625,0.9575918167352676,-0.12614800710082053,1.6769956395983694
1761914499815235800,1.07223583984375,0.9235556916207075,-0.10837620356678962,1.5661654670082032
1761914499825291800,1.082291748046875,0.8716735286921262,-0.08346972584724426,1.423329506087303
1761914499835348000,1.092347900390625,0.8346060730576514,-0.030175358033180236,1.282595485881716
1761914499845403000,1.10240283203125,0.7448772868156432,-0.013873042529821395,1.1435865359030664
1761914499855458800,1.112458740234375,0.7017278809189796,0.028191490739583967,1.0154775309275834
1761914499865514800,1.1225146484375,0.6666226652681827,0.05754033482074737,0.8877208465211093
1761914499875570700,1.13257080078125,0.5975725099176168,0.05314063855707645,0.741406980356574
1761914499885625900,1.1426259765625,0.4794108253955841,0.05370762479007244,0.6351352017231285
1761914499895681800,1.152681884765625,0.24157938987612723,0.08496084118783473,0.567148803146556
1761914499905738200,1.16273828125,-0.10914134272038936,0.10499532895684241,0.48932614327557383
1761914499915793400,1.17279345703125,-0.36647359752357006,0.08476794896423816,0.3300765884965658
1761914499925849300,1.182849365234375,-0.5016647427797317,0.07788345014750957,0.18009470134377478
1761914499935905500,1.192905517578125,-0.4809001871705055,0.0313794731259346,0.08168766473606229
1761914499945960200,1.202960205078125,-0.35621290027201175,-0.1868044281154871,0.0635927667275071
1761914499956016400,1.213016357421875,-0.36710078951120373,-0.33693595287203787,-0.007029314114898443
1761914499966072300,1.223072265625,-0.4954132811695337,-0.35879531798064707,-0.11464658907316624
1761914499976128300,1.233128173828125,-0.4925912094861269,-0.3714426181077957,-0.10809665597304702
1761914499986183400,1.243183349609375,-0.3676414722591638,-0.5155675959259272,0.020996464668959377
1761914499996239400,1.2532392578125,-0.39063247174620624,-0.7665051812559366,0.09451543599665164
1761914500006295600,1.263295654296875,-0.5089128142118454,-0.957937853693962,0.04563661960251629
1761914500016350200,1.27335009765625,-0.6190186180502176,-0.9607844752967357,0.0017046850260347126
1761914500026406400,1.283406494140625,-0.9047977996587753,-0.7993868756383657,0.017717808324471115
1761914500036462300,1.29346240234375,-1.2423153518110512,-0.6214981599062681,0.09967084599845111
1761914500046517200,1.303517333984375,-1.383418351459503,-0.5298047955930233,0.14556838155947624
1761914500056573400,1.313573486328125,-1.5078326666355133,-0.3117904056996107,0.07687814556248486
1761914500066629400,1.32362939453125,-1.4967963088363407,-0.02680675838291645,0.041543322406895455
1761914500076685300,1.333685302734375,-1.3513023807525635,0.28778935238718983,-0.0021378522789105773
1761914500086740200,1.343740234375,-1.1147487100839615,0.6833049199998379,-0.11078377616517245
1761914500096796200,1.353796142578125,-0.9262409851819277,1.0586603276371955,-0.14964998831730336
1761914500106852400,1.363852294921875,-0.9766858087837695,1.315166653010249,-0.06616749432003124
1761914500116907300,1.3739072265625,-1.0176619622945784,1.41938164524436,0.04803695874251425
1761914500126963500,1.38396337890625,-0.8238648988127708,1.515550693666935,0.15505031299088148
1761914500137019400,1.394019287109375,-0.35036534328758717,1.6186790597081184,0.30222386472467333
1761914500147074600,1.404074462890625,0.1335223352611065,1.5824299347192048,0.46256453920863566
1761914500157130200,1.414130126953125,0.40527591412663455,1.395630182778835,0.7250462126642465
1761914500167186200,1.424186279296875,0.5032260007470846,1.2143792971372604,1.0328628193620593
1761914500177242400,1.434242431640625,0.4726175119936466,1.171993861350417,1.3094194876603782
1761914500187297300,1.44429736328125,0.366022346624732,1.0634925700992346,1.6036350737027822
1761914500197353500,1.454353515625,0.186703890350461,0.8932710279941558,1.841203035980463
1761914500207409400,1.464409423828125,0.021757073777914047,0.787588301295042,2.0294250758089123
1761914500217464300,1.47446435546875,-0.14239713111221788,0.7131418398588896,2.205549850608408
1761914500227520500,1.4845205078125,-0.22932313489317893,0.6313795024514198,2.3520772133931516
1761914500237576200,1.494576171875,-0.22180676791369913,0.5851648637652397,2.4043849082574247
1761914500247631400,1.50463134765625,-0.25786416972279547,0.6933212871015072,2.3625483385249972
1761914500257687300,1.514687255859375,-0.27296529274284836,0.9296230288356542,2.2327447315260764
1761914500267743200,1.5247431640625,-0.23281916031539437,1.122515252432227,2.0912451337754727
1761914500277798400,1.53479833984375,-0.23186638963520526,1.2491051580816506,1.9963681709900498
1761914500287854300,1.544854248046875,-0.2647609434992075,1.3508259954124688,1.9308403445467353
1761914500297910500,1.55491064453125,-0.26706162165701386,1.430468856447935,1.8516028494417667
1761914500307966500,1.564966552734375,-0.23075930517613885,1.4867185669362544,1.7462421943038702
1761914500318021400,1.575021484375,-0.15193769739568233,1.4915186606943607,1.6365208597384393
1761914500328077300,1.585077392578125,-0.056585226052999496,1.4641408244252203,1.506446619104594
1761914500338133200,1.59513330078125,0.027628596159815787,1.4357202011048793,1.3725316312640905
1761914500348188400,1.6051884765625,0.04187222556769848,1.3603648081302642,1.2797288444042205
1761914500358244400,1.615244384765625,0.12990356024205685,1.2383335886985063,1.1872785242438315
1761914500368300500,1.625300537109375,0.2222393141120672,1.119244267937541,1.0732498478733004
1761914500378355200,1.635355224609375,0.28599311662018295,1.0242711513012648,0.9819752934940159
1761914500388411400,1.645411376953125,0.33740006325244903,0.9268424582064151,0.9228548498749732
1761914500398467300,1.65546728515625,0.40188744073212146,0.8789385512590407,0.8707567061081528
1761914500408523300,1.665523193359375,0.45432840658724305,0.8085720526129007,0.8280590625669807
1761914500418578400,1.675578369140625,0.4309720809191465,0.7387702021121978,0.8465623952459543
1761914500428634400,1.68563427734375,0.3577905248522758,0.6532271771222352,0.8907055614203214
1761914500438690300,1.695690185546875,0.335189985987544,0.5853495726823806,0.9388651966944336
1761914500448745200,1.7057451171875,0.3304004136234522,0.5651110867738723,0.9565199497200548
1761914500458801200,1.71580126953125,0.34176235011517997,0.48600890848636624,0.9761839967414736
1761914500468857300,1.725857421875,0.37970191240906714,0.4046948993682861,0.9650888944923877
1761914500478912300,1.735912353515625,0.42650107298493384,0.32957799132466314,0.9760792211927473
1761914500488968400,1.745968505859375,0.44633390070199963,0.2687766088813543,1.0002622069433331
1761914500499024400,1.7560244140625,0.4553507353723049,0.22085224366784095,1.0102055818740279
1761914500509080300,1.766080322265625,0.4000467813014984,0.22400164760947225,1.0344991153270005
1761914500519135200,1.77613525390625,0.37706396512091156,0.23778818089962003,1.0183934914395212
1761914500529191200,1.786191162109375,0.4126397208929062,0.2407178046107292,0.998246190945804
1761914500539247400,1.796247314453125,0.5259796843469142,0.1922720458716154,1.0213651276614517
1761914500549302300,1.80630224609375,0.5685036518216133,0.14574118084311485,1.0611452763207256
1761914500559358500,1.8163583984375,0.5539911423444748,0.17347382189929483,1.092058227913454
1761914500569414400,1.826414306640625,0.544399138134718,0.17597966724038122,1.1391896161183714
1761914500579469600,1.836469482421875,0.3689320965915918,0.17596505419313907,1.169439208431542
1761914500589525500,1.846525390625,0.2379775659918785,0.18249708631038664,1.1624627935476601
1761914500599581200,1.856581298828125,0.16487725846767426,0.1584960329979658,1.1013381704993546
1761914500609636400,1.86663623046875,0.07442132699489593,0.05249123473763465,1.0209601270571351
1761914500619692300,1.8766923828125,0.03088672117292881,-0.07977613202631473,0.9771373519435524
1761914500629748200,1.886748291015625,-0.007711012768745422,-0.13201894496083258,0.9003994916345923
1761914500639804400,1.896804443359375,-0.11227087291777134,-0.106420977845788,0.7736731731891632
1761914500649859300,1.906859375,-0.32771862719357014,-0.0528203205615282,0.6586326163623482
1761914500659915500,1.91691552734375,-0.5745686509490012,0.0010813654959201812,0.588404028349556
1761914500669971500,1.926971435546875,-0.8219961823314428,0.06126958447694778,0.5151162719618528
1761914500680026400,1.9370263671875,-0.8967746522009372,-0.018083938223123548,0.5441163391379639
1761914500690082300,1.947082275390625,-0.8327917171120643,-0.2889671639949083,0.5699034356169402
1761914500700138200,1.95713818359375,-0.9535784894406795,-0.39866847868561744,0.4834917380336672
1761914500710193400,1.967193359375,-1.0347066205978392,-0.29729134022593495,0.38934626786056903
1761914500720249300,1.977249267578125,-0.8986287556350231,-0.37745851739645003,0.47193807836212215
1761914500730305500,1.987305419921875,-0.7325339380711317,-0.7289297760993242,0.6432645129691809
1761914500740361500,1.997361572265625,-0.7295721656560897,-1.0548971757113932,0.7506340237114578
1761914500750416400,2.00741650390625,-0.7706804211139678,-1.114744033908844,0.7295192664250731
1761914500760472300,2.017472412109375,-0.7352963885217905,-0.8563993871927261,0.6333599356789141
1761914500770528300,2.0275283203125,-0.6996200949847697,-0.4731798220515251,0.5289214734198525
1761914500780583400,2.03758349609375,-0.7287742932766675,-0.07153320433795451,0.43203017513733355
1761914500790639400,2.047639404296875,-0.7635638671070337,0.2604752290040254,0.32809834722615777
1761914500800695300,2.0576953125,-0.852708715981245,0.6034463703870773,0.1946627951993607
1761914500810750200,2.067750244140625,-0.996497009190917,0.9275374547332524,0.0553788824705407
1761914500820806100,2.07780615234375,-1.1351181288957595,1.160210484576225,-0.10410273663182742
1761914500830862300,2.0878623046875,-1.2409019778817891,1.2826906168192624,-0.24849499621717258
1761914500840918300,2.097918212890625,-1.2692846072793007,1.3051596382588146,-0.38529089152254165
1761914500850973400,2.107973388671875,-1.2018991702705621,1.2561100684076547,-0.48966834430936723
1761914500861029400,2.118029296875,-1.0058172107219696,1.1764707145035267,-0.5457211074534803
1761914500871085300,2.128085205078125,-0.8601596165090799,1.0509598362624644,-0.5228169825322926
1761914500881140500,2.138140380859375,-0.7537187649190425,0.8728490022122859,-0.4478854409929365
1761914500891196200,2.148196044921875,-0.6173696817994118,0.6402554673463106,-0.3654952540107071
1761914500901251600,2.15825146484375,-0.4800643208682537,0.40104163755774497,-0.2876546931568533
1761914500911306500,2.168306396484375,-0.24701485892832278,0.14323708906769753,-0.19791967810345812
1761914500921362700,2.17836279296875,-0.10464929199814796,-0.08238485321998595,-0.14650317819155753
1761914500931418600,2.188418701171875,-0.21061375824809073,-0.17556231861114502,-0.14669771438296883
1761914500941474600,2.198474609375,-0.3718213882923126,-0.14985446138083933,-0.17334358311574904
1761914500951529700,2.20852978515625,-0.5550543876618147,-0.002691138780117035,-0.24332108244430273
1761914500961585700,2.218585693359375,-0.6697159551084041,0.22716157294511793,-0.347566725545004
1761914500971641600,2.2286416015625,-0.5679927796900271,0.42126141876578327,-0.511547327433899
1761914500981696500,2.238696533203125,-0.3656353931337595,0.5276338812947273,-0.6734863404925913
1761914500991752700,2.248752685546875,-0.21468203060030935,0.5805927335441112,-0.7551129957564174
1761914501001808600,2.25880859375,-0.026294717207551,0.6106196230173111,-0.821617485212162
1761914501011863800,2.26886376953125,0.2296644956767559,0.6354810925513505,-0.8827847052931785
1761914501021919700,2.278919677734375,0.48417409427464003,0.5936714108258485,-0.8923137272693217
1761914501031975700,2.2889755859375,0.6471335364222526,0.47119887736737726,-0.8267140046335756
1761914501042031600,2.299031494140625,0.7180605915606021,0.3009294044673443,-0.7024910473112016
1761914501052086500,2.30908642578125,0.7650193266123533,0.07490823372900486,-0.5268726511312648
1761914501062142700,2.319142822265625,0.8324550325036049,-0.09094283820688724,-0.38957850571386515
1761914501072198700,2.32919873046875,0.8547147951066494,-0.15589315702319145,-0.30942133848071096
1761914501082253600,2.339253662109375,0.866101281517744,-0.1384574535757303,-0.2407061872381717
1761914501092309800,2.349309814453125,0.8127309258580208,-0.12306523865461348,-0.1503101601259317
1761914501102365700,2.35936572265625,0.706346772891283,-0.07622866867780685,-0.06726599361384288
1761914501112420600,2.369420654296875,0.6074637893348932,0.007047580423951149,-0.028227260739286428
1761914501122476500,2.3794765625,0.5875058739334345,0.12389350617229938,-0.005064055623649619
1761914501132532500,2.389532470703125,0.6180734461545944,0.2079886704415083,0.003681960465351585
1761914501142588700,2.399588623046875,0.6662859806597232,0.2772422394096851,-0.03413293655253947
1761914501152643600,2.4096435546875,0.7710545151233673,0.3229834153652191,-0.0678266734036384
1761914501162699800,2.41969970703125,0.8800298536270856,0.35032150414586066,-0.12040553619237616
1761914501172755700,2.429755615234375,0.9711018711715936,0.3699041564941406,-0.2042703440381214
1761914501182810600,2.439810546875,1.0914169343352318,0.35495617820918557,-0.2895130161083303
1761914501192866600,2.449866455078125,1.2043114921092986,0.3181616942971945,-0.35647962491679935
1761914501202922500,2.459922607421875,1.2752414698570966,0.20745383291244507,-0.407606402900815
1761914501212977700,2.469977783203125,1.2793500742197037,0.05801496659517288,-0.4487819149086252
1761914501223033600,2.48003369140625,1.2539829932510853,-0.13817863663434982,-0.41973998135216534
1761914501233089800,2.49008984375,1.2811030553668736,-0.40301206084787844,-0.3371292104218155
1761914501243145700,2.500145751953125,1.2852759571373462,-0.6768278329402208,-0.2402302037568763
1761914501253200600,2.51020068359375,1.1752473101884127,-0.8928834899812936,-0.20824485542597249
1761914501263256600,2.520256591796875,0.9719541040867566,-1.0285802466720342,-0.17760609939843416
1761914501273312500,2.5303125,0.8088286577224731,-1.1354615355059503,-0.1652812361586839
1761914501283367700,2.54036767578125,0.6989432186365128,-1.2000693244948983,-0.13023892967626452
1761914501293423600,2.550423583984375,0.6234831962436437,-1.2502940756052732,-0.07435184195525944
1761914501303479600,2.5604794921875,0.5452063628643751,-1.2858558028519154,-0.03716561877932399
1761914501313534700,2.57053466796875,0.45772272520065305,-1.252151978431642,-0.012564736410230398
1761914501323590700,2.580590576171875,0.34877544374763964,-1.1598539262235164,-0.015990619205683468
1761914501333646600,2.590646484375,0.18767244312167167,-1.1046800282731652,-0.03738159961756318
1761914501343702500,2.60070263671875,0.08457973291575908,-1.0634791260957717,-0.055799044111371036
1761914501353757700,2.6107578125,-0.023484335961937903,-0.99508334300071,-0.07106755958758294
1761914501363813600,2.620813720703125,-0.0788368053495884,-0.8830471556216478,-0.11371749152950941
1761914501373869600,2.63086962890625,-0.10730828207433223,-0.7554732073709368,-0.18698760266266762
1761914501383924700,2.6409248046875,-0.16099954025149343,-0.5889712703108787,-0.2929874324869364
1761914501393980700,2.650980712890625,-0.2261345679849386,-0.4561155822649598,-0.4083963842347264
1761914501404036900,2.661036865234375,-0.2662567350149154,-0.38970600455105303,-0.5141888183860108
1761914501414091500,2.671091552734375,-0.3014163112014532,-0.46629824584424495,-0.5762211673963815
1761914501424147700,2.681147705078125,-0.18308979150652885,-0.772836137843132,-0.5012844382252544
1761914501434203600,2.69120361328125,-0.17312603137493132,-1.0640502039819955,-0.35646928618587553
1761914501444259600,2.701259521484375,-0.3745522745609283,-1.2756409905686974,-0.1811290493601933
1761914501454314800,2.711314697265625,-0.49120647712945936,-1.5996593019396066,0.1311394587125629
1761914501464370700,2.72137060546875,-0.533570870128274,-1.9616098690807817,0.4265975556293502
1761914501474426600,2.731426513671875,-0.8214519924521446,-2.0520278066307305,0.5509921797242016
1761914501484481500,2.7414814453125,-1.2165297531694172,-1.773667376846075,0.628073958100006
1761914501494537500,2.751537353515625,-1.5174796159029007,-1.3836328709930181,0.8104838775835931
1761914501504593700,2.76159375,-1.7095891646891832,-1.1312614534676075,1.1155343075037
1761914501514648600,2.771648681640625,-1.7708073112398386,-0.9026467591047287,1.3436945360973476
1761914501524704800,2.781704833984375,-1.8602438365370033,-0.40916356921494007,1.2842346313908695
1761914501534760700,2.7917607421875,-1.8487258327007292,0.31123510990440845,1.062678696433082
1761914501544816600,2.801816650390625,-1.5621949559420347,0.9068938951551914,0.8813480966188013
1761914501554871600,2.81187158203125,-0.9764531690716743,1.3347779469311236,0.7177078326001763
1761914501564927500,2.821927490234375,-0.1470622003138065,1.521296251581609,0.6191377143852412
1761914501574983700,2.831983642578125,0.7504694077342748,1.5000889206409453,0.5875986667834222
1761914501585038600,2.84203857421875,1.3550059114456177,1.3743120849400758,0.6770224056642502
1761914501595094800,2.8520947265625,1.3797639206051826,1.1976315759539604,1.0077550469167529
1761914501605150700,2.862150634765625,1.29685065959692,1.0424930366903542,1.4243557803951203
1761914501615206700,2.87220654296875,1.295755850097537,0.8307569964140653,1.8539685556598007
1761914501625261600,2.882261474609375,1.2281553090333939,0.5877841063529252,2.2939314600251612
1761914501635317500,2.8923173828125,1.169811841136217,0.278148832860589,2.7117221339404582
1761914501645373700,2.902373779296875,1.0831289984613657,-0.0638107933923602,2.995598696798086
1761914501655428600,2.9124287109375,0.8678466638803481,-0.23732874669432638,3.0808710881531236
1761914501665484500,2.922484619140625,0.5478513244152069,-0.1559603770405054,3.0080966515824197
1761914501675540700,2.932540771484375,0.423455129417777,0.1513353475883603,2.7941765452653167
1761914501685595600,2.942595703125,0.4977209735900163,0.5631166980862617,2.4604040248602628
1761914501695651600,2.952651611328125,0.532358571729064,0.8838546726122498,2.092546279501915
1761914501705707500,2.96270751953125,0.5662491508930921,1.204180266945064,1.7302679417110978
1761914501715763500,2.972763427734375,0.6474561925053596,1.5101640321925283,1.4218442359656094
1761914501725818600,2.982818603515625,0.7542033335655928,1.7393258390441535,1.2285707579664886
1761914501735874600,2.99287451171875,0.8831412636458873,1.8087138480469585,1.1067100727960466
1761914501745930800,3.0029306640625,1.0184095657914876,1.7376292642593383,1.0189052403539418
1761914501755985700,3.012985595703125,1.016739586752653,1.5985554323509334,0.9554781855821609
1761914501766041900,3.023041748046875,0.9584925649672746,1.4868074142634868,0.9197079301513731
1761914501776097500,3.03309765625,0.9205833978116512,1.4681985753834246,0.9013770314298569
1761914501786152700,3.043152587890625,0.8604770118951797,1.4550149764224887,0.904361015676707
1761914501796208600,3.053208740234375,0.7532078927874565,1.3269167120367287,0.9204203162044287
1761914501806264600,3.0632646484375,0.6004793372750282,1.09339729449749,0.9337652432069182
1761914501816320800,3.07332080078125,0.45875615990161894,0.8453817340940236,0.9132847652360796
1761914501826375700,3.083375732421875,0.4218038550794124,0.6959776468291878,0.8314581304207443
1761914501836431600,3.093431640625,0.32325930969715116,0.5976484977632761,0.6527601441323757
1761914501846487800,3.10348779296875,0.11321662933528423,0.5559262020602822,0.45318186690062284
1761914501856542500,3.11354248046875,-0.17849369588792324,0.6673743604183197,0.26861615762263535
1761914501866598700,3.1235986328125,-0.5375064560115337,0.6926055400475859,0.18931670319736002
1761914501876654600,3.133654541015625,-0.7119897472143173,0.6785793527826667,0.14692571445256472
1761914501886709800,3.143709716796875,-0.819705441045761,0.7341901808455586,-0.025035364796221257
1761914501896765700,3.153765625,-0.9176485134035348,0.7623992072418332,-0.2554696758016944
1761914501906822400,3.163822509765625,-0.9879711729079484,0.7407455938383937,-0.4583367654457688
1761914501916878300,3.17387841796875,-0.9615566287130117,0.6999968193426728,-0.6462719511568545
1761914501926933500,3.18393359375,-0.8410650399386882,0.6291106807366014,-0.8029328776821494
1761914501936989400,3.193989501953125,-0.6944575976550579,0.5343287027582526,-0.9439771328806876
1761914501947045600,3.204045654296875,-0.5571633426398038,0.4921811673805117,-1.0607491166099905
1761914501957100300,3.214100341796875,-0.5921726967006922,0.5252367570251226,-1.1616308727681637
1761914501967156500,3.224156494140625,-0.5574748928070068,0.5020537420973181,-1.2374930462211369
1761914501977212400,3.23421240234375,-0.48147652575373645,0.4295233434155583,-1.320375619830191
1761914501987268400,3.244268310546875,-0.4715934296429157,0.3181549722954631,-1.3532403630778194
1761914501997323500,3.254323486328125,-0.41972003454267975,0.1869461746737361,-1.335211662173271
1761914502007379500,3.26437939453125,-0.43263913734853265,0.06377163042575121,-1.3065531384438276
1761914502017435600,3.274435546875,-0.45184944925308224,-0.18331074078083037,-1.1945154897600412
1761914502027490300,3.284490234375,-0.30787527808248993,-0.5945271508723498,-1.0106552984029054
1761914502037546500,3.29454638671875,-0.3174041539281606,-0.898323050686717,-0.8620642810866236
1761914502047602400,3.3046025390625,-0.4959212306916713,-0.9261176510632038,-0.7456962019830942
1761914502057657600,3.31465771484375,-0.4810924948722124,-0.9157742439642548,-0.5647676801636815
1761914502067713500,3.324713623046875,-0.2373492049604654,-1.0635597901165486,-0.33192250862419603
1761914502077769500,3.33476953125,-0.20638649594187736,-1.2025383449569345,-0.12451836007237434
1761914502087825700,3.34482568359375,-0.3338964390456676,-1.1476938250914215,-0.029280455020070074
1761914502097880300,3.35488037109375,-0.2709405089169741,-0.8312281210571527,-0.03880436242967844
1761914502107936300,3.364936279296875,-0.10042495230138301,-0.42026685477048153,-0.0588940875172615
1761914502117992400,3.374992431640625,0.014977204379439352,-0.03774520876556635,-0.048129532396793365
1761914502128047400,3.38504736328125,0.15701836166083813,0.1857782999381423,-0.039698973181843754
1761914502138103600,3.395103515625,0.23449966074824333,0.2643316121712327,-0.0467032989859581
1761914502148159500,3.405159423828125,0.20746727691590786,0.2818772057339549,-0.09747866971641779
1761914502158215400,3.41521533203125,0.06929214741289615,0.3062576137527823,-0.1544286374285817
1761914502168270600,3.4252705078125,-0.007674187889695167,0.27688392749130725,-0.2108262319549918
1761914502178326300,3.435326171875,0.017597031489014623,0.20922873363047836,-0.2813905912607908
1761914502188382500,3.445382568359375,-0.054987143206596374,0.22652853573858736,-0.3618859774723649
1761914502198437400,3.455437255859375,-0.32793080863952634,0.27869243821799755,-0.395217169187963
1761914502208493600,3.46549365234375,-0.4672685521811247,0.26772973017692564,-0.3267605958163738
1761914502218549500,3.475549560546875,-0.4956494280129671,0.2455211132392287,-0.2271443295493722
1761914502228604700,3.485604736328125,-0.6751011552780867,0.21688217099308965,-0.11545417912900448
1761914502238660600,3.49566064453125,-0.8942384117215871,0.045183542072772975,0.0753007401779294
1761914502248716500,3.505716552734375,-0.9014403059244155,-0.258847920063138,0.2899696190357208
1761914502258772500,3.5157724609375,-0.7961264125376939,-0.44434594175517556,0.37200083651244636
1761914502268827400,3.525827392578125,-0.6832540665954351,-0.40379941183328627,0.271011528326571
1761914502278883600,3.535883544921875,-0.6736012721091509,-0.16631810492575166,0.01968450528755784
1761914502288939500,3.545939453125,-0.7993442055404186,0.12763707661479712,-0.26066549087911844
1761914502298994400,3.555994384765625,-0.6285071618854999,0.40306817494928837,-0.5773069898717105
1761914502309050600,3.566050537109375,-0.27824410992860793,0.60972647356987,-0.9025833384796976
1761914502319106600,3.5761064453125,0.1544482189118862,0.713797381158173,-1.1494726713322103
1761914502329161500,3.586161376953125,0.469420177257061,0.6820236480176448,-1.2921218775093555
1761914502339217400,3.596217529296875,0.7369131760686636,0.5366688361436128,-1.3279564303480087
1761914502349273300,3.6062734375,0.9030237757235765,0.3686410046905279,-1.2319665378846227
1761914502359329500,3.61632958984375,0.9507640165418386,0.18744681767225263,-1.0346563517153262
1761914502369384400,3.626384521484375,1.0490969650000332,-0.0763087481766939,-0.8187130690075457
1761914502379440600,3.636440673828125,1.1121575245469808,-0.38278555763810873,-0.5934928393885492
1761914502389496600,3.64649658203125,1.0419015005379915,-0.6524073851719498,-0.4113490965604782
1761914502399551500,3.656551513671875,1.1049930397450922,-0.7958642544701695,-0.3943538303568959
1761914502409607400,3.666607421875,1.0652134025424718,-0.8253688736349344,-0.4189560644328594
1761914502419663400,3.676663330078125,0.7619611080855131,-0.7407935246333479,-0.42117958570122715
1761914502429719600,3.686719482421875,0.5657055455356836,-0.5178744115635753,-0.3913523104533553
1761914502439774500,3.6967744140625,0.5298287609905005,-0.27704876266419887,-0.31050591884702444
1761914502449830700,3.70683056640625,0.6804279032588004,-0.18158786251097916,-0.2481532153084874
1761914502459886600,3.716886474609375,0.9273696969509124,-0.2603475109711289,-0.18596447016000747
1761914502469941500,3.72694140625,1.0077063854694366,-0.43432752882689235,-0.09477584049850701
1761914502479997400,3.73699755859375,0.9137930070191621,-0.6136793028488755,0.054476855596899985
1761914502490053400,3.747053466796875,0.8856769196033477,-0.7396829330429434,0.1738286266863346
1761914502500109300,3.757109375,0.9582833061307668,-0.7111784308314323,0.1989560536801815
1761914502510164500,3.76716455078125,1.0874667354047298,-0.5988020517125725,0.15262509513795375
1761914502520220400,3.777220458984375,1.2054103932619094,-0.5092936302229761,0.028939386497437953
1761914502530276600,3.787276611328125,1.332899293577671,-0.46297085498720403,-0.09834142402559518
1761914502540331300,3.797331298828125,1.3999170663177967,-0.47944180505573747,-0.21291209831833838
1761914502550387500,3.807387451171875,1.3938491445809602,-0.5346940289393067,-0.2373693709656596
1761914502560443400,3.817443359375,1.2493933273732662,-0.642518736103177,-0.149843939986825
1761914502570498600,3.82749853515625,1.104694933581352,-0.7649880546912551,-0.08965835135430097
1761914502580554500,3.837554443359375,1.0239110858172178,-0.9140525347381829,-0.07237345455437898
1761914502590610400,3.8476103515625,0.9842863469153642,-1.0927104812771082,0.009346505016088484
1761914502600666600,3.85766650390625,0.899938084667921,-1.3308359313070772,0.14707535205632447
1761914502610721500,3.867721435546875,0.8425666766732931,-1.4852520015150308,0.21758622760921714
1761914502620777500,3.877777587890625,0.688601272842288,-1.4852899954378604,0.22606121048778294
1761914502630833400,3.88783349609375,0.34228199007511134,-1.396320503130555,0.19118191254734992
1761914502640888600,3.897888671875,0.03869242648780346,-1.2058394323289394,0.08789221846461295
1761914502650944500,3.907944580078125,-0.03418751628398895,-0.9548229365438222,-0.10344254655689
1761914502661000400,3.91800048828125,-0.17017185774445534,-0.7595014399737119,-0.3224292886137962
1761914502671056400,3.928056396484375,-0.42583939420580863,-0.6598498101323843,-0.4703215100109577
1761914502681111600,3.938111572265625,-0.5905927340328693,-0.6125213649854063,-0.5899103047266602
1761914502691167500,3.94816748046875,-0.6829997995734214,-0.5237853891730309,-0.7275821608826518
1761914502701223400,3.958223388671875,-0.8177221582740545,-0.47222354423999785,-0.8963196019098162
1761914502711278300,3.9682783203125,-0.8444061670601367,-0.5667945098161697,-1.0730810671776532
1761914502721334500,3.97833447265625,-0.8292670501172542,-0.8347317452639341,-1.2225702023774385
1761914502731390500,3.988390380859375,-1.0606722519814968,-0.974743442544341,-1.3787173341616987
1761914502741446400,3.9984462890625,-1.5823983705371618,-1.0281026922881602,-1.4958718874678014
1761914502751501600,4.00850146484375,-1.917140612757206,-1.1992103695780039,-1.4118591407850385
1761914502761557500,4.0185576171875,-2.183592578083277,-1.4239531909435987,-1.1690344270229338
1761914502771613400,4.028613525390625,-2.5361475403696296,-1.5162489050641654,-0.9492740702450275
1761914502781668400,4.03866845703125,-2.66712662088871,-1.4084659912154078,-0.7560542221292853
1761914502791724500,4.048724609375,-2.6986224138706922,-1.1715469943657517,-0.5454299424871802
1761914502801780500,4.058780517578125,-2.846584777894616,-0.9600698972865939,-0.25958091051280496
1761914502811835600,4.068835693359375,-2.885879846450686,-0.7818722617357969,0.0008322130404412746
1761914502821891600,4.0788916015625,-2.61218331682384,-0.4671218371868133,0.10055836942270398
1761914502831947500,4.088947509765625,-2.1037030488103627,-0.041593993148207664,0.07372399238049984
1761914502842003500,4.09900341796875,-1.3897569068312645,0.26907851443737746,0.0006437047310173511
1761914502852058400,4.109058349609375,-0.6850228298336267,0.46666006489396095,-0.08043021202087401
1761914502862114300,4.1191142578125,-0.19604279658198356,0.6934834919258952,-0.16234028733596204
1761914502872170500,4.12917041015625,0.03325345030426979,1.0296060825884341,-0.13938596659749747
1761914502882225400,4.139225341796875,0.13124620702266693,1.3267641518235205,0.006549129382520913
1761914502892281600,4.149281494140625,0.262887550842762,1.4031050487041472,0.25215295246914027
1761914502902337000,4.1593369140625,0.5079290638715028,1.349283442145586,0.561421730736643
1761914502912393200,4.169393310546875,0.8087409794390201,1.2415583959639072,0.8403419863611459
1761914502922448100,4.1794482421875,1.0278647918790578,1.0995219148576258,1.058043218652159
1761914502932504000,4.189504150390625,1.1247522177040576,0.950628991985321,1.2304627091929317
1761914502942560300,4.199560302734375,1.1921879235953092,0.7656757446944713,1.3792191462039947
1761914502952615000,4.209614990234375,1.231890403908491,0.6575590688467026,1.5111859225861728
1761914502962671000,4.219671142578125,1.202570785921812,0.6782260093003512,1.5744237383961677
1761914502972727000,4.22972705078125,1.1624164701879023,0.7733902645945548,1.5281540085218845
1761914502982783000,4.239782958984375,1.1672849530071019,0.8505050684571266,1.4245907581947743
1761914502992838100,4.249838134765625,1.3237024261653423,0.913543416172266,1.2766314629107713
1761914503002894000,4.25989404296875,1.5105518624663352,0.9126964439541101,1.1132485346540808
1761914503012950300,4.2699501953125,1.6294938837110995,0.8569745567321777,0.9658495036013424
1761914503023005000,4.2800048828125,1.6502163537442682,0.7315776602596044,0.8304942538246511
1761914503033061000,4.29006103515625,1.5761176828324794,0.5619967541456222,0.7257033613987267
1761914503043117000,4.300116943359375,1.450461843162775,0.4050467815458774,0.6120763976968825
1761914503053173000,4.310173095703125,1.2439859153717756,0.3306184402883053,0.5119365459471941
1761914503063228200,4.320228271484375,0.8961649958699941,0.2809375867962837,0.48195714887753127
1761914503073284000,4.3302841796875,0.618022008228302,0.19983868173360825,0.4558141151003539
1761914503083340300,4.34034033203125,0.5483493370652198,0.11474047790169715,0.4165966418251395
1761914503093395000,4.35039501953125,0.5109130481183528,0.017191957819461822,0.36846725555881854
1761914503103451100,4.360451171875,0.3646498892277479,-0.0650806671977043,0.3362086615107953
1761914503113507000,4.370507080078125,0.14075579364597796,-0.11726152081191539,0.3325912016659975
1761914503123562000,4.38056201171875,-0.03475508703887462,-0.13683832794129847,0.3174677206836641
1761914503133618200,4.3906181640625,-0.02237199080586433,-0.025275311031937597,0.22725261222943663
1761914503143674000,4.400674072265625,0.0547287845313549,0.18304478332102297,0.08946633591353893
1761914503153730000,4.41072998046875,0.03961304846405983,0.28057810583412646,0.028129239158332348
1761914503163785200,4.42078515625,-0.170670454916358,0.2150286520808935,0.11825754611194134
1761914503173841000,4.4308408203125,-0.6448620843589306,0.19563830743432045,0.2794941099897027
1761914503183897000,4.44089697265625,-0.7254711600780487,0.41420448599159715,0.2170594272561371
1761914503193952000,4.450951904296875,-0.4605044648736715,0.44097792662680146,-0.09929799409806728
1761914503204008200,4.46100830078125,-0.33797464827001095,0.28883915370106694,-0.45319428799077865
1761914503214064000,4.471064208984375,-0.21056465840935706,0.3130179016679525,-0.7633762355804443
1761914503224120000,4.4811201171875,0.11912322303056716,0.4236836774766445,-0.9681216863170266
1761914503234175200,4.49117529296875,0.2665817291855812,0.5168611428678035,-1.0487494667366146
1761914503244231000,4.50123095703125,0.07629296608567238,0.5623334387540817,-0.9025421296864747
1761914503254287000,4.511287109375,0.05664776989519596,0.48667175630927084,-0.62556964712888
1761914503264342000,4.521342041015625,0.3053413756906986,0.32829321221113206,-0.37304143160656095
1761914503274398200,4.531398193359375,0.4233732963532209,0.09462064993679523,-0.19805508625246585
1761914503284454100,4.5414541015625,0.45640287477374075,-0.15040741908848285,-0.06644691404961049
1761914503294510000,4.551510009765625,0.5277905331611633,-0.26200609183311463,-0.05032675018012523
1761914503304565200,4.561565185546875,0.5007476279348134,-0.21388006656765937,-0.14995244186259804
1761914503314621200,4.57162109375,0.445406264463067,-0.14385902035832404,-0.16238354195579885
1761914503324676900,4.5816767578125,0.47360769207477565,-0.12109364632070063,-0.09586100538671016
1761914503334732000,4.59173193359375,0.40882513104081153,-0.08489888186752796,-0.10817162090539932
1761914503344788000,4.6017880859375,0.35073885277509687,-0.01848608928322792,-0.15657565939463675
1761914503354847200,4.61184716796875,0.48315936427414413,0.01293254680931568,-0.4264106182225048
1761914503364902100,4.621902099609375,0.6372592081397771,0.04906301385462284,-0.5168471143424511
1761914503374958000,4.6319580078125,0.860731863439083,-0.05546119045913219,-0.5138286433041095
1761914503385014000,4.642013916015625,1.023826914665103,-0.22650690842866897,-0.4170929009094834
1761914503395070000,4.652070068359375,0.9896715470850467,-0.4135129965960979,-0.21773995686620473
1761914503405125000,4.662125,0.98770696901381,-0.9303554347634315,0.14391016602367163
1761914503415181000,4.67218115234375,1.047114851272106,-1.527113705688715,0.6022488311655819
1761914503425237200,4.6822373046875,0.7650853775858879,-1.6242349402695893,0.7566357483442873
1761914503435292000,4.6922919921875,0.34367782834768296,-1.2986311132729054,0.6699344932299107
1761914503445348000,4.70234814453125,0.27626959498524667,-1.1846885077506304,0.7211423370935023
1761914503455404000,4.712404052734375,0.4094441397219896,-1.1726286521226168,0.8534388568866997
1761914503465460000,4.7224599609375,0.3243985428601503,-0.9151391609311104,0.8403062574606388
1761914503475515100,4.73251513671875,0.05087152458131313,-0.3825876969784498,0.6847358295857906
1761914503485571000,4.742571044921875,-0.1942155811548233,0.22197101856470106,0.43325135096274314
1761914503495627300,4.752627197265625,-0.3613824118643999,0.6322773280739784,0.22335597011707722
1761914503505682000,4.762681884765625,-0.48078328279256816,0.7281909404307604,0.07708148611485957
1761914503515738000,4.772738037109375,-0.6803004774868487,0.6876508402496576,-0.11277750726565718
1761914503525794000,4.7827939453125,-1.060183007159829,0.6740507694423198,-0.32730230147764083
1761914503535850000,4.79285009765625,-1.2889444165170192,0.6813058551371097,-0.4980648185916245
1761914503545905200,4.8029052734375,-1.3839607877731321,0.6486433564633131,-0.6036803983386606
1761914503555961000,4.812961181640625,-1.119753386503458,0.5412392127990723,-0.7058291056927293
1761914503566017000,4.82301708984375,-0.7779314151555299,0.4658469949454069,-0.8887032086219638
1761914503576072200,4.833072265625,-0.5835720416158438,0.42108781576454635,-1.1089683000516146
1761914503586128000,4.8431279296875,-0.4684884493649006,0.33072014709711073,-1.1924782117787749
1761914503596184000,4.85318408203125,-0.5428665217399596,0.177097273093462,-1.1032822172392158
1761914503606239000,4.863239013671875,-0.7202408582091331,0.025185294660925863,-0.9520136512767523
1761914503616295200,4.873295166015625,-0.8272638936012983,-0.06736264065504073,-0.8711790962386876
1761914503626351000,4.88335107421875,-0.7692781531006098,-0.070588616964221,-0.9081473292823881
1761914503636407000,4.893406982421875,-0.5604191295653581,-0.04743044421672821,-1.046985233543068
1761914503646462200,4.903462158203125,-0.3300701587557792,0.005398644173145294,-1.2585041239373385
1761914503656518100,4.91351806640625,-0.09974690690934658,0.10127601617276669,-1.4348358194857835
1761914503666574000,4.923573974609375,0.1342974112868309,0.2082236482411623,-1.539108240995556
1761914503676629000,4.93362890625,0.47361236824989317,0.29129648372530936,-1.589805724184215
1761914503686685200,4.943685302734375,0.795130387237668,0.3320247999548912,-1.5924484937779604
1761914503696741000,4.9537412109375,1.0047446130543947,0.28444004195928574,-1.5188874368742107
1761914503706797000,4.963797119140625,1.2019324880182742,0.1354091719210148,-1.3914346307851373
1761914503716852200,4.973852294921875,1.3353764973461628,-0.013261048111319541,-1.2706478584565222
1761914503726908200,4.983908203125,1.4035504543840884,-0.13796060996949672,-1.1195838020902127
1761914503736964000,4.993964111328125,1.3949609052151442,-0.24236615633964537,-0.9869345233365893
1761914503747020000,5.00402001953125,1.3123083409696816,-0.2853518961071968,-0.8970639174710958
1761914503757075000,5.014074951171875,1.2015782677531242,-0.3183744602650404,-0.7766554769355803
1761914503767131100,5.024131103515625,1.1727245137125253,-0.406237452635169,-0.6183077663671225
1761914503777187000,5.03418701171875,1.214245441624522,-0.3959644804239273,-0.5308088580690324
1761914503787242200,5.0442421875,1.2313584889888762,-0.24358663804531097,-0.5087876534622162
1761914503797298200,5.054298095703125,1.2970850528746842,-0.1557300754159689,-0.49940958426408466
1761914503807354000,5.06435400390625,1.4298369882851838,-0.11969839257001876,-0.451914185052365
1761914503817409000,5.074408935546875,1.5165151547849178,-0.09185703044235706,-0.3830697083417326
1761914503827465000,5.08446484375,1.5538666880577803,-0.08722235637903213,-0.3410582934990525
1761914503837521200,5.094521240234375,1.5221341637104748,-0.1138537581950426,-0.3587085164800286
1761914503847577000,5.1045771484375,1.3841133479863403,-0.19882687434256074,-0.3199704972848296
1761914503857632300,5.11463232421875,1.3195388767451046,-0.27171500042080876,-0.2709217311512679
1761914503867688200,5.124688232421875,1.2466928362429142,-0.2624631879508495,-0.2734570948477834
1761914503877744000,5.134744140625,1.1023130068808793,-0.19808336249887942,-0.3023758038833737
1761914503887799000,5.144799072265625,0.9034721040129661,-0.09735153620541095,-0.33702019708938896
1761914503897855000,5.15485498046875,0.8107190015137196,-0.04487549903690815,-0.36855544529892503
1761914503907911700,5.16491162109375,0.7862246117264032,-0.10069441689252853,-0.32653182856179774
1761914503917968000,5.1749677734375,0.813237706336379,-0.24983050087094305,-0.2054361364144832
1761914503928022800,5.185022705078125,0.9245844501465559,-0.5226859034985304,-0.040837037301063535
1761914503938079000,5.195078857421875,0.8832073146194219,-0.8391822949320077,0.14580862005613743
1761914503948134700,5.205134765625,0.5060948341816663,-0.9619687166452408,0.328372926383838
1761914503958189800,5.21518994140625,-0.2026508165448904,-0.905643018311262,0.5346568387340754
1761914503968245800,5.225245849609375,-0.7707634232223033,-0.8131167103052139,0.7392785169605165
1761914503978301700,5.2353017578125,-0.8857494003176689,-0.6042886664301157,0.8138225204870104
1761914503988358000,5.24535791015625,-0.7054150449991226,-0.36419922285079953,0.7201433891840279
1761914503998412800,5.255412841796875,-0.07727846999168396,-0.5288847581386565,0.8049930250823497
1761914504008469000,5.265468994140625,0.5556891784340143,-1.1239765571564435,1.1103516441687942
1761914504018525000,5.27552490234375,0.2984977934062481,-1.4653811798751353,1.2727823862671852
1761914504028579600,5.28557958984375,-0.4012754463136196,-1.5183400321245193,1.5065867582276462
1761914504038635800,5.2956357421875,-0.6985761388897895,-1.769001138600707,1.9035205220751463
1761914504048691700,5.305691650390625,-1.1213397789120674,-2.0862638382315635,2.241360876441002
1761914504058747600,5.31574755859375,-1.6117933918476104,-2.0734119554430244,2.393431260305643
1761914504068802800,5.325802734375,-1.8745277979552746,-1.7508499803602695,2.325054766432941
1761914504078858800,5.335858642578125,-1.8527479278236627,-1.2701672353327274,2.100511559292674
1761914504088915000,5.3459150390625,-1.8574328707695007,-0.8040490222305059,1.8868746538311243
1761914504098969600,5.355969482421875,-1.699676842483878,-0.3992535850971937,1.6235582100518047
1761914504109025800,5.36602587890625,-1.222097324168682,-0.07183540215492248,1.2615839697740971
1761914504119081700,5.376081787109375,-0.8423100715637206,0.205016376632452,0.8807882707789539
1761914504129137700,5.3861376953125,-0.6646686085909604,0.4026782988488674,0.562059042259492
1761914504139192800,5.39619287109375,-0.5990899287432432,0.3786322373509407,0.45168118001408875
1761914504149248800,5.406248779296875,-0.6502011072993278,0.17531097419857977,0.5702576924147084
1761914504159305000,5.416304931640625,-0.7973240978896617,-0.16039689818322658,0.8143912602856754
1761914504169359600,5.426359619140625,-0.8492904319703578,-0.5032318459659815,0.9227586960241198
1761914504179415800,5.436415771484375,-1.061026472246647,-0.736270786511898,0.9000520664364099
1761914504189471700,5.4464716796875,-1.5080074386805296,-0.8235580248206853,0.8316902586761862
1761914504199527700,5.456527587890625,-1.681589981651306,-0.7314718617975712,0.7651711561731994
1761914504209582800,5.466582763671875,-1.4925912583619356,-0.49746612204611296,0.592716411655955
1761914504219638800,5.476638671875,-1.1791402259737251,-0.1433282744824886,0.2922926916884258
1761914504229694700,5.48669482421875,-0.739724726358056,0.26117314814031123,-0.0034784167002886533
1761914504239749600,5.49674951171875,-0.1857832683742046,0.6118254916757345,-0.2933605035830289
1761914504249805600,5.5068056640625,0.23348726883530616,0.8425807051986456,-0.509091166453436
1761914504259861800,5.51686181640625,0.4521738589018583,0.9662380645275115,-0.6187970842540264
1761914504269916700,5.526916748046875,0.5238707293689251,1.0636083054333925,-0.5754796283140778
1761914504279972900,5.536972900390625,0.6572907732993364,1.0678700545310973,-0.4633789973966777
1761914504290028800,5.54702880859375,1.0770224982798098,0.9737041626244782,-0.3800116359453648
1761914504300084700,5.557084716796875,1.4667752645820378,0.878037218505144,-0.31069376956932243
1761914504310139600,5.5671396484375,1.6316040077328682,0.8251485088825226,-0.27540596389323474
1761914504320195600,5.577195556640625,1.7921335923850534,0.8161258289933204,-0.23882468434050677
1761914504330251800,5.587251708984375,1.9898867000162601,0.8968091389924288,-0.16866466805189848
1761914504340306700,5.597306640625,2.114471111062169,0.9204477887332438,-0.04787321954816579
1761914504350363000,5.60736279296875,2.271991577026248,0.8477180680871009,0.14025544290840625
1761914504360418800,5.617418701171875,2.4578292059361933,0.787795222043991,0.288751475417614
1761914504370474800,5.627474853515625,2.4342700511723754,0.6922977892726659,0.414192649423331
1761914504380530000,5.637530029296875,2.17176243955791,0.4974339733421802,0.5220604650765657
1761914504390585600,5.647585693359375,1.8376660940259695,0.32787118740677834,0.5872321715585888
1761914504400641800,5.657641845703125,1.4043816445112227,0.2596802792340517,0.5516701520510018
1761914504410696700,5.66769677734375,0.9990466936737299,0.2667377965301275,0.4021092667892575
1761914504420752600,5.677752685546875,0.7659680056393146,0.36075171274542805,0.16911913382112978
1761914504430808800,5.687808837890625,0.49547816309928894,0.5092606047362089,-0.05833338489457965
1761914504440864800,5.69786474609375,0.10819967795610427,0.6625643297880888,-0.23573797037154434
1761914504450920000,5.707919921875,-0.1513847396880388,0.7297779173612594,-0.338952699521929
1761914504460975900,5.717975830078125,-0.24383915150165555,0.6689174982070922,-0.4456958950594067
1761914504471031600,5.728031494140625,-0.1754629498898983,0.5905845507264137,-0.5687038505688309
1761914504481086700,5.738086669921875,0.010009937360882758,0.5419932460367679,-0.6441811163574457
1761914504491142700,5.748142578125,0.10410860925018786,0.3789414494305849,-0.7100029573112726
1761914504501198800,5.75819873046875,0.14154898985028266,0.13845920714139937,-0.7267018709167837
1761914504511254800,5.7682548828125,0.16500351519584655,-0.05536766695678234,-0.7015064932532608
1761914504521310000,5.77831005859375,0.05189852954149246,-0.18570377339720726,-0.6832629805542528
1761914504531366000,5.788365966796875,-0.05356792405843734,-0.3143453508794308,-0.7340406893722713
1761914504541421600,5.798421630859375,0.026271920853853225,-0.32055881856679913,-0.7792701164133846
1761914504551476700,5.808476806640625,0.1433691910147667,-0.2192851404815912,-0.8003073514841497
1761914504561532700,5.81853271484375,0.1413426536232233,-0.09752923085987568,-0.8228916698664426
1761914504571588900,5.8285888671875,0.06927987245321274,0.0353179816186428,-0.852557617072761
1761914504581644800,5.838644775390625,0.006819032365083694,0.13624796083271504,-0.8490272509895265
1761914504591699700,5.84869970703125,0.01602466760575771,0.10902736095190048,-0.7307301035195589
1761914504601756000,5.858755859375,0.2159475204914808,-0.11117781698405742,-0.5155807476684451
1761914504611811800,5.868811767578125,0.21843875278532504,-0.29826340012848374,-0.4021970912031829
1761914504621866800,5.87886669921875,0.12533669071793554,-0.23064707697331904,-0.43880613554567094
1761914504631922700,5.888922607421875,0.2721615751445293,-0.23086919529139993,-0.4113385751664638
1761914504641978600,5.898978515625,0.5185895740956068,-0.527919712498784,-0.2098304989159107
1761914504652034800,5.909034912109375,0.47263563217222687,-0.9131301591962575,0.0263514158308506
1761914504662089700,5.91908984375,0.24859715968370436,-1.002468484815955,0.13237331135645508
1761914504672146000,5.92914599609375,-0.05452361734807491,-0.7368792737990617,0.13211743689924477
1761914504682201900,5.939201904296875,-0.43092005847096443,-0.4339946436107158,0.127687637758255
1761914504692256800,5.9492568359375,-0.5947159514427185,-0.23888240587711332,0.19700389669910073
1761914504702312700,5.959312744140625,-0.6348036316812038,-0.06700549778044224,0.2174231460019946
1761914504712368600,5.96936865234375,-0.72061962839365,0.184063020452857,0.14361352116465567
1761914504722424800,5.9794248046875,-0.9971072500437498,0.501447885158658,0.12443199696317314
1761914504732479700,5.989479736328125,-1.3378729903370141,0.6719909143030643,0.17714081997424364
1761914504742536000,5.999535888671875,-1.5329542484104632,0.6518108805835247,0.2526619249045849
1761914504752592000,6.009591796875,-1.7898229773551224,0.5495867699056863,0.34336057909205553
1761914504762646800,6.019646728515625,-2.075017052552104,0.45752574132382867,0.39456951893419023
1761914504772702700,6.02970263671875,-2.2641870407551528,0.3900000190615654,0.4205303280122578
1761914504782758700,6.039758544921875,-2.4521570055186745,0.24325462961196898,0.46690541795715684
1761914504792814800,6.04981494140625,-2.416547931998968,-0.08665420110225677,0.6008978549480438
1761914504802869800,6.059869873046875,-2.260886830165982,-0.47758507127314803,0.6525074845455586
1761914504812925700,6.06992578125,-2.228223162448406,-0.6786801828086376,0.6059038465417921
1761914504822982000,6.07998193359375,-2.217744438531995,-0.7283399935126305,0.42940132447108625
1761914504833036500,6.09003662109375,-2.2698493043005463,-0.6615048838630319,0.12764759800881145
1761914504843092700,6.1000927734375,-2.2364584913522005,-0.49684945145249365,-0.2054619284428656
1761914504853148700,6.110148681640625,-1.9985697726875542,-0.22832301793992518,-0.5327424564801156
1761914504863204600,6.12020458984375,-1.7182202149122952,0.0217372000336647,-0.8203723805218934
1761914504873259800,6.130259765625,-1.4535393509119747,0.267475463154912,-1.1002492062188685
1761914504883315700,6.140315673828125,-1.1198685373157262,0.5359311695188284,-1.3139797813132406
1761914504893372000,6.150371826171875,-0.5381921001881361,0.7403396433860063,-1.4368981588430703
1761914504903430000,6.160429931640625,0.18485797022283076,0.8540963709473609,-1.5400572122834622
1761914504913486000,6.170486083984375,0.8003980985075235,0.8679974705278873,-1.6213341042615472
1761914504923542000,6.1805419921875,1.2947890508919953,0.7744277909487486,-1.5575550211817024
1761914504933598000,6.190597900390625,1.7850895190924405,0.6545657322496176,-1.4381775311291216
1761914504943653000,6.200653076171875,2.1923697587788102,0.5912351235896348,-1.3082704637557268
1761914504953709000,6.210708984375,2.3916303483635186,0.3993927013069391,-1.1584266698993742
1761914504963765200,6.22076513671875,2.407601824477315,0.11746610347330569,-0.975613649507612
1761914504973820200,6.230820068359375,2.3371242666721344,-0.09095862029790877,-0.7845898501314222
1761914504983876000,6.2408759765625,2.4222364990293976,-0.22188392480313776,-0.6467626572832464
1761914504993932000,6.25093212890625,2.543901807758212,-0.27931436950862404,-0.5627088479377329
1761914505003988000,6.260988037109375,2.464765727201104,-0.32748715652525423,-0.48434009849131104
1761914505014043100,6.271043212890625,2.334230298796296,-0.2853396211475134,-0.42215632177889345
1761914505024099000,6.28109912109375,2.22284439201951,-0.23479776691198348,-0.3257937966108322
1761914505034155000,6.291155029296875,2.127697672381997,-0.2819447180122137,-0.18054799806922672
1761914505044210200,6.301210205078125,1.9912924751609562,-0.3576742049962282,-0.0260834125444293
1761914505054266000,6.31126611328125,1.8484458467155693,-0.3538134379148483,0.07813143355920911
1761914505064322000,6.321322021484375,1.741738453143835,-0.3599439034938812,0.14565291803777217
1761914505074378000,6.3313779296875,1.5286188495546578,-0.36103403681814666,0.2632332955405116
1761914505084433200,6.34143310546875,1.3343535840392111,-0.38090719654560085,0.3856073370605707
1761914505094489000,6.351489013671875,1.2499807718724012,-0.3907125512450933,0.47366482908949253
1761914505104545000,6.361544921875,1.273953768134117,-0.30433775160610677,0.5094580270044505
1761914505114600200,6.37160009765625,1.3095762856572866,-0.22925182322263715,0.5062197757355869
1761914505124656000,6.38165625,1.3342425248801708,-0.2436637949347496,0.5881149457424879
1761914505134712300,6.39171240234375,1.187801671335101,-0.2887877157747745,0.790319625955075
1761914505144768000,6.40176806640625,0.8884954841554165,-0.3595481821745634,1.0803984044536947
1761914505154823200,6.4118232421875,0.7057394546478987,-0.5237696070820093,1.3888869921289384
1761914505164879000,6.421879150390625,0.6472755752414464,-0.686204733094573,1.6388903653487563
1761914505174935000,6.43193505859375,0.6077858608961105,-0.8132131564170122,1.7938887654893099
1761914505184990200,6.441990234375,0.4569418039560318,-0.8445739248424768,1.7751412487909197
1761914505195046100,6.452046142578125,0.18972937565147877,-0.8200818731427192,1.5843099032469092
1761914505205102000,6.46210205078125,-0.19269290163218974,-0.8197270683556794,1.3629014870010316
1761914505215158000,6.472157958984375,-0.5278408020436763,-0.7628092493474483,1.1504496996708213
1761914505225213000,6.482212890625,-0.6997860992014407,-0.6315297245770692,0.9417479125238954
1761914505235269000,6.49226904296875,-0.7362643567711115,-0.4271960695117712,0.6383661464683711
1761914505245325000,6.502324951171875,-0.5872732342213391,-0.18544716828763483,0.3372773136556148
1761914505255380200,6.512380126953125,-0.321014161118865,0.04685644372105598,0.031152386371791362
1761914505265436200,6.522436279296875,0.04525602278709411,0.17094342663884163,-0.19630071686580777
1761914505275492000,6.5324921875,0.2824754638880491,0.10737141043841839,-0.26365415130108594
1761914505285548300,6.54254833984375,0.08502221598625183,0.05727379283905029,-0.19551190457567572
1761914505295603000,6.55260302734375,-0.3482324229121208,-0.0012555530190467834,0.07799158669710159
1761914505305659100,6.5626591796875,-0.5187316129148006,-0.21929683091938496,0.5466610917173326
1761914505315715000,6.572715087890625,-0.6391629959344863,-0.6076087507635355,1.0622774952210485
1761914505325770200,6.582770263671875,-1.0696581069916486,-0.9283937793016434,1.3986968768730759
1761914505335826200,6.592826171875,-1.643398490422964,-0.9126853380382061,1.5557352584086357
1761914505345882000,6.602882080078125,-1.9551018023610114,-0.7995446965485811,1.6875719786703585
1761914505355938300,6.612938232421875,-2.031003138780594,-0.7371674430906772,1.7370128859266638
1761914505365993000,6.622992919921875,-1.9678204141587017,-0.5586982971221208,1.615065253125131
1761914505376049200,6.633049072265625,-1.9883926620662211,-0.2075777515530586,1.3817887044310568
1761914505386105000,6.64310498046875,-2.0267378825515507,0.21630758597552774,1.1664869344972073
1761914505396160000,6.653159912109375,-2.044770382848382,0.6088362467318773,0.9791654967702924
1761914505406216200,6.66321630859375,-1.9311410810589789,0.8463105393767356,0.8540036511626095
1761914505416272100,6.673272216796875,-1.6919284203141927,1.004352398866415,0.7275400753065944
1761914505426328000,6.683328125,-1.5992302628725765,1.173383269882202,0.6430369147583842
1761914505436383000,6.693383056640625,-1.5112819303065537,1.1801239763140678,0.7066214251141995
1761914505446439000,6.70343896484375,-1.3195184184789657,0.9891735344350338,0.8802053563244641
1761914505456495000,6.7134951171875,-1.1715087081819773,0.7518956411451101,1.0701337616793811
1761914505466550000,6.723550048828125,-1.1207821450293063,0.5925123039186001,1.2061490097347647
1761914505476606200,6.733606201171875,-1.2394541171610354,0.5854097784370184,1.31172411134094
1761914505486662100,6.743662109375,-1.3529846347510814,0.5970528699576855,1.4075900851637124
1761914505496718000,6.753718017578125,-1.3133487899333238,0.6104384212315083,1.4150102982923387
1761914505506773000,6.76377294921875,-1.1021201146572828,0.605425561505556,1.419963536785543
1761914505516829000,6.773828857421875,-0.7132458847552537,0.5346060583949088,1.4018207079820335
1761914505526885000,6.783885009765625,-0.49891281372308727,0.666407561212778,1.1674319602623582
1761914505536940000,6.79393994140625,-0.18225275616049766,0.8050771962344646,0.9705708330348134
1761914505546996200,6.803996337890625,0.09679390232264995,1.0014169299364089,0.7080272002588958
1761914505557052200,6.81405224609375,0.26663082902431484,1.2214905904471873,0.5172929218811914
1761914505567108000,6.824108154296875,0.5109960502266884,1.4064263020813463,0.3719611620891839
1761914505577163300,6.834163330078125,0.7135293778717517,1.528851489266753,0.30207523176791146
1761914505587219000,6.844218994140625,0.7474597045242786,1.5623814184248446,0.2986935351740569
1761914505597275100,6.854275146484375,0.7415665548324585,1.5966162809818982,0.32705658308826385
1761914505607330000,6.864330078125,0.9633768298774957,1.5796896961003541,0.316094240373373
1761914505617386000,6.874385986328125,1.2452882301419972,1.520785671710968,0.32629020182564855
1761914505627442200,6.884442138671875,1.491273746022582,1.367558519026637,0.33355493213161824
1761914505637498000,6.894498046875,1.6922984226703643,1.113617660227418,0.43477446887679394
1761914505647553300,6.90455322265625,1.593658600220084,0.8612158475637436,0.6467131190530956
1761914505657609000,6.91460888671875,1.3449030351042748,0.697388974931836,0.8723124841827898
1761914505667665000,6.924664794921875,0.9963760131597519,0.5583727184295654,1.1212604300655424
1761914505677720000,6.934719970703125,0.6831967834502458,0.40366906345188613,1.2929288099780678
1761914505687776000,6.94477587890625,0.46235973735153674,0.35355098758637904,1.3520469155095516
1761914505697832200,6.954832275390625,0.2467518240779638,0.36660628399252887,1.273252926388383
1761914505707888000,6.96488818359375,-0.06124094290435314,0.3848357681661844,1.0967335993133485
1761914505717943300,6.974943359375,-0.3115712099909782,0.4417348824739456,0.8431297173835337
1761914505727999200,6.984999267578125,-0.4680816221296787,0.5857096381664276,0.5716395021619275
1761914505738055000,6.995054931640625,-0.5268646504878998,0.7440174551159143,0.34683987257517873
1761914505748110000,7.005110107421875,-0.5371306084364652,0.7953729638218879,0.18727582675321028
1761914505758166000,7.015166015625,-0.4847732292115688,0.7426964356452226,0.08073187098172493
1761914505768222200,7.02522216796875,-0.31868951756358144,0.6596849749594926,-0.021034659521188586
1761914505778278100,7.035278076171875,-0.21460779632031915,0.5711556276351213,-0.050330083781527354
1761914505788333000,7.0453330078125,-0.16397066501677035,0.41482583276033397,0.02690519552240148
1761914505798389200,7.05538916015625,0.018810498932003972,0.29378362436592576,0.08089815832618623
1761914505808445200,7.065445068359375,0.057120063582062716,0.30563129854798315,0.0801434857676737
1761914505818500000,7.0755,0.021941782695055007,0.22914485571682452,0.12208207283616065
1761914505828556000,7.08555615234375,0.037491234004497526,0.048121933612227434,0.20122958810273556
1761914505838612000,7.095612060546875,0.09221768044829368,-0.09614800563454627,0.17548116140002384
1761914505848668200,7.105668212890625,0.16476269217729567,-0.10277122316658496,0.02139887602396775
1761914505858723000,7.11572314453125,0.12877484847307205,-0.006689268505573272,-0.12200103435604832
1761914505868779300,7.125779296875,-0.026997312518954274,0.09878127674758434,-0.24854225115869194
1761914505878835200,7.135835205078125,-0.05140168593525886,0.1942319477677345,-0.3054086139743216
1761914505888890000,7.14589013671875,0.10370470462441443,0.31663843025267124,-0.3192562846008688
1761914505898946000,7.155946044921875,0.27384382914304733,0.43138007719814775,-0.2713478841414675
1761914505908998100,7.165998046875,0.2883668600142002,0.4949573540955782,-0.22234964261874554
1761914505919054300,7.176054443359375,0.4066612310051918,0.4896469727277755,0.00011352511076256632
1761914505929109200,7.186109130859375,0.48534196901023385,0.6114665952354669,0.04943776545114815
1761914505939165400,7.19616552734375,0.4844418053001165,0.7761345948666334,0.10036248152442276
1761914505949221400,7.206221435546875,0.5559188955366611,0.7233435003995895,0.3292187660908326
1761914505959276300,7.2162763671875,0.6685200233221054,0.43229543847739693,0.5892891406210139
1761914505969332200,7.226332275390625,0.5248112250894308,0.21174422358274458,0.7288331838570534
1761914505979388200,7.23638818359375,0.36001170803308485,0.09549626372754573,0.8549201084204018
1761914505989444400,7.2464443359375,0.26008769099116325,-0.08588029412031173,0.9528878768280148
1761914505999499300,7.256499267578125,0.1684872656583786,-0.4228893122285604,1.2046581135898828
1761914506009555500,7.266555419921875,0.18965747945904732,-0.7765998742908239,1.4602116682827473
1761914506019611400,7.276611328125,-0.10685820021927356,-0.8202531380563974,1.5616026891373096
1761914506029666300,7.286666259765625,-0.42454993891716003,-0.7925766111016272,1.6471762553960083
1761914506039722200,7.29672216796875,-0.6890963628828525,-0.7501455826073885,1.7547887811139224
1761914506049778200,7.306778076171875,-0.9258663066506385,-0.6378191801100969,1.8057259182773528
1761914506059834400,7.31683447265625,-1.1293500668883323,-0.5780775358527899,1.80190358351022
1761914506069889300,7.32688916015625,-1.2681383598536253,-0.5834376015812158,1.6955185537606476
1761914506079945200,7.3369453125,-1.461379543018341,-0.46313364433348175,1.4631665725655854
1761914506090001400,7.34700146484375,-1.6545687037348746,-0.18773907861709593,1.1633359231203795
1761914506100056000,7.35705615234375,-1.7223142062276602,0.04765139349102974,0.8871982108864933
1761914506110112300,7.3671123046875,-1.7066899361163377,0.21799510067105293,0.6575603840209543
1761914506120168200,7.377168212890625,-1.708878970593214,0.349442383223772,0.4441036574319005
1761914506130224000,7.38722412109375,-1.7712170610845088,0.5032523042321205,0.20559381119422612
1761914506140279300,7.397279296875,-1.7449521544933317,0.7337772161304951,-0.062093906471878284
1761914506150335200,7.407335205078125,-1.627778896486759,0.9041904814153909,-0.3353605933140963
1761914506160391400,7.417391357421875,-1.535112303227186,0.9629232408910989,-0.5991086334437131
1761914506170446000,7.427446044921875,-1.4160527930825948,0.9769260472804308,-0.7820225569266825
1761914506180502300,7.437502197265625,-1.2214958511441945,0.9798545019477605,-0.8938365529224276
1761914506190558200,7.44755810546875,-1.0602841294467449,1.0036264226794243,-0.9576254998091608
1761914506200614100,7.4576142578125,-0.7719266217827796,1.0601800845503806,-0.9342856138192117
1761914506210669300,7.46766943359375,-0.3311059315443039,1.1075140826553105,-0.8502740361802279
1761914506220725200,7.477725341796875,0.05202770887911319,1.088357546764612,-0.702736181178689
1761914506230781400,7.487781494140625,0.20358195991516112,0.941794528144598,-0.3976939345650375
1761914506240836400,7.49783642578125,0.234696060103178,0.7064969950169324,-0.07843525707768276
1761914506250892300,7.507892333984375,0.3267699481666088,0.5808160209059715,0.11679191227247938
1761914506260948200,7.5179482421875,0.3701549163848161,0.4530623321741819,0.26282654137052597
1761914506271004200,7.528004150390625,0.12120236739218235,0.18991583813428878,0.5009595901850611
1761914506281059300,7.538059326171875,-0.283754982304573,-0.09460136071443558,0.6995221875682472
1761914506291115300,7.548115234375,-0.608641016420722,-0.13949205732047557,0.7567763989239931
1761914506301171200,7.558171142578125,-0.6272375803411007,-0.09034662587940692,0.680863737392798
1761914506311226400,7.568226318359375,-0.49534956828355786,-0.07324760704040527,0.5398616408355533
1761914506321282300,7.5782822265625,-0.510869793498516,-0.012028291445970535,0.444669109294936
1761914506331338200,7.588338134765625,-0.4267120853871107,0.18405249905884266,0.3541676581799984
1761914506341394200,7.598394287109375,-0.18105214819908141,0.3434124554097652,0.36722635211963206
1761914506351449300,7.608449462890625,0.13490063787698744,0.36902503557205196,0.4436507625652477
1761914506361505300,7.61850537109375,0.3893044380128383,0.4042126688092947,0.5196916170533746
1761914506371561200,7.628561279296875,0.6324211204588412,0.4787859714955091,0.6225402163051068
1761914506381616400,7.638616455078125,0.903224266731739,0.46821313955485816,0.7679652438711374
1761914506391672300,7.64867236328125,1.2239151872456073,0.37006782262325283,0.945902767181024
1761914506401728300,7.658728271484375,1.4509996033012866,0.24296529127657412,1.1232043306749313
1761914506411784200,7.6687841796875,1.4321125320017336,0.09850596693754196,1.2803332400381564
1761914506421839400,7.67883935546875,1.3458277487337589,-0.044054830303788185,1.389395964564383
1761914506431895300,7.688895263671875,1.2567127104759215,-0.10976152044534683,1.4228227256089447
1761914506441951200,7.698951171875,1.2245792041122912,-0.10673720418810843,1.3879045569628476
1761914506452006400,7.70900634765625,1.3099661617577074,-0.018669629156589505,1.2643338530041277
1761914506462062300,7.719062255859375,1.477110780635476,0.11035422564148903,1.1314843024380505
1761914506472118300,7.7291181640625,1.492562032267451,0.23951252047419547,1.0679303333509713
1761914506482174200,7.73917431640625,1.316123515343666,0.31309681212306023,1.0802353228464723
1761914506492229000,7.74922900390625,1.0726245555818081,0.3096726828932762,1.212348229701072
1761914506502285300,7.759285400390625,0.9690946230024099,0.3387959015250206,1.3839447134211658
1761914506512341200,7.76934130859375,0.9420569784730672,0.3982113825678825,1.5532843581251798
1761914506522396400,7.779396484375,0.9170049548029899,0.4040817359060049,1.7622016877189277
1761914506532452400,7.789452392578125,0.9847124633729457,0.39821079804599285,1.9020441659122704
1761914506542508300,7.79950830078125,1.1579402015566824,0.49687458589375016,1.9212578388176857
1761914506552564500,7.809564453125,1.3171049275964497,0.6826093389511108,1.883695147012174
1761914506562619100,7.819619140625,1.376234577435255,0.8694915084779262,1.7974667701065539
1761914506572675300,7.82967529296875,1.2024936290323733,1.0322253251761198,1.7071951091594992
1761914506582731300,7.839731201171875,0.8898059822320937,1.2043079849779605,1.5961936716556548
1761914506592786400,7.849786376953125,0.5704103622257709,1.3703238920867442,1.4632291164077817
1761914506602842400,7.85984228515625,0.30807927622199055,1.5195534995675086,1.3093832473032176
1761914506612898300,7.869898193359375,0.1778062981456518,1.6461673706144093,1.0758870645090937
1761914506622954500,7.87995458984375,0.1144248360812664,1.7927186987966297,0.8468103055924177
1761914506633009200,7.890009033203125,0.15124036278128622,1.7472651076108217,0.8021170312546193
1761914506643065000,7.900065185546875,0.3098340109348297,1.272573711952567,0.9974462727397679
1761914506653121300,7.910121337890625,0.3812590787231922,0.3595762392252683,1.4949492196649312
1761914506663176200,7.92017626953125,-0.09501578673422335,-0.5873498065888881,2.0694787076473236
1761914506673232400,7.930232421875,-1.236241584855318,-0.9730775551587343,2.110198548309505
1761914506683288300,7.940288330078125,-2.673193958103657,-1.0717635548382998,2.032155231425166
1761914506693344300,7.95034423828125,-3.4255729988515373,-1.2786299432516097,2.3763883555680514
1761914506703399200,7.960399169921875,-3.1526386857688427,-1.399485689163208,2.627981774458289
1761914506713455000,7.970455078125,-2.983073561745882,-1.1957213584184645,2.4165257201671597
1761914506723511300,7.98051123046875,-3.293114493429661,-0.7712316252559424,2.0564593593373894
1761914506733566200,7.990566162109375,-3.406286114579439,-0.07765724017620086,1.5862095993883907
1761914506743622400,8.000622314453125,-3.149941117247939,0.8167278865396976,1.106989839585498
1761914506753678300,8.01067822265625,-2.560239779096842,1.571086702927947,0.742382547390461
1761914506763731200,8.020731201171875,-2.550624978533387,1.5619623162299394,0.7545835650548338
1761914506773786400,8.030786376953126,-1.9491659825712442,1.89120946816504,0.5391364683661609
1761914506783842300,8.04084228515625,-1.6547849768340586,1.927388450527191,0.4056069727119058
1761914506793898200,8.050898193359375,-1.5611001464426517,1.8218723125666378,0.49102680971361695
1761914506803954400,8.060954345703125,-1.6615923187613486,1.6350211226999758,0.745038030335307
1761914506814009000,8.071009033203126,-1.8126561559319496,1.5138561647087334,1.0891139180898666
1761914506824065300,8.081065185546874,-1.9866408499628305,1.2988432947188615,1.3424461434714496
1761914506834121200,8.091121337890625,-1.8427461737692354,1.0358744953334331,1.4749785909123718
1761914506844176400,8.10117626953125,-1.4160855263084173,0.839112736827135,1.5925791344203053
1761914506854232300,8.111232421875,-1.2041805592060089,0.7212783845633268,1.6818872110322116
1761914506864288300,8.121288330078125,-1.1830699666380882,0.6708721394062042,1.7019522400699554
1761914506874344400,8.131344482421875,-1.053718779581785,0.7145055294275283,1.7568762549124657
1761914506884399000,8.141399169921876,-0.7895750911980867,0.7494125921577215,1.8326532343000173
1761914506894455300,8.151455322265624,-0.6076642803430556,0.765942871198058,1.824039135211706
1761914506904511200,8.16151123046875,-0.514390953361988,0.8270750930309295,1.7925731528460978
1761914506914566400,8.17156640625,-0.5165478391349315,0.9855255333214997,1.7586289437986908
1761914506924622300,8.181622314453126,-0.5717360578715801,1.1078759017050266,1.6650851293131708
1761914506934678300,8.19167822265625,-0.48784781435132024,1.2245634220212698,1.4871604654848574
1761914506944734200,8.201734130859375,-0.37563188649117946,1.3609873239427803,1.2671700993433594
1761914506954789000,8.2117890625,-0.3474257827043533,1.5365052188903092,1.0967246853545307
1761914506964845000,8.221844970703126,-0.3520844221651554,1.6334388219445943,0.9282534940481185
1761914506974901200,8.2319013671875,-0.3368284008443355,1.669848105931282,0.7469500745017081
1761914506984956200,8.2419560546875,-0.1932733318686485,1.5988456474691628,0.628924802775681
1761914506995012400,8.252012451171876,-0.008880056548118591,1.4421213003188371,0.5786999786000698
1761914507005068300,8.262068359375,0.17498539550602435,1.2791238642483949,0.6083277126878499
1761914507015123500,8.27212353515625,0.2822451622635126,1.1562480106860398,0.7070983219109476
1761914507025179400,8.282179443359375,0.2704576938360929,0.979465794891119,0.8415510698899626
1761914507035235000,8.292235107421876,0.24609657503962515,0.8032727771610021,0.934280864578858
1761914507045291300,8.302291259765624,0.24466332736611365,0.7321481536239385,0.9966310108341276
1761914507055346200,8.31234619140625,0.14697510655224322,0.7009931369036436,1.042176518087089
1761914507065402400,8.32240234375,0.10820961482822894,0.6222954477638006,1.0961625214271247
1761914507075458300,8.332458251953126,0.1571066244661808,0.6125286715090275,1.1127449690461158
1761914507085514200,8.34251416015625,0.10042144517004489,0.6990437564015388,1.0941521314527838
1761914507095569400,8.3525693359375,0.003466799327731132,0.7644236988067626,1.116185757149756
1761914507105625000,8.362625,-0.16553426107168195,0.804608409678936,1.128927895953506
1761914507115681300,8.372681396484374,-0.304941562718153,0.8586457048147916,1.1071738909155129
1761914507125736200,8.382736083984375,-0.36425942860543725,0.840989052093029,1.1084534093320368
1761914507135792000,8.392792236328125,-0.5408803163588046,0.8473468966871499,1.1036924785405398
1761914507145848300,8.402848388671876,-0.8050678438842296,0.8828016564279794,1.0312888480436055
1761914507155903200,8.4129033203125,-1.0248235244870185,0.86429978505373,1.0040021241240202
1761914507165959400,8.42295947265625,-1.1482698714137076,0.7831056029230355,0.9656790424052625
1761914507176015400,8.433015380859375,-1.2655787384986876,0.7107049681007862,0.9002923049330711
1761914507186071000,8.443071044921876,-1.303670861005783,0.685831808128953,0.8195167866058647
1761914507196126200,8.453126220703124,-1.1841536702215671,0.6970785938084125,0.6741589790571481
1761914507206182100,8.46318212890625,-1.0709785419404505,0.7304758364975452,0.48121648657806215
1761914507216238300,8.47323828125,-1.0264286215960978,0.7298182493716477,0.3155214089214802
1761914507226293200,8.483293212890626,-0.8732002998679875,0.48923663836121556,0.24918091438841072
1761914507236349400,8.493349365234375,-0.5328063154965639,0.032061025649309155,0.29205855413898824
1761914507246405400,8.5034052734375,-0.2431318800151348,-0.3115256172835827,0.37919367062598464
1761914507256461300,8.51346142578125,-0.20993395929038525,-0.5876572651028633,0.5477471699209884
1761914507266516200,8.52351611328125,-0.2702221315145492,-0.9266051423192023,0.8795799909677356
1761914507276572200,8.533572265625,-0.30385552104711533,-1.314375794893503,1.1153851082913577
1761914507286628400,8.54362841796875,-0.6310223595768213,-1.3333622349143028,1.2478802924618124
1761914507296683300,8.553683349609376,-1.0598539213359355,-0.9083955318897962,1.1319535273849963
1761914507306739500,8.563739501953124,-1.342222417718172,-0.3283686155349016,0.8726166547611355
1761914507316795400,8.57379541015625,-1.5375076739311218,0.18991642265617847,0.4869795436168089
1761914507326852400,8.583852294921876,-1.6566835039317607,0.6019014790326357,0.06013327392339706
1761914507336908300,8.593908203125,-1.8043284725695847,0.9734352825552225,-0.4054170761629939
1761914507346964500,8.603964599609375,-1.7554285403221845,1.483795372965932,-0.8788558414116501
1761914507357020400,8.6140205078125,-1.3313181618660688,1.8327853362470865,-1.3642246984288096
1761914507367075300,8.624075439453126,-0.9172960467040538,1.9837667558312415,-1.7576016465775668
1761914507377131300,8.63413134765625,-0.5333668719887733,2.0377748248726126,-1.9761726474404333
1761914507387187200,8.644187255859375,-0.04776245265007019,2.059337837383151,-2.0540154733166096
1761914507397243100,8.6542431640625,0.3439420322418213,1.9971201584011316,-1.9525508027039467
1761914507407298300,8.66429833984375,0.47353696492612357,1.7099895621836185,-1.7010250422224402
1761914507417354200,8.674354248046875,0.41546880683898924,1.4278472757726908,-1.4829003238223493
1761914507427410400,8.684410400390625,0.24745208130180835,1.1020230840235947,-1.2574489157959818
1761914507437465000,8.694465087890626,0.0068348144561052315,0.648766690582037,-0.9187951261553913
1761914507447521300,8.704521240234374,-0.39486382570564743,0.23299217879474163,-0.5600384596846998
1761914507457577200,8.7145771484375,-0.7221048985153437,-0.007695230677723884,-0.2624894183706492
1761914507467633200,8.724633056640625,-0.9324667278289794,0.014759177714586257,-0.12276452040867879
1761914507477688300,8.734688232421876,-1.0106301639616488,0.34441315688490864,-0.27619751612972465
1761914507487744300,8.744744140625,-1.05115448205173,0.7856587945371866,-0.6792134129025041
1761914507497800400,8.754800537109375,-0.9231161311596632,1.0959195064514875,-1.0832640230178832
1761914507507855000,8.764855224609375,-0.6979091994136571,1.3680477638483046,-1.3465600085310636
1761914507517911300,8.774911376953124,-0.5524450819462537,1.644066014420986,-1.5315163245618342
1761914507527967200,8.78496728515625,-0.435465885207057,1.7431641020327806,-1.6226013477183878
1761914507538022400,8.7950224609375,-0.2621136438608169,1.7196657375454902,-1.627500956328213
1761914507548078300,8.805078369140626,-0.1630710858285427,1.6506898164749144,-1.5885940103068947
1761914507558134300,8.81513427734375,-0.09182137460708617,1.4541034145355223,-1.5060434451311826
1761914507568190500,8.8251904296875,0.1349514912813902,1.0762088438093662,-1.3517846113115548
1761914507578245000,8.8352451171875,0.3235983323931694,0.614472791314125,-1.219771803830564
1761914507588301000,8.845301025390626,0.42033962774574757,0.11624795985519885,-1.0834376990843564
1761914507598357200,8.855357177734374,0.5013000011205673,-0.36922552658021446,-0.9522657994069158
1761914507608412200,8.865412109375,0.5192284565210342,-0.6894178499221801,-0.8499256611339747
1761914507618468400,8.87546826171875,0.41667526001930233,-0.78826342407763,-0.7903525053113698
1761914507628524300,8.885524169921876,0.1296913787961006,-0.6961380980879068,-0.7941945676922798
1761914507638580200,8.895580322265625,-0.23304244767725465,-0.5448100570231675,-0.7854904522329569
1761914507648635400,8.905635498046875,-0.39397476791143415,-0.3940320510566234,-0.7334721687693149
1761914507658691000,8.915691162109376,-0.47800154311954973,-0.2588350605815649,-0.6050342241004109
1761914507668747300,8.925747314453124,-0.44452597449719905,-0.2528922265291214,-0.4657903693873435
1761914507678802200,8.93580224609375,-0.10498363851904868,-0.281630829757452,-0.401829061608389
1761914507688858400,8.9458583984375,0.2863350619256496,-0.2999099982917309,-0.3963108096435666
1761914507698914300,8.955914306640626,0.5218494526743889,-0.3530927224248647,-0.3238693313542753
1761914507708970200,8.96597021484375,0.6841016233354806,-0.4803063129305839,-0.20190394370034337
1761914507719025400,8.976025390625,0.8845078758239746,-0.5378039776533842,-0.13362725694030522
1761914507729081000,8.9860810546875,1.0585533601313828,-0.6085352179586887,-0.11187142527140677
1761914507739137300,8.99613720703125,1.1073369725227356,-0.707208358156681,-0.050489393395930525
1761914507749192200,9.006192138671874,1.0492273133814334,-0.7666010428458452,0.05368490150161087
1761914507759248400,9.016248291015625,0.9094505939006805,-0.7898504010081291,0.16685688797757028
1761914507769304300,9.02630419921875,0.8131254781335592,-0.7927104666143655,0.25342816003672775
1761914507779360300,9.0363603515625,0.7988724963754416,-0.823413063392043,0.31748503714464604
1761914507789415400,9.04641552734375,0.8134311830818652,-0.8744055840045213,0.3180336109381169
1761914507799471400,9.056471435546875,0.7938689889997244,-0.9334171604216098,0.2490956837903708
1761914507809527000,9.066527099609376,0.7763958761513233,-0.9531120409727096,0.1595740374930203
1761914507819582200,9.076582275390624,0.850655290582776,-0.9806897837281227,0.15132555684670804
1761914507829638100,9.08663818359375,0.8343909690022469,-0.9674339963138103,0.20924130085110662
1761914507839694300,9.0966943359375,0.6371066479265689,-0.9139327077507973,0.2614005271553993
1761914507849750300,9.106750244140626,0.5133709626644849,-0.920803762564063,0.39250798329450187
1761914507859805400,9.116805419921874,0.5662544115900993,-0.9423714512497187,0.5583648273840546
1761914507869861400,9.126861328125,0.6379308237910271,-0.9366361224681139,0.6806658036679029
1761914507879917300,9.136917236328125,0.645314504301548,-0.9350602514535188,0.7934300861258059
1761914507889972200,9.14697216796875,0.6119751292794943,-0.8339917405515909,0.8867215332854539
1761914507900028200,9.157028076171875,0.5148410352170467,-0.5873059674471617,0.9330314490396528
1761914507910088000,9.167087890625,0.36981940082013603,-0.35429976012706754,0.9108717858102172
1761914507920142600,9.177142578125,0.26530221076905725,-0.25273206753134725,0.9356761183295398
1761914507930198800,9.18719873046875,0.22635610178112983,-0.22197160308659075,1.0298550158482045
1761914507940254700,9.197254638671875,0.16705109537541865,-0.13892156395614147,1.04918939252384
1761914507950310700,9.207310546875,-0.043209027129411694,0.011796820777654647,0.9652468615330755
1761914507960365800,9.21736572265625,-0.3663549395799637,-0.07896130851209163,0.9806590963289141
1761914507970421800,9.227421875,-0.5035048176884651,-0.39484336743950843,1.055845635542646
1761914507980477700,9.237477783203126,-0.5534077894985675,-0.5130488911032677,0.9630456251617521
1761914507990532600,9.24753271484375,-0.7766513122171164,-0.5228688588500022,0.8799922980956733
1761914508000588500,9.257588623046875,-1.1953846738100051,-0.7004220590174198,1.0137050413623452
1761914508010644700,9.267644775390625,-1.6015052220672368,-0.9447305815964937,1.168382538985461
1761914508020700700,9.27770068359375,-1.8872078313082457,-1.0020447064459324,1.2601670887134968
1761914508030755800,9.287755859375,-2.075952872097492,-0.8933183742672205,1.2011306701160966
1761914508040811800,9.297811767578125,-2.3177754230797287,-0.6582803688585758,1.0065349305372684
1761914508050867700,9.30786767578125,-2.364607901403308,-0.3785632637679577,0.7752185760002582
1761914508060922600,9.317922607421876,-2.3140204544603824,-0.07020224799513816,0.5390703808600082
1761914508070978600,9.327978515625,-2.217781263411045,0.40969606865644453,0.25260789316240695
1761914508081034800,9.33803466796875,-1.9595815781235695,0.9281155468821525,0.009064400139078497
1761914508091090700,9.348090576171876,-1.6593062536507843,1.2999182304739951,-0.194802916056104
1761914508101145900,9.358145751953124,-1.3803624710202216,1.493319572636485,-0.2658710236329585
1761914508111201800,9.368201904296875,-1.0709154135763645,1.4776234063327311,-0.1797112915167585
1761914508121257700,9.3782578125,-0.8809154042899608,1.251155660870671,0.04210424422528594
1761914508131313000,9.38831298828125,-0.7228489948809147,1.0065133762925862,0.2673624312344938
1761914508141368600,9.39836865234375,-0.4797124386906624,0.953182183599472,0.4290298242775723
1761914508151424800,9.4084248046875,-0.24662381378412246,0.9024082741737365,0.5540912051854655
1761914508161480700,9.418480712890625,-0.008672551277279854,0.6644727937579155,0.670071490547806
1761914508171535600,9.42853564453125,0.012294833427667616,0.4773059620708227,0.7826355011932551
1761914508181591800,9.438591796875,-0.24703064101934433,0.38377836806774135,0.9418360291987657
1761914508191647700,9.448647705078125,-0.5834387706249952,0.30799744315743444,1.1038757992181927
1761914508201703000,9.458702880859375,-0.8305605970591307,0.29500995129048824,1.194035816484317
1761914508211758600,9.468758544921876,-0.6556745702743529,0.39790860022902486,1.0956940271325408
1761914508221814500,9.478814453125,-0.21755437116622925,0.5956254675030708,0.753257284887135
1761914508231870700,9.48887060546875,0.07692424972653389,0.7419827344179153,0.5375874122932554
1761914508241925600,9.498925537109375,0.3832581435859203,0.9156026867896317,0.41849407294429836
1761914508251981800,9.50898193359375,0.7471990077614784,1.1890689147919415,0.2047133020326495
1761914508262037800,9.519037841796875,0.8728349736869334,1.3815221624493599,0.029043723654747007
1761914508272093000,9.529093017578125,0.9406202236682176,1.4339257189035415,-0.03396163510624319
1761914508282148900,9.53914892578125,0.8456336630284785,1.398090435412526,-0.007240289984457194
1761914508292204500,9.54920458984375,0.7006494380325079,1.3330956929326057,0.06450425554923712
1761914508302259700,9.559259765625,0.7608727283269167,1.17948567841053,0.17927633416559546
1761914508312315600,9.569315673828125,0.9508850125730037,1.0142530306339264,0.24684772220049053
1761914508322371800,9.579371826171876,1.1214853248625993,0.9349234733313322,0.2457215677147731
1761914508332427800,9.589427734375,1.1959493219554425,0.8298936575829983,0.22830343645662068
1761914508342482700,9.599482666015625,1.2188327694147825,0.6837602625519037,0.17641659735292195
1761914508352539000,9.609538818359376,1.198413666242361,0.570548309391737,0.1977287038423121
1761914508362594800,9.6195947265625,1.0963730954378843,0.4549100058674812,0.26722298623118546
1761914508372649700,9.629649658203125,0.9528560203850269,0.3357634019613266,0.35705344274938106
1761914508382705700,9.63970556640625,0.811036981421709,0.28969372470378874,0.47750269021932035
1761914508392761600,9.64976171875,0.7686345945000648,0.25668869620263574,0.608516622856073
1761914508402817800,9.65981787109375,0.8376333119243383,0.14548399121165276,0.7279055476181209
1761914508412872700,9.669872802734375,0.8480489074766635,-0.006160276195406913,0.7886576840922236
1761914508422929000,9.679928955078125,0.8687935893416404,-0.10460720642209052,0.8342817364741116
1761914508432984800,9.68998486328125,0.8115665582537651,-0.18680209002792833,0.8885916380062698
1761914508443039700,9.700039794921874,0.7273895609200001,-0.253165198251605,0.9119486212614923
1761914508453095700,9.710095703125,0.5983166062831878,-0.2856482487052679,0.9650045041445642
1761914508463151600,9.720151611328125,0.44430794783234595,-0.2961135286182165,0.9094310854826122
1761914508473207800,9.730207763671874,0.37400750015974044,-0.2354541849941015,0.794241767834872
1761914508483262700,9.7402626953125,0.4352694858521223,-0.18946867888867855,0.6847470085669308
1761914508493319000,9.75031884765625,0.5899801550924778,-0.23627952990233897,0.5189305330203846
1761914508503374800,9.760374755859376,0.6748427966028452,-0.22049510079324244,0.41301772389244285
1761914508513429800,9.7704296875,0.5703706147372722,-0.17652677972912786,0.36261768928039817
1761914508523485700,9.780485595703125,0.5119488209068774,-0.17807868534624577,0.3730839921066537
1761914508533541600,9.790541748046875,0.4326426444798708,-0.23650164822041986,0.41559462517574425
1761914508543597800,9.800597900390626,0.3040139264792204,-0.3077367463946342,0.43577911587469276
1761914508553652700,9.81065283203125,0.1809784984409809,-0.31894144649803635,0.42487540801186113
1761914508563708700,9.820708740234375,0.06092062490880489,-0.37005496314167974,0.40398967370837924
1761914508573764900,9.830764892578125,-0.11890227375626564,-0.5747229647278785,0.4227296646874398
1761914508583819500,9.840819580078126,-0.4770487724393606,-0.7088046874374151,0.4342386449670419
1761914508593875700,9.850875732421875,-0.6678741266340017,-0.6734194858014583,0.37486170583628114
1761914508603931600,9.860931640625,-0.7479992182284593,-0.5740957727402448,0.31440782165639103
1761914508613987600,9.870987548828126,-0.8473258538991212,-0.5871487310588359,0.28957143176468086
1761914508624042800,9.881042724609374,-0.8573053961217403,-0.643947307601571,0.22629333874322471
1761914508634098700,9.8910986328125,-0.7023375372499228,-0.6479179647982121,0.138484378115274
1761914508644155000,9.90115478515625,-0.5624842454016208,-0.6829220581620932,0.16534319547899065
1761914508654209500,9.91120947265625,-0.5990478431671857,-0.7973848881661891,0.3020361236002296
1761914508664265700,9.921265625,-0.8063339182972907,-0.9589660276979207,0.4298404830733314
1761914508674321700,9.93132177734375,-1.0071054969668387,-0.9480968431591987,0.5089847469368949
1761914508684376800,9.941376953125,-1.1436164926499128,-0.9073387163132428,0.5472057930532842
1761914508694432800,9.951432861328126,-1.3294634739100932,-0.8909592439204453,0.5162899188511073
1761914508704488700,9.96148876953125,-1.574835241806507,-0.7807441344887017,0.36776674260664727
1761914508714545000,9.971544921875,-1.6882792501568793,-0.6273819572478533,0.10915190978017635
1761914508724599800,9.981599853515625,-1.6766227146327495,-0.4193991320252418,-0.20819361842907963
1761914508734655700,9.99165576171875,-1.6708908929824828,-0.19988602800667285,-0.5001395059738308
1761914508744711700,10.001711669921875,-1.6480436858803034,-0.0012456161469221114,-0.7440911048740149
1761914508754766600,10.0117666015625,-1.6029197650402784,0.24277298357486723,-0.9005850773345678
1761914508764822800,10.02182275390625,-1.532341084948182,0.4419014712125063,-1.044856916277483
1761914508774878700,10.031878662109374,-1.3747230038285254,0.5108148484408855,-1.1182560606177896
1761914508784934700,10.0419345703125,-1.1822060432851313,0.4856266311705112,-1.1251125754490494
1761914508794989800,10.05198974609375,-1.1175532461106776,0.47109424794912336,-1.1685917247567326
1761914508805045800,10.062045654296876,-0.9735761523306369,0.5405798721075058,-1.2522967937298117
1761914508815101700,10.072101806640624,-0.7059393611341714,0.7213397593617439,-1.377695736028999
1761914508825156600,10.082156494140625,-0.5323854597359895,0.9295628230810165,-1.435176303486526
1761914508835212800,10.092212890625,-0.35853052956461906,1.0400853910267351,-1.3894627461902795
1761914508845268700,10.102268798828124,-0.1302577805072069,1.0013380194813013,-1.2572799889698625
1761914508855324700,10.11232470703125,0.04101590099930763,0.8710217867851257,-1.0447757408000529
1761914508865379800,10.1223798828125,0.19823884532153604,0.7973346192836761,-0.8763907664723694
1761914508875435800,10.132435791015626,0.32185528811812397,0.7858405808448791,-0.7765671410650015
1761914508885491700,10.14249169921875,0.4224620267271995,0.7885323041468858,-0.7167818037964403
1761914508895546600,10.152546630859375,0.4755190786540508,0.8102233269512653,-0.6818278331845998
1761914508905599200,10.16259912109375,0.4672802426189184,0.8886270015805959,-0.6852681098315865
1761914508915655400,10.172655517578125,0.5008481656998396,1.0126976178854703,-0.7170260608810931
1761914508925711000,10.182711181640625,0.5059305835306644,1.1432388915091751,-0.717017731444165
1761914508935766300,10.192766357421876,0.5236135397374629,1.183286239737272,-0.6889261208824813
1761914508945822200,10.202822265625,0.5528168378680944,1.1977040566682815,-0.7491703078344464
1761914508955878100,10.212878173828125,0.6453641886621714,1.181255610692501,-0.887522839730978
1761914508965933300,10.222933349609375,0.8542419168978929,1.094018056744337,-0.9732429748535155
1761914508975989200,10.2329892578125,1.1410025107592343,0.979808909240365,-0.9980079252105206
1761914508986045400,10.24304541015625,1.321541448739171,0.8324369123250246,-0.9383078550726175
1761914508996101400,10.253101318359375,1.3699305088549851,0.6726718823045492,-0.8197516913402825
1761914509006156300,10.26315625,1.37139473618865,0.5840408281713724,-0.7262100688118487
1761914509016212200,10.273212158203124,1.26376555159688,0.4868161332160234,-0.6752003048036247
1761914509026268200,10.28326806640625,1.1163508845835923,0.3675473642349243,-0.5816762909971177
1761914509036323300,10.2933232421875,1.0762304711192845,0.25852760206758973,-0.5249562595833093
1761914509046379300,10.303379150390626,1.1217109503120184,0.18159049285948275,-0.49741066553182894
1761914509056435500,10.313435546875,1.2240011119633913,0.04970832602083683,-0.44071364966742693
1761914509066491400,10.323491455078125,1.2573568535983561,-0.1373340025037527,-0.3614387451615184
1761914509076546300,10.33354638671875,1.1359726998984814,-0.24754852741360664,-0.2693260594576597
1761914509086602200,10.343602294921874,0.9908090266823768,-0.25984219179749485,-0.2500483814053237
1761914509096658200,10.353658203125,0.8912520893871784,-0.21222703866362572,-0.24056977444216607
1761914509106714400,10.36371435546875,0.9242121097028255,-0.20292203470170497,-0.2289315052270889
1761914509116769300,10.373769287109376,1.0227648383915424,-0.22468436917662618,-0.24189291280470787
1761914509126825200,10.3838251953125,1.076606318694353,-0.2629822433888912,-0.24050138538107274
1761914509136881400,10.39388134765625,1.0942203013181686,-0.32900808248221874,-0.26447905781790615
1761914509146936000,10.40393603515625,1.0592039329946041,-0.34149873074293136,-0.2657932822216302
1761914509156992300,10.4139921875,1.0216530777573585,-0.3658580959737301,-0.21839747092686593
1761914509167048200,10.424048095703125,1.029000517910719,-0.5245961210340261,-0.1606935430422425
1761914509177104100,10.434104248046875,0.9323866483300923,-0.6616840398222208,-0.11433964201584458
1761914509187159300,10.4441591796875,0.7498118206083774,-0.8213923712193966,-0.05576375360228121
1761914509197215200,10.45421533203125,0.5728267757177352,-0.9738204824805259,-0.04784348199702799
1761914509207271400,10.464271484375,0.43119303019344807,-1.042719246661663,-0.059416065564751624
1761914509217326000,10.474326171875,0.22687749530673026,-1.0606336735367774,-0.022362565390393135
1761914509227382300,10.48438232421875,-0.018687164813280106,-1.0693488949120045,0.007175225391611456
1761914509237438200,10.494438232421874,-0.2299772148877382,-1.0814847383856774,-0.043125732760131354
1761914509247494100,10.504494140625,-0.3744663498431444,-1.0662655419439078,-0.12305917424000799
1761914509257549300,10.51454931640625,-0.3840963479757309,-1.0212012423366308,-0.12533237986899912
1761914509267605200,10.524605224609376,-0.39727790111005307,-0.9810948573976754,-0.09617408992387354
1761914509277661400,10.534661376953125,-0.4271557375013828,-0.9494137709766626,-0.03335917570106685
1761914509287716400,10.54471630859375,-0.43979310075640676,-0.9866910699695348,0.06994030912332236
1761914509297772300,10.554772216796875,-0.593802928251028,-1.0523884077608585,0.18057035603150726
1761914509307828200,10.564828125,-0.8156862685322761,-1.2023305474251509,0.2770481781423092
1761914509317884200,10.57488427734375,-0.984866777151823,-1.2628203797012567,0.35902605799660087
1761914509327939300,10.584939208984375,-1.0944850897341967,-1.2385182976156472,0.4108807483963668
1761914509337995300,10.594995361328126,-1.079995376610756,-1.1740817735403775,0.44006110404282806
1761914509348051200,10.60505126953125,-1.0863421152889727,-1.0650567506760358,0.47572132322788235
1761914509358106400,10.6151064453125,-1.2256173149883747,-0.9770388600051403,0.5719821415871381
1761914509368162000,10.625162109375,-1.192945463964343,-0.949963221552968,0.6134786657102406
1761914509378218200,10.63521826171875,-1.1738333517372608,-0.7607119848072529,0.5616244137018919
1761914509388274200,10.645274169921874,-1.1396019963115454,-0.47961716162264345,0.38313495559766886
1761914509398329300,10.655329345703125,-1.0106377627462149,-0.20941782646179197,0.20281477493494748
1761914509408385300,10.66538525390625,-0.9699643915742635,0.13311083185076714,0.030181349382549523
1761914509418441200,10.675441162109376,-1.0528472574442624,0.5565338125646114,-0.11120711614377796
1761914509428496400,10.685496337890624,-1.1840765133321285,0.9231184692472219,-0.13020889986418188
1761914509438552300,10.69555224609375,-1.1675976722180843,1.141126429399848,-0.059831733693554996
1761914509448608300,10.705608154296876,-0.9751105222910642,1.2018179217278957,0.023536942932009697
1761914509458664200,10.715664306640624,-0.7275286771297454,1.1318500670105218,0.20350173428580165
1761914509468719400,10.72571923828125,-0.5101449863553047,0.9794301390558481,0.3735015964642167
1761914509478775300,10.735775390625,-0.29894845978319645,0.9109966542989015,0.4386579592466354
1761914509488831200,10.745831298828126,0.0078068743586540215,0.9888514628738164,0.5789230467662215
1761914509498887400,10.755887451171875,0.3632984746187925,0.9704331781297921,0.8289842876531183
1761914509508942300,10.7659423828125,0.48277474887073035,0.7859083853840827,1.1664788973212241
1761914509518998300,10.775998291015625,0.4214320991575718,0.6954822645276785,1.7126118735112248
1761914509529054200,10.78605419921875,-0.7738555440187453,0.6889671835452318,2.087783156753331
1761914509539109000,10.796109130859374,-0.5595014301985501,0.5689397051513194,1.7560940184935927
1761914509549165300,10.806165283203125,-0.03756722185015678,0.8219786466747522,1.2693838298700748
1761914509559221200,10.81622119140625,-0.051469490474462504,1.1210656381458044,1.2279298297144472
1761914509569277200,10.826277099609374,-0.04099076655805111,1.0846119304955004,1.2955810780525208
