time,seconds_elapsed,z,y,x
1761914498815954000,0.072953857421875,-0.86968994140625,-0.53656005859375,0.1215057373046875
1761914498826009900,0.083009765625,-0.8855438232421875,-0.5345001220703125,0.1298675537109375
1761914498836065800,0.093065673828125,-0.9001617431640625,-0.5406646728515625,0.1351165771484375
1761914498846121700,0.103121826171875,-0.9094085693359375,-0.547515869140625,0.1358642578125
1761914498856177000,0.113177001953125,-0.915252685546875,-0.5561981201171875,0.130584716796875
1761914498866232800,0.12323291015625,-0.91650390625,-0.5628662109375,0.124481201171875
1761914498876288800,0.133288818359375,-0.9243927001953125,-0.5694122314453125,0.1211090087890625
1761914498886344000,0.143343994140625,-0.931182861328125,-0.5731048583984375,0.1173095703125
1761914498896399600,0.153399658203125,-0.934173583984375,-0.573272705078125,0.1147613525390625
1761914498906455800,0.163455810546875,-0.9253997802734375,-0.5778045654296875,0.112274169921875
1761914498916510700,0.1735107421875,-0.915435791015625,-0.5969390869140625,0.1093597412109375
1761914498926567000,0.18356689453125,-0.9047088623046875,-0.62115478515625,0.10400390625
1761914498936622800,0.193622802734375,-0.89263916015625,-0.6346282958984375,0.099822998046875
1761914498946678000,0.203677978515625,-0.8863067626953125,-0.64501953125,0.09503173828125
1761914498956734000,0.21373388671875,-0.8840789794921875,-0.6556854248046875,0.09039306640625
1761914498966790000,0.223789794921875,-0.8880767822265625,-0.6622161865234375,0.0914764404296875
1761914498976845800,0.233845703125,-0.890289306640625,-0.6630859375,0.0912322998046875
1761914498986900700,0.243900634765625,-0.886260986328125,-0.6539459228515625,0.09185791015625
1761914498996957000,0.25395703125,-0.883331298828125,-0.6414337158203125,0.09503173828125
1761914499007012900,0.264012939453125,-0.8817596435546875,-0.628448486328125,0.0975799560546875
1761914499017068000,0.274068115234375,-0.873138427734375,-0.6126861572265625,0.09600830078125
1761914499027124000,0.2841240234375,-0.865966796875,-0.5905609130859375,0.093048095703125
1761914499037180000,0.294179931640625,-0.855743408203125,-0.5631103515625,0.0851287841796875
1761914499047234800,0.30423486328125,-0.8553619384765625,-0.5393524169921875,0.0669708251953125
1761914499057290800,0.314290771484375,-0.8745574951171875,-0.5225067138671875,0.0620880126953125
1761914499067346700,0.3243466796875,-0.89544677734375,-0.511016845703125,0.066314697265625
1761914499077403000,0.33440283203125,-0.9221649169921875,-0.50750732421875,0.0702056884765625
1761914499087457800,0.344457763671875,-0.9351806640625,-0.5020294189453125,0.0672149658203125
1761914499097514000,0.354513916015625,-0.912322998046875,-0.4909515380859375,0.05047607421875
1761914499107570000,0.36456982421875,-0.89361572265625,-0.4881591796875,0.0403594970703125
1761914499117624800,0.374624755859375,-0.8934173583984375,-0.4943389892578125,0.0356292724609375
1761914499127680800,0.3846806640625,-0.9017791748046875,-0.50238037109375,0.0356292724609375
1761914499137736700,0.39473681640625,-0.91058349609375,-0.501190185546875,0.039794921875
1761914499147792000,0.4047919921875,-0.91180419921875,-0.49169921875,0.0420379638671875
1761914499157847800,0.414847900390625,-0.8959808349609375,-0.4823150634765625,0.04095458984375
1761914499167904000,0.424904052734375,-0.87628173828125,-0.4695587158203125,0.0296478271484375
1761914499177959000,0.434958984375,-0.86328125,-0.454132080078125,0.0160369873046875
1761914499188014800,0.445014892578125,-0.857452392578125,-0.4372100830078125,0.004241943359375
1761914499198070800,0.45507080078125,-0.8532257080078125,-0.42388916015625,0.001007080078125
1761914499208126700,0.465126708984375,-0.8486785888671875,-0.411224365234375,0.0048980712890625
1761914499218182000,0.475181884765625,-0.848602294921875,-0.397308349609375,0.004852294921875
1761914499228237800,0.48523779296875,-0.8342742919921875,-0.39019775390625,-0.0032806396484375
1761914499238293800,0.495293701171875,-0.8095245361328125,-0.3950958251953125,-0.0302734375
1761914499248349000,0.505348876953125,-0.7694091796875,-0.4082794189453125,-0.071441650390625
1761914499258404900,0.51540478515625,-0.7353973388671875,-0.4159698486328125,-0.0890655517578125
1761914499268460800,0.525460693359375,-0.740997314453125,-0.42596435546875,-0.0974578857421875
1761914499278515700,0.535515625,-0.745849609375,-0.4309844970703125,-0.0999603271484375
1761914499288572000,0.545572021484375,-0.7514801025390625,-0.42401123046875,-0.0933074951171875
1761914499298627800,0.5556279296875,-0.7605133056640625,-0.4202728271484375,-0.0802154541015625
1761914499308683800,0.565683837890625,-0.7592010498046875,-0.43194580078125,-0.0623626708984375
1761914499318739000,0.575739013671875,-0.7522430419921875,-0.4535064697265625,-0.0438079833984375
1761914499328795000,0.585794921875,-0.7575531005859375,-0.4732513427734375,-0.0363006591796875
1761914499338850800,0.595850830078125,-0.7637176513671875,-0.482635498046875,-0.0397491455078125
1761914499348905700,0.60590576171875,-0.7632293701171875,-0.4874420166015625,-0.0406646728515625
1761914499358962000,0.6159619140625,-0.7689056396484375,-0.4936676025390625,-0.0368194580078125
1761914499369017900,0.626017822265625,-0.7743072509765625,-0.50811767578125,-0.0313568115234375
1761914499379073000,0.636072998046875,-0.7739410400390625,-0.5225677490234375,-0.0233154296875
1761914499389129000,0.64612890625,-0.777923583984375,-0.5368804931640625,-0.015869140625
1761914499399185000,0.656184814453125,-0.782379150390625,-0.5457611083984375,-0.0086212158203125
1761914499409239800,0.66623974609375,-0.7824249267578125,-0.5528106689453125,-0.000030517578125
1761914499419295700,0.676295654296875,-0.7863922119140625,-0.5589752197265625,0.0157012939453125
1761914499429351700,0.6863515625,-0.78936767578125,-0.5642852783203125,0.0312957763671875
1761914499439407900,0.696407958984375,-0.7870025634765625,-0.56964111328125,0.045013427734375
1761914499449462800,0.706462890625,-0.7828521728515625,-0.5780029296875,0.06024169921875
1761914499459519000,0.71651904296875,-0.7720947265625,-0.59405517578125,0.0803985595703125
1761914499469575000,0.726574951171875,-0.7603302001953125,-0.6123046875,0.102203369140625
1761914499479629800,0.7366298828125,-0.752166748046875,-0.625244140625,0.1212615966796875
1761914499489685800,0.746685791015625,-0.7537994384765625,-0.6310577392578125,0.14068603515625
1761914499499741700,0.75674169921875,-0.76141357421875,-0.6306304931640625,0.1648712158203125
1761914499509796900,0.766796875,-0.7635955810546875,-0.634002685546875,0.18927001953125
1761914499519852800,0.776852783203125,-0.7504730224609375,-0.6433868408203125,0.20892333984375
1761914499529909000,0.786908935546875,-0.73687744140625,-0.6469879150390625,0.2268218994140625
1761914499539965000,0.79696484375,-0.7272491455078125,-0.648101806640625,0.246124267578125
1761914499550019800,0.807019775390625,-0.7184906005859375,-0.646697998046875,0.2660369873046875
1761914499560075800,0.81707568359375,-0.7231597900390625,-0.63995361328125,0.2856292724609375
1761914499570131700,0.827131591796875,-0.7305450439453125,-0.632904052734375,0.3066864013671875
1761914499580187000,0.837186767578125,-0.73468017578125,-0.6316680908203125,0.328643798828125
1761914499590242800,0.847242919921875,-0.73968505859375,-0.6320343017578125,0.3487396240234375
1761914499600299000,0.857299072265625,-0.7410736083984375,-0.63250732421875,0.366302490234375
1761914499610354000,0.86735400390625,-0.7357940673828125,-0.63311767578125,0.379425048828125
1761914499620409900,0.877409912109375,-0.7327880859375,-0.6276092529296875,0.3879852294921875
1761914499630465800,0.8874658203125,-0.738983154296875,-0.620849609375,0.395294189453125
1761914499640521700,0.897521728515625,-0.7396087646484375,-0.6108551025390625,0.400482177734375
1761914499650577000,0.907576904296875,-0.7403411865234375,-0.602386474609375,0.4092254638671875
1761914499660632800,0.9176328125,-0.7519378662109375,-0.595458984375,0.4234771728515625
1761914499670688800,0.927688720703125,-0.7655792236328125,-0.598388671875,0.4330596923828125
1761914499680744000,0.937743896484375,-0.7742767333984375,-0.6088409423828125,0.438201904296875
1761914499690799900,0.9477998046875,-0.7737579345703125,-0.609222412109375,0.436737060546875
1761914499700856000,0.95785595703125,-0.769378662109375,-0.595367431640625,0.4192352294921875
1761914499710910700,0.96791064453125,-0.762420654296875,-0.586273193359375,0.39483642578125
1761914499720967000,0.977966796875,-0.75543212890625,-0.5908660888671875,0.376556396484375
1761914499731022800,0.98802294921875,-0.7500152587890625,-0.592254638671875,0.36309814453125
1761914499741078000,0.998078125,-0.73907470703125,-0.5872802734375,0.3472900390625
1761914499751134000,1.008134033203125,-0.722991943359375,-0.5828094482421875,0.328521728515625
1761914499761190000,1.01818994140625,-0.7126312255859375,-0.57666015625,0.3112945556640625
1761914499771246000,1.02824609375,-0.7095184326171875,-0.578033447265625,0.29656982421875
1761914499781300700,1.03830078125,-0.70526123046875,-0.5825958251953125,0.285980224609375
1761914499791357000,1.04835693359375,-0.7098541259765625,-0.5863189697265625,0.2812042236328125
1761914499801412900,1.058412841796875,-0.7140350341796875,-0.587921142578125,0.2750244140625
1761914499811467800,1.0684677734375,-0.71710205078125,-0.588409423828125,0.2608795166015625
1761914499821524000,1.07852392578125,-0.7199859619140625,-0.5865020751953125,0.244537353515625
1761914499831580000,1.088579833984375,-0.7241058349609375,-0.584320068359375,0.2290191650390625
1761914499841634800,1.098634765625,-0.7314605712890625,-0.5842742919921875,0.2136383056640625
1761914499851690800,1.108690673828125,-0.7332305908203125,-0.5820465087890625,0.199981689453125
1761914499861746700,1.11874658203125,-0.735992431640625,-0.581878662109375,0.1851806640625
1761914499871803000,1.128802978515625,-0.7435150146484375,-0.5847625732421875,0.1697540283203125
1761914499881857800,1.13885791015625,-0.7561187744140625,-0.5855712890625,0.158782958984375
1761914499891914000,1.1489140625,-0.7840728759765625,-0.5828857421875,0.1508331298828125
1761914499901970400,1.158970458984375,-0.81890869140625,-0.5828399658203125,0.1379547119140625
1761914499912025300,1.169025390625,-0.8409576416015625,-0.5862274169921875,0.1183319091796875
1761914499922081500,1.17908154296875,-0.8514251708984375,-0.5873260498046875,0.10089111328125
1761914499932137200,1.18913720703125,-0.8444671630859375,-0.59759521484375,0.09124755859375
1761914499942192400,1.1991923828125,-0.8316650390625,-0.6222381591796875,0.0878448486328125
1761914499952248300,1.209248291015625,-0.8366851806640625,-0.6354217529296875,0.07708740234375
1761914499962304300,1.21930419921875,-0.8468170166015625,-0.6382293701171875,0.0678253173828125
1761914499972360400,1.2293603515625,-0.8397674560546875,-0.6445159912109375,0.0714111328125
1761914499982415400,1.239415283203125,-0.826690673828125,-0.6654510498046875,0.0853729248046875
1761914499992471600,1.249471435546875,-0.831756591796875,-0.6937103271484375,0.0888671875
1761914500002527200,1.25952734375,-0.8416748046875,-0.710906982421875,0.08135986328125
1761914500012582400,1.26958251953125,-0.8553009033203125,-0.7070770263671875,0.0767364501953125
1761914500022638300,1.279638427734375,-0.89019775390625,-0.687225341796875,0.0769805908203125
1761914500032694300,1.2896943359375,-0.9210052490234375,-0.6705474853515625,0.0816650390625
1761914500042749400,1.29974951171875,-0.9363250732421875,-0.6573638916015625,0.076934814453125
1761914500052805400,1.309805419921875,-0.9496307373046875,-0.62908935546875,0.062103271484375
1761914500062861600,1.319861572265625,-0.94696044921875,-0.5975799560546875,0.0520172119140625
1761914500072917500,1.32991748046875,-0.9314727783203125,-0.561431884765625,0.0377349853515625
1761914500082972400,1.339972412109375,-0.908111572265625,-0.5184173583984375,0.0202484130859375
1761914500093028400,1.3500283203125,-0.895263671875,-0.481414794921875,0.0129852294921875
1761914500103084300,1.360084228515625,-0.90447998046875,-0.4586944580078125,0.0177154541015625
1761914500113139500,1.370139404296875,-0.9035797119140625,-0.4502410888671875,0.0233917236328125
1761914500123195400,1.3801953125,-0.87579345703125,-0.4401397705078125,0.0325469970703125
1761914500133251300,1.390251220703125,-0.821868896484375,-0.4339141845703125,0.04620361328125
1761914500143306200,1.40030615234375,-0.776275634765625,-0.44415283203125,0.0662384033203125
1761914500153362200,1.410362060546875,-0.751068115234375,-0.4672698974609375,0.098876953125
1761914500163418400,1.42041845703125,-0.744354248046875,-0.483917236328125,0.1341705322265625
1761914500173474300,1.430474365234375,-0.7476806640625,-0.488861083984375,0.168426513671875
1761914500183529500,1.440529541015625,-0.7605133056640625,-0.5041351318359375,0.2035675048828125
1761914500193585400,1.45058544921875,-0.7779083251953125,-0.5204925537109375,0.23114013671875
1761914500203641300,1.460641357421875,-0.79486083984375,-0.530059814453125,0.2535400390625
1761914500213696300,1.4706962890625,-0.810302734375,-0.5373382568359375,0.2746124267578125
1761914500223752200,1.480752197265625,-0.817291259765625,-0.544647216796875,0.289306640625
1761914500233808400,1.490808349609375,-0.816741943359375,-0.54510498046875,0.2934112548828125
1761914500243863300,1.50086328125,-0.8236846923828125,-0.5275421142578125,0.286773681640625
1761914500253919500,1.51091943359375,-0.824188232421875,-0.50042724609375,0.272247314453125
1761914500263975400,1.520975341796875,-0.82318115234375,-0.4804840087890625,0.2582550048828125
1761914500274030300,1.5310302734375,-0.8259429931640625,-0.465667724609375,0.249114990234375
1761914500284086500,1.54108642578125,-0.8314666748046875,-0.4530487060546875,0.2413787841796875
1761914500294142200,1.55114208984375,-0.8329620361328125,-0.442047119140625,0.231201171875
1761914500304198100,1.5611982421875,-0.830596923828125,-0.4344635009765625,0.2189788818359375
1761914500314253300,1.57125341796875,-0.8243865966796875,-0.43182373046875,0.2063751220703125
1761914500324309200,1.581309326171875,-0.816925048828125,-0.43072509765625,0.191497802734375
1761914500334365400,1.591365478515625,-0.813385009765625,-0.4307861328125,0.17828369140625
1761914500344420400,1.60142041015625,-0.81365966796875,-0.435699462890625,0.169097900390625
1761914500354476500,1.6114765625,-0.80633544921875,-0.444793701171875,0.1590423583984375
1761914500364532500,1.621532470703125,-0.79998779296875,-0.4524383544921875,0.1483306884765625
1761914500374587400,1.63158740234375,-0.796295166015625,-0.4591522216796875,0.1402130126953125
1761914500384643300,1.641643310546875,-0.79290771484375,-0.4648590087890625,0.136199951171875
1761914500394699300,1.65169921875,-0.7877655029296875,-0.4670562744140625,0.1317138671875
1761914500404755500,1.66175537109375,-0.785614013671875,-0.4719696044921875,0.13018798828125
1761914500414810400,1.671810302734375,-0.791595458984375,-0.477020263671875,0.134002685546875
1761914500424866600,1.681866455078125,-0.800079345703125,-0.4835357666015625,0.1396331787109375
1761914500434922500,1.691922607421875,-0.8018951416015625,-0.487518310546875,0.1442718505859375
1761914500444977400,1.701977294921875,-0.8038330078125,-0.48846435546875,0.1461639404296875
1761914500455033300,1.712033447265625,-0.8022003173828125,-0.496551513671875,0.147430419921875
1761914500465089300,1.72208935546875,-0.7985076904296875,-0.5031890869140625,0.1458740234375
1761914500475144400,1.73214453125,-0.795318603515625,-0.509521484375,0.1475067138671875
1761914500485200400,1.742200439453125,-0.7940216064453125,-0.5145416259765625,0.1489410400390625
1761914500495256300,1.75225634765625,-0.7951202392578125,-0.51678466796875,0.15008544921875
1761914500505312500,1.7623125,-0.8022613525390625,-0.5148162841796875,0.1512908935546875
1761914500515367200,1.7723671875,-0.8032684326171875,-0.5124359130859375,0.147796630859375
1761914500525423400,1.78242333984375,-0.7986907958984375,-0.5124664306640625,0.1459808349609375
1761914500535479300,1.792479248046875,-0.7867279052734375,-0.5182342529296875,0.147674560546875
1761914500545534500,1.802534423828125,-0.785980224609375,-0.521209716796875,0.1502838134765625
1761914500555590400,1.81259033203125,-0.785247802734375,-0.519073486328125,0.150634765625
1761914500565646300,1.822646240234375,-0.7899627685546875,-0.51959228515625,0.1530303955078125
1761914500575701200,1.832701171875,-0.8091583251953125,-0.5204620361328125,0.1507720947265625
1761914500585757200,1.842757080078125,-0.819305419921875,-0.5203857421875,0.14459228515625
1761914500595813400,1.8528134765625,-0.8274078369140625,-0.5244140625,0.1318359375
1761914500605868300,1.862868408203125,-0.8360595703125,-0.537689208984375,0.12005615234375
1761914500615924500,1.872924560546875,-0.8396453857421875,-0.549224853515625,0.1102447509765625
1761914500625980400,1.88298046875,-0.845245361328125,-0.552276611328125,0.097137451171875
1761914500636036400,1.893036376953125,-0.8583984375,-0.5476531982421875,0.0801849365234375
1761914500646091500,1.903091552734375,-0.883087158203125,-0.542022705078125,0.0666351318359375
1761914500656147200,1.913147216796875,-0.9083251953125,-0.53546142578125,0.0566558837890625
1761914500666203100,1.923203125,-0.931610107421875,-0.5315399169921875,0.0479278564453125
1761914500676258300,1.93325830078125,-0.9309234619140625,-0.547027587890625,0.0512542724609375
1761914500686314200,1.943314208984375,-0.9270172119140625,-0.577056884765625,0.049163818359375
1761914500696370400,1.953370361328125,-0.9396514892578125,-0.5833282470703125,0.03680419921875
1761914500706425300,1.96342529296875,-0.940155029296875,-0.577880859375,0.0294189453125
1761914500716481500,1.9734814453125,-0.9201812744140625,-0.5973358154296875,0.041290283203125
1761914500726537500,1.983537353515625,-0.9049835205078125,-0.6389007568359375,0.057708740234375
1761914500736593200,1.99359326171875,-0.9062347412109375,-0.6692047119140625,0.06573486328125
1761914500746648300,2.0036484375,-0.90814208984375,-0.667755126953125,0.060302734375
1761914500756704300,2.013704345703125,-0.9030609130859375,-0.636077880859375,0.049957275390625
1761914500766760400,2.023760498046875,-0.9028778076171875,-0.5944061279296875,0.039398193359375
1761914500776815400,2.0338154296875,-0.906829833984375,-0.552490234375,0.0299224853515625
1761914500786871600,2.04387158203125,-0.9144287109375,-0.5161895751953125,0.0189971923828125
1761914500796927500,2.053927490234375,-0.9263153076171875,-0.4775848388671875,0.0060577392578125
1761914500806982400,2.063982421875,-0.9434661865234375,-0.4439697265625,-0.0092010498046875
1761914500817038300,2.074038330078125,-0.9581451416015625,-0.42144775390625,-0.02545166015625
1761914500827094300,2.08409423828125,-0.96759033203125,-0.410675048828125,-0.0415496826171875
1761914500837150200,2.094150146484375,-0.9683990478515625,-0.4111480712890625,-0.0563507080078125
1761914500847205400,2.104205322265625,-0.956451416015625,-0.4184112548828125,-0.0679168701171875
1761914500857261300,2.11426123046875,-0.93487548828125,-0.4300689697265625,-0.0727691650390625
1761914500867317500,2.1243173828125,-0.919952392578125,-0.4465179443359375,-0.0691070556640625
1761914500877372200,2.1343720703125,-0.9067230224609375,-0.4699859619140625,-0.061065673828125
1761914500887428400,2.144428466796875,-0.890533447265625,-0.4967193603515625,-0.0522918701171875
1761914500897483500,2.1544833984375,-0.8737030029296875,-0.523468017578125,-0.043853759765625
1761914500907538700,2.16453857421875,-0.8478851318359375,-0.551544189453125,-0.034088134765625
1761914500917594600,2.1745947265625,-0.8401336669921875,-0.5714263916015625,-0.03070068359375
1761914500927650800,2.18465087890625,-0.855133056640625,-0.57659912109375,-0.0318603515625
1761914500937706800,2.194706787109375,-0.8731689453125,-0.568939208984375,-0.0380706787109375
1761914500947761400,2.204761474609375,-0.8935699462890625,-0.548187255859375,-0.0495147705078125
1761914500957817600,2.214817626953125,-0.9028472900390625,-0.5213165283203125,-0.064971923828125
1761914500967873500,2.22487353515625,-0.8892364501953125,-0.5006103515625,-0.0871429443359375
1761914500977928700,2.2349287109375,-0.871185302734375,-0.488800048828125,-0.10504150390625
1761914500987984600,2.244984619140625,-0.857421875,-0.4821014404296875,-0.114776611328125
1761914500998040600,2.25504052734375,-0.8374176025390625,-0.47686767578125,-0.1231536865234375
1761914501008095700,2.265095703125,-0.81109619140625,-0.473785400390625,-0.1283721923828125
1761914501018151700,2.275151611328125,-0.7884979248046875,-0.4793243408203125,-0.1254425048828125
1761914501028207600,2.28520751953125,-0.774749755859375,-0.491546630859375,-0.1142730712890625
1761914501038263600,2.295263671875,-0.7704925537109375,-0.509368896484375,-0.09649658203125
1761914501048318700,2.305318603515625,-0.7657012939453125,-0.530670166015625,-0.0748748779296875
1761914501058374700,2.315374755859375,-0.760955810546875,-0.543731689453125,-0.05828857421875
1761914501068430600,2.3254306640625,-0.760162353515625,-0.54559326171875,-0.047088623046875
1761914501078485800,2.33548583984375,-0.761322021484375,-0.5424652099609375,-0.0359344482421875
1761914501088541700,2.345541748046875,-0.7689666748046875,-0.538818359375,-0.0232696533203125
1761914501098597600,2.35559765625,-0.7815704345703125,-0.5321197509765625,-0.0136260986328125
1761914501108652500,2.365652587890625,-0.79010009765625,-0.5218505859375,-0.008056640625
1761914501118708700,2.375708740234375,-0.79022216796875,-0.5099945068359375,-0.00396728515625
1761914501128764700,2.3857646484375,-0.7874298095703125,-0.5022735595703125,-0.0031280517578125
1761914501138820600,2.395820556640625,-0.780670166015625,-0.4956207275390625,-0.0060577392578125
1761914501148875800,2.405875732421875,-0.769378662109375,-0.4918060302734375,-0.008148193359375
1761914501158931700,2.415931640625,-0.7586822509765625,-0.48870849609375,-0.0130767822265625
1761914501168987600,2.425987548828125,-0.7495880126953125,-0.4872283935546875,-0.02008056640625
1761914501179042600,2.43604248046875,-0.73736572265625,-0.4878082275390625,-0.0263519287109375
1761914501189098500,2.446098388671875,-0.727996826171875,-0.4913482666015625,-0.030059814453125
1761914501199154700,2.45615478515625,-0.7234039306640625,-0.50225830078125,-0.0324554443359375
1761914501209209600,2.466209716796875,-0.7264404296875,-0.515380859375,-0.031463623046875
1761914501219265800,2.476265869140625,-0.7291717529296875,-0.5342864990234375,-0.023773193359375
1761914501229321700,2.48632177734375,-0.7284088134765625,-0.5583648681640625,-0.009429931640625
1761914501239377700,2.496377685546875,-0.7319488525390625,-0.582550048828125,0.0032196044921875
1761914501249432600,2.5064326171875,-0.748291015625,-0.59820556640625,0.0104522705078125
1761914501259488500,2.516488525390625,-0.771575927734375,-0.6073760986328125,0.017059326171875
1761914501269544700,2.526544677734375,-0.788421630859375,-0.6133575439453125,0.02197265625
1761914501279599600,2.536599609375,-0.8007659912109375,-0.6154937744140625,0.029144287109375
1761914501289655800,2.54665576171875,-0.809783935546875,-0.617156982421875,0.0373382568359375
1761914501299711700,2.556711669921875,-0.819366455078125,-0.6168212890625,0.0419158935546875
1761914501309766700,2.5667666015625,-0.8296356201171875,-0.6090240478515625,0.0451507568359375
1761914501319822600,2.576822509765625,-0.843353271484375,-0.598052978515625,0.043548583984375
1761914501329878500,2.58687841796875,-0.8599090576171875,-0.592926025390625,0.0397491455078125
1761914501339934500,2.5969345703125,-0.8698272705078125,-0.5872344970703125,0.0358428955078125
1761914501349989600,2.60698974609375,-0.881561279296875,-0.578521728515625,0.030914306640625
1761914501360045600,2.617045654296875,-0.8853302001953125,-0.5663604736328125,0.023345947265625
1761914501370101800,2.627101806640625,-0.888824462890625,-0.553070068359375,0.0123138427734375
1761914501380156700,2.63715673828125,-0.89453125,-0.5365753173828125,-0.0009765625
1761914501390212600,2.647212646484375,-0.8994598388671875,-0.52642822265625,-0.013641357421875
1761914501400268500,2.6572685546875,-0.903533935546875,-0.5232086181640625,-0.024688720703125
1761914501410323700,2.66732373046875,-0.9019775390625,-0.5405426025390625,-0.027069091796875
1761914501420379600,2.677379638671875,-0.887481689453125,-0.576019287109375,-0.0136260986328125
1761914501430435600,2.687435546875,-0.8912811279296875,-0.6066131591796875,0.00537109375
1761914501440491800,2.69749169921875,-0.9105377197265625,-0.6321258544921875,0.0309906005859375
1761914501450546700,2.707546630859375,-0.9155120849609375,-0.6728515625,0.0706329345703125
1761914501460603000,2.717602783203125,-0.922027587890625,-0.708984375,0.101776123046875
1761914501470658600,2.727658447265625,-0.954498291015625,-0.7106781005859375,0.116485595703125
1761914501480713700,2.737713623046875,-0.9918670654296875,-0.67901611328125,0.129119873046875
1761914501490769700,2.747769775390625,-1.0189361572265625,-0.642242431640625,0.1545562744140625
1761914501500825600,2.75782568359375,-1.0345611572265625,-0.620147705078125,0.1886138916015625
1761914501510880800,2.767880859375,-1.0407867431640625,-0.5912322998046875,0.2066497802734375
1761914501520936700,2.777936767578125,-1.0509490966796875,-0.530914306640625,0.19427490234375
1761914501530992600,2.78799267578125,-1.0446014404296875,-0.4554595947265625,0.1725006103515625
1761914501541048600,2.798048583984375,-1.0092315673828125,-0.3969573974609375,0.1555633544921875
1761914501551103500,2.808103515625,-0.943267822265625,-0.356475830078125,0.143890380859375
1761914501561159700,2.81815966796875,-0.85479736328125,-0.34271240234375,0.142364501953125
1761914501571215600,2.828215576171875,-0.7655792236328125,-0.3480072021484375,0.1508941650390625
1761914501581270800,2.838270751953125,-0.7169189453125,-0.3631134033203125,0.178070068359375
1761914501591326700,2.84832666015625,-0.72100830078125,-0.381378173828125,0.229522705078125
1761914501601382700,2.858382568359375,-0.723663330078125,-0.3987579345703125,0.2855377197265625
1761914501611438800,2.86843896484375,-0.7227935791015625,-0.4220123291015625,0.3419342041015625
1761914501621493500,2.878493408203125,-0.7286834716796875,-0.447723388671875,0.3979034423828125
1761914501631549700,2.8885498046875,-0.7330169677734375,-0.4806976318359375,0.4479522705078125
1761914501641605600,2.898605712890625,-0.743408203125,-0.512451171875,0.4781036376953125
1761914501651660800,2.908660888671875,-0.7694854736328125,-0.5220947265625,0.486480712890625
1761914501661716700,2.918716796875,-0.8010406494140625,-0.506072998046875,0.4769287109375
1761914501671772700,2.928772705078125,-0.80767822265625,-0.46746826171875,0.45147705078125
1761914501681827600,2.93882763671875,-0.801177978515625,-0.4244842529296875,0.41552734375
1761914501691883500,2.948883544921875,-0.80096435546875,-0.3895721435546875,0.37786865234375
1761914501701939500,2.958939453125,-0.7981719970703125,-0.35284423828125,0.3422088623046875
1761914501711995600,2.96899560546875,-0.791107177734375,-0.3189544677734375,0.3154296875
1761914501722050600,2.979050537109375,-0.7814178466796875,-0.29351806640625,0.3013153076171875
1761914501732106800,2.989106689453125,-0.769775390625,-0.2857818603515625,0.2950439453125
1761914501742162700,2.99916259765625,-0.7597808837890625,-0.289093017578125,0.2943878173828125
1761914501752217600,3.009217529296875,-0.764984130859375,-0.29656982421875,0.2965240478515625
1761914501762273500,3.0192734375,-0.771881103515625,-0.29827880859375,0.3040771484375
1761914501772329500,3.02932958984375,-0.7772979736328125,-0.28997802734375,0.3135833740234375
1761914501782384600,3.039384521484375,-0.7859649658203125,-0.2855377197265625,0.3262176513671875
1761914501792440600,3.049440673828125,-0.79876708984375,-0.29327392578125,0.339263916015625
1761914501802496800,3.059496826171875,-0.816253662109375,-0.3106689453125,0.3506622314453125
1761914501812552700,3.069552734375,-0.8285980224609375,-0.3267974853515625,0.357025146484375
1761914501822608000,3.07960791015625,-0.8318939208984375,-0.33331298828125,0.3545074462890625
1761914501832663600,3.08966357421875,-0.8462066650390625,-0.337615966796875,0.3421173095703125
1761914501842719500,3.099719482421875,-0.8688812255859375,-0.3332672119140625,0.3270111083984375
1761914501852774700,3.109774658203125,-0.9033050537109375,-0.3177947998046875,0.313720703125
1761914501862830600,3.11983056640625,-0.9361114501953125,-0.31622314453125,0.309722900390625
1761914501872886800,3.12988671875,-0.9514923095703125,-0.3141632080078125,0.3032989501953125
1761914501882941700,3.139941650390625,-0.9625701904296875,-0.3084564208984375,0.280853271484375
1761914501892997600,3.14999755859375,-0.972320556640625,-0.308807373046875,0.25567626953125
1761914501903054600,3.1600546875,-0.9778900146484375,-0.3136444091796875,0.231842041015625
1761914501913110500,3.170110595703125,-0.971832275390625,-0.3218841552734375,0.2099151611328125
1761914501923165400,3.18016552734375,-0.9583282470703125,-0.33343505859375,0.19085693359375
1761914501933221600,3.1902216796875,-0.941558837890625,-0.3470001220703125,0.174224853515625
1761914501943277600,3.200277587890625,-0.9297943115234375,-0.353302001953125,0.1604156494140625
1761914501953332500,3.21033251953125,-0.93359375,-0.3549957275390625,0.148712158203125
1761914501963388400,3.220388427734375,-0.9241790771484375,-0.364227294921875,0.139434814453125
1761914501973444400,3.2304443359375,-0.916412353515625,-0.3781280517578125,0.1302642822265625
1761914501983500500,3.24050048828125,-0.91241455078125,-0.39599609375,0.1277618408203125
1761914501993555500,3.250555419921875,-0.9041595458984375,-0.415557861328125,0.1298675537109375
1761914502003611600,3.260611572265625,-0.905181884765625,-0.4353179931640625,0.1342620849609375
1761914502013667600,3.27066748046875,-0.8982086181640625,-0.4730682373046875,0.1491241455078125
1761914502023722500,3.280722412109375,-0.8802642822265625,-0.522430419921875,0.169219970703125
1761914502033778400,3.2907783203125,-0.88262939453125,-0.5538330078125,0.1843719482421875
1761914502043834400,3.30083447265625,-0.89544677734375,-0.5596160888671875,0.1992034912109375
1761914502053889500,3.3108896484375,-0.880859375,-0.568206787109375,0.223114013671875
1761914502063945500,3.320945556640625,-0.8534088134765625,-0.5899658203125,0.251190185546875
1761914502074001700,3.331001708984375,-0.8543701171875,-0.6036834716796875,0.2762451171875
1761914502084057600,3.3410576171875,-0.86212158203125,-0.5912322998046875,0.2880401611328125
1761914502094112500,3.351112548828125,-0.8492279052734375,-0.553619384765625,0.292236328125
1761914502104168400,3.36116845703125,-0.8333892822265625,-0.50677490234375,0.2969818115234375
1761914502114224400,3.371224365234375,-0.8231658935546875,-0.4644317626953125,0.304351806640625
1761914502124279600,3.381279541015625,-0.8117218017578125,-0.43695068359375,0.310302734375
1761914502134335500,3.39133544921875,-0.810546875,-0.4213104248046875,0.313720703125
1761914502144391400,3.401391357421875,-0.8207855224609375,-0.40850830078125,0.310943603515625
1761914502154447600,3.411447509765625,-0.8400726318359375,-0.3962249755859375,0.3075103759765625
1761914502164502300,3.421502197265625,-0.84832763671875,-0.3919219970703125,0.302154541015625
1761914502174558500,3.431558349609375,-0.8499298095703125,-0.3910369873046875,0.2939910888671875
1761914502184614400,3.441614501953125,-0.86590576171875,-0.3827667236328125,0.283660888671875
1761914502194669600,3.451669677734375,-0.89605712890625,-0.3775482177734375,0.27874755859375
1761914502204725500,3.4617255859375,-0.9065093994140625,-0.3797760009765625,0.2822265625
1761914502214781400,3.471781494140625,-0.912811279296875,-0.3853607177734375,0.285186767578125
1761914502224836600,3.481836669921875,-0.9358062744140625,-0.39410400390625,0.289337158203125
1761914502234892300,3.491892333984375,-0.955108642578125,-0.4214630126953125,0.30072021484375
1761914502244948500,3.501948486328125,-0.9521484375,-0.45660400390625,0.3101806640625
1761914502255004400,3.51200439453125,-0.9425811767578125,-0.4739990234375,0.3026580810546875
1761914502265059600,3.5220595703125,-0.9329071044921875,-0.4670562744140625,0.2779083251953125
1761914502275115500,3.532115478515625,-0.9401702880859375,-0.4422454833984375,0.239959716796875
1761914502285171500,3.54217138671875,-0.949920654296875,-0.412872314453125,0.2020111083984375
1761914502295226600,3.5522265625,-0.928009033203125,-0.3863067626953125,0.161224365234375
1761914502305282600,3.562282470703125,-0.8907012939453125,-0.3664703369140625,0.124969482421875
1761914502315338500,3.57233837890625,-0.849151611328125,-0.3575286865234375,0.1013946533203125
1761914502325393400,3.582393310546875,-0.8209228515625,-0.361297607421875,0.09100341796875
1761914502335449300,3.592449462890625,-0.79437255859375,-0.3745269775390625,0.0954132080078125
1761914502345505500,3.602505615234375,-0.7824859619140625,-0.3879241943359375,0.114105224609375
1761914502355561500,3.6125615234375,-0.7769775390625,-0.403167724609375,0.1436767578125
1761914502365616600,3.62261669921875,-0.7658538818359375,-0.427703857421875,0.173248291015625
1761914502375672600,3.632672607421875,-0.763885498046875,-0.453643798828125,0.2052459716796875
1761914502385728500,3.642728515625,-0.7683868408203125,-0.4747161865234375,0.2279510498046875
1761914502395783400,3.652783447265625,-0.7601776123046875,-0.4819183349609375,0.234619140625
1761914502405839400,3.66283935546875,-0.77142333984375,-0.4794921875,0.23883056640625
1761914502415895600,3.6728955078125,-0.803314208984375,-0.4649810791015625,0.2436676025390625
1761914502425951500,3.682951416015625,-0.8170928955078125,-0.4386138916015625,0.2512054443359375
1761914502436006700,3.693006591796875,-0.8172760009765625,-0.416534423828125,0.2603912353515625
1761914502446062600,3.7030625,-0.7958526611328125,-0.412567138671875,0.267120361328125
1761914502456118500,3.713118408203125,-0.7722930908203125,-0.426025390625,0.2737884521484375
1761914502466173400,3.72317333984375,-0.7689666748046875,-0.44696044921875,0.2839813232421875
1761914502476229400,3.7332294921875,-0.77850341796875,-0.46722412109375,0.298004150390625
1761914502486285600,3.74328564453125,-0.7774505615234375,-0.4795989990234375,0.3060302734375
1761914502496341500,3.753341552734375,-0.7677459716796875,-0.4749603271484375,0.3048553466796875
1761914502506396400,3.763396484375,-0.753936767578125,-0.4658355712890625,0.2965240478515625
1761914502516452600,3.77345263671875,-0.7411346435546875,-0.45892333984375,0.283172607421875
1761914502526508500,3.783508544921875,-0.7282562255859375,-0.4571075439453125,0.2706451416015625
1761914502536563500,3.7935634765625,-0.72222900390625,-0.4610443115234375,0.261993408203125
1761914502546619400,3.803619384765625,-0.7252655029296875,-0.468658447265625,0.264434814453125
1761914502556675300,3.81367529296875,-0.74029541015625,-0.481353759765625,0.2767181396484375
1761914502566730500,3.82373046875,-0.752777099609375,-0.4949951171875,0.283050537109375
1761914502576786400,3.833786376953125,-0.757568359375,-0.5113983154296875,0.28857421875
1761914502586842600,3.843842529296875,-0.7613067626953125,-0.5322418212890625,0.3019561767578125
1761914502596898600,3.853898681640625,-0.768218994140625,-0.5567474365234375,0.3184051513671875
1761914502606953500,3.863953369140625,-0.77374267578125,-0.5690765380859375,0.325836181640625
1761914502617009400,3.874009521484375,-0.793243408203125,-0.5664520263671875,0.327728271484375
1761914502627065300,3.8840654296875,-0.83135986328125,-0.5545196533203125,0.323394775390625
1761914502637120500,3.89412060546875,-0.8561553955078125,-0.5315399169921875,0.309783935546875
1761914502647176400,3.904176513671875,-0.864471435546875,-0.504669189453125,0.286651611328125
1761914502657232600,3.914232666015625,-0.884490966796875,-0.4844512939453125,0.2626495361328125
1761914502667288600,3.92428857421875,-0.9132843017578125,-0.47357177734375,0.24481201171875
1761914502677343500,3.934343505859375,-0.929718017578125,-0.464111328125,0.2271728515625
1761914502687399400,3.9443994140625,-0.9437408447265625,-0.45184326171875,0.2070159912109375
1761914502697455400,3.954455322265625,-0.959442138671875,-0.446685791015625,0.1838836669921875
1761914502707510500,3.964510498046875,-0.9609832763671875,-0.460296630859375,0.1612396240234375
1761914502717566500,3.97456640625,-0.9633331298828125,-0.4888763427734375,0.14215087890625
1761914502727622400,3.984622314453125,-0.9971771240234375,-0.5007171630859375,0.12188720703125
1761914502737678600,3.9946787109375,-1.048736572265625,-0.512786865234375,0.1094818115234375
1761914502747733500,4.0047333984375,-1.0760345458984375,-0.5389251708984375,0.1199493408203125
1761914502757789400,4.01478955078125,-1.1034088134765625,-0.5670166015625,0.141876220703125
1761914502767842600,4.024842529296875,-1.1344451904296875,-0.5785980224609375,0.160888671875
1761914502777897500,4.0348974609375,-1.137786865234375,-0.57086181640625,0.1797332763671875
1761914502787953400,4.044953369140625,-1.1398468017578125,-0.5537872314453125,0.2019195556640625
1761914502798009300,4.05500927734375,-1.1523590087890625,-0.5411224365234375,0.2319793701171875
1761914502808065500,4.0650654296875,-1.145111083984375,-0.52850341796875,0.25347900390625
1761914502818120400,4.075120361328125,-1.10675048828125,-0.4996185302734375,0.2577667236328125
1761914502828176400,4.08517626953125,-1.0458984375,-0.4651641845703125,0.2509613037109375
1761914502838232600,4.095232666015625,-0.9657440185546875,-0.446044921875,0.2413482666015625
1761914502848287500,4.10528759765625,-0.8932647705078125,-0.4361419677734375,0.2309722900390625
1761914502858343400,4.115343505859375,-0.8447723388671875,-0.420135498046875,0.22314453125
1761914502868399400,4.1253994140625,-0.821044921875,-0.3939971923828125,0.2269134521484375
1761914502878455300,4.135455322265625,-0.8069305419921875,-0.3778839111328125,0.24249267578125
1761914502888510500,4.145510498046875,-0.7857513427734375,-0.383056640625,0.267791748046875
1761914502898566400,4.15556640625,-0.75341796875,-0.3981781005859375,0.2980194091796875
1761914502908622000,4.1656220703125,-0.7194976806640625,-0.417694091796875,0.3240509033203125
1761914502918677000,4.175677001953125,-0.6960296630859375,-0.437957763671875,0.344757080078125
1761914502928733200,4.185733154296875,-0.6851043701171875,-0.45965576171875,0.3613739013671875
1761914502938789000,4.1957890625,-0.675506591796875,-0.481170654296875,0.3758697509765625
1761914502948845000,4.205844970703125,-0.671844482421875,-0.49163818359375,0.387359619140625
1761914502958900200,4.215900146484375,-0.67572021484375,-0.48779296875,0.3889007568359375
1761914502968956000,4.225955810546875,-0.68060302734375,-0.47711181640625,0.3790130615234375
1761914502979012000,4.23601220703125,-0.6798553466796875,-0.4673614501953125,0.3637237548828125
1761914502989067000,4.24606689453125,-0.664276123046875,-0.4586334228515625,0.3440704345703125
1761914502999123200,4.256123291015625,-0.6507415771484375,-0.45599365234375,0.3239288330078125
1761914503009179100,4.26617919921875,-0.64520263671875,-0.4581146240234375,0.3065338134765625
1761914503019234300,4.276234375,-0.64959716796875,-0.4672088623046875,0.290283203125
1761914503029290200,4.286290283203125,-0.6628570556640625,-0.4804229736328125,0.27716064453125
1761914503039346200,4.29634619140625,-0.6804351806640625,-0.4897003173828125,0.2624969482421875
1761914503049402000,4.306402099609375,-0.7079010009765625,-0.492645263671875,0.2506103515625
1761914503059457000,4.31645703125,-0.747528076171875,-0.4954833984375,0.24517822265625
1761914503069513000,4.326512939453125,-0.7714691162109375,-0.502532958984375,0.23822021484375
1761914503079569200,4.336569091796875,-0.777618408203125,-0.5108184814453125,0.2301788330078125
1761914503089624000,4.3466240234375,-0.784149169921875,-0.5207672119140625,0.2211761474609375
1761914503099680300,4.35668017578125,-0.80303955078125,-0.5282135009765625,0.215057373046875
1761914503109736200,4.366736083984375,-0.826507568359375,-0.533599853515625,0.2108154296875
1761914503119791900,4.3767919921875,-0.841583251953125,-0.5326080322265625,0.2037811279296875
1761914503129847000,4.386846923828125,-0.8372802734375,-0.5170440673828125,0.18902587890625
1761914503139903000,4.396903076171875,-0.83251953125,-0.4962158203125,0.17230224609375
1761914503149959200,4.406959228515625,-0.83807373046875,-0.4901580810546875,0.1657562255859375
1761914503160014000,4.41701416015625,-0.8690948486328125,-0.499359130859375,0.1744384765625
1761914503170070300,4.4270703125,-0.9143524169921875,-0.4952545166015625,0.183197021484375
1761914503180126200,4.437126220703125,-0.9080657958984375,-0.474761962890625,0.164306640625
1761914503190182100,4.44718212890625,-0.881866455078125,-0.48284912109375,0.1258087158203125
1761914503200237000,4.457237060546875,-0.870147705078125,-0.49896240234375,0.0874481201171875
1761914503210293000,4.46729296875,-0.850311279296875,-0.4967803955078125,0.0559844970703125
1761914503220349200,4.47734912109375,-0.8121185302734375,-0.4912567138671875,0.035919189453125
1761914503230404000,4.487404052734375,-0.804534912109375,-0.48846435546875,0.0308837890625
1761914503240460000,4.4974599609375,-0.8201751708984375,-0.49371337890625,0.0479583740234375
1761914503250516200,4.50751611328125,-0.8085174560546875,-0.5121307373046875,0.0732269287109375
1761914503260572200,4.517572265625,-0.7779541015625,-0.5379638671875,0.092498779296875
1761914503270627000,4.527626953125,-0.766326904296875,-0.57147216796875,0.103424072265625
1761914503280683000,4.53768310546875,-0.75640869140625,-0.6022186279296875,0.1089630126953125
1761914503290739000,4.547739013671875,-0.7467193603515625,-0.6156463623046875,0.099761962890625
1761914503300794000,4.557794189453125,-0.74908447265625,-0.613922119140625,0.082763671875
1761914503310850000,4.56785009765625,-0.749114990234375,-0.6128082275390625,0.0786895751953125
1761914503320906200,4.57790625,-0.7452392578125,-0.61468505859375,0.078277587890625
1761914503330962200,4.587962158203125,-0.7515869140625,-0.613067626953125,0.06988525390625
1761914503341017000,4.59801708984375,-0.75347900390625,-0.6099090576171875,0.06109619140625
1761914503351075000,4.608074951171875,-0.7472076416015625,-0.611114501953125,0.047393798828125
1761914503361131300,4.61813134765625,-0.734100341796875,-0.610107421875,0.027740478515625
1761914503371186000,4.62818603515625,-0.713409423828125,-0.61248779296875,0.0194854736328125
1761914503381242000,4.6382421875,-0.6869659423828125,-0.63165283203125,0.0213775634765625
1761914503391298000,4.648298095703125,-0.6707916259765625,-0.6530609130859375,0.03448486328125
1761914503401353200,4.658353271484375,-0.67156982421875,-0.6842498779296875,0.059051513671875
1761914503411409200,4.6684091796875,-0.6617889404296875,-0.7511749267578125,0.103424072265625
1761914503421465000,4.678465087890625,-0.65521240234375,-0.8108673095703125,0.148956298828125
1761914503431521300,4.688521240234375,-0.6872711181640625,-0.8107452392578125,0.1589202880859375
1761914503441576000,4.698575927734375,-0.7207183837890625,-0.7823028564453125,0.1557769775390625
1761914503451632000,4.708632080078125,-0.7154998779296875,-0.778839111328125,0.1696929931640625
1761914503461688000,4.71868798828125,-0.7059478759765625,-0.772735595703125,0.186614990234375
1761914503471743200,4.7287431640625,-0.7227020263671875,-0.7353973388671875,0.1867828369140625
1761914503481799200,4.738799072265625,-0.7557525634765625,-0.6711273193359375,0.1731109619140625
1761914503491855000,4.748855224609375,-0.783111572265625,-0.6057281494140625,0.152130126953125
1761914503501911000,4.7589111328125,-0.804718017578125,-0.564422607421875,0.1365509033203125
1761914503511966000,4.768966064453125,-0.822296142578125,-0.5525360107421875,0.1237945556640625
1761914503522022000,4.77902197265625,-0.85491943359375,-0.549713134765625,0.1028900146484375
1761914503532078000,4.789078125,-0.8971710205078125,-0.543487548828125,0.0794219970703125
1761914503542133000,4.799133056640625,-0.922515869140625,-0.5376739501953125,0.0582122802734375
1761914503552189200,4.809189208984375,-0.928466796875,-0.539764404296875,0.041748046875
1761914503562245000,4.8192451171875,-0.89776611328125,-0.5479278564453125,0.0219268798828125
1761914503572301000,4.829301025390625,-0.867889404296875,-0.553985595703125,-0.0062713623046875
1761914503582356200,4.839356201171875,-0.8504638671875,-0.559417724609375,-0.032958984375
1761914503592412000,4.849411865234375,-0.84185791015625,-0.5720062255859375,-0.041717529296875
1761914503602468000,4.859468017578125,-0.85321044921875,-0.5900726318359375,-0.033477783203125
1761914503612523000,4.86952294921875,-0.86981201171875,-0.606231689453125,-0.0225372314453125
1761914503622579200,4.8795791015625,-0.8770294189453125,-0.6140594482421875,-0.0210418701171875
1761914503632635100,4.88963525390625,-0.8656768798828125,-0.61431884765625,-0.0318145751953125
1761914503642691000,4.899691162109375,-0.8427581787109375,-0.6118927001953125,-0.0526275634765625
1761914503652746200,4.909746337890625,-0.8198394775390625,-0.6053924560546875,-0.07806396484375
1761914503662802200,4.91980224609375,-0.7969207763671875,-0.5943450927734375,-0.097198486328125
1761914503672858000,4.929858154296875,-0.771942138671875,-0.5831451416015625,-0.10858154296875
1761914503682913000,4.9399130859375,-0.7369842529296875,-0.5740203857421875,-0.11279296875
1761914503692969000,4.949968994140625,-0.70855712890625,-0.569549560546875,-0.1103973388671875
1761914503703025200,4.960025146484375,-0.689971923828125,-0.5755462646484375,-0.0979156494140625
1761914503713080000,4.970080078125,-0.6721038818359375,-0.588897705078125,-0.0808868408203125
1761914503723136300,4.98013623046875,-0.6623077392578125,-0.6005859375,-0.062286376953125
1761914503733192200,4.990192138671875,-0.658782958984375,-0.609619140625,-0.0408172607421875
1761914503743248000,5.000247802734375,-0.66387939453125,-0.615631103515625,-0.0223236083984375
1761914503753303000,5.010302978515625,-0.675384521484375,-0.6152801513671875,-0.007354736328125
1761914503763359000,5.02035888671875,-0.68798828125,-0.6168060302734375,0.0118255615234375
1761914503773415200,5.030415283203125,-0.68988037109375,-0.6212921142578125,0.032073974609375
1761914503783470000,5.040469970703125,-0.688201904296875,-0.6122894287109375,0.04290771484375
1761914503793526300,5.0505263671875,-0.687347412109375,-0.5938720703125,0.0489349365234375
1761914503803582200,5.060582275390625,-0.679534912109375,-0.584869384765625,0.054595947265625
1761914503813638100,5.07063818359375,-0.6666259765625,-0.5799713134765625,0.0643768310546875
1761914503823693000,5.080693115234375,-0.6600341796875,-0.5766754150390625,0.07568359375
1761914503833749000,5.0907490234375,-0.655731201171875,-0.57684326171875,0.0812225341796875
1761914503843805200,5.10080517578125,-0.6621856689453125,-0.581390380859375,0.082916259765625
1761914503853860000,5.110860107421875,-0.675079345703125,-0.5915679931640625,0.0897064208984375
1761914503863916000,5.120916015625,-0.679046630859375,-0.5984954833984375,0.0941162109375
1761914503873972200,5.13097216796875,-0.6876983642578125,-0.596771240234375,0.0925445556640625
1761914503884028200,5.141028076171875,-0.70330810546875,-0.59051513671875,0.0885772705078125
1761914503894083000,5.1510830078125,-0.7211456298828125,-0.5825042724609375,0.0834808349609375
1761914503904139800,5.161139892578125,-0.7273101806640625,-0.581024169921875,0.0800933837890625
1761914503914195700,5.17119580078125,-0.727813720703125,-0.59112548828125,0.086181640625
1761914503924251000,5.1812509765625,-0.721405029296875,-0.610626220703125,0.098907470703125
1761914503934306800,5.191306884765625,-0.7092132568359375,-0.643310546875,0.117340087890625
1761914503944362800,5.20136279296875,-0.7195892333984375,-0.6744232177734375,0.1376800537109375
1761914503954418700,5.211418701171875,-0.765411376953125,-0.684173583984375,0.1573333740234375
1761914503964473600,5.2214736328125,-0.8387908935546875,-0.67864990234375,0.17950439453125
1761914503974529800,5.23152978515625,-0.8829345703125,-0.6703948974609375,0.1959991455078125
1761914503984585700,5.241585693359375,-0.88525390625,-0.6482696533203125,0.1949005126953125
1761914503994641000,5.251640869140625,-0.8553466796875,-0.633026123046875,0.1807708740234375
1761914504004696800,5.26169677734375,-0.7792816162109375,-0.6695556640625,0.19378662109375
1761914504014752800,5.271752685546875,-0.7270355224609375,-0.73590087890625,0.2210845947265625
1761914504024809000,5.28180908203125,-0.7709197998046875,-0.7664337158203125,0.2346343994140625
1761914504034863600,5.291863525390625,-0.82818603515625,-0.77984619140625,0.26287841796875
1761914504044919800,5.301919921875,-0.8517608642578125,-0.817779541015625,0.301910400390625
1761914504054975700,5.311975830078125,-0.8962860107421875,-0.8486480712890625,0.329132080078125
1761914504065031000,5.322031005859375,-0.940765380859375,-0.8414154052734375,0.333526611328125
1761914504075086800,5.3320869140625,-0.95819091796875,-0.8047943115234375,0.314361572265625
1761914504085142800,5.342142822265625,-0.9546966552734375,-0.7553863525390625,0.2818450927734375
1761914504095199000,5.352198974609375,-0.9556121826171875,-0.7098541259765625,0.2519989013671875
1761914504105253600,5.362253662109375,-0.9303741455078125,-0.6701202392578125,0.2137451171875
1761914504115309800,5.372309814453125,-0.8805084228515625,-0.6389312744140625,0.1687469482421875
1761914504125365800,5.38236572265625,-0.846343994140625,-0.61309814453125,0.125030517578125
1761914504135420700,5.392420654296875,-0.83148193359375,-0.59893798828125,0.094451904296875
1761914504145476900,5.402476806640625,-0.82440185546875,-0.6092681884765625,0.0879669189453125
1761914504155532800,5.41253271484375,-0.83380126953125,-0.634429931640625,0.1063995361328125
1761914504165587700,5.422587646484375,-0.8451995849609375,-0.671295166015625,0.13250732421875
1761914504175643600,5.4326435546875,-0.8525238037109375,-0.7026214599609375,0.1421966552734375
1761914504185699600,5.442699462890625,-0.8834228515625,-0.7208099365234375,0.141998291015625
1761914504195755800,5.452755859375,-0.9314422607421875,-0.7212066650390625,0.13787841796875
1761914504205810700,5.462810791015625,-0.9412994384765625,-0.7019805908203125,0.1316680908203125
1761914504215867000,5.472866943359375,-0.92315673828125,-0.6683807373046875,0.1123046875
1761914504225922800,5.4829228515625,-0.8931732177734375,-0.623016357421875,0.0838775634765625
1761914504235978800,5.492978759765625,-0.8494110107421875,-0.5765838623046875,0.0577850341796875
1761914504246033700,5.50303369140625,-0.797698974609375,-0.537506103515625,0.0355072021484375
1761914504256089600,5.513089599609375,-0.763580322265625,-0.5121612548828125,0.02392578125
1761914504266145800,5.523145751953125,-0.748260498046875,-0.4954681396484375,0.025390625
1761914504276200700,5.53320068359375,-0.7461090087890625,-0.481597900390625,0.0428924560546875
1761914504286257000,5.5432568359375,-0.7276153564453125,-0.4787750244140625,0.0631866455078125
1761914504296312800,5.553312744140625,-0.6844940185546875,-0.4842376708984375,0.08013916015625
1761914504306368000,5.563367919921875,-0.651885986328125,-0.488128662109375,0.0943756103515625
1761914504316423700,5.573423583984375,-0.6397857666015625,-0.490081787109375,0.1055755615234375
1761914504326479600,5.583479736328125,-0.6206512451171875,-0.4860382080078125,0.1155548095703125
1761914504336535800,5.593535888671875,-0.602386474609375,-0.47637939453125,0.1300506591796875
1761914504346590700,5.6035908203125,-0.5899200439453125,-0.4766693115234375,0.1489410400390625
1761914504356646700,5.613646728515625,-0.57037353515625,-0.484283447265625,0.17315673828125
1761914504366702800,5.623702880859375,-0.5539398193359375,-0.4907379150390625,0.1922149658203125
1761914504376757800,5.6337578125,-0.5625152587890625,-0.502593994140625,0.2100830078125
1761914504386814000,5.64381396484375,-0.5916748046875,-0.5226898193359375,0.22467041015625
1761914504396869600,5.65386962890625,-0.6282196044921875,-0.5360107421875,0.2328948974609375
1761914504406925600,5.663925537109375,-0.6758575439453125,-0.53753662109375,0.2284698486328125
1761914504416980700,5.673980712890625,-0.7155303955078125,-0.530670166015625,0.2109527587890625
1761914504427036700,5.68403662109375,-0.74102783203125,-0.5136566162109375,0.185760498046875
1761914504437092900,5.6940927734375,-0.777191162109375,-0.492218017578125,0.162200927734375
1761914504447147800,5.704147705078125,-0.81903076171875,-0.4730987548828125,0.1446990966796875
1761914504457204000,5.714203857421875,-0.8438720703125,-0.4654693603515625,0.1331939697265625
1761914504467260000,5.724260009765625,-0.8516387939453125,-0.47137451171875,0.1193389892578125
1761914504477315600,5.734315673828125,-0.8403778076171875,-0.4774017333984375,0.10662841796875
1761914504487370800,5.744370849609375,-0.8214111328125,-0.4856109619140625,0.0989837646484375
1761914504497426700,5.7544267578125,-0.8123016357421875,-0.5086822509765625,0.094024658203125
1761914504507483000,5.76448291015625,-0.8050384521484375,-0.5376129150390625,0.09552001953125
1761914504517537800,5.774537841796875,-0.801422119140625,-0.5602264404296875,0.1002349853515625
1761914504527593700,5.78459375,-0.8118896484375,-0.5788116455078125,0.101318359375
1761914504537650000,5.79464990234375,-0.8144683837890625,-0.5950927734375,0.094573974609375
1761914504547705900,5.804705810546875,-0.80029296875,-0.597076416015625,0.0889739990234375
1761914504557760800,5.8147607421875,-0.787628173828125,-0.5912933349609375,0.083740234375
1761914504567816700,5.824816650390625,-0.7878875732421875,-0.583648681640625,0.0782318115234375
1761914504577872600,5.83487255859375,-0.7917633056640625,-0.57550048828125,0.07208251953125
1761914504587927800,5.844927734375,-0.7947845458984375,-0.5719451904296875,0.071868896484375
1761914504597983700,5.854983642578125,-0.7852935791015625,-0.5848846435546875,0.0847015380859375
1761914504608040000,5.8650400390625,-0.7629547119140625,-0.6142120361328125,0.105255126953125
1761914504618095900,5.875095947265625,-0.7664642333984375,-0.629913330078125,0.111541748046875
1761914504628150800,5.88515087890625,-0.7702178955078125,-0.6229705810546875,0.108062744140625
1761914504638206700,5.895206787109375,-0.7481842041015625,-0.630096435546875,0.1170654296875
1761914504648262700,5.9052626953125,-0.7286224365234375,-0.6655120849609375,0.1440887451171875
1761914504658317800,5.91531787109375,-0.7408905029296875,-0.6979522705078125,0.1700286865234375
1761914504668373800,5.925373779296875,-0.7674713134765625,-0.6929473876953125,0.1824951171875
1761914504678430000,5.935429931640625,-0.8045501708984375,-0.6559600830078125,0.1856689453125
1761914504688486000,5.94548583984375,-0.843994140625,-0.6210174560546875,0.19110107421875
1761914504698540800,5.955540771484375,-0.8606109619140625,-0.59393310546875,0.2026214599609375
1761914504708596700,5.9655966796875,-0.870941162109375,-0.5653076171875,0.2061920166015625
1761914504718652700,5.975652587890625,-0.88946533203125,-0.525543212890625,0.2036285400390625
1761914504728707800,5.985707763671875,-0.9286651611328125,-0.4842376708984375,0.209686279296875
1761914504738763800,5.995763671875,-0.9661407470703125,-0.4605255126953125,0.221710205078125
1761914504748819700,6.00581982421875,-0.9897003173828125,-0.4559326171875,0.235809326171875
1761914504758876000,6.0158759765625,-1.0233154296875,-0.4578094482421875,0.24957275390625
1761914504768930600,6.0259306640625,-1.052825927734375,-0.458831787109375,0.2590484619140625
1761914504778986800,6.03598681640625,-1.07464599609375,-0.4613800048828125,0.263641357421875
1761914504789042700,6.046042724609375,-1.091705322265625,-0.4764404296875,0.2740325927734375
1761914504799097900,6.056097900390625,-1.083099365234375,-0.512664794921875,0.2870635986328125
1761914504809153800,6.06615380859375,-1.0699310302734375,-0.5485687255859375,0.289154052734375
1761914504819209700,6.076209716796875,-1.067779541015625,-0.56549072265625,0.2794189453125
1761914504829266000,6.086265869140625,-1.067626953125,-0.5689544677734375,0.254241943359375
1761914504839320600,6.096320556640625,-1.07391357421875,-0.5612945556640625,0.2176055908203125
1761914504849376800,6.106376708984375,-1.064971923828125,-0.54327392578125,0.1766510009765625
1761914504859432700,6.1164326171875,-1.0395660400390625,-0.5164337158203125,0.136627197265625
1761914504869487900,6.12648779296875,-1.012237548828125,-0.493621826171875,0.099761962890625
1761914504879543800,6.136543701171875,-0.9854278564453125,-0.4696197509765625,0.06341552734375
1761914504889599700,6.146599853515625,-0.9466094970703125,-0.4456634521484375,0.0357818603515625
1761914504899656000,6.156656005859375,-0.8805389404296875,-0.4310150146484375,0.0170745849609375
1761914504909714200,6.166714111328125,-0.806182861328125,-0.4261016845703125,0.001129150390625
1761914504919770000,6.17677001953125,-0.7448883056640625,-0.4322967529296875,-0.0070953369140625
1761914504929826000,6.186825927734375,-0.6922149658203125,-0.4493560791015625,0.0017242431640625
1761914504939881000,6.196880859375,-0.6387176513671875,-0.4650421142578125,0.0160064697265625
1761914504949937200,6.206937255859375,-0.5986785888671875,-0.4772491455078125,0.033416748046875
1761914504959993000,6.2169931640625,-0.579742431640625,-0.504974365234375,0.0546875
1761914504970049000,6.227049072265625,-0.5790557861328125,-0.5352935791015625,0.079345703125
1761914504980104200,6.237104248046875,-0.58203125,-0.5560150146484375,0.1037750244140625
1761914504990160000,6.247159912109375,-0.567474365234375,-0.5676727294921875,0.121429443359375
1761914505000216000,6.257216064453125,-0.5586700439453125,-0.5729522705078125,0.13525390625
1761914505010271000,6.26727099609375,-0.5694732666015625,-0.5751953125,0.148712158203125
1761914505020327200,6.2773271484375,-0.582000732421875,-0.566864013671875,0.1612548828125
1761914505030383000,6.287383056640625,-0.5928802490234375,-0.5615997314453125,0.1786651611328125
1761914505040439000,6.29743896484375,-0.60321044921875,-0.565673828125,0.2005767822265625
1761914505050494200,6.307494140625,-0.6186370849609375,-0.5683135986328125,0.221435546875
1761914505060550100,6.317550048828125,-0.6324920654296875,-0.564208984375,0.2362823486328125
1761914505070606000,6.327606201171875,-0.6463165283203125,-0.5609588623046875,0.2483673095703125
1761914505080661000,6.337660888671875,-0.670806884765625,-0.557647705078125,0.265106201171875
1761914505090717200,6.34771728515625,-0.6902923583984375,-0.5562744140625,0.27886962890625
1761914505100773000,6.357773193359375,-0.697540283203125,-0.55133056640625,0.2874298095703125
1761914505110829000,6.3678291015625,-0.6958465576171875,-0.5379638671875,0.2902984619140625
1761914505120884200,6.37788427734375,-0.6936492919921875,-0.530181884765625,0.2907257080078125
1761914505130940200,6.387940185546875,-0.6942138671875,-0.53125,0.3030242919921875
1761914505140996000,6.39799609375,-0.715728759765625,-0.53570556640625,0.326812744140625
1761914505151051000,6.408051025390625,-0.7449188232421875,-0.5444488525390625,0.3580780029296875
1761914505161107000,6.41810693359375,-0.759613037109375,-0.563323974609375,0.388275146484375
1761914505171163100,6.4281630859375,-0.7632598876953125,-0.5805206298828125,0.4095306396484375
1761914505181219000,6.438218994140625,-0.7689208984375,-0.593841552734375,0.4192047119140625
1761914505191274200,6.448274169921875,-0.7867584228515625,-0.5969085693359375,0.407257080078125
1761914505201330200,6.458330078125,-0.8174591064453125,-0.597442626953125,0.3795013427734375
1761914505211386000,6.46838623046875,-0.8587646484375,-0.599334716796875,0.348175048828125
1761914505221441000,6.47844091796875,-0.8905792236328125,-0.5920562744140625,0.3163604736328125
1761914505231497000,6.4884970703125,-0.9075469970703125,-0.5784454345703125,0.2802886962890625
1761914505241553200,6.49855322265625,-0.9093780517578125,-0.555389404296875,0.2351226806640625
1761914505251609000,6.508609130859375,-0.8927154541015625,-0.531829833984375,0.192169189453125
1761914505261664300,6.518664306640625,-0.864013671875,-0.50994873046875,0.15081787109375
1761914505271720200,6.52872021484375,-0.8270416259765625,-0.5046539306640625,0.1247711181640625
1761914505281776000,6.538776123046875,-0.810546875,-0.515167236328125,0.1181488037109375
1761914505291831000,6.5488310546875,-0.8397064208984375,-0.522308349609375,0.129180908203125
1761914505301887000,6.558886962890625,-0.87774658203125,-0.5346221923828125,0.1652679443359375
1761914505311943200,6.568943115234375,-0.8858642578125,-0.5652618408203125,0.2181854248046875
1761914505321999000,6.5789990234375,-0.902252197265625,-0.610565185546875,0.2720489501953125
1761914505332054000,6.589053955078125,-0.950408935546875,-0.6383514404296875,0.302337646484375
1761914505342110200,6.599110107421875,-1.00341796875,-0.633636474609375,0.3181915283203125
1761914505352166100,6.609166259765625,-1.0261993408203125,-0.6260223388671875,0.3286895751953125
1761914505362221000,6.619220947265625,-1.02874755859375,-0.6209259033203125,0.327056884765625
1761914505372277000,6.629277099609375,-1.0217437744140625,-0.600311279296875,0.304901123046875
1761914505382333000,6.6393330078125,-1.02398681640625,-0.5655364990234375,0.275787353515625
1761914505392389000,6.64938916015625,-1.0250396728515625,-0.527099609375,0.2475738525390625
1761914505402444000,6.659444091796875,-1.022705078125,-0.4961700439453125,0.2229766845703125
1761914505412500200,6.669500244140625,-1.001129150390625,-0.482635498046875,0.2033843994140625
1761914505422556200,6.67955615234375,-0.974578857421875,-0.4742584228515625,0.1829681396484375
1761914505432611000,6.689611083984375,-0.9632568359375,-0.4669036865234375,0.1706085205078125
1761914505442667000,6.6996669921875,-0.94573974609375,-0.4806976318359375,0.173614501953125
1761914505452723000,6.709722900390625,-0.920928955078125,-0.5102996826171875,0.1858062744140625
1761914505462779100,6.719779052734375,-0.9026947021484375,-0.541168212890625,0.1988372802734375
1761914505472834000,6.729833984375,-0.8969879150390625,-0.5604248046875,0.2057952880859375
1761914505482890200,6.73989013671875,-0.9065093994140625,-0.5652008056640625,0.211669921875
1761914505492946200,6.7499462890625,-0.9104766845703125,-0.57086181640625,0.215087890625
1761914505503001000,6.7600009765625,-0.8996429443359375,-0.573944091796875,0.2066650390625
1761914505513057000,6.77005712890625,-0.866363525390625,-0.582794189453125,0.205230712890625
1761914505523113000,6.780113037109375,-0.826812744140625,-0.5911865234375,0.190521240234375
1761914505533169200,6.790169189453125,-0.800994873046875,-0.579681396484375,0.1612701416015625
1761914505543224000,6.80022412109375,-0.7640838623046875,-0.569610595703125,0.1352996826171875
1761914505553280000,6.810280029296875,-0.736602783203125,-0.5506744384765625,0.104766845703125
1761914505563336200,6.820336181640625,-0.71673583984375,-0.5316314697265625,0.084075927734375
1761914505573391000,6.83039111328125,-0.6898651123046875,-0.5150146484375,0.0676422119140625
1761914505583447300,6.840447265625,-0.672027587890625,-0.5060882568359375,0.060455322265625
1761914505593503000,6.8505029296875,-0.672943115234375,-0.5035858154296875,0.0599365234375
1761914505603559000,6.860558837890625,-0.6679840087890625,-0.5013427734375,0.06072998046875
1761914505613614000,6.870614013671875,-0.6406097412109375,-0.5047149658203125,0.058563232421875
1761914505623670000,6.880669921875,-0.6124114990234375,-0.513702392578125,0.0593719482421875
1761914505633726200,6.890726318359375,-0.5855712890625,-0.5337677001953125,0.0621795654296875
1761914505643781000,6.900781005859375,-0.5701141357421875,-0.5616912841796875,0.0774078369140625
1761914505653837300,6.91083740234375,-0.58544921875,-0.58648681640625,0.102142333984375
1761914505663893000,6.92089306640625,-0.6133575439453125,-0.601165771484375,0.1273651123046875
1761914505673949000,6.930948974609375,-0.6506500244140625,-0.6155853271484375,0.1533966064453125
1761914505684004000,6.941004150390625,-0.6815948486328125,-0.627227783203125,0.1680145263671875
1761914505694060000,6.95106005859375,-0.7050933837890625,-0.6281280517578125,0.170166015625
1761914505704116200,6.9611162109375,-0.731903076171875,-0.6229400634765625,0.157257080078125
1761914505714171100,6.971171142578125,-0.765655517578125,-0.6185455322265625,0.134490966796875
1761914505724227000,6.98122705078125,-0.7913665771484375,-0.608062744140625,0.104248046875
1761914505734283300,6.991283203125,-0.8061370849609375,-0.5896759033203125,0.07379150390625
1761914505744339000,7.0013388671875,-0.811126708984375,-0.5748291015625,0.0487060546875
1761914505754394000,7.01139404296875,-0.8112335205078125,-0.573394775390625,0.0311279296875
1761914505764450000,7.021449951171875,-0.8008880615234375,-0.5819854736328125,0.0178375244140625
1761914505774506000,7.031506103515625,-0.7807769775390625,-0.5936737060546875,0.0056610107421875
1761914505784561200,7.04156103515625,-0.7709197998046875,-0.60693359375,0.00439453125
1761914505794617000,7.0516171875,-0.7584381103515625,-0.6280517578125,0.0121917724609375
1761914505804673300,7.06167333984375,-0.7378082275390625,-0.640045166015625,0.015380859375
1761914505814729200,7.071729248046875,-0.7353363037109375,-0.64154052734375,0.0157623291015625
1761914505824784100,7.0817841796875,-0.73504638671875,-0.65643310546875,0.02191162109375
1761914505834840000,7.091840087890625,-0.7303924560546875,-0.677459716796875,0.0287322998046875
1761914505844896000,7.10189599609375,-0.7218475341796875,-0.6913909912109375,0.0223541259765625
1761914505854951200,7.111951171875,-0.7141876220703125,-0.690216064453125,0.0059356689453125
1761914505865007000,7.122007080078125,-0.7206878662109375,-0.6811065673828125,-0.0083160400390625
1761914505875063300,7.132063232421875,-0.7347564697265625,-0.67132568359375,-0.01947021484375
1761914505885119200,7.142119140625,-0.7310638427734375,-0.6625213623046875,-0.023651123046875
1761914505895174100,7.152174072265625,-0.7113800048828125,-0.650421142578125,-0.0228424072265625
1761914505905226200,7.162226318359375,-0.6963653564453125,-0.6414947509765625,-0.015625
1761914505915282200,7.1722822265625,-0.692779541015625,-0.6390533447265625,-0.0048980712890625
1761914505925337300,7.18233740234375,-0.67669677734375,-0.64178466796875,0.0200042724609375
1761914505935393300,7.192393310546875,-0.6689605712890625,-0.6274261474609375,0.025787353515625
1761914505945449500,7.202449462890625,-0.6656646728515625,-0.61798095703125,0.0396270751953125
1761914505955505400,7.21250537109375,-0.6512451171875,-0.633819580078125,0.0707244873046875
1761914505965560300,7.222560302734375,-0.6404571533203125,-0.6689910888671875,0.1007537841796875
1761914505975616300,7.2326162109375,-0.6570587158203125,-0.689697265625,0.116943359375
1761914505985672200,7.242672119140625,-0.666595458984375,-0.7057342529296875,0.1354522705078125
1761914505995727400,7.252727294921875,-0.676361083984375,-0.7285919189453125,0.1509552001953125
1761914506005783300,7.262783203125,-0.6787261962890625,-0.7686920166015625,0.1850433349609375
1761914506015839200,7.272839111328125,-0.682281494140625,-0.7977294921875,0.211822509765625
1761914506025895400,7.2828955078125,-0.7174224853515625,-0.7967376708984375,0.225799560546875
1761914506035950000,7.2929501953125,-0.747344970703125,-0.7934722900390625,0.241424560546875
1761914506046006300,7.30300634765625,-0.775054931640625,-0.78558349609375,0.25750732421875
1761914506056062200,7.313062255859375,-0.7989349365234375,-0.7728118896484375,0.2672882080078125
1761914506066117400,7.323117431640625,-0.8188018798828125,-0.7683258056640625,0.270660400390625
1761914506076173300,7.33317333984375,-0.8332061767578125,-0.7661590576171875,0.2617645263671875
1761914506086229200,7.343229248046875,-0.8555450439453125,-0.7476043701171875,0.239898681640625
1761914506096285400,7.353285400390625,-0.874359130859375,-0.7170867919921875,0.2113494873046875
1761914506106340000,7.363340087890625,-0.8795623779296875,-0.6930694580078125,0.1856536865234375
1761914506116396300,7.373396240234375,-0.880096435546875,-0.6747283935546875,0.161407470703125
1761914506126452200,7.3834521484375,-0.88458251953125,-0.659454345703125,0.1365509033203125
1761914506136507400,7.39350732421875,-0.8926239013671875,-0.6400299072265625,0.106353759765625
1761914506146563300,7.403563232421875,-0.8886871337890625,-0.61505126953125,0.0726165771484375
1761914506156619300,7.413619384765625,-0.878570556640625,-0.5999755859375,0.0365447998046875
1761914506166675500,7.423675537109375,-0.871978759765625,-0.5943145751953125,0.002899169921875
1761914506176730000,7.433730224609375,-0.858795166015625,-0.592864990234375,-0.0228271484375
1761914506186786000,7.4437861328125,-0.84039306640625,-0.5918121337890625,-0.0426177978515625
1761914506196842200,7.45384228515625,-0.8240509033203125,-0.5879974365234375,-0.056304931640625
1761914506206897200,7.463897216796875,-0.7897186279296875,-0.5818328857421875,-0.05963134765625
1761914506216953300,7.473953369140625,-0.7433319091796875,-0.5792236328125,-0.0564422607421875
1761914506227009300,7.48400927734375,-0.707763671875,-0.5855560302734375,-0.041656494140625
1761914506237065200,7.494065185546875,-0.6956329345703125,-0.6065216064453125,-0.0089874267578125
1761914506247120400,7.504120361328125,-0.6888580322265625,-0.6319427490234375,0.020416259765625
1761914506257176000,7.514176025390625,-0.67547607421875,-0.64508056640625,0.0381317138671875
1761914506267232300,7.524232177734375,-0.675048828125,-0.6638946533203125,0.0559844970703125
1761914506277287200,7.534287109375,-0.7048797607421875,-0.695587158203125,0.0810546875
1761914506287343400,7.54434326171875,-0.7448883056640625,-0.7214202880859375,0.0970611572265625
1761914506297399300,7.5543994140625,-0.77154541015625,-0.721221923828125,0.0971832275390625
1761914506307455200,7.564455322265625,-0.76519775390625,-0.717315673828125,0.083770751953125
1761914506317510400,7.574510498046875,-0.7548675537109375,-0.7159271240234375,0.0673675537109375
1761914506327566300,7.58456640625,-0.756256103515625,-0.7067718505859375,0.05511474609375
1761914506337622300,7.594622314453125,-0.74249267578125,-0.686492919921875,0.0460662841796875
1761914506347677200,7.60467724609375,-0.7119140625,-0.6754150390625,0.0493316650390625
1761914506357733400,7.6147333984375,-0.678497314453125,-0.677154541015625,0.058380126953125
1761914506367789300,7.624789306640625,-0.649932861328125,-0.675018310546875,0.0691680908203125
1761914506377845200,7.63484521484375,-0.6208038330078125,-0.6722564697265625,0.0841827392578125
1761914506387900400,7.644900390625,-0.588226318359375,-0.6791839599609375,0.1043548583984375
1761914506397956400,7.654956298828125,-0.5525665283203125,-0.6936492919921875,0.127899169921875
1761914506408012000,7.665011962890625,-0.5323333740234375,-0.70892333984375,0.150115966796875
1761914506418067200,7.675067138671875,-0.5370025634765625,-0.7259674072265625,0.170166015625
1761914506428123100,7.685123046875,-0.5444793701171875,-0.7395172119140625,0.182861328125
1761914506438179300,7.695179443359375,-0.5540618896484375,-0.743408203125,0.1871337890625
1761914506448235300,7.7052353515625,-0.5558624267578125,-0.739776611328125,0.1827545166015625
1761914506458290400,7.71529052734375,-0.546966552734375,-0.7263641357421875,0.169586181640625
1761914506468346400,7.725346435546875,-0.5342559814453125,-0.71026611328125,0.1589508056640625
1761914506478402300,7.73540234375,-0.5414276123046875,-0.694000244140625,0.1563568115234375
1761914506488457200,7.745457275390625,-0.5664825439453125,-0.686187744140625,0.1641845703125
1761914506498513200,7.75551318359375,-0.592132568359375,-0.6829376220703125,0.1835784912109375
1761914506508569300,7.7655693359375,-0.6015472412109375,-0.675689697265625,0.205047607421875
1761914506518625300,7.775625244140625,-0.6068267822265625,-0.6680908203125,0.227996826171875
1761914506528680400,7.785680419921875,-0.6083984375,-0.667572021484375,0.2537689208984375
1761914506538736400,7.795736328125,-0.5986328125,-0.6658477783203125,0.268890380859375
1761914506548792300,7.805792236328125,-0.5793304443359375,-0.6528167724609375,0.27337646484375
1761914506558847200,7.81584716796875,-0.5630340576171875,-0.634613037109375,0.2718048095703125
1761914506568903200,7.825903076171875,-0.5598297119140625,-0.617919921875,0.2665557861328125
1761914506578959000,7.835958984375,-0.5802459716796875,-0.6030426025390625,0.259765625
1761914506589015300,7.846015380859375,-0.6117706298828125,-0.587310791015625,0.248931884765625
1761914506599070200,7.8560703125,-0.6429290771484375,-0.571197509765625,0.234893798828125
1761914506609126400,7.86612646484375,-0.66595458984375,-0.5573272705078125,0.215484619140625
1761914506619182300,7.876182373046875,-0.6773223876953125,-0.5440216064453125,0.18695068359375
1761914506629237200,7.8862373046875,-0.6826171875,-0.530853271484375,0.16339111328125
1761914506639293200,7.896293212890625,-0.67474365234375,-0.545257568359375,0.162017822265625
1761914506649349000,7.90634912109375,-0.6573944091796875,-0.6068878173828125,0.1878814697265625
1761914506659405300,7.9164052734375,-0.6574249267578125,-0.70867919921875,0.246307373046875
1761914506669460200,7.926460205078125,-0.722503662109375,-0.796051025390625,0.296295166015625
1761914506679516400,7.936516357421875,-0.8499908447265625,-0.8236541748046875,0.2895965576171875
1761914506689572400,7.946572265625,-0.991424560546875,-0.834930419921875,0.2886505126953125
1761914506699627300,7.956627197265625,-1.039947509765625,-0.8552398681640625,0.322601318359375
1761914506709683200,7.96668310546875,-1.0066680908203125,-0.856414794921875,0.3290557861328125
1761914506719739100,7.9767392578125,-1.009246826171875,-0.8258056640625,0.2942657470703125
1761914506729795300,7.98679541015625,-1.0462493896484375,-0.7725677490234375,0.2489013671875
1761914506739850200,7.996850341796875,-1.051605224609375,-0.691497802734375,0.1939697265625
1761914506749906200,8.00690625,-1.0195159912109375,-0.59722900390625,0.142364501953125
1761914506759962400,8.01696240234375,-0.9553680419921875,-0.528045654296875,0.10772705078125
1761914506770016300,8.027016357421875,-0.9015655517578125,-0.5052337646484375,0.0876922607421875
1761914506780071200,8.0370712890625,-0.875946044921875,-0.50628662109375,0.0806121826171875
1761914506790127400,8.04712744140625,-0.871337890625,-0.521759033203125,0.0954742431640625
1761914506800183300,8.057183349609375,-0.88299560546875,-0.539276123046875,0.125030517578125
1761914506810238500,8.067238525390625,-0.9006195068359375,-0.552001953125,0.159515380859375
1761914506820294400,8.07729443359375,-0.914886474609375,-0.576202392578125,0.179901123046875
1761914506830350000,8.08735009765625,-0.8898162841796875,-0.6005096435546875,0.1916046142578125
1761914506840406300,8.09740625,-0.8488616943359375,-0.6183624267578125,0.2029876708984375
1761914506850461200,8.107461181640625,-0.8345489501953125,-0.6285400390625,0.2104034423828125
1761914506860517400,8.117517333984376,-0.8326568603515625,-0.6309051513671875,0.2124786376953125
1761914506870573300,8.1275732421875,-0.8144073486328125,-0.6253204345703125,0.22113037109375
1761914506880628200,8.137628173828125,-0.78863525390625,-0.6224822998046875,0.2285614013671875
1761914506890684400,8.147684326171875,-0.774261474609375,-0.6187286376953125,0.2282562255859375
1761914506900740400,8.157740234375,-0.769317626953125,-0.60699462890625,0.227142333984375
1761914506910795300,8.167795166015624,-0.7758331298828125,-0.58660888671875,0.22344970703125
1761914506920851200,8.177851318359375,-0.7844390869140625,-0.56988525390625,0.21258544921875
1761914506930907100,8.1879072265625,-0.778076171875,-0.5518341064453125,0.1920166015625
1761914506940963300,8.19796337890625,-0.7743682861328125,-0.530242919921875,0.170013427734375
1761914506951018200,8.208018310546874,-0.77874755859375,-0.5076141357421875,0.1525726318359375
1761914506961074400,8.218074462890625,-0.7841644287109375,-0.4940338134765625,0.132659912109375
1761914506971130400,8.22813037109375,-0.7845458984375,-0.487823486328125,0.113525390625
1761914506981185300,8.238185302734376,-0.7701873779296875,-0.4944000244140625,0.1015472412109375
1761914506991241200,8.2482412109375,-0.7540283203125,-0.5089569091796875,0.0964202880859375
1761914507001297200,8.258297119140625,-0.737152099609375,-0.5229644775390625,0.0999298095703125
1761914507011353300,8.268353271484376,-0.7311248779296875,-0.5345916748046875,0.1107025146484375
1761914507021408300,8.278408203125,-0.734039306640625,-0.553375244140625,0.122589111328125
1761914507031464400,8.28846435546875,-0.7363128662109375,-0.5682373046875,0.1305084228515625
1761914507041520400,8.298520263671875,-0.7392120361328125,-0.5719757080078125,0.1346435546875
1761914507051575300,8.3085751953125,-0.751068115234375,-0.5754547119140625,0.1385498046875
1761914507061631200,8.31863134765625,-0.7519683837890625,-0.581817626953125,0.1423492431640625
1761914507071687200,8.328687255859375,-0.74981689453125,-0.578704833984375,0.141387939453125
1761914507081743400,8.338743408203126,-0.7579498291015625,-0.5688018798828125,0.13934326171875
1761914507091798300,8.34879833984375,-0.7698516845703125,-0.5624847412109375,0.140777587890625
1761914507101854200,8.358854248046875,-0.789154052734375,-0.5570068359375,0.14019775390625
1761914507111910400,8.368910400390625,-0.7999114990234375,-0.5527496337890625,0.1370086669921875
1761914507121965000,8.378965087890625,-0.8080291748046875,-0.555145263671875,0.136810302734375
1761914507132021200,8.389021240234374,-0.8291473388671875,-0.55322265625,0.13330078125
1761914507142077200,8.3990771484375,-0.85552978515625,-0.550872802734375,0.125030517578125
1761914507152133000,8.409133056640625,-0.8750152587890625,-0.555419921875,0.1213836669921875
1761914507162188300,8.419188232421876,-0.885833740234375,-0.564910888671875,0.1148834228515625
1761914507172244200,8.429244140625,-0.8970184326171875,-0.571929931640625,0.1069183349609375
1761914507182300400,8.439300537109375,-0.895416259765625,-0.5741729736328125,0.0962677001953125
1761914507192355000,8.44935498046875,-0.881591796875,-0.5731658935546875,0.080474853515625
1761914507202411300,8.459411376953126,-0.870758056640625,-0.5699920654296875,0.0614013671875
1761914507212467200,8.46946728515625,-0.8658447265625,-0.5749969482421875,0.04840087890625
1761914507222523100,8.479523193359375,-0.842742919921875,-0.60888671875,0.0478057861328125
1761914507232578300,8.489578369140625,-0.8065643310546875,-0.655181884765625,0.0589141845703125
1761914507242634200,8.49963427734375,-0.7806854248046875,-0.6878814697265625,0.07330322265625
1761914507252690400,8.5096904296875,-0.78436279296875,-0.715972900390625,0.102264404296875
1761914507262745300,8.519745361328125,-0.787872314453125,-0.75238037109375,0.1413421630859375
1761914507272801300,8.52980126953125,-0.7998504638671875,-0.7833709716796875,0.1696929931640625
1761914507282857200,8.539857177734374,-0.842864990234375,-0.7674102783203125,0.182373046875
1761914507292913200,8.5499130859375,-0.8893890380859375,-0.7104034423828125,0.169281005859375
1761914507302968300,8.55996826171875,-0.9209136962890625,-0.6444091796875,0.1408233642578125
1761914507313024300,8.570024169921876,-0.9461822509765625,-0.5845184326171875,0.0993804931640625
1761914507323081200,8.580081298828125,-0.9642791748046875,-0.5380096435546875,0.0519561767578125
1761914507333136400,8.590136474609375,-0.985076904296875,-0.488006591796875,-0.0014801025390625
1761914507343192300,8.6001923828125,-0.9734344482421875,-0.4322052001953125,-0.0562744140625
1761914507353248300,8.610248291015624,-0.929779052734375,-0.3984222412109375,-0.1128692626953125
1761914507363304400,8.620304443359375,-0.890625,-0.3869476318359375,-0.1556243896484375
1761914507373359000,8.630359130859375,-0.8472442626953125,-0.3845367431640625,-0.1795196533203125
1761914507383415300,8.640415283203126,-0.7936553955078125,-0.3887481689453125,-0.1870574951171875
1761914507393471200,8.65047119140625,-0.75531005859375,-0.4063873291015625,-0.1734619140625
1761914507403526400,8.6605263671875,-0.743072509765625,-0.4453582763671875,-0.14691162109375
1761914507413582300,8.670582275390625,-0.747039794921875,-0.479248046875,-0.12646484375
1761914507423638300,8.68063818359375,-0.761077880859375,-0.522216796875,-0.100067138671875
1761914507433693200,8.690693115234374,-0.786956787109375,-0.5730743408203125,-0.065277099609375
1761914507443749000,8.7007490234375,-0.8265838623046875,-0.6134796142578125,-0.030975341796875
1761914507453805300,8.710805419921876,-0.8572845458984375,-0.6325836181640625,-0.0057525634765625
1761914507463861200,8.720861328125,-0.8771209716796875,-0.619415283203125,0.0006561279296875
1761914507473916400,8.73091650390625,-0.88653564453125,-0.576568603515625,-0.0242919921875
1761914507483972400,8.740972412109375,-0.8919830322265625,-0.5283355712890625,-0.0680389404296875
1761914507494028300,8.7510283203125,-0.8785858154296875,-0.49481201171875,-0.1044921875
1761914507504083200,8.761083251953124,-0.8604888916015625,-0.4605865478515625,-0.126007080078125
1761914507514139100,8.77113916015625,-0.8504638671875,-0.4312286376953125,-0.140380859375
1761914507524195000,8.781195068359375,-0.8406524658203125,-0.42193603515625,-0.1428375244140625
1761914507534251300,8.791251220703124,-0.8248291015625,-0.4223175048828125,-0.1385955810546875
1761914507544306200,8.80130615234375,-0.8197174072265625,-0.42889404296875,-0.129730224609375
1761914507554362400,8.8113623046875,-0.8104095458984375,-0.45086669921875,-0.1160888671875
1761914507564418300,8.821418212890626,-0.7879180908203125,-0.4898681640625,-0.096710205078125
1761914507574473500,8.831473388671874,-0.77410888671875,-0.5349578857421875,-0.080535888671875
1761914507584529200,8.841529052734375,-0.7667388916015625,-0.5831756591796875,-0.0625762939453125
1761914507594585000,8.851585205078125,-0.761749267578125,-0.6269073486328125,-0.0463409423828125
1761914507604641300,8.861641357421876,-0.7642669677734375,-0.6506195068359375,-0.032196044921875
1761914507614696200,8.8716962890625,-0.781005859375,-0.651763916015625,-0.0244903564453125
1761914507624752400,8.88175244140625,-0.816650390625,-0.6364898681640625,-0.0212554931640625
1761914507634808300,8.891808349609375,-0.8519287109375,-0.6178436279296875,-0.016845703125
1761914507644863500,8.901863525390626,-0.8660125732421875,-0.60003662109375,-0.0071868896484375
1761914507654919400,8.91191943359375,-0.87432861328125,-0.5870819091796875,0.0085296630859375
1761914507664975000,8.92197509765625,-0.864501953125,-0.5880279541015625,0.0225982666015625
1761914507675031300,8.93203125,-0.8241119384765625,-0.5911102294921875,0.0283355712890625
1761914507685086200,8.942086181640626,-0.786865234375,-0.594482421875,0.031463623046875
1761914507695142100,8.95214208984375,-0.764251708984375,-0.6041717529296875,0.0431365966796875
1761914507705198300,8.9621982421875,-0.7453155517578125,-0.6188507080078125,0.05792236328125
1761914507715253200,8.972253173828125,-0.7224884033203125,-0.6259002685546875,0.066131591796875
1761914507725309400,8.982309326171874,-0.7061767578125,-0.636077880859375,0.0724639892578125
1761914507735365000,8.992365234375,-0.702392578125,-0.6471099853515625,0.0832977294921875
1761914507745421000,9.002421142578125,-0.7108612060546875,-0.6526641845703125,0.097686767578125
1761914507755476200,9.012476318359376,-0.724395751953125,-0.654144287109375,0.11083984375
1761914507765532200,9.0225322265625,-0.73175048828125,-0.6550750732421875,0.1203460693359375
1761914507775588400,9.03258837890625,-0.7319488525390625,-0.6591033935546875,0.126678466796875
1761914507785643300,9.042643310546875,-0.7306365966796875,-0.66412353515625,0.1245574951171875
1761914507795699500,9.052699462890626,-0.73370361328125,-0.6699676513671875,0.1155548095703125
1761914507805755400,9.06275537109375,-0.733489990234375,-0.671661376953125,0.107452392578125
1761914507815811000,9.07281103515625,-0.725311279296875,-0.6746063232421875,0.1090240478515625
1761914507825866200,9.0828662109375,-0.731903076171875,-0.672149658203125,0.11492919921875
1761914507835922200,9.092922119140624,-0.7525634765625,-0.66796875,0.1215972900390625
1761914507845978400,9.102978271484375,-0.7596282958984375,-0.6705322265625,0.137969970703125
1761914507856033300,9.113033203125,-0.75146484375,-0.672576904296875,0.1543426513671875
1761914507866089500,9.12308935546875,-0.745635986328125,-0.672576904296875,0.1674041748046875
1761914507876145400,9.1331455078125,-0.74505615234375,-0.6719818115234375,0.1796112060546875
1761914507886201300,9.143201416015625,-0.7499542236328125,-0.6573486328125,0.1894683837890625
1761914507896256300,9.15325634765625,-0.7613525390625,-0.6310272216796875,0.1927947998046875
1761914507906315800,9.163315673828125,-0.775482177734375,-0.6100616455078125,0.1909942626953125
1761914507916371700,9.173371826171875,-0.7845611572265625,-0.603118896484375,0.1963653564453125
1761914507926426600,9.183426513671876,-0.7871551513671875,-0.599853515625,0.2054290771484375
1761914507936482600,9.193482666015624,-0.7963104248046875,-0.5888214111328125,0.2033538818359375
1761914507946538800,9.203538818359375,-0.8223724365234375,-0.576263427734375,0.19384765625
1761914507956593700,9.21359375,-0.8538055419921875,-0.59368896484375,0.1969451904296875
1761914507966649900,9.22364990234375,-0.862945556640625,-0.6237945556640625,0.1992645263671875
1761914507976705800,9.233705810546875,-0.872161865234375,-0.628326416015625,0.1841583251953125
1761914507986761700,9.24376171875,-0.90167236328125,-0.6313934326171875,0.178619384765625
1761914507996816600,9.253816650390625,-0.948089599609375,-0.6515655517578125,0.1918792724609375
1761914508006872600,9.26387255859375,-0.988494873046875,-0.672119140625,0.20159912109375
1761914508016928800,9.2739287109375,-1.014892578125,-0.67059326171875,0.20367431640625
1761914508026983700,9.283983642578125,-1.0380401611328125,-0.6547393798828125,0.1867828369140625
1761914508037039900,9.294039794921876,-1.0621337890625,-0.625640869140625,0.158355712890625
1761914508047095800,9.304095703125,-1.0642547607421875,-0.5946807861328125,0.1280517578125
1761914508057151700,9.31415185546875,-1.0618133544921875,-0.5561676025390625,0.0952301025390625
1761914508067206700,9.32420654296875,-1.05096435546875,-0.5005645751953125,0.0611114501953125
1761914508077262600,9.3342626953125,-1.0243988037109375,-0.4467315673828125,0.0330047607421875
1761914508087318800,9.34431884765625,-0.9965362548828125,-0.410614013671875,0.01324462890625
1761914508097373700,9.354373779296875,-0.9680938720703125,-0.394622802734375,0.0103759765625
1761914508107429600,9.3644296875,-0.9384002685546875,-0.401336669921875,0.025665283203125
1761914508117485800,9.37448583984375,-0.9210968017578125,-0.4292449951171875,0.0532073974609375
1761914508127541800,9.384541748046875,-0.900604248046875,-0.4523773193359375,0.07916259765625
1761914508137597000,9.394596923828125,-0.8726348876953125,-0.4576873779296875,0.098663330078125
1761914508147652600,9.404652587890626,-0.846466064453125,-0.47210693359375,0.1155853271484375
1761914508157708500,9.41470849609375,-0.8207244873046875,-0.501617431640625,0.1317901611328125
1761914508167763700,9.424763671875,-0.824554443359375,-0.5217742919921875,0.1468505859375
1761914508177819600,9.434819580078125,-0.851470947265625,-0.53460693359375,0.1646270751953125
1761914508187875800,9.444875732421876,-0.8837432861328125,-0.5448760986328125,0.1775970458984375
1761914508197930800,9.4549306640625,-0.898529052734375,-0.54742431640625,0.179840087890625
1761914508207987000,9.464987060546875,-0.8672943115234375,-0.5369415283203125,0.157073974609375
1761914508218042600,9.475042724609375,-0.82232666015625,-0.5201873779296875,0.1171875
1761914508228098600,9.4850986328125,-0.79205322265625,-0.510528564453125,0.09698486328125
1761914508238153700,9.49515380859375,-0.7548370361328125,-0.4928741455078125,0.08056640625
1761914508248209700,9.505209716796875,-0.7201080322265625,-0.4688873291015625,0.0579681396484375
1761914508258265900,9.515265869140626,-0.707550048828125,-0.4561920166015625,0.0433197021484375
1761914508268320800,9.52532080078125,-0.701873779296875,-0.456695556640625,0.0403289794921875
1761914508278376700,9.535376708984375,-0.713531494140625,-0.462799072265625,0.045196533203125
1761914508288433000,9.545432861328125,-0.7240142822265625,-0.4725341796875,0.0532684326171875
1761914508298488600,9.555488525390626,-0.7121734619140625,-0.4907379150390625,0.0643157958984375
1761914508308543700,9.565543701171874,-0.6917724609375,-0.506103515625,0.068206787109375
1761914508318599700,9.575599609375,-0.67620849609375,-0.5141143798828125,0.0666961669921875
1761914508328655600,9.585655517578125,-0.6699676513671875,-0.527099609375,0.063232421875
1761914508338710800,9.595710693359376,-0.6681976318359375,-0.5418243408203125,0.05828857421875
1761914508348766700,9.6057666015625,-0.6717376708984375,-0.5539703369140625,0.06146240234375
1761914508358823000,9.615822998046875,-0.68316650390625,-0.5670318603515625,0.068359375
1761914508368878800,9.62587890625,-0.6978302001953125,-0.578338623046875,0.0770263671875
1761914508378933800,9.635933837890626,-0.7107391357421875,-0.5824127197265625,0.087066650390625
1761914508388989700,9.64598974609375,-0.7098388671875,-0.587890625,0.0982666015625
1761914508399045600,9.656045654296875,-0.70361328125,-0.6019134521484375,0.1068267822265625
1761914508409100800,9.666100830078125,-0.7014923095703125,-0.618072509765625,0.109649658203125
1761914508419156700,9.67615673828125,-0.6999053955078125,-0.6280975341796875,0.1125030517578125
1761914508429213000,9.686212890625,-0.7060546875,-0.637939453125,0.1145477294921875
1761914508439268900,9.696268798828125,-0.7138671875,-0.6456146240234375,0.114837646484375
1761914508449323800,9.70632373046875,-0.726715087890625,-0.649993896484375,0.1165924072265625
1761914508459379700,9.716379638671874,-0.74005126953125,-0.6522674560546875,0.104156494140625
1761914508469435600,9.726435546875,-0.741546630859375,-0.6473541259765625,0.090545654296875
1761914508479490800,9.73649072265625,-0.730621337890625,-0.6478118896484375,0.07550048828125
1761914508489546800,9.746546630859376,-0.71148681640625,-0.655853271484375,0.0574951171875
1761914508499602700,9.756602783203125,-0.706146240234375,-0.6550140380859375,0.048309326171875
1761914508509659000,9.766658935546875,-0.7147216796875,-0.65509033203125,0.0443267822265625
1761914508519713500,9.776713623046875,-0.7165069580078125,-0.6602935791015625,0.047515869140625
1761914508529769700,9.786769775390624,-0.7236480712890625,-0.6705780029296875,0.052642822265625
1761914508539825700,9.79682568359375,-0.733367919921875,-0.680633544921875,0.054473876953125
1761914508549880800,9.806880859375,-0.7437896728515625,-0.6831512451171875,0.053619384765625
1761914508559936800,9.816936767578126,-0.7535247802734375,-0.6959686279296875,0.0515594482421875
1761914508569992700,9.82699267578125,-0.7753753662109375,-0.718963623046875,0.0538482666015625
1761914508580048000,9.8370478515625,-0.8099822998046875,-0.7299346923828125,0.05133056640625
1761914508590103600,9.847103515625,-0.8234405517578125,-0.7235870361328125,0.042449951171875
1761914508600159700,9.85715966796875,-0.8316192626953125,-0.715789794921875,0.035614013671875
1761914508610215700,9.867215576171875,-0.840087890625,-0.720245361328125,0.0316162109375
1761914508620270800,9.877270751953125,-0.8365631103515625,-0.7254638671875,0.0229339599609375
1761914508630326800,9.887326904296875,-0.8183441162109375,-0.7263641357421875,0.016326904296875
1761914508640382700,9.8973828125,-0.807525634765625,-0.73162841796875,0.023590087890625
1761914508650438000,9.90743798828125,-0.817169189453125,-0.74578857421875,0.0403900146484375
1761914508660493600,9.91749365234375,-0.8401336669921875,-0.7581787109375,0.0531768798828125
1761914508670549500,9.927549560546876,-0.860076904296875,-0.7522735595703125,0.0615234375
1761914508680605700,9.937605712890624,-0.87548828125,-0.74847412109375,0.06524658203125
1761914508690660600,9.94766064453125,-0.89825439453125,-0.742767333984375,0.0594329833984375
1761914508700716800,9.957716796875,-0.9239349365234375,-0.728302001953125,0.040496826171875
1761914508710772700,9.967772705078126,-0.931732177734375,-0.7098388671875,0.01080322265625
1761914508720828700,9.97782861328125,-0.931915283203125,-0.6853790283203125,-0.0221099853515625
1761914508730883800,9.9878837890625,-0.9322967529296875,-0.66302490234375,-0.0526123046875
1761914508740939500,9.997939453125,-0.9297943115234375,-0.6410064697265625,-0.0760650634765625
1761914508750995700,10.00799560546875,-0.925201416015625,-0.6156158447265625,-0.091888427734375
1761914508761050600,10.018050537109374,-0.91558837890625,-0.59857177734375,-0.1060638427734375
1761914508771106800,10.02810693359375,-0.896697998046875,-0.5957794189453125,-0.11077880859375
1761914508781162800,10.038162841796876,-0.8780975341796875,-0.600830078125,-0.110992431640625
1761914508791218000,10.048218017578124,-0.8711700439453125,-0.602813720703125,-0.1154937744140625
1761914508801273900,10.05827392578125,-0.8489837646484375,-0.5948486328125,-0.1229248046875
1761914508811329800,10.068329833984375,-0.8212127685546875,-0.577301025390625,-0.1317596435546875
1761914508821385700,10.0783857421875,-0.8030242919921875,-0.559356689453125,-0.1300048828125
1761914508831440600,10.088440673828124,-0.78094482421875,-0.55426025390625,-0.1181182861328125
1761914508841496800,10.098496826171875,-0.7568359375,-0.5635833740234375,-0.0953216552734375
1761914508851552800,10.108552734375,-0.7387237548828125,-0.5782470703125,-0.0668792724609375
1761914508861607700,10.118607666015626,-0.721832275390625,-0.5843658447265625,-0.0447540283203125
1761914508871663900,10.128663818359374,-0.709564208984375,-0.5853424072265625,-0.02911376953125
1761914508881719800,10.1387197265625,-0.69940185546875,-0.584228515625,-0.0171051025390625
1761914508891775700,10.148775634765625,-0.69671630859375,-0.580078125,-0.0087432861328125
1761914508901830700,10.15883056640625,-0.69732666015625,-0.5703277587890625,-0.005462646484375
1761914508911883300,10.16888330078125,-0.6937408447265625,-0.5561370849609375,-0.0044097900390625
1761914508921939500,10.178939453125,-0.69366455078125,-0.5443267822265625,-0.0006256103515625
1761914508931994000,10.188994140625,-0.690826416015625,-0.542205810546875,0.0030670166015625
1761914508942050300,10.19905029296875,-0.6865386962890625,-0.541107177734375,-0.00531005859375
1761914508952106200,10.209106201171876,-0.6737060546875,-0.5457916259765625,-0.018707275390625
1761914508962162200,10.219162109375,-0.648101806640625,-0.556854248046875,-0.0254669189453125
1761914508972217300,10.22921728515625,-0.6188201904296875,-0.5702056884765625,-0.0259246826171875
1761914508982273300,10.239273193359375,-0.6031341552734375,-0.588165283203125,-0.01708984375
1761914508992329500,10.24932958984375,-0.59796142578125,-0.604095458984375,-0.003997802734375
1761914509002385400,10.259385498046875,-0.5991973876953125,-0.61358642578125,0.00445556640625
1761914509012440300,10.2694404296875,-0.6118316650390625,-0.6253204345703125,0.0106353759765625
1761914509022496300,10.279496337890626,-0.6248016357421875,-0.638031005859375,0.02020263671875
1761914509032552200,10.28955224609375,-0.6256103515625,-0.648162841796875,0.02374267578125
1761914509042607400,10.299607421875,-0.61932373046875,-0.65655517578125,0.0269317626953125
1761914509052663300,10.309663330078125,-0.6091156005859375,-0.6724700927734375,0.0331878662109375
1761914509062719200,10.31971923828125,-0.6094970703125,-0.690704345703125,0.041595458984375
1761914509072775400,10.329775390625,-0.624420166015625,-0.69873046875,0.0497589111328125
1761914509082830000,10.339830078125,-0.6390533447265625,-0.697174072265625,0.049835205078125
1761914509092886300,10.34988623046875,-0.647369384765625,-0.69183349609375,0.050872802734375
1761914509102942200,10.359942138671874,-0.641143798828125,-0.6920166015625,0.051666259765625
1761914509112997400,10.369997314453125,-0.6326141357421875,-0.6934356689453125,0.0508270263671875
1761914509123053300,10.38005322265625,-0.6283416748046875,-0.6978302001953125,0.0523834228515625
1761914509133109200,10.390109130859376,-0.6280517578125,-0.702789306640625,0.05126953125
1761914509143165400,10.40016552734375,-0.6332855224609375,-0.7025299072265625,0.0555572509765625
1761914509153220000,10.41022021484375,-0.635528564453125,-0.7076263427734375,0.0637359619140625
1761914509163276300,10.4202763671875,-0.6365509033203125,-0.724029541015625,0.07269287109375
1761914509173332200,10.430332275390626,-0.6496429443359375,-0.736541748046875,0.0804901123046875
1761914509183387400,10.440387451171874,-0.6695098876953125,-0.7533111572265625,0.08843994140625
1761914509193443300,10.450443359375,-0.6864776611328125,-0.7662811279296875,0.0893707275390625
1761914509203499300,10.460499267578125,-0.7016448974609375,-0.771148681640625,0.091156005859375
1761914509213555500,10.470555419921874,-0.7243804931640625,-0.7723541259765625,0.0965576171875
1761914509223610000,10.480610107421874,-0.7489776611328125,-0.773162841796875,0.09979248046875
1761914509233666300,10.490666259765625,-0.7685699462890625,-0.7744903564453125,0.0938568115234375
1761914509243722200,10.50072216796875,-0.7800750732421875,-0.772064208984375,0.0896453857421875
1761914509253777200,10.510777099609374,-0.7776336669921875,-0.7686004638671875,0.093841552734375
1761914509263833300,10.520833251953125,-0.7790985107421875,-0.765533447265625,0.1010589599609375
1761914509273889300,10.53088916015625,-0.7779541015625,-0.765838623046875,0.112579345703125
1761914509283945200,10.5409453125,-0.77911376953125,-0.773193359375,0.1285400390625
1761914509294000400,10.55100048828125,-0.7941741943359375,-0.7849273681640625,0.1431884765625
1761914509304056000,10.56105615234375,-0.811737060546875,-0.8040924072265625,0.155914306640625
1761914509314112300,10.5711123046875,-0.823394775390625,-0.8110198974609375,0.1660308837890625
1761914509324167200,10.581167236328126,-0.827972412109375,-0.811614990234375,0.172515869140625
1761914509334223400,10.591223388671875,-0.8206329345703125,-0.8073272705078125,0.1754913330078125
1761914509344279300,10.601279296875,-0.823883056640625,-0.7983245849609375,0.18182373046875
1761914509354335200,10.611335205078126,-0.8333892822265625,-0.793304443359375,0.1910400390625
1761914509364390400,10.621390380859374,-0.8270263671875,-0.7892913818359375,0.192626953125
1761914509374446000,10.631446044921875,-0.8270111083984375,-0.7657623291015625,0.1826019287109375
1761914509384502300,10.641502197265625,-0.8213653564453125,-0.7365570068359375,0.161956787109375
1761914509394557200,10.65155712890625,-0.8101043701171875,-0.7069091796875,0.142242431640625
1761914509404613400,10.66161328125,-0.8112335205078125,-0.667755126953125,0.12445068359375
1761914509414669300,10.67166943359375,-0.8238067626953125,-0.6226043701171875,0.110443115234375
1761914509424725200,10.681725341796875,-0.83648681640625,-0.58770751953125,0.1114349365234375
1761914509434780400,10.691780517578126,-0.83013916015625,-0.5690460205078125,0.1183319091796875
1761914509444836400,10.70183642578125,-0.807525634765625,-0.5672454833984375,0.129852294921875
1761914509454892000,10.71189208984375,-0.7801055908203125,-0.5786590576171875,0.151519775390625
1761914509464947200,10.721947265625,-0.7562255859375,-0.596405029296875,0.16888427734375
1761914509475003100,10.732003173828126,-0.7295989990234375,-0.60272216796875,0.1803131103515625
1761914509485059300,10.742059326171875,-0.6895599365234375,-0.5974273681640625,0.2030487060546875
1761914509495115300,10.752115234375,-0.653472900390625,-0.6085052490234375,0.236236572265625
1761914509505170400,10.76217041015625,-0.636627197265625,-0.6328887939453125,0.2775421142578125
1761914509515226400,10.772226318359374,-0.672027587890625,-0.6386260986328125,0.338043212890625
1761914509525282300,10.7822822265625,-0.7739715576171875,-0.6475677490234375,0.358123779296875
1761914509535338200,10.792338134765625,-0.7239532470703125,-0.6551971435546875,0.306793212890625
1761914509545393200,10.80239306640625,-0.6829681396484375,-0.6223297119140625,0.2613983154296875
1761914509555449300,10.812449462890624,-0.69403076171875,-0.60382080078125,0.26171875
1761914509565505300,10.82250537109375,-0.6817474365234375,-0.5936737060546875,0.2591094970703125
