time,seconds_elapsed,z,y,x
1761914498815954000,0.072953857421875,0.2788715660572052,0.19174200296401978,-0.25159895420074463
1761914498826009900,0.083009765625,0.3007347881793976,0.08562649041414261,-0.17330333590507507
1761914498836065800,0.093065673828125,0.3316037654876709,0.0034621094819158316,-0.09878383576869965
1761914498846121700,0.103121826171875,0.3682110607624054,-0.05800098553299904,-0.027708061039447784
1761914498856177000,0.113177001953125,0.40803036093711853,-0.08097580820322037,0.0327954962849617
1761914498866232800,0.12323291015625,0.45132189989089966,-0.10245446860790253,0.08556363731622696
1761914498876288800,0.133288818359375,0.5095500349998474,-0.13397431373596191,0.1447308212518692
1761914498886344000,0.143343994140625,0.5567079782485962,-0.1781391054391861,0.20486366748809814
1761914498896399600,0.153399658203125,0.5866027474403381,-0.20153018832206726,0.2684202790260315
1761914498906455800,0.163455810546875,0.6137211918830872,-0.21060597896575928,0.32929906249046326
1761914498916510700,0.1735107421875,0.6334916949272156,-0.21682019531726837,0.381539911031723
1761914498926567000,0.18356689453125,0.6562178134918213,-0.2332516312599182,0.42011818289756775
1761914498936622800,0.193622802734375,0.6722180843353271,-0.2477853000164032,0.4520641267299652
1761914498946678000,0.203677978515625,0.6849673986434937,-0.2544863522052765,0.4660228192806244
1761914498956734000,0.21373388671875,0.6787760853767395,-0.24228507280349731,0.4755987524986267
1761914498966790000,0.223789794921875,0.6519109606742859,-0.22148817777633667,0.4732738137245178
1761914498976845800,0.233845703125,0.6138261556625366,-0.17929385602474213,0.4685080945491791
1761914498986900700,0.243900634765625,0.5715170502662659,-0.12414831668138504,0.45428919792175293
1761914498996957000,0.25395703125,0.5405063629150391,-0.05974002927541733,0.419129341840744
1761914499007012900,0.264012939453125,0.5258488655090332,0.02665797621011734,0.3587677478790283
1761914499017068000,0.274068115234375,0.5168716311454773,0.14208203554153442,0.29078683257102966
1761914499027124000,0.2841240234375,0.5163136720657349,0.3171451985836029,0.2270943969488144
1761914499037180000,0.294179931640625,0.5328596234321594,0.5414880514144897,0.18157245218753815
1761914499047234800,0.30423486328125,0.565538763999939,0.739403247833252,0.1475154161453247
1761914499057290800,0.314290771484375,0.5989143252372742,0.8705708384513855,0.13375087082386017
1761914499067346700,0.3243466796875,0.6352507472038269,0.9113667607307434,0.12205906212329865
1761914499077403000,0.33440283203125,0.6734681725502014,0.8788495659828186,0.11678946763277054
1761914499087457800,0.344457763671875,0.7094706296920776,0.8544281125068665,0.12599068880081177
1761914499097514000,0.354513916015625,0.7307591438293457,0.8654211163520813,0.14519821107387543
1761914499107570000,0.36456982421875,0.7417050004005432,0.858416736125946,0.1703520268201828
1761914499117624800,0.374624755859375,0.730282723903656,0.7994745373725891,0.19440117478370667
1761914499127680800,0.3846806640625,0.7000033855438232,0.6854071021080017,0.2180308699607849
1761914499137736700,0.39473681640625,0.6544337272644043,0.5522487759590149,0.2371121495962143
1761914499147792000,0.4047919921875,0.6248183250427246,0.444419264793396,0.25030118227005005
1761914499157847800,0.414847900390625,0.5985904335975647,0.3995383381843567,0.2694849967956543
1761914499167904000,0.424904052734375,0.5676873922348022,0.39837774634361267,0.28557130694389343
1761914499177959000,0.434958984375,0.5187196135520935,0.40273040533065796,0.2957639992237091
1761914499188014800,0.445014892578125,0.46773576736450195,0.3844539225101471,0.2916451692581177
1761914499198070800,0.45507080078125,0.4289129972457886,0.34933003783226013,0.28031501173973083
1761914499208126700,0.465126708984375,0.405155211687088,0.29514962434768677,0.2606949806213379
1761914499218182000,0.475181884765625,0.3671204745769501,0.22194944322109222,0.2520418167114258
1761914499228237800,0.48523779296875,0.2921234667301178,0.1445755511522293,0.2653440535068512
1761914499238293800,0.495293701171875,0.11984970420598984,0.038554850965738297,0.29179564118385315
1761914499248349000,0.505348876953125,-0.04505562409758568,0.029440712183713913,0.3404681086540222
1761914499258404900,0.51540478515625,-0.1548582911491394,0.0503569133579731,0.37722131609916687
1761914499268460800,0.525460693359375,-0.21791474521160126,0.050280213356018066,0.3814608156681061
1761914499278515700,0.535515625,-0.2573090195655823,0.049313485622406006,0.37904664874076843
1761914499288572000,0.545572021484375,-0.2908523380756378,0.04669266939163208,0.37973135709762573
1761914499298627800,0.5556279296875,-0.3067910969257355,0.04578293487429619,0.4052859842777252
1761914499308683800,0.565683837890625,-0.30297398567199707,0.0644674077630043,0.43867430090904236
1761914499318739000,0.575739013671875,-0.28645944595336914,0.08062133938074112,0.4458048939704895
1761914499328795000,0.585794921875,-0.27392131090164185,0.05567178502678871,0.4115321636199951
1761914499338850800,0.595850830078125,-0.29362228512763977,0.012330436147749424,0.32449179887771606
1761914499348905700,0.60590576171875,-0.34753772616386414,-0.038961246609687805,0.21605879068374634
1761914499358962000,0.6159619140625,-0.41812559962272644,-0.09123057872056961,0.10255886614322662
1761914499369017900,0.626017822265625,-0.47905367612838745,-0.12075304985046387,0.004068777430802584
1761914499379073000,0.636072998046875,-0.5289996862411499,-0.12596538662910461,-0.07680423557758331
1761914499389129000,0.64612890625,-0.5701375007629395,-0.11296170204877853,-0.15509957075119019
1761914499399185000,0.656184814453125,-0.6003468036651611,-0.08215052634477615,-0.2123442143201828
1761914499409239800,0.66623974609375,-0.6185290217399597,-0.03515905141830444,-0.24759487807750702
1761914499419295700,0.676295654296875,-0.6173897385597229,-0.0016996293561533093,-0.24972301721572876
1761914499429351700,0.6863515625,-0.6122793555259705,0.026431340724229813,-0.23001135885715485
1761914499439407900,0.696407958984375,-0.6005995273590088,0.04605377838015556,-0.19931790232658386
1761914499449462800,0.706462890625,-0.5937451124191284,0.07430991530418396,-0.1686103194952011
1761914499459519000,0.71651904296875,-0.5873135924339294,0.09762243181467056,-0.13627049326896667
1761914499469575000,0.726574951171875,-0.5981715321540833,0.11807896941900253,-0.10709715634584427
1761914499479629800,0.7366298828125,-0.6252287030220032,0.10390535742044449,-0.09084787964820862
1761914499489685800,0.746685791015625,-0.6801175475120544,0.04728895053267479,-0.07929375767707825
1761914499499741700,0.75674169921875,-0.7390828728675842,-0.03971385583281517,-0.07822423428297043
1761914499509796900,0.766796875,-0.7906848192214966,-0.11022450774908066,-0.07350058108568192
1761914499519852800,0.776852783203125,-0.8087903261184692,-0.13260811567306519,-0.07125473767518997
1761914499529909000,0.786908935546875,-0.7988529801368713,-0.11775299906730652,-0.06315899640321732
1761914499539965000,0.79696484375,-0.7670660018920898,-0.06811141222715378,-0.053580403327941895
1761914499550019800,0.807019775390625,-0.708767831325531,-0.02245390973985195,-0.04489237442612648
1761914499560075800,0.81707568359375,-0.6440761685371399,-0.0055028898641467094,-0.037578266113996506
1761914499570131700,0.827131591796875,-0.5863654613494873,-0.014915033243596554,-0.02093137986958027
1761914499580187000,0.837186767578125,-0.5342346429824829,-0.04993506893515587,-0.009364473633468151
1761914499590242800,0.847242919921875,-0.4915010333061218,-0.0928226113319397,-0.011785552836954594
1761914499600299000,0.857299072265625,-0.4490169584751129,-0.12644821405410767,-0.03292465955018997
1761914499610354000,0.86735400390625,-0.3992176949977875,-0.14108867943286896,-0.06532441079616547
1761914499620409900,0.877409912109375,-0.33330845832824707,-0.1408196985721588,-0.10266086459159851
1761914499630465800,0.8874658203125,-0.25480005145072937,-0.12487003207206726,-0.12153016030788422
1761914499640521700,0.897521728515625,-0.15926742553710938,-0.07956353574991226,-0.12103480845689774
1761914499650577000,0.907576904296875,-0.053591854870319366,-0.03524959832429886,-0.09907571971416473
1761914499660632800,0.9176328125,0.0591978095471859,-0.029887856915593147,-0.06415128707885742
1761914499670688800,0.927688720703125,0.17579233646392822,-0.05308425799012184,-0.034145187586545944
1761914499680744000,0.937743896484375,0.2827821671962738,-0.08945531398057938,-0.005042695440351963
1761914499690799900,0.9477998046875,0.36797934770584106,-0.11860920488834381,0.018751317635178566
1761914499700856000,0.95785595703125,0.4327966868877411,-0.1464269906282425,0.0373564250767231
1761914499710910700,0.96791064453125,0.501807451248169,-0.14566504955291748,0.056352753192186356
1761914499720967000,0.977966796875,0.5519619584083557,-0.11487465351819992,0.08333723247051239
1761914499731022800,0.98802294921875,0.5943254232406616,-0.06585811078548431,0.12543754279613495
1761914499741078000,0.998078125,0.6160879731178284,0.02106533758342266,0.17025960981845856
1761914499751134000,1.008134033203125,0.6353234648704529,0.12485618144273758,0.1966126561164856
1761914499761190000,1.01818994140625,0.6647266149520874,0.23304177820682526,0.20230036973953247
1761914499771246000,1.02824609375,0.7079299688339233,0.3338538706302643,0.19074492156505585
1761914499781300700,1.03830078125,0.760848879814148,0.40838244557380676,0.16771017014980316
1761914499791357000,1.04835693359375,0.8207138180732727,0.4523214101791382,0.14372387528419495
1761914499801412900,1.058412841796875,0.8845625519752502,0.46870702505111694,0.12970712780952454
1761914499811467800,1.0684677734375,0.9430293440818787,0.48929911851882935,0.12968742847442627
1761914499821524000,1.07852392578125,0.9831240177154541,0.5218903422355652,0.1387922316789627
1761914499831580000,1.088579833984375,1.0120912790298462,0.5564534068107605,0.14740675687789917
1761914499841634800,1.098634765625,1.0505304336547852,0.5982477068901062,0.14696814119815826
1761914499851690800,1.108690673828125,1.094672441482544,0.6574151515960693,0.1402505785226822
1761914499861746700,1.11874658203125,1.1508182287216187,0.7109723687171936,0.1194441020488739
1761914499871803000,1.128802978515625,1.211379051208496,0.7556562423706055,0.08995465934276581
1761914499881857800,1.13885791015625,1.2500771284103394,0.766074001789093,0.05338146537542343
1761914499891914000,1.1489140625,1.2635200023651123,0.7231243848800659,0.0133863789960742
1761914499901970400,1.158970458984375,1.2710319757461548,0.6486733555793762,-0.02263607084751129
1761914499912025300,1.169025390625,1.2773388624191284,0.5869170427322388,-0.03190839663147926
1761914499922081500,1.17908154296875,1.286563515663147,0.5823044180870056,-0.01799151673913002
1761914499932137200,1.18913720703125,1.3043856620788574,0.6741712093353271,0.016390956938266754
1761914499942192400,1.1991923828125,1.3371955156326294,0.8039380311965942,0.05842948704957962
1761914499952248300,1.209248291015625,1.3813496828079224,0.9163671135902405,0.0941573902964592
1761914499962304300,1.21930419921875,1.4295052289962769,0.9981575608253479,0.13487578928470612
1761914499972360400,1.2293603515625,1.476922869682312,1.0818217992782593,0.17427699267864227
1761914499982415400,1.239415283203125,1.52294921875,1.136839509010315,0.19572663307189941
1761914499992471600,1.249471435546875,1.5427697896957397,1.1224899291992188,0.17354382574558258
1761914500002527200,1.25952734375,1.4950048923492432,1.0445047616958618,0.09623731672763824
1761914500012582400,1.26958251953125,1.3672924041748047,0.8642913699150085,-0.025674736127257347
1761914500022638300,1.279638427734375,1.198845386505127,0.5760683417320251,-0.16994349658489227
1761914500032694300,1.2896943359375,1.0562118291854858,0.2713603973388672,-0.29175594449043274
1761914500042749400,1.29974951171875,0.9626088738441467,-0.001303351018577814,-0.3590732216835022
1761914500052805400,1.309805419921875,0.9079810380935669,-0.20594251155853271,-0.3808962106704712
1761914500062861600,1.319861572265625,0.879277765750885,-0.30881616473197937,-0.3655598759651184
1761914500072917500,1.32991748046875,0.862546980381012,-0.30323922634124756,-0.3159329295158386
1761914500082972400,1.339972412109375,0.8601579070091248,-0.2277711182832718,-0.24828064441680908
1761914500093028400,1.3500283203125,0.8735144138336182,-0.14962224662303925,-0.1712854653596878
1761914500103084300,1.360084228515625,0.8895418643951416,-0.08105863630771637,-0.08579666167497635
1761914500113139500,1.370139404296875,0.8996762633323669,0.0180549006909132,0.00714712543413043
1761914500123195400,1.3801953125,0.8905810117721558,0.21796855330467224,0.10945618897676468
1761914500133251300,1.390251220703125,0.8871314525604248,0.5083186030387878,0.19941723346710205
1761914500143306200,1.40030615234375,0.896316409111023,0.8206884860992432,0.2589748501777649
1761914500153362200,1.410362060546875,0.9070873260498047,1.0904123783111572,0.2610204219818115
1761914500163418400,1.42041845703125,0.9032936096191406,1.2795687913894653,0.2223616987466812
1761914500173474300,1.430474365234375,0.8906098008155823,1.385023832321167,0.16055186092853546
1761914500183529500,1.440529541015625,0.8812434673309326,1.396533727645874,0.09256242215633392
1761914500193585400,1.45058544921875,0.8788098692893982,1.3376634120941162,0.0327393040060997
1761914500203641300,1.460641357421875,0.8804956674575806,1.2168585062026978,-0.02647075615823269
1761914500213696300,1.4706962890625,0.8909887671470642,1.0749578475952148,-0.08581157773733139
1761914500223752200,1.480752197265625,0.9092644453048706,0.9445340037345886,-0.15002305805683136
1761914500233808400,1.490808349609375,0.9224934577941895,0.8315597772598267,-0.21654082834720612
1761914500243863300,1.50086328125,0.9238591194152832,0.7381017208099365,-0.28444451093673706
1761914500253919500,1.51091943359375,0.9164991974830627,0.6850199103355408,-0.34297358989715576
1761914500263975400,1.520975341796875,0.9250956177711487,0.6575107574462891,-0.3810994029045105
1761914500274030300,1.5310302734375,0.9541091322898865,0.6297811269760132,-0.3921874761581421
1761914500284086500,1.54108642578125,0.9880844354629517,0.6060393452644348,-0.3983124792575836
1761914500294142200,1.55114208984375,1.0199978351593018,0.5888260006904602,-0.4126208424568176
1761914500304198100,1.5611982421875,1.0432970523834229,0.597000002861023,-0.43449631333351135
1761914500314253300,1.57125341796875,1.0652146339416504,0.6283278465270996,-0.46376073360443115
1761914500324309200,1.581309326171875,1.0976111888885498,0.6796211004257202,-0.49715518951416016
1761914500334365400,1.591365478515625,1.1301262378692627,0.7282208800315857,-0.5221409797668457
1761914500344420400,1.60142041015625,1.1688201427459717,0.7857859134674072,-0.5284545421600342
1761914500354476500,1.6114765625,1.2058652639389038,0.848868191242218,-0.5175134539604187
1761914500364532500,1.621532470703125,1.2415640354156494,0.909381091594696,-0.4971117675304413
1761914500374587400,1.63158740234375,1.2616465091705322,0.9514667391777039,-0.46043071150779724
1761914500384643300,1.641643310546875,1.2642773389816284,0.9780451059341431,-0.41975679993629456
1761914500394699300,1.65169921875,1.245829701423645,0.9822220206260681,-0.3852313160896301
1761914500404755500,1.66175537109375,1.2140361070632935,0.9634962677955627,-0.3603704273700714
1761914500414810400,1.671810302734375,1.1735848188400269,0.9101587533950806,-0.3420654535293579
1761914500424866600,1.681866455078125,1.1347182989120483,0.8424374461174011,-0.3108881115913391
1761914500434922500,1.691922607421875,1.1048277616500854,0.7726544141769409,-0.2659296691417694
1761914500444977400,1.701977294921875,1.0803266763687134,0.7127170562744141,-0.2339288741350174
1761914500455033300,1.712033447265625,1.0718344449996948,0.6737842559814453,-0.20486925542354584
1761914500465089300,1.72208935546875,1.0731412172317505,0.6627476215362549,-0.17961503565311432
1761914500475144400,1.73214453125,1.076216459274292,0.6580747961997986,-0.17288042604923248
1761914500485200400,1.742200439453125,1.0749751329421997,0.6572521924972534,-0.1755254864692688
1761914500495256300,1.75225634765625,1.0620827674865723,0.6341082453727722,-0.1828659474849701
1761914500505312500,1.7623125,1.036396861076355,0.591155469417572,-0.18575415015220642
1761914500515367200,1.7723671875,1.0101337432861328,0.5529135465621948,-0.1677274852991104
1761914500525423400,1.78242333984375,1.006819248199463,0.5292462706565857,-0.12660987675189972
1761914500535479300,1.792479248046875,1.0234493017196655,0.5117903351783752,-0.06990505009889603
1761914500545534500,1.802534423828125,1.051281452178955,0.4756794571876526,-0.012704077176749706
1761914500555590400,1.81259033203125,1.0717508792877197,0.4196241796016693,0.03448740392923355
1761914500565646300,1.822646240234375,1.0725407600402832,0.32405558228492737,0.04916488379240036
1761914500575701200,1.832701171875,1.0419468879699707,0.20863071084022522,0.04382524639368057
1761914500585757200,1.842757080078125,0.9904530644416809,0.09909942001104355,0.028750421479344368
1761914500595813400,1.8528134765625,0.943229615688324,0.02033909410238266,0.010456635616719723
1761914500605868300,1.862868408203125,0.9101954698562622,-0.010071808472275734,-0.004681038204580545
1761914500615924500,1.872924560546875,0.882179319858551,0.002228533150628209,-0.01745648868381977
1761914500625980400,1.88298046875,0.8464463353157043,0.05230981111526489,-0.031183484941720963
1761914500636036400,1.893036376953125,0.8091327548027039,0.09279251843690872,-0.052689045667648315
1761914500646091500,1.903091552734375,0.7678380608558655,0.11228472739458084,-0.05622172728180885
1761914500656147200,1.913147216796875,0.7269284725189209,0.11023862659931183,-0.030775222927331924
1761914500666203100,1.923203125,0.7063544988632202,0.13581562042236328,0.048281777650117874
1761914500676258300,1.93325830078125,0.7257470488548279,0.22306370735168457,0.16715916991233826
1761914500686314200,1.943314208984375,0.7794103026390076,0.30461448431015015,0.2910406291484833
1761914500696370400,1.953370361328125,0.8195859789848328,0.3464474380016327,0.37854650616645813
1761914500706425300,1.96342529296875,0.8310641646385193,0.3906188905239105,0.43532562255859375
1761914500716481500,1.9734814453125,0.8359993100166321,0.463663786649704,0.44197261333465576
1761914500726537500,1.983537353515625,0.8401138782501221,0.5188993811607361,0.4033288061618805
1761914500736593200,1.99359326171875,0.8332562446594238,0.5256243944168091,0.3111770451068878
1761914500746648300,2.0036484375,0.7855398654937744,0.4974806308746338,0.1746612936258316
1761914500756704300,2.013704345703125,0.7003722190856934,0.45019060373306274,0.018797390162944794
1761914500766760400,2.023760498046875,0.5972689986228943,0.4004842936992645,-0.1436716765165329
1761914500776815400,2.0338154296875,0.5185244083404541,0.388083815574646,-0.2731689512729645
1761914500786871600,2.04387158203125,0.4959418475627899,0.39517927169799805,-0.34671056270599365
1761914500796927500,2.053927490234375,0.5206487774848938,0.40396398305892944,-0.3471430540084839
1761914500806982400,2.063982421875,0.5917572975158691,0.40330326557159424,-0.29128777980804443
1761914500817038300,2.074038330078125,0.708399772644043,0.3980938494205475,-0.19652824103832245
1761914500827094300,2.08409423828125,0.8556947112083435,0.40093252062797546,-0.07801224291324615
1761914500837150200,2.094150146484375,0.9997466802597046,0.4400215744972229,0.0516890287399292
1761914500847205400,2.104205322265625,1.1188483238220215,0.5269956588745117,0.18381883203983307
1761914500857261300,2.11426123046875,1.193611979484558,0.637256383895874,0.29642581939697266
1761914500867317500,2.1243173828125,1.2252283096313477,0.7329155206680298,0.3750138282775879
1761914500877372200,2.1343720703125,1.2272610664367676,0.8032112717628479,0.40689507126808167
1761914500887428400,2.144428466796875,1.2182440757751465,0.8447192907333374,0.38569948077201843
1761914500897483500,2.1544833984375,1.2171211242675781,0.8811065554618835,0.3097277581691742
1761914500907538700,2.16453857421875,1.21699857711792,0.8970628976821899,0.19906623661518097
1761914500917594600,2.1745947265625,1.2108458280563354,0.8497657179832458,0.05865772068500519
1761914500927650800,2.18465087890625,1.1763405799865723,0.7171866297721863,-0.08726859092712402
1761914500937706800,2.194706787109375,1.108127474784851,0.5106097459793091,-0.20980702340602875
1761914500947761400,2.204761474609375,1.0080727338790894,0.2840261161327362,-0.295697957277298
1761914500957817600,2.214817626953125,0.887037456035614,0.1104721799492836,-0.33676257729530334
1761914500967873500,2.22487353515625,0.7786864638328552,0.03176352381706238,-0.3308117389678955
1761914500977928700,2.2349287109375,0.6952008605003357,0.028540298342704773,-0.2975943982601166
1761914500987984600,2.244984619140625,0.6331335306167603,0.08264347910881042,-0.2504040002822876
1761914500998040600,2.25504052734375,0.5951690673828125,0.20703467726707458,-0.19242297112941742
1761914501008095700,2.265095703125,0.5673739314079285,0.3716265559196472,-0.14891144633293152
1761914501018151700,2.275151611328125,0.5486037135124207,0.5362834334373474,-0.12099140137434006
1761914501028207600,2.28520751953125,0.5246731042861938,0.661037027835846,-0.1140541359782219
1761914501038263600,2.295263671875,0.5003187656402588,0.7323570251464844,-0.12616433203220367
1761914501048318700,2.305318603515625,0.4718668758869171,0.7589777112007141,-0.14577025175094604
1761914501058374700,2.315374755859375,0.42863577604293823,0.7474422454833984,-0.1640307456254959
1761914501068430600,2.3254306640625,0.37016022205352783,0.7006654143333435,-0.1718955934047699
1761914501078485800,2.33548583984375,0.3048752248287201,0.6286476850509644,-0.16158783435821533
1761914501088541700,2.345541748046875,0.2381339967250824,0.5306614637374878,-0.14484906196594238
1761914501098597600,2.35559765625,0.178500235080719,0.41661691665649414,-0.10893740504980087
1761914501108652500,2.365652587890625,0.12705275416374207,0.31801870465278625,-0.07093462347984314
1761914501118708700,2.375708740234375,0.08987689018249512,0.24741113185882568,-0.028295820578932762
1761914501128764700,2.3857646484375,0.07249017804861069,0.2071949988603592,0.011261709034442902
1761914501138820600,2.395820556640625,0.07380205392837524,0.19559746980667114,0.03127669543027878
1761914501148875800,2.405875732421875,0.09527112543582916,0.20902059972286224,0.02839701995253563
1761914501158931700,2.415931640625,0.1301651895046234,0.24878637492656708,-0.0002609897928778082
1761914501168987600,2.425987548828125,0.16897544264793396,0.30121922492980957,-0.05246773362159729
1761914501179042600,2.43604248046875,0.21257537603378296,0.373961865901947,-0.11723874509334564
1761914501189098500,2.446098388671875,0.25743845105171204,0.4487692713737488,-0.1809585988521576
1761914501199154700,2.45615478515625,0.3032171428203583,0.5198346376419067,-0.24578739702701569
1761914501209209600,2.466209716796875,0.3470820486545563,0.584509551525116,-0.308173805475235
1761914501219265800,2.476265869140625,0.39173340797424316,0.662898600101471,-0.356960266828537
1761914501229321700,2.48632177734375,0.43683430552482605,0.7499991655349731,-0.3868931233882904
1761914501239377700,2.496377685546875,0.4786938726902008,0.8108526468276978,-0.4037352204322815
1761914501249432600,2.5064326171875,0.5135741233825684,0.8148729801177979,-0.42578592896461487
1761914501259488500,2.516488525390625,0.5347587466239929,0.7722511887550354,-0.4509522616863251
1761914501269544700,2.526544677734375,0.5335171818733215,0.7079254984855652,-0.4621652364730835
1761914501279599600,2.536599609375,0.5185560584068298,0.6421374082565308,-0.4474014639854431
1761914501289655800,2.54665576171875,0.5034868717193604,0.5691756010055542,-0.39758652448654175
1761914501299711700,2.556711669921875,0.4760514795780182,0.4723012149333954,-0.3348720073699951
1761914501309766700,2.5667666015625,0.44588878750801086,0.35145843029022217,-0.26520344614982605
1761914501319822600,2.576822509765625,0.40858137607574463,0.19857248663902283,-0.19987262785434723
1761914501329878500,2.58687841796875,0.3709530234336853,0.04643061384558678,-0.1413792371749878
1761914501339934500,2.5969345703125,0.3324493169784546,-0.07803594321012497,-0.09390226006507874
1761914501349989600,2.60698974609375,0.2890920042991638,-0.15159857273101807,-0.05693891644477844
1761914501360045600,2.617045654296875,0.2546618580818176,-0.17601843178272247,-0.014348579570651054
1761914501370101800,2.627101806640625,0.23051044344902039,-0.15312457084655762,0.032523322850465775
1761914501380156700,2.63715673828125,0.2181967794895172,-0.10473652929067612,0.08669734746217728
1761914501390212600,2.647212646484375,0.21747879683971405,-0.04135782644152641,0.14682886004447937
1761914501400268500,2.6572685546875,0.21433599293231964,0.05391143634915352,0.2028295397758484
1761914501410323700,2.66732373046875,0.20674945414066315,0.20592519640922546,0.2657909393310547
1761914501420379600,2.677379638671875,0.19174733757972717,0.3974413573741913,0.32583215832710266
1761914501430435600,2.687435546875,0.15331551432609558,0.5306990146636963,0.3629821836948395
1761914501440491800,2.69749169921875,0.1008528470993042,0.6075267195701599,0.3927885591983795
1761914501450546700,2.707546630859375,0.04634299874305725,0.6522622108459473,0.4172603487968445
1761914501460603000,2.717602783203125,-0.032535307109355927,0.6130716800689697,0.42453184723854065
1761914501470658600,2.727658447265625,-0.1687336266040802,0.4608381986618042,0.3898119330406189
1761914501480713700,2.737713623046875,-0.37183400988578796,0.23188462853431702,0.3124859929084778
1761914501490769700,2.747769775390625,-0.598344087600708,-0.012236426584422588,0.2093377709388733
1761914501500825600,2.75782568359375,-0.7986428737640381,-0.22387278079986572,0.09982086718082428
1761914501510880800,2.767880859375,-0.9351977705955505,-0.40569424629211426,-0.005651227664202452
1761914501520936700,2.777936767578125,-1.0176044702529907,-0.547527551651001,-0.10432187467813492
1761914501530992600,2.78799267578125,-1.0364799499511719,-0.5838472247123718,-0.17647171020507812
1761914501541048600,2.798048583984375,-0.9894290566444397,-0.4631626009941101,-0.20286069810390472
1761914501551103500,2.808103515625,-0.8681555986404419,-0.1530236303806305,-0.169142946600914
1761914501561159700,2.81815966796875,-0.6738828420639038,0.3350914418697357,-0.08283069729804993
1761914501571215600,2.828215576171875,-0.4265497326850891,0.8806458711624146,0.012324843555688858
1761914501581270800,2.838270751953125,-0.17538806796073914,1.3074589967727661,0.07609343528747559
1761914501591326700,2.84832666015625,0.022181734442710876,1.5486811399459839,0.09013308584690094
1761914501601382700,2.858382568359375,0.15873664617538452,1.642659068107605,0.07448595017194748
1761914501611438800,2.86843896484375,0.24046532809734344,1.6070696115493774,0.02689659595489502
1761914501621493500,2.878493408203125,0.2897772192955017,1.4827601909637451,-0.04646630212664604
1761914501631549700,2.8885498046875,0.3250766396522522,1.2970467805862427,-0.1103036031126976
1761914501641605600,2.898605712890625,0.36483442783355713,1.0479975938796997,-0.17139466106891632
1761914501651660800,2.908660888671875,0.39492788910865784,0.7317301630973816,-0.2248552143573761
1761914501661716700,2.918716796875,0.38629817962646484,0.4235081374645233,-0.27095159888267517
1761914501671772700,2.928772705078125,0.3276449739933014,0.21277405321598053,-0.3131999969482422
1761914501681827600,2.93882763671875,0.2607591450214386,0.10613842308521271,-0.35777679085731506
1761914501691883500,2.948883544921875,0.2107870727777481,0.09412463754415512,-0.40984025597572327
1761914501701939500,2.958939453125,0.18851611018180847,0.15784262120723724,-0.4618943929672241
1761914501711995600,2.96899560546875,0.19365069270133972,0.293599933385849,-0.516591489315033
1761914501722050600,2.979050537109375,0.22841081023216248,0.49513116478919983,-0.5852493643760681
1761914501732106800,2.989106689453125,0.304327130317688,0.7512790560722351,-0.6718851923942566
1761914501742162700,2.99916259765625,0.4081246256828308,1.0069023370742798,-0.777507483959198
1761914501752217600,3.009217529296875,0.5021494030952454,1.2355501651763916,-0.8885354399681091
1761914501762273500,3.0192734375,0.5636191368103027,1.428458333015442,-0.9933862686157227
1761914501772329500,3.02932958984375,0.596103847026825,1.5738605260849,-1.0740402936935425
1761914501782384600,3.039384521484375,0.6206609010696411,1.649306058883667,-1.1181561946868896
1761914501792440600,3.049440673828125,0.6572425961494446,1.637801170349121,-1.1308767795562744
1761914501802496800,3.059496826171875,0.7110757231712341,1.5654082298278809,-1.1068840026855469
1761914501812552700,3.069552734375,0.7665054202079773,1.4678723812103271,-1.0540069341659546
1761914501822608000,3.07960791015625,0.8222895860671997,1.3581069707870483,-0.9860966205596924
1761914501832663600,3.08966357421875,0.8724616765975952,1.2195714712142944,-0.899669885635376
1761914501842719500,3.099719482421875,0.8868619203567505,1.0445735454559326,-0.8002191781997681
1761914501852774700,3.109774658203125,0.8656341433525085,0.8117932677268982,-0.6917108297348022
1761914501862830600,3.11983056640625,0.8131685256958008,0.5718869566917419,-0.5544112920761108
1761914501872886800,3.12988671875,0.7473426461219788,0.35332849621772766,-0.3901304602622986
1761914501882941700,3.139941650390625,0.6927292346954346,0.15768736600875854,-0.22136807441711426
1761914501892997600,3.14999755859375,0.6522387862205505,-0.0008026767172850668,-0.062062304466962814
1761914501903054600,3.1600546875,0.6267991662025452,-0.10662498325109482,0.06426793336868286
1761914501913110500,3.170110595703125,0.6096063852310181,-0.1466035544872284,0.15768416225910187
1761914501923165400,3.18016552734375,0.6177181005477905,-0.12057222425937653,0.22735007107257843
1761914501933221600,3.1902216796875,0.6261988878250122,-0.04990550875663757,0.2791711986064911
1761914501943277600,3.200277587890625,0.6289606094360352,0.006591323763132095,0.3209686875343323
1761914501953332500,3.21033251953125,0.6231445074081421,0.05264589935541153,0.3594021201133728
1761914501963388400,3.220388427734375,0.609250009059906,0.10299375653266907,0.4047221839427948
1761914501973444400,3.2304443359375,0.591913104057312,0.14105646312236786,0.454132616519928
1761914501983500500,3.24050048828125,0.5557255744934082,0.1824779361486435,0.5031094551086426
1761914501993555500,3.250555419921875,0.49761563539505005,0.21297219395637512,0.5523648858070374
1761914502003611600,3.260611572265625,0.438100129365921,0.23475418984889984,0.6087592244148254
1761914502013667600,3.27066748046875,0.3733181953430176,0.27785319089889526,0.6850427985191345
1761914502023722500,3.280722412109375,0.3088984489440918,0.31389907002449036,0.7677797675132751
1761914502033778400,3.2907783203125,0.19732771813869476,0.29308274388313293,0.8215020895004272
1761914502043834400,3.30083447265625,0.0247223898768425,0.2476113885641098,0.8336842060089111
1761914502053889500,3.3108896484375,-0.19080589711666107,0.2589753568172455,0.8062448501586914
1761914502063945500,3.320945556640625,-0.42177894711494446,0.2923125624656677,0.7356372475624084
1761914502074001700,3.331001708984375,-0.6461273431777954,0.26683780550956726,0.6042494177818298
1761914502084057600,3.3410576171875,-0.8600790500640869,0.201978400349617,0.42957746982574463
1761914502094112500,3.351112548828125,-1.053742527961731,0.11983053386211395,0.21551071107387543
1761914502104168400,3.36116845703125,-1.2160779237747192,0.03397873789072037,-0.023930100724101067
1761914502114224400,3.371224365234375,-1.3196088075637817,-0.03407434746623039,-0.2796020805835724
1761914502124279600,3.381279541015625,-1.3272981643676758,-0.06896495074033737,-0.5299142003059387
1761914502134335500,3.39133544921875,-1.2290962934494019,-0.08736419677734375,-0.7412770390510559
1761914502144391400,3.401391357421875,-1.0516303777694702,-0.11529916524887085,-0.8845183253288269
1761914502154447600,3.411447509765625,-0.8132414817810059,-0.1540692001581192,-0.9311769604682922
1761914502164502300,3.421502197265625,-0.5308550596237183,-0.1711999773979187,-0.8740339875221252
1761914502174558500,3.431558349609375,-0.25295954942703247,-0.18977898359298706,-0.7211286425590515
1761914502184614400,3.441614501953125,-0.026617495343089104,-0.2607918977737427,-0.5111396908760071
1761914502194669600,3.451669677734375,0.14369618892669678,-0.36805790662765503,-0.26314640045166016
1761914502204725500,3.4617255859375,0.24976855516433716,-0.4931074380874634,-0.00942039955407381
1761914502214781400,3.471781494140625,0.29747721552848816,-0.6494139432907104,0.22757989168167114
1761914502224836600,3.481836669921875,0.2880150079727173,-0.8377053141593933,0.3879812955856323
1761914502234892300,3.491892333984375,0.2539302706718445,-1.0154387950897217,0.4734261631965637
1761914502244948500,3.501948486328125,0.1882769614458084,-1.1362278461456299,0.4987402856349945
1761914502255004400,3.51200439453125,0.100925013422966,-1.1851609945297241,0.46635785698890686
1761914502265059600,3.5220595703125,-0.002356897573918104,-1.2003655433654785,0.3914622962474823
1761914502275115500,3.532115478515625,-0.1156456395983696,-1.2244412899017334,0.28926724195480347
1761914502285171500,3.54217138671875,-0.22549064457416534,-1.19114089012146,0.18963757157325745
1761914502295226600,3.5522265625,-0.32958322763442993,-1.0399342775344849,0.09956520795822144
1761914502305282600,3.562282470703125,-0.40801092982292175,-0.7622177600860596,0.017953434959053993
1761914502315338500,3.57233837890625,-0.44540223479270935,-0.40938910841941833,-0.07098203152418137
1761914502325393400,3.582393310546875,-0.4251265227794647,-0.0382872000336647,-0.15896807610988617
1761914502335449300,3.592449462890625,-0.3635944426059723,0.3047710955142975,-0.24716824293136597
1761914502345505500,3.602505615234375,-0.2870762348175049,0.5624234080314636,-0.3445299565792084
1761914502355561500,3.6125615234375,-0.20617447793483734,0.7469048500061035,-0.4362524151802063
1761914502365616600,3.62261669921875,-0.12358212471008301,0.8774740099906921,-0.488090842962265
1761914502375672600,3.632672607421875,-0.046425022184848785,0.9354848861694336,-0.5125343799591064
1761914502385728500,3.642728515625,0.022964438423514366,0.9496443271636963,-0.49743881821632385
1761914502395783400,3.652783447265625,0.0817561149597168,0.9142956733703613,-0.45651641488075256
1761914502405839400,3.66283935546875,0.10683616995811462,0.7816036939620972,-0.38496047258377075
1761914502415895600,3.6728955078125,0.0804319903254509,0.5685936808586121,-0.2808052897453308
1761914502425951500,3.682951416015625,0.005006742663681507,0.3291850984096527,-0.14232225716114044
1761914502436006700,3.693006591796875,-0.08050389587879181,0.1280253380537033,0.01122149545699358
1761914502446062600,3.7030625,-0.1385006159543991,0.011458250693976879,0.15991802513599396
1761914502456118500,3.713118408203125,-0.14159734547138214,-0.05573729798197746,0.26993322372436523
1761914502466173400,3.72317333984375,-0.09418189525604248,-0.12013546377420425,0.3181721270084381
1761914502476229400,3.7332294921875,-0.01991698332130909,-0.16771815717220306,0.3189220726490021
1761914502486285600,3.74328564453125,0.060562413185834885,-0.19323576986789703,0.289119690656662
1761914502496341500,3.753341552734375,0.12136957049369812,-0.15912893414497375,0.2434225082397461
1761914502506396400,3.763396484375,0.1715395301580429,-0.07760903984308243,0.18544575572013855
1761914502516452600,3.77345263671875,0.20930075645446777,0.03834472596645355,0.12461942434310913
1761914502526508500,3.783508544921875,0.2542666494846344,0.17212969064712524,0.06876494735479355
1761914502536563500,3.7935634765625,0.2966332733631134,0.2914923131465912,0.017945177853107452
1761914502546619400,3.803619384765625,0.3346155285835266,0.3781917691230774,-0.013017797842621803
1761914502556675300,3.81367529296875,0.3631680905818939,0.42593878507614136,-0.025886990129947662
1761914502566730500,3.82373046875,0.36838096380233765,0.4602251350879669,-0.02442731149494648
1761914502576786400,3.833786376953125,0.37084251642227173,0.4912722706794739,-0.02047065459191799
1761914502586842600,3.843842529296875,0.38378068804740906,0.5199795365333557,-0.0205145962536335
1761914502596898600,3.853898681640625,0.392039954662323,0.5383114218711853,-0.03424984961748123
1761914502606953500,3.863953369140625,0.40132319927215576,0.5169349908828735,-0.058156248182058334
1761914502617009400,3.874009521484375,0.3831239640712738,0.41715994477272034,-0.09634331613779068
1761914502627065300,3.8840654296875,0.32966819405555725,0.24061207473278046,-0.14751036465168
1761914502637120500,3.89412060546875,0.255269855260849,0.05841191112995148,-0.19912002980709076
1761914502647176400,3.904176513671875,0.18539249897003174,-0.11151693761348724,-0.26162201166152954
1761914502657232600,3.914232666015625,0.13259586691856384,-0.27631229162216187,-0.3262300491333008
1761914502667288600,3.92428857421875,0.1071285828948021,-0.42286789417266846,-0.3934583365917206
1761914502677343500,3.934343505859375,0.11102692037820816,-0.5189164280891418,-0.43351656198501587
1761914502687399400,3.9443994140625,0.15404948592185974,-0.5596398711204529,-0.4333184063434601
1761914502697455400,3.954455322265625,0.24050714075565338,-0.5200250744819641,-0.3748095631599426
1761914502707510500,3.964510498046875,0.38229358196258545,-0.39007478952407837,-0.25282612442970276
1761914502717566500,3.97456640625,0.5408046841621399,-0.24404995143413544,-0.0852363333106041
1761914502727622400,3.984622314453125,0.6604570150375366,-0.17165404558181763,0.08720014989376068
1761914502737678600,3.9946787109375,0.7127359509468079,-0.1524696946144104,0.26918166875839233
1761914502747733500,4.0047333984375,0.6623784899711609,-0.14406077563762665,0.45909860730171204
1761914502757789400,4.01478955078125,0.5047034025192261,-0.15426920354366302,0.6333675980567932
1761914502767842600,4.024842529296875,0.24151888489723206,-0.1642368733882904,0.7923354506492615
1761914502777897500,4.0348974609375,-0.08519931882619858,-0.17432838678359985,0.9201985597610474
1761914502787953400,4.044953369140625,-0.41140618920326233,-0.25321975350379944,1.0106121301651
1761914502798009300,4.05500927734375,-0.669094979763031,-0.40407636761665344,1.0612730979919434
1761914502808065500,4.0650654296875,-0.819283664226532,-0.5720754861831665,1.0917322635650635
1761914502818120400,4.075120361328125,-0.8596678376197815,-0.6916125416755676,1.122395634651184
1761914502828176400,4.08517626953125,-0.8012996315956116,-0.7015959620475769,1.1602439880371094
1761914502838232600,4.095232666015625,-0.6635316610336304,-0.6027050614356995,1.2134158611297607
1761914502848287500,4.10528759765625,-0.48891934752464294,-0.46290427446365356,1.2646251916885376
1761914502858343400,4.115343505859375,-0.34417495131492615,-0.36897164583206177,1.2768640518188477
1761914502868399400,4.1253994140625,-0.262297123670578,-0.355654776096344,1.2499690055847168
1761914502878455300,4.135455322265625,-0.23956438899040222,-0.3900825083255768,1.1879900693893433
1761914502888510500,4.145510498046875,-0.263904869556427,-0.4138680100440979,1.1241655349731445
1761914502898566400,4.15556640625,-0.306940495967865,-0.3856819272041321,1.0627354383468628
1761914502908622000,4.1656220703125,-0.3328930139541626,-0.3252454698085785,0.9895843267440796
1761914502918677000,4.175677001953125,-0.3407285511493683,-0.2678799033164978,0.8842645287513733
1761914502928733200,4.185733154296875,-0.31788715720176697,-0.2272576540708542,0.7480648756027222
1761914502938789000,4.1957890625,-0.27066770195961,-0.21724364161491394,0.5795115828514099
1761914502948845000,4.205844970703125,-0.2118091881275177,-0.25191640853881836,0.3967476189136505
1761914502958900200,4.215900146484375,-0.14528502523899078,-0.3382190465927124,0.19455456733703613
1761914502968956000,4.225955810546875,-0.0872800424695015,-0.43559035658836365,-0.028540564700961113
1761914502979012000,4.23601220703125,-0.026456907391548157,-0.4754432141780853,-0.23968635499477386
1761914502989067000,4.24606689453125,0.040973000228405,-0.43665027618408203,-0.42469990253448486
1761914502999123200,4.256123291015625,0.13305018842220306,-0.3374989330768585,-0.5674847364425659
1761914503009179100,4.26617919921875,0.2564818561077118,-0.2114158421754837,-0.6728780269622803
1761914503019234300,4.276234375,0.4085070788860321,-0.08228635042905807,-0.723339855670929
1761914503029290200,4.286290283203125,0.5694312453269958,0.034747861325740814,-0.7303769588470459
1761914503039346200,4.29634619140625,0.7039355039596558,0.12015250325202942,-0.6897398233413696
1761914503049402000,4.306402099609375,0.7883132696151733,0.14200347661972046,-0.6248100996017456
1761914503059457000,4.31645703125,0.8182740807533264,0.10643163323402405,-0.5263351798057556
1761914503069513000,4.326512939453125,0.8140023946762085,0.05477403104305267,-0.3975391089916229
1761914503079569200,4.336569091796875,0.7655727863311768,0.017104152590036392,-0.25980865955352783
1761914503089624000,4.3466240234375,0.6912844181060791,-0.027065439149737358,-0.14767920970916748
1761914503099680300,4.35668017578125,0.5871596336364746,-0.10240306705236435,-0.09000392258167267
1761914503109736200,4.366736083984375,0.4681597352027893,-0.19123467803001404,-0.0761866495013237
1761914503119791900,4.3767919921875,0.3533455431461334,-0.25387489795684814,-0.08915837109088898
1761914503129847000,4.386846923828125,0.2562456429004669,-0.2713620066642761,-0.10382493585348129
1761914503139903000,4.396903076171875,0.20844800770282745,-0.27376896142959595,-0.10753311961889267
1761914503149959200,4.406959228515625,0.20295098423957825,-0.3038608133792877,-0.08623208850622177
1761914503160014000,4.41701416015625,0.200801283121109,-0.38788649439811707,-0.0282880961894989
1761914503170070300,4.4270703125,0.17594200372695923,-0.455967515707016,0.06703389436006546
1761914503180126200,4.437126220703125,0.16337960958480835,-0.42333874106407166,0.1715451180934906
1761914503190182100,4.44718212890625,0.19860923290252686,-0.3205002546310425,0.2670530080795288
1761914503200237000,4.457237060546875,0.25829386711120605,-0.20132964849472046,0.35104110836982727
1761914503210293000,4.46729296875,0.3303808569908142,-0.05402328819036484,0.45737820863723755
1761914503220349200,4.47734912109375,0.4023573100566864,0.061034057289361954,0.578241229057312
1761914503230404000,4.487404052734375,0.46044856309890747,0.07273385673761368,0.6924724578857422
1761914503240460000,4.4974599609375,0.4922192692756653,-0.002532399957999587,0.780799150466919
1761914503250516200,4.50751611328125,0.5122281312942505,-0.07843808084726334,0.8582339882850647
1761914503260572200,4.517572265625,0.5383223295211792,-0.15834356844425201,0.9114913940429688
1761914503270627000,4.527626953125,0.5554315447807312,-0.2636907696723938,0.9289513230323792
1761914503280683000,4.53768310546875,0.5473541617393494,-0.3680019974708557,0.8929246068000793
1761914503290739000,4.547739013671875,0.4974864721298218,-0.4812808632850647,0.8026197552680969
1761914503300794000,4.557794189453125,0.38875919580459595,-0.5893236994743347,0.6790807843208313
1761914503310850000,4.56785009765625,0.25343307852745056,-0.6436335444450378,0.5556994676589966
1761914503320906200,4.57790625,0.13111114501953125,-0.652727484703064,0.46933606266975403
1761914503330962200,4.587962158203125,0.03749517723917961,-0.6252742409706116,0.4256865978240967
1761914503341017000,4.59801708984375,-0.006887200754135847,-0.5514245629310608,0.420400470495224
1761914503351075000,4.608074951171875,-0.001967543503269553,-0.42659711837768555,0.4447905123233795
1761914503361131300,4.61813134765625,0.038959648460149765,-0.24363476037979126,0.4852181077003479
1761914503371186000,4.62818603515625,0.11370925605297089,-0.010555438697338104,0.5593644976615906
1761914503381242000,4.6382421875,0.2057579606771469,0.23133201897144318,0.6653891801834106
1761914503391298000,4.648298095703125,0.2975802719593048,0.4174896478652954,0.7623463869094849
1761914503401353200,4.658353271484375,0.3748638927936554,0.5716786980628967,0.8345435857772827
1761914503411409200,4.6684091796875,0.41095423698425293,0.7387055158615112,0.859619140625
1761914503421465000,4.678465087890625,0.36374014616012573,0.8333435654640198,0.7765045166015625
1761914503431521300,4.688521240234375,0.23197171092033386,0.7730250954627991,0.5580808520317078
1761914503441576000,4.698575927734375,0.05096997320652008,0.6583123803138733,0.25196459889411926
1761914503451632000,4.708632080078125,-0.12441089749336243,0.5887921452522278,-0.06721872091293335
1761914503461688000,4.71868798828125,-0.2586025297641754,0.5394102334976196,-0.35719195008277893
1761914503471743200,4.7287431640625,-0.354306161403656,0.44580358266830444,-0.602379322052002
1761914503481799200,4.738799072265625,-0.39720648527145386,0.32249629497528076,-0.7920570969581604
1761914503491855000,4.748855224609375,-0.36684590578079224,0.19528694450855255,-0.9127739667892456
1761914503501911000,4.7589111328125,-0.25464826822280884,0.09236321598291397,-0.9554452300071716
1761914503511966000,4.768966064453125,-0.07602685689926147,-0.01056183036416769,-0.9399315118789673
1761914503522022000,4.77902197265625,0.13072392344474792,-0.16982817649841309,-0.8657220005989075
1761914503532078000,4.789078125,0.321135938167572,-0.356697142124176,-0.7359877228736877
1761914503542133000,4.799133056640625,0.45640242099761963,-0.5215984582901001,-0.5677193403244019
1761914503552189200,4.809189208984375,0.5348591208457947,-0.5821166634559631,-0.36502617597579956
1761914503562245000,4.8192451171875,0.5646919012069702,-0.5080839991569519,-0.1557682901620865
1761914503572301000,4.829301025390625,0.5531452298164368,-0.38311222195625305,0.016874320805072784
1761914503582356200,4.839356201171875,0.5033600926399231,-0.253849059343338,0.13107706606388092
1761914503592412000,4.849411865234375,0.4154302179813385,-0.18465347588062286,0.1802786886692047
1761914503602468000,4.859468017578125,0.31641948223114014,-0.2140563577413559,0.18043528497219086
1761914503612523000,4.86952294921875,0.21434985101222992,-0.3160676956176758,0.15193413197994232
1761914503622579200,4.8795791015625,0.12759843468666077,-0.4242633879184723,0.11338621377944946
1761914503632635100,4.88963525390625,0.05668671429157257,-0.4834921061992645,0.07310004532337189
1761914503642691000,4.899691162109375,0.001430916483514011,-0.4873496890068054,0.02436392940580845
1761914503652746200,4.909746337890625,-0.05266907066106796,-0.43977710604667664,-0.037027258425951004
1761914503662802200,4.91980224609375,-0.11771784722805023,-0.367647260427475,-0.09745971113443375
1761914503672858000,4.929858154296875,-0.19584274291992188,-0.24971263110637665,-0.14698918163776398
1761914503682913000,4.9399130859375,-0.2893117070198059,-0.09605596214532852,-0.19510531425476074
1761914503692969000,4.949968994140625,-0.3768868148326874,0.05283844843506813,-0.23366042971611023
1761914503703025200,4.960025146484375,-0.43957045674324036,0.19290047883987427,-0.27251994609832764
1761914503713080000,4.970080078125,-0.47778600454330444,0.30552077293395996,-0.3091237545013428
1761914503723136300,4.98013623046875,-0.49570855498313904,0.3755858838558197,-0.3377460837364197
1761914503733192200,4.990192138671875,-0.5070155262947083,0.3949396014213562,-0.35787585377693176
1761914503743248000,5.000247802734375,-0.5250959992408752,0.3524693548679352,-0.3744862675666809
1761914503753303000,5.010302978515625,-0.5615131258964539,0.263299822807312,-0.38285842537879944
1761914503763359000,5.02035888671875,-0.5998125672340393,0.16677060723304749,-0.36524829268455505
1761914503773415200,5.030415283203125,-0.6478333473205566,0.09185455739498138,-0.32311388850212097
1761914503783470000,5.040469970703125,-0.6970709562301636,0.03719530627131462,-0.2609679400920868
1761914503793526300,5.0505263671875,-0.7237411737442017,0.005032042972743511,-0.18474481999874115
1761914503803582200,5.060582275390625,-0.7182316184043884,0.003524960018694401,-0.09224896878004074
1761914503813638100,5.07063818359375,-0.6797828078269958,0.014281467534601688,-0.002246376359835267
1761914503823693000,5.080693115234375,-0.608272910118103,0.016232499852776527,0.07624976336956024
1761914503833749000,5.0907490234375,-0.5093109011650085,-0.004514324478805065,0.13155589997768402
1761914503843805200,5.10080517578125,-0.3940437138080597,-0.06063751503825188,0.1697632074356079
1761914503853860000,5.110860107421875,-0.2897772192955017,-0.1216803640127182,0.1911555826663971
1761914503863916000,5.120916015625,-0.20465220510959625,-0.16090765595436096,0.20497338473796844
1761914503873972200,5.13097216796875,-0.14694097638130188,-0.19966010749340057,0.21656133234500885
1761914503884028200,5.141028076171875,-0.12447135150432587,-0.23988769948482513,0.22339926660060883
1761914503894083000,5.1510830078125,-0.13429735600948334,-0.262440949678421,0.22559930384159088
1761914503904139800,5.161139892578125,-0.1518915295600891,-0.24061501026153564,0.22661876678466797
1761914503914195700,5.17119580078125,-0.15697523951530457,-0.1679554432630539,0.23746314644813538
1761914503924251000,5.1812509765625,-0.1271457076072693,-0.04061613604426384,0.2634129822254181
1761914503934306800,5.191306884765625,-0.053574010729789734,0.10528727620840073,0.2995145320892334
1761914503944362800,5.20136279296875,0.026133066043257713,0.18251095712184906,0.318813681602478
1761914503954418700,5.211418701171875,0.0779789537191391,0.08838418871164322,0.31393927335739136
1761914503964473600,5.2214736328125,0.08972908556461334,-0.1493988037109375,0.30695992708206177
1761914503974529800,5.23152978515625,0.07142651081085205,-0.40783461928367615,0.33091187477111816
1761914503984585700,5.241585693359375,0.03969414904713631,-0.5671997666358948,0.41225573420524597
1761914503994641000,5.251640869140625,0.04410354420542717,-0.5187811255455017,0.55560302734375
1761914504004696800,5.26169677734375,0.10488380491733551,-0.2317163199186325,0.7423361539840698
1761914504014752800,5.271752685546875,0.20050354301929474,0.03314570337533951,0.8617304563522339
1761914504024809000,5.28180908203125,0.26264920830726624,0.06958840042352676,0.860741138458252
1761914504034863600,5.291863525390625,0.28365328907966614,-0.01426468975841999,0.772343099117279
1761914504044919800,5.301919921875,0.26995453238487244,-0.18507876992225647,0.6126916408538818
1761914504054975700,5.311975830078125,0.2315535992383957,-0.4635748565196991,0.4294528365135193
1761914504065031000,5.322031005859375,0.16141659021377563,-0.7777154445648193,0.25205886363983154
1761914504075086800,5.3320869140625,0.06463625282049179,-1.0097037553787231,0.1117132157087326
1761914504085142800,5.342142822265625,-0.032167788594961166,-1.1441677808761597,0.02629045955836773
1761914504095199000,5.352198974609375,-0.09191474318504333,-1.1665585041046143,0.013963752426207066
1761914504105253600,5.362253662109375,-0.10449738055467606,-1.0223808288574219,0.07055193185806274
1761914504115309800,5.372309814453125,-0.06445462256669998,-0.7447428703308105,0.15696218609809875
1761914504125365800,5.38236572265625,-0.0008048072922974825,-0.4096847176551819,0.22863024473190308
1761914504135420700,5.392420654296875,0.07037483155727386,-0.07056764513254166,0.24311278760433197
1761914504145476900,5.402476806640625,0.11859855055809021,0.2205326408147812,0.19101709127426147
1761914504155532800,5.41253271484375,0.13594532012939453,0.42711031436920166,0.06946456432342529
1761914504165587700,5.422587646484375,0.14363519847393036,0.5538719892501831,-0.0942830890417099
1761914504175643600,5.4326435546875,0.14871065318584442,0.5927234888076782,-0.29600903391838074
1761914504185699600,5.442699462890625,0.1267893761396408,0.49657806754112244,-0.5179941654205322
1761914504195755800,5.452755859375,0.07382841408252716,0.34921523928642273,-0.7117652297019958
1761914504205810700,5.462810791015625,0.004887965973466635,0.2622750401496887,-0.8223630785942078
1761914504215867000,5.472866943359375,-0.06205005571246147,0.28386765718460083,-0.8362645506858826
1761914504225922800,5.4829228515625,-0.11025326699018478,0.4079640507698059,-0.7790044546127319
1761914504235978800,5.492978759765625,-0.12709350883960724,0.6278420686721802,-0.6931662559509277
1761914504246033700,5.50303369140625,-0.11371111869812012,0.8856238126754761,-0.6337242126464844
1761914504256089600,5.513089599609375,-0.07516159862279892,1.0925309658050537,-0.6215514540672302
1761914504266145800,5.523145751953125,-0.022701317444443703,1.193831205368042,-0.6547221541404724
1761914504276200700,5.53320068359375,0.03840145096182823,1.2003763914108276,-0.6828824281692505
1761914504286257000,5.5432568359375,0.13264992833137512,1.2042592763900757,-0.6601758003234863
1761914504296312800,5.553312744140625,0.27095693349838257,1.228874683380127,-0.5864989161491394
1761914504306368000,5.563367919921875,0.43222251534461975,1.23574960231781,-0.47887951135635376
1761914504316423700,5.573423583984375,0.5863924026489258,1.207063913345337,-0.36283013224601746
1761914504326479600,5.583479736328125,0.6955944895744324,1.1823689937591553,-0.266065776348114
1761914504336535800,5.593535888671875,0.759955108165741,1.1617424488067627,-0.1941622793674469
1761914504346590700,5.6035908203125,0.7976364493370056,1.1689623594284058,-0.15082386136054993
1761914504356646700,5.613646728515625,0.8236145377159119,1.2063148021697998,-0.13293461501598358
1761914504366702800,5.623702880859375,0.8375934362411499,1.2304699420928955,-0.15885569155216217
1761914504376757800,5.6337578125,0.842143714427948,1.1773667335510254,-0.23477469384670258
1761914504386814000,5.64381396484375,0.8348733186721802,1.046867847442627,-0.3541466295719147
1761914504396869600,5.65386962890625,0.797234058380127,0.8368701338768005,-0.5152284502983093
1761914504406925600,5.663925537109375,0.7305948138237,0.5888614058494568,-0.67268306016922
1761914504416980700,5.673980712890625,0.655936598777771,0.38856053352355957,-0.7732866406440735
1761914504427036700,5.68403662109375,0.5746440887451172,0.25368207693099976,-0.791999340057373
1761914504437092900,5.6940927734375,0.4867861568927765,0.1324368715286255,-0.7267734408378601
1761914504447147800,5.704147705078125,0.4007146656513214,0.036611542105674744,-0.5810279846191406
1761914504457204000,5.714203857421875,0.3324357271194458,-0.0159470085054636,-0.369741827249527
1761914504467260000,5.724260009765625,0.2816239595413208,0.001273523666895926,-0.11716923117637634
1761914504477315600,5.734315673828125,0.23834386467933655,0.10450670123100281,0.13370852172374725
1761914504487370800,5.744370849609375,0.20234431326389313,0.23993483185768127,0.34375229477882385
1761914504497426700,5.7544267578125,0.18032076954841614,0.3262356221675873,0.4925665557384491
1761914504507483000,5.76448291015625,0.17435503005981445,0.33708348870277405,0.5797046422958374
1761914504517537800,5.774537841796875,0.17369616031646729,0.2361973524093628,0.6148533225059509
1761914504527593700,5.78459375,0.16526086628437042,0.0405423678457737,0.6197423338890076
1761914504537650000,5.79464990234375,0.12071523070335388,-0.16591547429561615,0.6211045384407043
1761914504547705900,5.804705810546875,0.03188842535018921,-0.3327675759792328,0.6392992734909058
1761914504557760800,5.8147607421875,-0.10545212030410767,-0.46472346782684326,0.673644483089447
1761914504567816700,5.824816650390625,-0.25343358516693115,-0.5776481628417969,0.7094075083732605
1761914504577872600,5.83487255859375,-0.3944535553455353,-0.6641771793365479,0.7270397543907166
1761914504587927800,5.844927734375,-0.5207933783531189,-0.7114413976669312,0.7147035002708435
1761914504597983700,5.854983642578125,-0.6259722709655762,-0.6635593175888062,0.6737472414970398
1761914504608040000,5.8650400390625,-0.7145178318023682,-0.5765032768249512,0.5887197256088257
1761914504618095900,5.875095947265625,-0.7901782393455505,-0.5177773833274841,0.44851839542388916
1761914504628150800,5.88515087890625,-0.8566515445709229,-0.43320736289024353,0.26997607946395874
1761914504638206700,5.895206787109375,-0.8885927200317383,-0.279630571603775,0.08669361472129822
1761914504648262700,5.9052626953125,-0.8740718364715576,-0.11345385760068893,-0.0874030813574791
1761914504658317800,5.91531787109375,-0.8317616581916809,-0.016810139641165733,-0.2658367455005646
1761914504668373800,5.925373779296875,-0.8312210440635681,-0.018188592046499252,-0.45663732290267944
1761914504678430000,5.935429931640625,-0.8746047616004944,-0.11526986956596375,-0.6569637656211853
1761914504688486000,5.94548583984375,-0.9610834121704102,-0.19920338690280914,-0.8476412892341614
1761914504698540800,5.955540771484375,-1.0366058349609375,-0.20714066922664642,-0.9901832342147827
1761914504708596700,5.9655966796875,-1.0735751390457153,-0.1306014209985733,-1.082278847694397
1761914504718652700,5.975652587890625,-1.0623704195022583,-0.03575906157493591,-1.1215697526931763
1761914504728707800,5.985707763671875,-0.9950019717216492,0.05396443232893944,-1.1104567050933838
1761914504738763800,5.995763671875,-0.8549804091453552,0.15277117490768433,-1.0375036001205444
1761914504748819700,6.00581982421875,-0.6683894991874695,0.23801788687705994,-0.9128759503364563
1761914504758876000,6.0158759765625,-0.4624437987804413,0.2795355021953583,-0.7585601806640625
1761914504768930600,6.0259306640625,-0.2642708122730255,0.27140140533447266,-0.5881847143173218
1761914504778986800,6.03598681640625,-0.10034045577049255,0.19330421090126038,-0.4173855185508728
1761914504789042700,6.046042724609375,0.029274798929691315,0.0971372053027153,-0.243633434176445
1761914504799097900,6.056097900390625,0.13018517196178436,0.006482933182269335,-0.06541229784488678
1761914504809153800,6.06615380859375,0.18357622623443604,-0.10610593110322952,0.07239190489053726
1761914504819209700,6.076209716796875,0.19267916679382324,-0.2475631982088089,0.1564071774482727
1761914504829266000,6.086265869140625,0.15613581240177155,-0.4550498127937317,0.18089868128299713
1761914504839320600,6.096320556640625,0.08183840662240982,-0.6833980083465576,0.17406953871250153
1761914504849376800,6.106376708984375,-0.015482819639146328,-0.8798242807388306,0.176202192902565
1761914504859432700,6.1164326171875,-0.11476492881774902,-1.0288598537445068,0.21215566992759705
1761914504869487900,6.12648779296875,-0.2074035257101059,-1.1332674026489258,0.2890413999557495
1761914504879543800,6.136543701171875,-0.2922172248363495,-1.1791129112243652,0.383638471364975
1761914504889599700,6.146599853515625,-0.3712768852710724,-1.1226164102554321,0.49618446826934814
1761914504899656000,6.156656005859375,-0.43426862359046936,-0.9306914210319519,0.6019071340560913
1761914504909714200,6.166714111328125,-0.4653192162513733,-0.657889723777771,0.685833752155304
1761914504919770000,6.17677001953125,-0.45967891812324524,-0.3666935861110687,0.7250674366950989
1761914504929826000,6.186825927734375,-0.4341663718223572,-0.0821814239025116,0.7141807079315186
1761914504939881000,6.196880859375,-0.40650731325149536,0.17086201906204224,0.6614037752151489
1761914504949937200,6.206937255859375,-0.37539172172546387,0.35909104347229004,0.5668871402740479
1761914504959993000,6.2169931640625,-0.34921765327453613,0.4515690505504608,0.43841835856437683
1761914504970049000,6.227049072265625,-0.3361146152019501,0.46497035026550293,0.29135674238204956
1761914504980104200,6.237104248046875,-0.34644821286201477,0.43952518701553345,0.1625867784023285
1761914504990160000,6.247159912109375,-0.38293513655662537,0.42035335302352905,0.058698732405900955
1761914505000216000,6.257216064453125,-0.45695796608924866,0.39590153098106384,-0.01925678551197052
1761914505010271000,6.26727099609375,-0.5564028024673462,0.3566769063472748,-0.06939958035945892
1761914505020327200,6.2773271484375,-0.6773608922958374,0.30729469656944275,-0.10408671945333481
1761914505030383000,6.287383056640625,-0.7778371572494507,0.2556101977825165,-0.1285550445318222
1761914505040439000,6.29743896484375,-0.829441487789154,0.20711909234523773,-0.14796416461467743
1761914505050494200,6.307494140625,-0.8322844505310059,0.1493663191795349,-0.17487673461437225
1761914505060550100,6.317550048828125,-0.78184974193573,0.08630958944559097,-0.21157589554786682
1761914505070606000,6.327606201171875,-0.6919233202934265,0.006725813262164593,-0.2609889805316925
1761914505080661000,6.337660888671875,-0.5717588663101196,-0.07700024545192719,-0.30320408940315247
1761914505090717200,6.34771728515625,-0.43520739674568176,-0.140522763133049,-0.3212009370326996
1761914505100773000,6.357773193359375,-0.3089200258255005,-0.1499788463115692,-0.3030166029930115
1761914505110829000,6.3678291015625,-0.18475733697414398,-0.09994657337665558,-0.24616849422454834
1761914505120884200,6.37788427734375,-0.07573870569467545,0.0015209312550723553,-0.17034856975078583
1761914505130940200,6.387940185546875,0.009410013444721699,0.0936034545302391,-0.09912578761577606
1761914505140996000,6.39799609375,0.07154156267642975,0.096805639564991,-0.03280002251267433
1761914505151051000,6.408051025390625,0.13902951776981354,0.03397980332374573,0.03470791131258011
1761914505161107000,6.41810693359375,0.21169547736644745,-0.06108252704143524,0.11176301538944244
1761914505171163100,6.4281630859375,0.29082730412483215,-0.15503938496112823,0.1836252212524414
1761914505181219000,6.438218994140625,0.37420713901519775,-0.2863244414329529,0.21855869889259338
1761914505191274200,6.448274169921875,0.45345988869667053,-0.4620547294616699,0.196414515376091
1761914505201330200,6.458330078125,0.5175225138664246,-0.6911994814872742,0.12668897211551666
1761914505211386000,6.46838623046875,0.5566797852516174,-0.9336512684822083,0.03313451632857323
1761914505221441000,6.47844091796875,0.5512090921401978,-1.146454930305481,-0.041240379214286804
1761914505231497000,6.4884970703125,0.5282734036445618,-1.2660654783248901,-0.06692817062139511
1761914505241553200,6.49855322265625,0.47768905758857727,-1.2352551221847534,-0.03502855822443962
1761914505251609000,6.508609130859375,0.42796918749809265,-1.0326406955718994,0.03900492191314697
1761914505261664300,6.518664306640625,0.39020368456840515,-0.6628291010856628,0.14072436094284058
1761914505271720200,6.52872021484375,0.3912007808685303,-0.18073062598705292,0.24447712302207947
1761914505281776000,6.538776123046875,0.4316542148590088,0.2452491670846939,0.3168370723724365
1761914505291831000,6.5488310546875,0.48436322808265686,0.5063098073005676,0.3403725028038025
1761914505301887000,6.558886962890625,0.5312231183052063,0.6653335094451904,0.338504821062088
1761914505311943200,6.568943115234375,0.5659393072128296,0.7643634676933289,0.32603615522384644
1761914505321999000,6.5789990234375,0.6031045317649841,0.7411577105522156,0.2926204204559326
1761914505332054000,6.589053955078125,0.6209636926651001,0.5354559421539307,0.23180340230464935
1761914505342110200,6.599110107421875,0.6058164238929749,0.24764202535152435,0.1678859442472458
1761914505352166100,6.609166259765625,0.5749408006668091,-0.014030598104000092,0.1560593694448471
1761914505362221000,6.619220947265625,0.5654719471931458,-0.1868756115436554,0.22421765327453613
1761914505372277000,6.629277099609375,0.5685667991638184,-0.3012501299381256,0.350793719291687
1761914505382333000,6.6393330078125,0.5758987069129944,-0.39246898889541626,0.5059260129928589
1761914505392389000,6.64938916015625,0.5627049207687378,-0.473859965801239,0.6547852754592896
1761914505402444000,6.659444091796875,0.5490666031837463,-0.5236347317695618,0.7904845476150513
1761914505412500200,6.669500244140625,0.5451221466064453,-0.5202895402908325,0.8939813375473022
1761914505422556200,6.67955615234375,0.5361356139183044,-0.5056192278862,0.9495599269866943
1761914505432611000,6.689611083984375,0.5331962704658508,-0.4809668958187103,0.9547208547592163
1761914505442667000,6.6996669921875,0.5442979335784912,-0.4158374071121216,0.9252729415893555
1761914505452723000,6.709722900390625,0.5714781284332275,-0.29882609844207764,0.8835247159004211
1761914505462779100,6.719779052734375,0.6149318814277649,-0.18068934977054596,0.8320497870445251
1761914505472834000,6.729833984375,0.6512701511383057,-0.11925475299358368,0.7691336870193481
1761914505482890200,6.73989013671875,0.6702201962471008,-0.12135332822799683,0.7075390219688416
1761914505492946200,6.7499462890625,0.6837373375892639,-0.1606447994709015,0.6549621224403381
1761914505503001000,6.7600009765625,0.6939473152160645,-0.19543474912643433,0.6242838501930237
1761914505513057000,6.77005712890625,0.6970009207725525,-0.16020645201206207,0.6052854061126709
1761914505523113000,6.780113037109375,0.695093035697937,-0.11152412742376328,0.5744481086730957
1761914505533169200,6.790169189453125,0.6798309683799744,-0.04518745094537735,0.5084621906280518
1761914505543224000,6.80022412109375,0.6569243669509888,0.027843348681926727,0.41185280680656433
1761914505553280000,6.810280029296875,0.6225602626800537,0.08439157903194427,0.29445159435272217
1761914505563336200,6.820336181640625,0.5892049670219421,0.14359338581562042,0.18012875318527222
1761914505573391000,6.83039111328125,0.5546741485595703,0.20330092310905457,0.0884675458073616
1761914505583447300,6.840447265625,0.5407889485359192,0.25613537430763245,0.0437416210770607
1761914505593503000,6.8505029296875,0.5419055819511414,0.28863605856895447,0.04092080146074295
1761914505603559000,6.860558837890625,0.5582813620567322,0.36029478907585144,0.08319715410470963
1761914505613614000,6.870614013671875,0.5996421575546265,0.4961700737476349,0.1357855349779129
1761914505623670000,6.880669921875,0.6718369722366333,0.682093620300293,0.16605208814144135
1761914505633726200,6.890726318359375,0.7848652601242065,0.8972903490066528,0.15234026312828064
1761914505643781000,6.900781005859375,0.9113036394119263,1.0782665014266968,0.08778338134288788
1761914505653837300,6.91083740234375,1.0246796607971191,1.1748149394989014,-0.026040121912956238
1761914505663893000,6.92089306640625,1.0976450443267822,1.163966178894043,-0.16196121275424957
1761914505673949000,6.930948974609375,1.1411045789718628,1.0738911628723145,-0.28278109431266785
1761914505684004000,6.941004150390625,1.1640610694885254,0.9436376094818115,-0.361780047416687
1761914505694060000,6.95106005859375,1.157222032546997,0.8110265731811523,-0.4007173180580139
1761914505704116200,6.9611162109375,1.1290998458862305,0.6665897369384766,-0.40168192982673645
1761914505714171100,6.971171142578125,1.0842125415802002,0.5314196944236755,-0.3616785705089569
1761914505724227000,6.98122705078125,1.0172218084335327,0.4189613163471222,-0.2712392210960388
1761914505734283300,6.991283203125,0.9292464256286621,0.3331446647644043,-0.1364601105451584
1761914505744339000,7.0013388671875,0.8315938711166382,0.27755385637283325,0.034221354871988297
1761914505754394000,7.01139404296875,0.7401353120803833,0.2551816999912262,0.21809744834899902
1761914505764450000,7.021449951171875,0.6547605395317078,0.2643562853336334,0.37386226654052734
1761914505774506000,7.031506103515625,0.5676757097244263,0.282472163438797,0.4675629436969757
1761914505784561200,7.04156103515625,0.4860668480396271,0.294089138507843,0.5064437389373779
1761914505794617000,7.0516171875,0.42006999254226685,0.32711926102638245,0.49404221773147583
1761914505804673300,7.06167333984375,0.3762226402759552,0.3542483448982239,0.450806587934494
1761914505814729200,7.071729248046875,0.34713345766067505,0.354081392288208,0.38927319645881653
1761914505824784100,7.0817841796875,0.35321345925331116,0.34617045521736145,0.33163970708847046
1761914505834840000,7.091840087890625,0.3827817440032959,0.36363306641578674,0.29010745882987976
1761914505844896000,7.10189599609375,0.43214982748031616,0.4118455946445465,0.2512279748916626
1761914505854951200,7.111951171875,0.47335851192474365,0.45843201875686646,0.20619870722293854
1761914505865007000,7.122007080078125,0.4932357966899872,0.47539955377578735,0.159745991230011
1761914505875063300,7.132063232421875,0.47783660888671875,0.47236940264701843,0.13275325298309326
1761914505885119200,7.142119140625,0.4297764003276825,0.4996039569377899,0.15121029317378998
1761914505895174100,7.152174072265625,0.3620487451553345,0.5630540251731873,0.2059353142976761
1761914505905226200,7.162226318359375,0.28941795229911804,0.6017873287200928,0.27383100986480713
1761914505915282200,7.1722822265625,0.2200777679681778,0.6539756655693054,0.33985742926597595
1761914505925337300,7.18233740234375,0.15872333943843842,0.6994256973266602,0.4045799672603607
1761914505935393300,7.192393310546875,0.1141928881406784,0.72999507188797,0.4446443021297455
1761914505945449500,7.202449462890625,0.0957140102982521,0.7820103764533997,0.4704841673374176
1761914505955505400,7.21250537109375,0.14111797511577606,0.882340133190155,0.48748844861984253
1761914505965560300,7.222560302734375,0.23557071387767792,0.9611548185348511,0.4745630621910095
1761914505975616300,7.2326162109375,0.33801454305648804,1.0138441324234009,0.4152890741825104
1761914505985672200,7.242672119140625,0.4242737889289856,1.0601940155029297,0.30255746841430664
1761914505995727400,7.252727294921875,0.49083417654037476,1.1410808563232422,0.15226677060127258
1761914506005783300,7.262783203125,0.5547146201133728,1.2834635972976685,0.004578772932291031
1761914506015839200,7.272839111328125,0.6065908670425415,1.406548023223877,-0.12299303710460663
1761914506025895400,7.2828955078125,0.6354499459266663,1.478722333908081,-0.21014045178890228
1761914506035950000,7.2929501953125,0.6373330354690552,1.4986670017242432,-0.2464800775051117
1761914506046006300,7.30300634765625,0.6129547357559204,1.4858454465866089,-0.24485129117965698
1761914506056062200,7.313062255859375,0.5690115094184875,1.4234862327575684,-0.23163269460201263
1761914506066117400,7.323117431640625,0.5430659651756287,1.3227615356445312,-0.22808828949928284
1761914506076173300,7.33317333984375,0.540513277053833,1.1705015897750854,-0.25473374128341675
1761914506086229200,7.343229248046875,0.5663198828697205,0.9573526382446289,-0.3095059096813202
1761914506096285400,7.353285400390625,0.6146301627159119,0.7298893332481384,-0.3695889711380005
1761914506106340000,7.363340087890625,0.6815929412841797,0.5353931188583374,-0.3968813121318817
1761914506116396300,7.373396240234375,0.773989200592041,0.37990817427635193,-0.38361796736717224
1761914506126452200,7.3834521484375,0.8799073696136475,0.2277601957321167,-0.3502006232738495
1761914506136507400,7.39350732421875,0.9731339812278748,0.08371700346469879,-0.3094217777252197
1761914506146563300,7.403563232421875,1.0482518672943115,-0.033780068159103394,-0.2708165943622589
1761914506156619300,7.413619384765625,1.1067978143692017,-0.12096929550170898,-0.24057665467262268
1761914506166675500,7.423675537109375,1.155208706855774,-0.17131103575229645,-0.21586838364601135
1761914506176730000,7.433730224609375,1.1817572116851807,-0.16356629133224487,-0.17856921255588531
1761914506186786000,7.4437861328125,1.1920466423034668,-0.11599265038967133,-0.12582850456237793
1761914506196842200,7.45384228515625,1.17424476146698,-0.004369448404759169,-0.04385267570614815
1761914506206897200,7.463897216796875,1.1257480382919312,0.20152725279331207,0.0741242915391922
1761914506216953300,7.473953369140625,1.0617338418960571,0.4693451225757599,0.20272541046142578
1761914506227009300,7.48400927734375,0.9881480932235718,0.7119612097740173,0.3044035732746124
1761914506237065200,7.494065185546875,0.926647424697876,0.8702989220619202,0.35612162947654724
1761914506247120400,7.504120361328125,0.8692198395729065,0.9407222270965576,0.368802547454834
1761914506257176000,7.514176025390625,0.8080078363418579,0.9247914552688599,0.34430304169654846
1761914506267232300,7.524232177734375,0.7427492141723633,0.7982878684997559,0.2822956144809723
1761914506277287200,7.534287109375,0.6706444025039673,0.5637368559837341,0.19076596200466156
1761914506287343400,7.54434326171875,0.5727143883705139,0.2754017412662506,0.09322741627693176
1761914506297399300,7.5543994140625,0.460410475730896,0.048830654472112656,0.03171452134847641
1761914506307455200,7.564455322265625,0.36224237084388733,-0.05464114248752594,0.023933028802275658
1761914506317510400,7.574510498046875,0.28258535265922546,-0.08100616931915283,0.06209000200033188
1761914506327566300,7.58456640625,0.21102328598499298,-0.05390530824661255,0.13765214383602142
1761914506337622300,7.594622314453125,0.14397501945495605,0.04879896342754364,0.24825827777385712
1761914506347677200,7.60467724609375,0.09664851427078247,0.2218860536813736,0.37217357754707336
1761914506357733400,7.6147333984375,0.070066437125206,0.4192239046096802,0.4720325171947479
1761914506367789300,7.624789306640625,0.07580927759408951,0.5932140946388245,0.5195915102958679
1761914506377845200,7.63484521484375,0.11107565462589264,0.7440453767776489,0.5034250617027283
1761914506387900400,7.644900390625,0.19113107025623322,0.8874097466468811,0.4496651589870453
1761914506397956400,7.654956298828125,0.2972785532474518,1.0308550596237183,0.35396313667297363
1761914506408012000,7.665011962890625,0.4217698872089386,1.1259807348251343,0.22349832952022552
1761914506418067200,7.675067138671875,0.563001811504364,1.1567480564117432,0.06241224333643913
1761914506428123100,7.685123046875,0.7094541192054749,1.1354022026062012,-0.1068982183933258
1761914506438179300,7.695179443359375,0.8363564014434814,1.1103101968765259,-0.2700405418872833
1761914506448235300,7.7052353515625,0.9331045150756836,1.1270545721054077,-0.3979324698448181
1761914506458290400,7.71529052734375,0.9846755862236023,1.2215338945388794,-0.47808748483657837
1761914506468346400,7.725346435546875,0.9898027181625366,1.3666572570800781,-0.5211672782897949
1761914506478402300,7.73540234375,0.9638267755508423,1.4722486734390259,-0.5424262285232544
1761914506488457200,7.745457275390625,0.917306125164032,1.5095832347869873,-0.5327166318893433
1761914506498513200,7.75551318359375,0.8617794513702393,1.5002974271774292,-0.48888713121414185
1761914506508569300,7.7655693359375,0.8003004193305969,1.4685556888580322,-0.399289608001709
1761914506518625300,7.775625244140625,0.7572045922279358,1.4187101125717163,-0.28592923283576965
1761914506528680400,7.785680419921875,0.7359635233879089,1.3669193983078003,-0.15304015576839447
1761914506538736400,7.795736328125,0.7260594367980957,1.3384989500045776,-0.01870897226035595
1761914506548792300,7.805792236328125,0.7324678301811218,1.3256733417510986,0.0862419456243515
1761914506558847200,7.81584716796875,0.7492635846138,1.2970457077026367,0.15605032444000244
1761914506568903200,7.825903076171875,0.7751069068908691,1.2033671140670776,0.17455103993415833
1761914506578959000,7.835958984375,0.8051739931106567,1.0418394804000854,0.13314606249332428
1761914506589015300,7.846015380859375,0.8384073376655579,0.8284199237823486,0.05583583563566208
1761914506599070200,7.8560703125,0.8862004280090332,0.6396265625953674,-0.036790505051612854
1761914506609126400,7.86612646484375,0.9541214108467102,0.5446430444717407,-0.0953448936343193
1761914506619182300,7.876182373046875,1.0435631275177002,0.5772883892059326,-0.11419794708490372
1761914506629237200,7.8862373046875,1.1474570035934448,0.7604142427444458,-0.08728057891130447
1761914506639293200,7.896293212890625,1.2825584411621094,1.1128673553466797,-0.020118318498134613
1761914506649349000,7.90634912109375,1.4520723819732666,1.5763524770736694,0.07390458136796951
1761914506659405300,7.9164052734375,1.6406444311141968,1.9477769136428833,0.11251269280910492
1761914506669460200,7.926460205078125,1.793581247329712,1.9783110618591309,0.01769430935382843
1761914506679516400,7.936516357421875,1.8345448970794678,1.5726975202560425,-0.2096693366765976
1761914506689572400,7.946572265625,1.7280304431915283,0.9755880832672119,-0.44721585512161255
1761914506699627300,7.956627197265625,1.5162187814712524,0.5453999638557434,-0.5806207656860352
1761914506709683200,7.96668310546875,1.2696326971054077,0.3325420022010803,-0.6106529831886292
1761914506719739100,7.9767392578125,1.0466198921203613,0.18795126676559448,-0.5930489301681519
1761914506729795300,7.98679541015625,0.8685218095779419,0.08849631249904633,-0.5421146750450134
1761914506739850200,7.996850341796875,0.7395265102386475,0.09237973392009735,-0.4526553452014923
1761914506749906200,8.00690625,0.6833232045173645,0.25065964460372925,-0.30678391456604004
1761914506759962400,8.01696240234375,0.7304595708847046,0.5857532024383545,-0.13517805933952332
1761914506770016300,8.027016357421875,0.8867780566215515,0.9649852514266968,0.015968313440680504
1761914506780071200,8.0370712890625,1.1066478490829468,1.30044424533844,0.09018049389123917
1761914506790127400,8.04712744140625,1.3326878547668457,1.4988073110580444,0.07471311837434769
1761914506800183300,8.057183349609375,1.4956778287887573,1.5692991018295288,-0.009553557261824608
1761914506810238500,8.067238525390625,1.5933716297149658,1.523771047592163,-0.1201101616024971
1761914506820294400,8.07729443359375,1.6518285274505615,1.4653284549713135,-0.19671252369880676
1761914506830350000,8.08735009765625,1.6841434240341187,1.5000169277191162,-0.20243752002716064
1761914506840406300,8.09740625,1.6842224597930908,1.5851480960845947,-0.16443927586078644
1761914506850461200,8.107461181640625,1.6631033420562744,1.6404653787612915,-0.11488983035087585
1761914506860517400,8.117517333984376,1.6121128797531128,1.6553889513015747,-0.08574073761701584
1761914506870573300,8.1275732421875,1.536623477935791,1.6701351404190063,-0.09203404933214188
1761914506880628200,8.137628173828125,1.468489408493042,1.6692898273468018,-0.1513644903898239
1761914506890684400,8.147684326171875,1.4011667966842651,1.6258057355880737,-0.26419275999069214
1761914506900740400,8.157740234375,1.334531545639038,1.533719539642334,-0.42391905188560486
1761914506910795300,8.167795166015624,1.2915396690368652,1.4055969715118408,-0.602301299571991
1761914506920851200,8.177851318359375,1.2985270023345947,1.2998875379562378,-0.7637136578559875
1761914506930907100,8.1879072265625,1.3520152568817139,1.2579811811447144,-0.8716246485710144
1761914506940963300,8.19796337890625,1.436072587966919,1.2553116083145142,-0.9150980710983276
1761914506951018200,8.208018310546874,1.5344436168670654,1.2671946287155151,-0.8979478478431702
1761914506961074400,8.218074462890625,1.6410640478134155,1.2712432146072388,-0.8274825215339661
1761914506971130400,8.22813037109375,1.7501612901687622,1.2925868034362793,-0.7147170901298523
1761914506981185300,8.238185302734376,1.8382359743118286,1.3412339687347412,-0.575622022151947
1761914506991241200,8.2482412109375,1.8889354467391968,1.3961923122406006,-0.42527592182159424
1761914507001297200,8.258297119140625,1.8857561349868774,1.4365676641464233,-0.29639625549316406
1761914507011353300,8.268353271484376,1.8327049016952515,1.4276514053344727,-0.21429897844791412
1761914507021408300,8.278408203125,1.7551409006118774,1.3718161582946777,-0.17402958869934082
1761914507031464400,8.28846435546875,1.6602907180786133,1.2860101461410522,-0.17143753170967102
1761914507041520400,8.298520263671875,1.555169701576233,1.1779206991195679,-0.19010788202285767
1761914507051575300,8.3085751953125,1.4570143222808838,1.0697894096374512,-0.19869577884674072
1761914507061631200,8.31863134765625,1.3792804479599,1.0042476654052734,-0.1859203279018402
1761914507071687200,8.328687255859375,1.3022007942199707,0.9512939453125,-0.16510160267353058
1761914507081743400,8.338743408203126,1.2219001054763794,0.8962703347206116,-0.14451244473457336
1761914507091798300,8.34879833984375,1.1418912410736084,0.8289469480514526,-0.12725941836833954
1761914507101854200,8.358854248046875,1.0649791955947876,0.7620776295661926,-0.10758984088897705
1761914507111910400,8.368910400390625,1.0124528408050537,0.7223869562149048,-0.07296129316091537
1761914507121965000,8.378965087890625,0.9668323993682861,0.6889472603797913,-0.031033016741275787
1761914507132021200,8.389021240234374,0.9251272678375244,0.6340885162353516,0.013696104288101196
1761914507142077200,8.3990771484375,0.881366491317749,0.5602430701255798,0.05007355287671089
1761914507152133000,8.409133056640625,0.8326905965805054,0.49458974599838257,0.07795631885528564
1761914507162188300,8.419188232421876,0.77885502576828,0.4491373300552368,0.09092377871274948
1761914507172244200,8.429244140625,0.732453465461731,0.432239830493927,0.09369586408138275
1761914507182300400,8.439300537109375,0.694494366645813,0.47375956177711487,0.09589483588933945
1761914507192355000,8.44935498046875,0.6762583255767822,0.5679805874824524,0.09446365386247635
1761914507202411300,8.459411376953126,0.6674281358718872,0.6830233335494995,0.09365005791187286
1761914507212467200,8.46946728515625,0.6913337111473083,0.8275030255317688,0.10022460669279099
1761914507222523100,8.479523193359375,0.7615609765052795,1.0386924743652344,0.11219178885221481
1761914507232578300,8.489578369140625,0.863068699836731,1.302768588066101,0.1215786263346672
1761914507242634200,8.49963427734375,0.9677442908287048,1.5260411500930786,0.06824137270450592
1761914507252690400,8.5096904296875,1.0410724878311157,1.6793981790542603,-0.051291149109601974
1761914507262745300,8.519745361328125,1.0981265306472778,1.7843072414398193,-0.2286188006401062
1761914507272801300,8.52980126953125,1.12263822555542,1.7676169872283936,-0.44144585728645325
1761914507282857200,8.539857177734374,1.0877753496170044,1.5853121280670166,-0.6742793321609497
1761914507292913200,8.5499130859375,0.9857613444328308,1.2881488800048828,-0.8918676376342773
1761914507302968300,8.55996826171875,0.8655193448066711,0.939638614654541,-1.0551939010620117
1761914507313024300,8.570024169921876,0.784975528717041,0.6001039147377014,-1.1406052112579346
1761914507323081200,8.580081298828125,0.7776725888252258,0.27726036310195923,-1.1272306442260742
1761914507333136400,8.590136474609375,0.8139418959617615,-0.0014002900570631027,-1.0128356218338013
1761914507343192300,8.6001923828125,0.908267080783844,-0.15215171873569489,-0.7924102544784546
1761914507353248300,8.610248291015624,1.035298228263855,-0.1578306406736374,-0.4845363199710846
1761914507363304400,8.620304443359375,1.1769616603851318,-0.03737027570605278,-0.12413793057203293
1761914507373359000,8.630359130859375,1.2940949201583862,0.21539273858070374,0.24500229954719543
1761914507383415300,8.640415283203126,1.3725810050964355,0.5491587519645691,0.5562198162078857
1761914507393471200,8.65047119140625,1.4097115993499756,0.8491153717041016,0.7568362951278687
1761914507403526400,8.6605263671875,1.4079288244247437,1.0511480569839478,0.8361271023750305
1761914507413582300,8.670582275390625,1.3994925022125244,1.1273094415664673,0.8157451152801514
1761914507423638300,8.68063818359375,1.3846709728240967,1.0977894067764282,0.7044625878334045
1761914507433693200,8.690693115234374,1.3415775299072266,0.9740903377532959,0.516514241695404
1761914507443749000,8.7007490234375,1.2487328052520752,0.7953647971153259,0.26933053135871887
1761914507453805300,8.710805419921876,1.0888915061950684,0.6123595237731934,-0.010464092716574669
1761914507463861200,8.720861328125,0.8694736361503601,0.46368536353111267,-0.2772585153579712
1761914507473916400,8.73091650390625,0.6357458233833313,0.3598591089248657,-0.4896852672100067
1761914507483972400,8.740972412109375,0.4493381083011627,0.3378866910934448,-0.6163588166236877
1761914507494028300,8.7510283203125,0.34337520599365234,0.40449288487434387,-0.6586117148399353
1761914507504083200,8.761083251953124,0.29787591099739075,0.5130345225334167,-0.631127119064331
1761914507514139100,8.77113916015625,0.30739617347717285,0.6243520379066467,-0.5596100091934204
1761914507524195000,8.781195068359375,0.3639518618583679,0.736341655254364,-0.4649389088153839
1761914507534251300,8.791251220703124,0.44147035479545593,0.8155126571655273,-0.3901349902153015
1761914507544306200,8.80130615234375,0.5331211686134338,0.8506442904472351,-0.3520107567310333
1761914507554362400,8.8113623046875,0.6079922318458557,0.8769166469573975,-0.3445507287979126
1761914507564418300,8.821418212890626,0.680453896522522,0.9115095138549805,-0.3650543987751007
1761914507574473500,8.831473388671874,0.7436680197715759,0.9462805390357971,-0.3994099795818329
1761914507584529200,8.841529052734375,0.7926358580589294,0.9884908199310303,-0.4208231270313263
1761914507594585000,8.851585205078125,0.8026562333106995,1.0290699005126953,-0.42796626687049866
1761914507604641300,8.861641357421876,0.759050190448761,1.0321749448776245,-0.4249771237373352
1761914507614696200,8.8716962890625,0.654758095741272,0.9533607959747314,-0.42496833205223083
1761914507624752400,8.88175244140625,0.49938905239105225,0.7851763367652893,-0.4137902557849884
1761914507634808300,8.891808349609375,0.31658461689949036,0.583175003528595,-0.37729376554489136
1761914507644863500,8.901863525390626,0.14812448620796204,0.3786141574382782,-0.3093852698802948
1761914507654919400,8.91191943359375,0.02052444964647293,0.20786717534065247,-0.21374957263469696
1761914507664975000,8.92197509765625,-0.021589448675513268,0.1301249861717224,-0.08754049986600876
1761914507675031300,8.93203125,-0.0056951697915792465,0.1691988855600357,0.050642404705286026
1761914507685086200,8.942086181640626,0.052136704325675964,0.2549382746219635,0.16600307822227478
1761914507695142100,8.95214208984375,0.120696060359478,0.3589400351047516,0.2404051423072815
1761914507705198300,8.9621982421875,0.18215462565422058,0.4609085023403168,0.27092444896698
1761914507715253200,8.972253173828125,0.2309650331735611,0.5496924519538879,0.2620353400707245
1761914507725309400,8.982309326171874,0.2644822597503662,0.6095166206359863,0.21388831734657288
1761914507735365000,8.992365234375,0.27687954902648926,0.6159713268280029,0.14627066254615784
1761914507745421000,9.002421142578125,0.264682799577713,0.5581572651863098,0.07764659076929092
1761914507755476200,9.012476318359376,0.23687192797660828,0.454650342464447,0.021344969049096107
1761914507765532200,9.0225322265625,0.21859999001026154,0.3394976556301117,-0.011465441435575485
1761914507775588400,9.03258837890625,0.2153591811656952,0.24386699497699738,-0.019566243514418602
1761914507785643300,9.042643310546875,0.23147796094417572,0.17111022770404816,-0.02388482727110386
1761914507795699500,9.052699462890626,0.2624039351940155,0.12728337943553925,-0.017550764605402946
1761914507805755400,9.06275537109375,0.2913929522037506,0.14318352937698364,-0.00042796999332495034
1761914507815811000,9.07281103515625,0.2986953556537628,0.18956966698169708,0.02744840271770954
1761914507825866200,9.0828662109375,0.28281331062316895,0.21341906487941742,0.04157700389623642
1761914507835922200,9.092922119140624,0.23491451144218445,0.20138505101203918,0.050163302570581436
1761914507845978400,9.102978271484375,0.18088003993034363,0.19298915565013885,0.06217202916741371
1761914507856033300,9.113033203125,0.13473224639892578,0.19188101589679718,0.07447503507137299
1761914507866089500,9.12308935546875,0.0967547744512558,0.18176154792308807,0.0709623247385025
1761914507876145400,9.1331455078125,0.0629800334572792,0.174444779753685,0.05742654204368591
1761914507886201300,9.143201416015625,0.033547308295965195,0.15687483549118042,0.03665788099169731
1761914507896256300,9.15325634765625,0.032581113278865814,0.1290530562400818,0.020493291318416595
1761914507906315800,9.163315673828125,0.06812792271375656,0.11419714242219925,0.009302421472966671
1761914507916371700,9.173371826171875,0.14065805077552795,0.1319902539253235,0.012300075963139534
1761914507926426600,9.183426513671876,0.23735423386096954,0.1765473335981369,0.018148111179471016
1761914507936482600,9.193482666015624,0.35105469822883606,0.1982411891222,-0.000547279603779316
1761914507946538800,9.203538818359375,0.47783342003822327,0.18217833340168,-0.04346412047743797
1761914507956593700,9.21359375,0.6342706680297852,0.18871772289276123,-0.1001921147108078
1761914507966649900,9.22364990234375,0.7834580540657043,0.2559995651245117,-0.15298821032047272
1761914507976705800,9.233705810546875,0.8899477124214172,0.3349452316761017,-0.2083153873682022
1761914507986761700,9.24376171875,0.9479673504829407,0.36485493183135986,-0.2545321583747864
1761914507996816600,9.253816650390625,0.9833652973175049,0.31743255257606506,-0.2856234908103943
1761914508006872600,9.26387255859375,0.9972398281097412,0.2159847617149353,-0.28835535049438477
1761914508016928800,9.2739287109375,0.9915438890457153,0.09079967439174652,-0.28675639629364014
1761914508026983700,9.283983642578125,0.9748075008392334,-0.054371628910303116,-0.31150728464126587
1761914508037039900,9.294039794921876,0.9566460847854614,-0.1667833924293518,-0.34933188557624817
1761914508047095800,9.304095703125,0.9402828216552734,-0.22619132697582245,-0.39975404739379883
1761914508057151700,9.31415185546875,0.9171247482299805,-0.2198047935962677,-0.4413675367832184
1761914508067206700,9.32420654296875,0.8730922937393188,-0.12788286805152893,-0.46421587467193604
1761914508077262600,9.3342626953125,0.8240470290184021,0.05558842793107033,-0.44275957345962524
1761914508087318800,9.34431884765625,0.797242283821106,0.2969091832637787,-0.3699098825454712
1761914508097373700,9.354373779296875,0.803948163986206,0.5730435252189636,-0.24226322770118713
1761914508107429600,9.3644296875,0.8705689907073975,0.8377833366394043,-0.08014623820781708
1761914508117485800,9.37448583984375,0.9692204594612122,1.0350865125656128,0.09806931018829346
1761914508127541800,9.384541748046875,1.0501874685287476,1.1761478185653687,0.2444867044687271
1761914508137597000,9.394596923828125,1.0790343284606934,1.2594536542892456,0.34392622113227844
1761914508147652600,9.404652587890626,1.07734215259552,1.3015975952148438,0.40541645884513855
1761914508157708500,9.41470849609375,1.0477027893066406,1.2501271963119507,0.44484296441078186
1761914508167763700,9.424763671875,0.9900929927825928,1.0632179975509644,0.44502726197242737
1761914508177819600,9.434819580078125,0.8988773226737976,0.7330273389816284,0.4261731505393982
1761914508187875800,9.444875732421876,0.780646562576294,0.32726919651031494,0.40366891026496887
1761914508197930800,9.4549306640625,0.6557389497756958,-0.026632942259311676,0.3884079158306122
1761914508207987000,9.464987060546875,0.555234432220459,-0.19737805426120758,0.39264369010925293
1761914508218042600,9.475042724609375,0.4857019782066345,-0.22827444970607758,0.4114741086959839
1761914508228098600,9.4850986328125,0.43303611874580383,-0.15012292563915253,0.4328014850616455
1761914508238153700,9.49515380859375,0.3987199664115906,0.024091221392154694,0.447893351316452
1761914508248209700,9.505209716796875,0.37940138578414917,0.20835453271865845,0.4405808448791504
1761914508258265900,9.515265869140626,0.3905576169490814,0.36402827501296997,0.39680352807044983
1761914508268320800,9.52532080078125,0.44046473503112793,0.4523344337940216,0.3274542987346649
1761914508278376700,9.535376708984375,0.5104771256446838,0.4553464949131012,0.2276182472705841
1761914508288433000,9.545432861328125,0.6050363779067993,0.4395211935043335,0.13566142320632935
1761914508298488600,9.555488525390626,0.7096322774887085,0.45617473125457764,0.07331708818674088
1761914508308543700,9.565543701171874,0.8052384257316589,0.506732702255249,0.04057272523641586
1761914508318599700,9.575599609375,0.8749237656593323,0.5718400478363037,0.029582925140857697
1761914508328655600,9.585655517578125,0.9210257530212402,0.6245203018188477,0.033915624022483826
1761914508338710800,9.595710693359376,0.9271270632743835,0.6421621441841125,0.041239313781261444
1761914508348766700,9.6057666015625,0.898410439491272,0.6203625798225403,0.049193114042282104
1761914508358823000,9.615822998046875,0.8515199422836304,0.5403085350990295,0.05615834519267082
1761914508368878800,9.62587890625,0.7841936349868774,0.4144105017185211,0.05727341026067734
1761914508378933800,9.635933837890626,0.7074950933456421,0.2864474654197693,0.06680885702371597
1761914508388989700,9.64598974609375,0.6325390934944153,0.19461661577224731,0.0810338631272316
1761914508399045600,9.656045654296875,0.5899807214736938,0.1505650132894516,0.10463346540927887
1761914508409100800,9.666100830078125,0.5690845251083374,0.1472480446100235,0.12430889904499054
1761914508419156700,9.67615673828125,0.5742225050926208,0.1568061262369156,0.14600807428359985
1761914508429213000,9.686212890625,0.5965771079063416,0.1609947383403778,0.17351719737052917
1761914508439268900,9.696268798828125,0.6165571808815002,0.15479889512062073,0.2064407914876938
1761914508449323800,9.70632373046875,0.6232742071151733,0.12780509889125824,0.24496421217918396
1761914508459379700,9.716379638671874,0.6167047619819641,0.09269557893276215,0.27682599425315857
1761914508469435600,9.726435546875,0.5872589945793152,0.0964525043964386,0.3118572235107422
1761914508479490800,9.73649072265625,0.562923789024353,0.15011680126190186,0.3453129231929779
1761914508489546800,9.746546630859376,0.5392158031463623,0.25133103132247925,0.37460821866989136
1761914508499602700,9.756602783203125,0.5185009241104126,0.3441299498081207,0.4019218683242798
1761914508509659000,9.766658935546875,0.5026082396507263,0.42121753096580505,0.4334595501422882
1761914508519713500,9.776713623046875,0.4978417456150055,0.4883915185928345,0.4658300280570984
1761914508529769700,9.786769775390624,0.5039640665054321,0.5310761332511902,0.48497042059898376
1761914508539825700,9.79682568359375,0.508834719657898,0.5407572388648987,0.46614691615104675
1761914508549880800,9.806880859375,0.5104049444198608,0.517646312713623,0.4098897874355316
1761914508559936800,9.816936767578126,0.5222823619842529,0.4589316248893738,0.33945342898368835
1761914508569992700,9.82699267578125,0.5449586510658264,0.36157551407814026,0.25883394479751587
1761914508580048000,9.8370478515625,0.5407697558403015,0.25570446252822876,0.18534483015537262
1761914508590103600,9.847103515625,0.5094845294952393,0.19937463104724884,0.1236734688282013
1761914508600159700,9.85715966796875,0.4681994318962097,0.1812257170677185,0.08677937090396881
1761914508610215700,9.867215576171875,0.4449079632759094,0.2044178545475006,0.07841704040765762
1761914508620270800,9.877270751953125,0.4451012909412384,0.29330697655677795,0.08308902382850647
1761914508630326800,9.887326904296875,0.46410882472991943,0.4353695809841156,0.07632007449865341
1761914508640382700,9.8973828125,0.4884876608848572,0.5794228911399841,0.035532426089048386
1761914508650438000,9.90743798828125,0.5197696685791016,0.6695687770843506,-0.027457989752292633
1761914508660493600,9.91749365234375,0.5547266006469727,0.6949055194854736,-0.10564173758029938
1761914508670549500,9.927549560546876,0.5683534741401672,0.681047260761261,-0.16542784869670868
1761914508680605700,9.937605712890624,0.5809653997421265,0.6263027787208557,-0.20744799077510834
1761914508690660600,9.94766064453125,0.5756944417953491,0.5242435336112976,-0.2301248162984848
1761914508700716800,9.957716796875,0.5520272254943848,0.40272828936576843,-0.24106694757938385
1761914508710772700,9.967772705078126,0.5097820162773132,0.3066456913948059,-0.23480957746505737
1761914508720828700,9.97782861328125,0.4574655592441559,0.23623330891132355,-0.21081583201885223
1761914508730883800,9.9878837890625,0.40597227215766907,0.19622516632080078,-0.16571839153766632
1761914508740939500,9.997939453125,0.35275858640670776,0.1701996922492981,-0.1065693199634552
1761914508750995700,10.00799560546875,0.29670676589012146,0.14991652965545654,-0.0350719653069973
1761914508761050600,10.018050537109374,0.25205540657043457,0.15549345314502716,0.04796139895915985
1761914508771106800,10.02810693359375,0.21716800332069397,0.19409650564193726,0.13955682516098022
1761914508781162800,10.038162841796876,0.18994517624378204,0.23522663116455078,0.2148427963256836
1761914508791218000,10.048218017578124,0.15766286849975586,0.2919098734855652,0.2718179225921631
1761914508801273900,10.05827392578125,0.09945628046989441,0.3800559937953949,0.3102923631668091
1761914508811329800,10.068329833984375,0.01757952570915222,0.46179744601249695,0.32558369636535645
1761914508821385700,10.0783857421875,-0.07557305693626404,0.525775134563446,0.327109694480896
1761914508831440600,10.088440673828124,-0.16014039516448975,0.5777595043182373,0.3145425021648407
1761914508841496800,10.098496826171875,-0.21926657855510712,0.6278561949729919,0.284560889005661
1761914508851552800,10.108552734375,-0.26052001118659973,0.6671783328056335,0.2263668328523636
1761914508861607700,10.118607666015626,-0.28266552090644836,0.6836041808128357,0.15019908547401428
1761914508871663900,10.128663818359374,-0.2888123691082001,0.6669394373893738,0.06912527233362198
1761914508881719800,10.1387197265625,-0.2890123724937439,0.6223759651184082,-0.00932985171675682
1761914508891775700,10.148775634765625,-0.27874746918678284,0.530561625957489,-0.05153163522481918
1761914508901830700,10.15883056640625,-0.2601325213909149,0.4179527759552002,-0.05945746600627899
1761914508911883300,10.16888330078125,-0.2532125413417816,0.29458317160606384,-0.038845133036375046
1761914508921939500,10.178939453125,-0.25441497564315796,0.16519321501255035,0.006246977020055056
1761914508931994000,10.188994140625,-0.24712350964546204,0.03446796163916588,0.05700256675481796
1761914508942050300,10.19905029296875,-0.2239191085100174,-0.0777192935347557,0.1020965427160263
1761914508952106200,10.209106201171876,-0.18005259335041046,-0.1328781545162201,0.14185726642608643
1761914508962162200,10.219162109375,-0.13969984650611877,-0.11437930911779404,0.17668582499027252
1761914508972217300,10.22921728515625,-0.10663536936044693,-0.05161179602146149,0.20560215413570404
1761914508982273300,10.239273193359375,-0.0859074518084526,0.004466121084988117,0.22127486765384674
1761914508992329500,10.24932958984375,-0.07871904969215393,0.03689197078347206,0.2089710533618927
1761914509002385400,10.259385498046875,-0.07723166793584824,0.02394714392721653,0.17969945073127747
1761914509012440300,10.2694404296875,-0.08389516919851303,-0.03922410309314728,0.13280650973320007
1761914509022496300,10.279496337890626,-0.10653283447027206,-0.11748562008142471,0.08662011474370956
1761914509032552200,10.28955224609375,-0.13289546966552734,-0.17932821810245514,0.05980287864804268
1761914509042607400,10.299607421875,-0.15299168229103088,-0.1979823261499405,0.04657788947224617
1761914509052663300,10.309663330078125,-0.16964522004127502,-0.187017560005188,0.0379609651863575
1761914509062719200,10.31971923828125,-0.18845327198505402,-0.1913880705833435,0.02298201434314251
1761914509072775400,10.329775390625,-0.2111026495695114,-0.22453883290290833,-0.003477022983133793
1761914509082830000,10.339830078125,-0.24594852328300476,-0.2773280143737793,-0.03495478630065918
1761914509092886300,10.34988623046875,-0.2745465934276581,-0.3010237514972687,-0.051477305591106415
1761914509102942200,10.359942138671874,-0.296362966299057,-0.27351224422454834,-0.05283045768737793
1761914509112997400,10.369997314453125,-0.30419930815696716,-0.20600590109825134,-0.04343828931450844
1761914509123053300,10.38005322265625,-0.305442214012146,-0.1131659671664238,-0.03591858595609665
1761914509133109200,10.390109130859376,-0.30895891785621643,-0.0190740916877985,-0.03969654440879822
1761914509143165400,10.40016552734375,-0.31071794033050537,0.05663584917783737,-0.045880671590566635
1761914509153220000,10.41022021484375,-0.29367104172706604,0.1345604807138443,-0.05378466844558716
1761914509163276300,10.4202763671875,-0.26684102416038513,0.18837577104568481,-0.05750830098986626
1761914509173332200,10.430332275390626,-0.21958482265472412,0.2012028843164444,-0.0699860081076622
1761914509183387400,10.440387451171874,-0.1657511442899704,0.1810408979654312,-0.0645265281200409
1761914509193443300,10.450443359375,-0.12070751190185547,0.14800357818603516,-0.04819628968834877
1761914509203499300,10.460499267578125,-0.10788226127624512,0.11161361634731293,-0.021987324580550194
1761914509213555500,10.470555419921874,-0.12595340609550476,0.06728316843509674,0.004597414750605822
1761914509223610000,10.480610107421874,-0.16253378987312317,0.039984699338674545,0.025194834917783737
1761914509233666300,10.490666259765625,-0.18153303861618042,0.04953905567526817,0.04813530296087265
1761914509243722200,10.50072216796875,-0.18855686485767365,0.1122431829571724,0.08693436533212662
1761914509253777200,10.510777099609374,-0.1745518296957016,0.22011931240558624,0.1394345909357071
1761914509263833300,10.520833251953125,-0.14054672420024872,0.35369014739990234,0.2025400549173355
1761914509273889300,10.53088916015625,-0.0848243460059166,0.499409019947052,0.27650243043899536
1761914509283945200,10.5409453125,-0.00492098880931735,0.6097579002380371,0.35647690296173096
1761914509294000400,10.55100048828125,0.08376254141330719,0.6458961963653564,0.4453708231449127
1761914509304056000,10.56105615234375,0.16755837202072144,0.6119025349617004,0.5116451978683472
1761914509314112300,10.5711123046875,0.20319625735282898,0.5210184454917908,0.5428427457809448
1761914509324167200,10.581167236328126,0.19803930819034576,0.41119739413261414,0.5270472764968872
1761914509334223400,10.591223388671875,0.1574503481388092,0.30235081911087036,0.46664148569107056
1761914509344279300,10.601279296875,0.09856013208627701,0.170188769698143,0.3764535188674927
1761914509354335200,10.611335205078126,0.06269107758998871,0.05920793116092682,0.26652756333351135
1761914509364390400,10.621390380859374,0.05644596368074417,-0.0220339298248291,0.14063407480716705
1761914509374446000,10.631446044921875,0.08664887398481369,-0.06697504222393036,0.012774650938808918
1761914509384502300,10.641502197265625,0.14810185134410858,-0.0469435416162014,-0.10345448553562164
1761914509394557200,10.65155712890625,0.21144220232963562,0.01900831237435341,-0.19392447173595428
1761914509404613400,10.66161328125,0.254186749458313,0.08224933594465256,-0.25569117069244385
1761914509414669300,10.67166943359375,0.27737942337989807,0.11745419353246689,-0.2675457000732422
1761914509424725200,10.681725341796875,0.2893199622631073,0.1483234316110611,-0.22091692686080933
1761914509434780400,10.691780517578126,0.3025156557559967,0.2305874079465866,-0.11966221779584885
1761914509444836400,10.70183642578125,0.32055139541625977,0.3875858187675476,0.018985142931342125
1761914509454892000,10.71189208984375,0.35018545389175415,0.5975049734115601,0.15498904883861542
1761914509464947200,10.721947265625,0.3952770233154297,0.8191435933113098,0.278435081243515
1761914509475003100,10.732003173828126,0.42865362763404846,1.0118086338043213,0.3721751570701599
1761914509485059300,10.742059326171875,0.4511312246322632,1.1751922369003296,0.43644335865974426
1761914509495115300,10.752115234375,0.4616299569606781,1.2238194942474365,0.4564940333366394
1761914509505170400,10.76217041015625,0.40989404916763306,1.067043423652649,0.5133477449417114
1761914509515226400,10.772226318359374,0.2787743806838989,0.49679726362228394,0.4789540767669678
1761914509525282300,10.7822822265625,0.18194690346717834,-0.08203095197677612,0.35705479979515076
1761914509535338200,10.792338134765625,0.14604029059410095,-0.4360542893409729,0.23045051097869873
1761914509545393200,10.80239306640625,0.08934612572193146,-0.6279885768890381,0.13903191685676575
1761914509555449300,10.812449462890624,-0.01847701147198677,-0.7218934893608093,0.06812606006860733
1761914509565505300,10.82250537109375,-0.1678699553012848,-0.6936509013175964,0.028271319344639778
