time,seconds_elapsed,z,y,x
1761915495024252700,0.081252685546875,-0.19722937601804733,-0.06698416273146868,0.11581000682935118
1761915495034307800,0.091307861328125,-0.12546470101177692,-0.10157733720690011,0.07432900906894356
1761915495044361700,0.10136181640625,-0.02596621590554714,-0.14181874670237302,-0.01819558190405369
1761915495054415600,0.11141552734375,0.09815876093506812,-0.19359335760325191,-0.06587404606509953
1761915495064469800,0.1214697265625,0.20906594428420067,-0.21425474509894846,-0.04969214207101613
1761915495074523600,0.131523681640625,0.1279658701777458,-0.13953531194031238,0.01363254830483347
1761915495084578800,0.141578857421875,-0.058682490593194955,-0.05000701670646667,0.10354016171246766
1761915495094633000,0.151633056640625,-0.08551321437358855,-0.010899871937930584,0.15531798748373984
1761915495104686800,0.161686767578125,-0.050479310393333435,-0.04546645066738128,0.15174882376007734
1761915495114740700,0.17174072265625,0.004691957208514213,-0.09794774853289127,0.11589549315571784
1761915495124795600,0.181795654296875,0.05292845711112022,-0.13969430189430712,0.08247486959099769
1761915495134849800,0.191849853515625,0.06560322976708412,-0.15374211646914482,0.04698997044023126
1761915495144903700,0.201903564453125,0.061245034557580944,-0.1276546122714877,0.0758604929525405
1761915495154957800,0.211957763671875,-0.02394727729856968,-0.024894202759861945,0.12446630109157412
1761915495165012700,0.2220126953125,-0.07487257789373397,0.05505202513635158,0.16843776396084575
1761915495175066600,0.232066650390625,-0.07333937697708606,0.0950558264836669,0.18731515411660074
1761915495185120800,0.242120849609375,-0.05694762962460517,0.06926379810124635,0.15243552738260477
1761915495195174700,0.252174560546875,-0.047591772258281706,0.003065232789516449,0.08810286554060875
1761915495205228800,0.262228759765625,0.014704817178845404,-0.026466566643118857,0.05639543910194188
1761915495215284000,0.272283935546875,0.059932198393344877,-0.021843290756642816,0.017826492863334716
1761915495225337900,0.282337890625,0.11694587899148463,0.01573503700941801,-0.030587153704464434
1761915495235391700,0.292391845703125,0.07204232290387153,0.07372399238049984,-0.02068633927386254
1761915495245445600,0.302445556640625,-0.03515431548953056,0.10624006832093,0.04365772074498236
1761915495255500800,0.312500732421875,0.030566987699270246,0.10328735599517821,0.10484295140672474
1761915495265554700,0.3225546875,0.18384850091934202,0.03798486274033785,0.10153013706430793
1761915495275608800,0.33260888671875,0.24234335998594758,-0.03329349005371332,0.07188110446017235
1761915495285662700,0.342662841796875,0.24213234758377072,-0.044890404345095156,0.05101265008505434
1761915495295717600,0.352717529296875,0.25537644456028935,-0.04771919803023338,0.02091331643015146
1761915495305771800,0.362771728515625,0.22722119417786596,0.00073415949344635,0.030464623303338885
1761915495315825700,0.37282568359375,0.16892507255375383,0.05891951421946287,0.11458536040522158
1761915495325879800,0.3828798828125,0.1594984880387783,0.05945055235624313,0.1349784888861701
1761915495335933700,0.39293359375,0.11272387738227843,0.04031096760034561,0.11750840824507176
1761915495345988900,0.40298876953125,0.09120938018858432,-0.018137129715085028,0.10118684005197137
1761915495356042800,0.413042724609375,0.11501461866796016,-0.047994215579330916,0.06277958718109876
1761915495366096600,0.4230966796875,0.09649813424646854,-0.0033536943420767783,0.028735388357937333
1761915495376150800,0.43315087890625,0.09491875610053539,0.02872808183431625,0.007021203873679042
1761915495386205700,0.443205810546875,0.1496995630800724,-0.007162438975274563,0.023955277941934763
1761915495396259800,0.453259765625,0.1953606595367193,-0.1252457975640893,0.08417699733376502
1761915495406313700,0.463313720703125,0.16649872218966483,-0.1746305907189846,0.11338431405238807
1761915495416367900,0.473367919921875,0.14064882614016533,-0.1580146792218089,0.045067660608142615
1761915495426421800,0.483421875,0.24568390258550643,-0.0569552284091711,-0.12679810504000633
1761915495436476700,0.4934765625,0.15045885701477527,0.08968786970973014,-0.16911000066660345
1761915495446530800,0.50353076171875,-0.04562544062137604,0.14551350956708192,-0.07489888137876988
1761915495456584700,0.513584716796875,-0.21638123573362825,0.0910579890191555,0.08334931433796883
1761915495466638800,0.523638916015625,-0.24184300924837587,0.03786298992633819,0.19265848790593443
1761915495476693800,0.53369384765625,-0.1788613601565361,-0.01948416040986776,0.23389241557009516
1761915495486747600,0.54374755859375,-0.09009118981361389,-0.0746796856701374,0.23393530486375091
1761915495496801800,0.5538017578125,-0.03108838122487068,-0.1457394272774458,0.1833006577782333
1761915495506855700,0.563855712890625,-0.015576923838257789,-0.15776976455003022,0.12835837662667035
1761915495516910800,0.573910888671875,0.05910977609455585,-0.09100772013664245,0.05209763231016695
1761915495526964700,0.58396484375,0.18769757756292818,0.03664630761295557,-0.04992934836037457
1761915495537019000,0.594018798828125,0.23654022666513919,0.13041823176592587,-0.14843020073138177
1761915495547072800,0.60407275390625,0.3854349031031131,0.14246142852008342,-0.24881927800178527
1761915495557126700,0.614126708984375,0.6454752478212118,0.06388853480368853,-0.3654544836089015
1761915495567181800,0.624181884765625,0.771644297710061,0.0783636348798871,-0.42137401229478416
1761915495577235700,0.634235595703125,0.5707815336257219,0.15342998178005218,-0.45781924437768756
1761915495587289900,0.644289794921875,0.5323392825067043,0.3089040366083383,-0.6077577307801694
1761915495597343700,0.65434375,0.6936468657940625,0.5471306089252234,-0.7184509791176765
1761915495607398700,0.664398681640625,0.5310217701673507,0.4360559600546956,-0.5605594878841191
1761915495617452800,0.674452880859375,0.23577917916476726,0.14890344426631927,-0.3624666999697685
1761915495627506700,0.684506591796875,0.05812953288555145,-0.0846662421554327,-0.2607314687874168
1761915495637560800,0.694560791015625,0.12415011128187178,-0.11604834562987089,-0.1076942126519978
1761915495647615700,0.70461572265625,0.3044879737317562,0.010809271045029163,-0.20500030228048563
1761915495657670000,0.714669921875,0.5399731383860111,0.14850421581566334,-0.460121310774982
1761915495667723800,0.724723876953125,0.8142378232896328,0.20112083049863574,-0.6311192440800368
1761915495677777700,0.734777587890625,0.7384861244738101,0.14044044408649206,-0.6207648771956563
1761915495687831800,0.744831787109375,0.5572621268391609,-0.0393462142214179,-0.5162777900218963
1761915495697886700,0.75488671875,0.44933834321498867,-0.303283566378057,-0.30911227253153917
1761915495707940900,0.76494091796875,0.11337386572360991,-0.1940598060712218,-0.031917087133973836
1761915495717994800,0.774994873046875,0.24249416663348675,-0.1436143979474902,0.4755861525408923
1761915495728049000,0.785048828125,0.2517716980665922,-0.26484774499982594,0.9551116903573275
1761915495738103800,0.795103759765625,0.12920096493065356,-0.5505322340622544,1.169504090361297
1761915495748157700,0.80515771484375,0.0795247876137495,-0.9470207383602857,1.3662053508520124
1761915495758211800,0.8152119140625,-0.41566286810636516,-1.0376125711724162,1.7043305135086178
1761915495768265700,0.825265625,-0.8305103281766175,-0.9104428198084235,1.8887454161390662
1761915495778321000,0.83532080078125,-0.6745996354967355,-0.4819578795298934,1.5110791012108324
1761915495788374800,0.845374755859375,-0.3952192150145769,-0.21309505366981027,1.002920027975738
1761915495798428700,0.8554287109375,-0.35620822409689423,-0.5498728933706879,0.7880662940703332
1761915495808482600,0.865482666015625,-0.545633648365736,-0.5043044436335563,0.5287599627152085
1761915495818536700,0.87553662109375,-0.49591596999466414,-0.12509703674316405,0.30894129987880586
1761915495828591900,0.885591796875,-0.5296656793832779,0.09500146594792604,0.24811697495132684
1761915495838645800,0.895645751953125,-0.6704600514739751,0.12926906173080205,0.2690112944200635
1761915495848700000,0.905699951171875,-0.5937210951864719,0.10961743579953909,0.24762100812792776
1761915495858753800,0.91575390625,-0.41208793222904205,0.08899141187816857,0.2357565289415419
1761915495868808700,0.92580859375,-0.3660322834968567,0.12483633998036384,0.2864050584219396
1761915495878862800,0.93586279296875,-0.45195758580267426,0.19902356595844028,0.2770921634145081
1761915495888916700,0.945916748046875,-0.40036651477515695,0.2594467627391219,0.23080825888440012
1761915495898971000,0.955970947265625,-0.15084581050574777,0.23755612570941448,0.1524520035933703
1761915495909025800,0.96602587890625,0.013587795847654342,0.19115619358420372,0.09840557530298828
1761915495919083300,0.976083251953125,0.1071001922816038,0.20260697740316388,0.056628115346655246
1761915495929137200,0.98613720703125,0.0380588047593832,0.18773089531064033,0.013540961031243205
1761915495939191300,0.99619140625,-0.02092120747566223,0.22985797242224215,-0.019950316616892814
1761915495949246500,1.00624658203125,-0.18616203855872154,0.2631371416896581,-0.07498531755320727
1761915495959300400,1.01630029296875,-0.176285956710577,0.2488032036498189,-0.0712947924721986
1761915495969354500,1.0263544921875,0.06898994959592819,0.2091048149898648,-0.07353577633202076
1761915495979408400,1.036408447265625,0.1944189947724342,0.1927311878159642,-0.037132556759938595
1761915495989462300,1.046462158203125,0.08472469434440136,0.22113690582811832,0.08580057994760572
1761915495999517200,1.05651708984375,-0.13135083644092083,0.1991647279947996,0.1987509595621377
1761915496009571300,1.0665712890625,-0.1178928044527769,0.115714291369915,0.20824768670387564
1761915496019625200,1.076625244140625,0.17620821529924868,0.13864859223365783,0.11731792717427014
1761915496029679400,1.086679443359375,0.387954776969552,0.1529036198183894,-0.06913352278508246
1761915496039734300,1.096734375,0.494551111382246,0.14231763613522053,-0.2028972655866295
1761915496049788200,1.1067880859375,0.5083867445111274,0.0888923354178667,-0.2479552450509742
1761915496059842300,1.11684228515625,0.41124972783923147,0.054762979061901564,-0.2105724763896316
1761915496069896200,1.126896240234375,0.3464110527038574,-0.012666297088563441,-0.12530534573160113
1761915496079951400,1.136951416015625,0.23411212273538112,-0.07037234386503696,-0.010930924663320183
1761915496090005500,1.147005615234375,0.14235855266749858,-0.06758095958083868,0.028801147070527076
1761915496100059400,1.157059326171875,0.2329711360067129,-0.05986410159319639,-0.01075538543332368
1761915496110113300,1.16711328125,0.3626718671530485,-0.08431669806540013,-0.0997518388127908
1761915496120167200,1.177167236328125,0.42692602039873595,-0.10739859070628881,-0.1531034897720441
1761915496130222300,1.187222412109375,0.3427642206341028,-0.117215635843575,-0.10950257724821567
1761915496140276200,1.197276123046875,0.18512042055130004,-0.15879969211965797,-0.008428878714516759
1761915496150330400,1.207330322265625,0.11121405734121799,-0.134970488242805,0.04156867604386061
1761915496160384500,1.217384521484375,0.051261400681734084,-0.11664046630412339,0.09603731180168688
1761915496170439200,1.227439208984375,0.0302291340470314,-0.09757628487199545,0.12956420875247568
1761915496180493300,1.237493408203125,0.05081482595801353,-0.06459814437776804,0.15050602062474935
1761915496190547200,1.247547119140625,0.1652104359447956,-0.03725771750956774,0.11133468804620206
1761915496200601300,1.257601318359375,0.25627953087985517,-0.03182663237154484,0.007341412271372974
1761915496210655200,1.2676552734375,0.3288648746192455,-0.09309797041416168,-0.06330368412043899
1761915496220710400,1.27771044921875,0.36606560124456883,-0.192979609619081,-0.08752652695737778
1761915496230764300,1.287764404296875,0.34110067133605476,-0.23485388101339338,-0.02170179992672056
1761915496240818200,1.297818115234375,0.18860007936060427,-0.19804770666360855,0.09072210812829434
1761915496250872300,1.307872314453125,0.0844049608707428,-0.1040790908947587,0.12440437830388545
1761915496260927200,1.31792724609375,0.08834989910423754,-0.053201136572659014,0.08895056841112672
1761915496270981400,1.3279814453125,0.15361352165341377,-0.06440232954472302,0.04552877531386912
1761915496281035500,1.338035400390625,0.18652794926166533,-0.12104834587424992,0.007465732770785689
1761915496291089400,1.34808935546875,0.22843699970841405,-0.15158493843525647,-0.016634141273610292
1761915496301144300,1.358144287109375,0.20305647473633287,-0.08629296657443046,0.007083784248493611
1761915496311198200,1.3681982421875,-0.011574702459573745,-0.01466711551696062,0.13797412703819573
1761915496321252400,1.37825244140625,-0.18220950154066085,-0.033687165546417236,0.24802856601551174
1761915496331306200,1.38830615234375,-0.049911155116558074,-0.10347235717326402,0.23699275620561092
1761915496341361400,1.398361328125,0.04755202476978302,-0.10835077686458826,0.16151468669939786
1761915496351415300,1.408415283203125,0.05173018723726272,-0.04347206197977066,0.09943816975373775
1761915496361469200,1.41846923828125,0.03774550102651119,0.02108516586571932,0.0809552953409031
1761915496371523300,1.4285234375,0.0531038136780262,0.01829348932057619,0.090586133723706
1761915496381577200,1.4385771484375,0.0948398456454277,-0.016117022064328194,0.10216266281418501
1761915496391632400,1.44863232421875,0.05697159502208233,-0.004066811047494411,0.1251439446248114
1761915496401686300,1.458686279296875,0.016845920860767364,0.019327216282486914,0.12094119570534675
1761915496411740400,1.468740478515625,-0.0042751931011676784,0.05227203902900219,0.14489340490736066
1761915496421794300,1.478794189453125,0.07619476640820502,0.056773442101478576,0.13697916118409484
1761915496431849200,1.48884912109375,0.12878478534519672,0.05084609787911176,0.10134922753944993
1761915496441903400,1.4989033203125,0.15865210034251212,0.02742898193448782,0.05678082169033587
1761915496451957200,1.508957275390625,0.18460136511325836,-0.002852174560725689,0.012220489549823105
1761915496462011400,1.519011474609375,0.23619945040345192,-0.000002922609448432922,0.008684899302199482
1761915496472066300,1.52906640625,0.17318039191067217,0.04233136751204729,0.0383065689753741
1761915496482120200,1.5391201171875,0.042885202002525324,0.08507891460955143,0.13170903876144438
1761915496492174300,1.54917431640625,0.005495674806833267,0.07835369800776243,0.16688527382183818
1761915496502228200,1.559228271484375,0.04897884270250797,0.07282324414849281,0.14714249900840223
1761915496512282400,1.569282470703125,0.0356143342167139,0.07768354366123675,0.16365473093539476
1761915496522337300,1.579337158203125,-0.005032148948311805,0.06332008726596831,0.1428137125564739
1761915496532391400,1.589391357421875,0.019729367342591283,0.050880876931548115,0.10080744881294668
1761915496542445300,1.5994453125,0.05903086563944816,0.05710545053482055,0.08318141042515635
1761915496552499200,1.609499267578125,0.14783786086142062,0.023815467612445355,0.06508074026294053
1761915496562554400,1.619554443359375,0.15040332743525503,0.0014835165560245513,0.0395217169187963
1761915496572608300,1.629608154296875,0.09554945521950721,0.016993220376968383,0.029660467313602563
1761915496582662400,1.639662353515625,0.08305763791501522,0.03593377542942762,0.03228935451246798
1761915496592716300,1.64971630859375,0.07323007138371466,0.027030338005721567,0.043649062514491375
1761915496602771200,1.659771240234375,0.06344049877524376,-0.0077586513027548785,0.01841919805947691
1761915496612825300,1.669825439453125,0.12432605237066745,-0.06232318518310785,-0.01184814910609275
1761915496622879200,1.679879150390625,0.16799042205214498,-0.08766396266669034,-0.020703655734844506
1761915496632933400,1.689933349609375,0.20199907463788985,-0.0833195037215948,-0.05311360441967845
1761915496642987300,1.6999873046875,0.2276648462921381,0.005328501546382904,-0.02987286795526743
1761915496653042400,1.71004248046875,0.13517594768702984,0.04470540316700935,0.007634549999050795
1761915496663096000,1.720095947265625,0.13503975408673285,0.023212241022288797,0.036408918660506606
1761915496673150200,1.730150146484375,0.1729921758621931,0.024858546924591062,0.06854662627521901
1761915496683204400,1.740204345703125,0.14904197595417498,0.03016512890011072,0.08186181572657078
1761915496693259300,1.75025927734375,0.16304595138728617,0.016789806759357453,0.08304664159696548
1761915496703313400,1.7603134765625,0.20025603036284445,-0.0025531916141510007,0.05604633340332657
1761915496713367300,1.7703671875,0.13847089757919312,0.008114917394518853,0.06976382004525512
1761915496723421400,1.78042138671875,0.020012860459089277,0.07023468896001576,0.13206983489785343
1761915496733476400,1.790476318359375,-0.042806876069307324,0.10590893667042255,0.20448705552872268
1761915496743530200,1.8005302734375,-0.007941314393281936,0.08890198002904653,0.16108941049203276
1761915496753584400,1.81058447265625,0.1262491293877363,0.05352671526521444,0.0837575663452968
1761915496763638300,1.82063818359375,0.19105331773161888,0.046260231393575664,0.014579656429216265
1761915496773692400,1.8306923828125,0.1527618732601404,0.07822364188730717,-0.014860007740557193
1761915496783747000,1.8407470703125,0.1435994926393032,0.07192366496026516,-0.015008549365773796
1761915496793801200,1.85080126953125,0.10337444975674152,0.06960925053805113,0.01050173946581781
1761915496803855400,1.86085546875,0.13564999493956564,0.02755231605321169,0.07263195936009287
1761915496813909200,1.8709091796875,0.19333704475462435,-0.002667465643584728,0.08973945376649499
1761915496823964400,1.88096435546875,0.2187882968753576,0.022396832986176014,0.10172207943983376
1761915496834018300,1.891018310546875,0.25164193420708175,0.059679392676055425,0.07292275900021195
1761915496844072400,1.901072509765625,0.2637093886196613,0.0705596831306815,0.039420375436171884
1761915496854126300,1.911126220703125,0.23684359352588652,0.05445639733076095,0.006969839012622833
1761915496864181200,1.92118115234375,0.15761457398831843,0.05360387215465307,0.02789513814151287
1761915496874235400,1.9312353515625,0.12484510780870914,0.03933481604456901,0.03649016720317304
1761915496884289300,1.941289306640625,0.13067805174589156,-0.0036567689418792724,0.02491772976592183
1761915496894343400,1.951343505859375,0.15357845034003256,-0.021987667663395404,0.004458586844056845
1761915496904397300,1.961397216796875,0.10686346091628074,-0.0291921922147274,-0.0037337797008454797
1761915496914449200,1.97144921875,0.07837094140350818,-0.01559212140738964,-0.018699951229617
1761915496924503300,1.98150341796875,0.03829261351525783,-0.00020078326910734175,0.020312427927553653
1761915496934557200,1.99155712890625,0.0344774391412735,-0.031360183903574944,0.05532850399017333
1761915496944611300,2.001611328125,0.021045126116275785,-0.041676995256543156,0.09116561411209403
1761915496954666500,2.01166650390625,0.04349544285535812,0.011902326978743076,0.09126973207369446
1761915496964720000,2.02172021484375,0.10540449427962302,0.008774550347030162,0.07251512804739177
1761915496974774300,2.031774169921875,0.16615911497175692,-0.020926175911724566,0.08572839149422944
1761915496984828200,2.041828125,0.16645955922305583,-0.04868102879971266,0.12167173846960067
1761915496994883300,2.05188330078125,0.11487900958955287,-0.0552343959659338,0.13763386223316193
1761915497004937500,2.0619375,0.052804538470506666,-0.05213584542870521,0.15874482012726365
1761915497014991400,2.071991455078125,0.027047581401467322,-0.0430430229127407,0.17522190767563878
1761915497025045500,2.08204541015625,0.02899520833790302,-0.031553952910006046,0.16002295030429958
1761915497035100200,2.09210009765625,0.04003331970274448,-0.0439233128786087,0.16856084235124288
1761915497045154300,2.102154296875,0.08547814306020736,-0.057528059861063956,0.15190226075612007
1761915497055208200,2.112208251953125,0.10717208847403525,-0.06379764164984225,0.11691497239656745
1761915497065262300,2.122262451171875,0.11352058071792125,-0.09511807806491851,0.08797901996523141
1761915497075316200,2.132316162109375,0.1022813938230276,-0.11095803675353526,0.05720511151701212
1761915497085371100,2.14237109375,0.006938859352469444,-0.10641542488783598,0.0659986588254571
1761915497095425300,2.15242529296875,-0.029901801788806914,-0.1253086336672306,0.06104410515800118
1761915497105479200,2.162479248046875,0.0004769698619842529,-0.1449447697684169,0.061365884458273644
1761915497115533300,2.172533203125,0.07902677496373653,-0.16786854923814534,0.07355784203335643
1761915497125588500,2.18258837890625,0.09177987355291843,-0.13544015158116818,0.0697967359341681
1761915497135642400,2.192642333984375,0.04473755187094211,-0.11845569903254509,0.07141103926301003
1761915497145696500,2.202696533203125,0.026350246787071225,-0.10136398671716451,0.09266184401921927
1761915497155750400,2.21275048828125,-0.029383330872654913,-0.08325082239955663,0.12287760712802409
1761915497165805300,2.222805419921875,-0.07281155371069908,-0.07070522908121347,0.14543810624331235
1761915497175859200,2.232859130859375,-0.107575408577919,-0.054498190645873544,0.1366394443683326
1761915497185913300,2.242913330078125,-0.11020166542828082,-0.01032967083454132,0.1311516606070101
1761915497195967200,2.25296728515625,-0.06480594190955162,0.02032294932156801,0.12242080327123403
1761915497206021400,2.263021484375,-0.02927987049818039,0.0636979806676507,0.09308912952058017
1761915497216076300,2.273076171875,-0.016775778234004973,0.05661649797409773,0.09362535528913139
1761915497226130200,2.283130126953125,-0.057056935217976563,0.05289806197285652,0.11022365806438028
1761915497236184300,2.293184326171875,-0.08601356511116028,0.1278194474443793,0.11556048904769121
1761915497246238200,2.30323828125,-0.012859481573104858,0.22151918314397334,0.036564693744108076
1761915497256293400,2.31329345703125,0.11075988383293152,0.2271580658137798,-0.018740502435714006
1761915497266347500,2.323347412109375,0.23447335726320742,0.09864274505972861,-0.025620325077325104
1761915497276401400,2.3334013671875,0.31430268078148366,-0.029309681114554405,0.0036711627934128046
1761915497286455300,2.343455322265625,0.36727146990299225,-0.041346740388870235,0.04910590314827859
1761915497296510200,2.35351025390625,0.3588362345129251,0.011543722799420356,0.05241071684733033
1761915497306564400,2.363564453125,0.27883915321230884,0.047108664916455746,0.027222572642192244
1761915497316618200,2.3736181640625,0.2729243762105703,0.02153290963321924,0.010905424895882606
1761915497326672400,2.38367236328125,0.23633155235052108,-0.028057927487790582,0.0011077420461922884
1761915497336726300,2.393726318359375,0.1783072334051132,-0.02664864521175623,0.0025143939737230538
1761915497346781200,2.40378125,0.12217676538228987,-0.014646949511766432,0.023505817141383886
1761915497356835300,2.41383544921875,0.027775311154127118,-0.003366553823649883,0.030596359924226997
1761915497366889200,2.42388916015625,-0.06936871978044509,0.016658581595122814,0.058243368523567915
1761915497376943400,2.433943359375,-0.10199965427219868,0.013948153592646121,0.09430325455069541
1761915497386998500,2.44399853515625,-0.11635726544857024,0.011508359225094317,0.0979229794178158
1761915497397052400,2.454052490234375,-0.045368250989913934,-0.014270517414808273,0.091467811929062
1761915497407106300,2.464106201171875,0.030317981374263763,-0.03834142109304666,0.08786642643623054
1761915497417160200,2.47416015625,0.06611702450811863,-0.04116670764684677,0.09958112188838422
1761915497427215400,2.48421533203125,0.07190612930357455,-0.02466828504949808,0.09756824769601226
1761915497437269200,2.494269287109375,-0.001741290709376335,0.010281447778642178,0.12251571501307189
1761915497447323400,2.504323486328125,-0.08549275610744952,-0.02624766319543123,0.16406250801868735
1761915497457377300,2.514377197265625,-0.09103577718734741,-0.06381400826275348,0.18986593457795678
1761915497467431400,2.524431396484375,-0.04161211332678794,-0.045069852565228934,0.20335260813869535
1761915497477486300,2.534486328125,0.0527028316617012,-0.04320405869334936,0.19129487140253185
1761915497487540200,2.544540283203125,0.08826338986456393,-0.05750964742153883,0.16221213091164827
1761915497497594400,2.554594482421875,0.08524316526055335,-0.042405017270147796,0.14983385698422788
1761915497507648300,2.564648193359375,0.03413490931391716,-0.02832563851326704,0.16105346239581703
1761915497517703200,2.574703125,0.016786299628019332,-0.02126286052018404,0.15944631946012378
1761915497527757300,2.58475732421875,0.040483986079692835,0.0018330606460571289,0.14460289752818642
1761915497537811200,2.594811279296875,0.0032078561305999755,0.04086830922216177,0.11861585803031921
1761915497547865300,2.604865234375,0.01281271982192993,0.03536006719470024,0.0947683878444135
1761915497557920300,2.614920166015625,0.061331543797254556,0.01830225714892149,0.08732384399212896
1761915497567974400,2.624974365234375,0.10036416202485561,0.00175415019094944,0.07275112876035272
1761915497578028300,2.6350283203125,0.14669921222031115,-0.006994681192934513,0.09168350050635635
1761915497588082400,2.64508251953125,0.2069640035688877,-0.04967997670918703,0.07574146968275308
1761915497598136000,2.655135986328125,0.217469030970335,-0.057201312124729155,0.05917436576336622
1761915497608191200,2.665191162109375,0.15364859296679495,-0.04552811772674322,0.08330890926234423
1761915497618245400,2.675245361328125,0.12143383806049823,-0.03716039461493492,0.11022278128154575
1761915497628299300,2.68529931640625,0.13523556891977787,-0.03680851243734359,0.10058788777813314
1761915497638353400,2.695353515625,0.17318506808578968,-0.028425884017348288,0.08979176847562194
1761915497648408300,2.705408203125,0.1846948886156082,-0.015623685589432716,0.09639080141447484
1761915497658462200,2.715462158203125,0.14661387202441692,-0.019817045626044274,0.11042319922447204
1761915497668516400,2.725516357421875,0.09040683163404464,-0.016758534838259218,0.102392087655887
1761915497678570200,2.7355703125,-0.000834112736582756,0.043242637138068675,0.08942417727224529
1761915497688625400,2.74562548828125,-0.01815758798122406,0.052793140293657774,0.10460209185555577
1761915497698679300,2.75567919921875,0.027183775001764297,0.02018061824142933,0.1022557479251176
1761915497708733400,2.7657333984375,0.020786767441034314,0.048752632731199265,0.07975830410867929
1761915497718787000,2.775787109375,0.020263620349764824,0.10917436820715665,0.0387406495437026
1761915497728841200,2.78584130859375,0.04857786068618297,0.09858750774115324,0.02615596632398665
1761915497738896400,2.795896484375,0.09130874890983104,0.014910568884015082,0.03848324071653187
1761915497748950300,2.8059501953125,0.09396598542034626,-0.019354104289412498,0.06296382117420435
1761915497759004400,2.81600439453125,0.10809271045029163,0.02639028653651476,0.07624971146583556
1761915497769058300,2.826058349609375,0.13701777616143226,0.05713906054347753,0.040555809206888074
1761915497779113200,2.83611328125,0.1535726051211357,0.011541969233751297,0.028938363584131002
1761915497789167400,2.84616748046875,0.1728390311270952,-0.04561199661791324,0.026193667985871433
1761915497799221200,2.85622119140625,0.16395196031630038,-0.06285305427610874,0.031556948584690686
1761915497809275400,2.866275390625,0.13793898265957832,-0.051369829492270945,0.030427360032871362
1761915497819330300,2.876330322265625,0.10513386064469814,-0.03782441148161888,0.014363748656213282
1761915497829384400,2.886384521484375,0.04861760817468166,-0.025804303342103957,0.024841814985498784
1761915497839438000,2.89643798828125,-0.028210195440053938,-0.029656010334193704,0.006226181038469076
1761915497849492200,2.9064921875,-0.08715922801494598,-0.00889583863914013,0.014616773569211363
1761915497859546400,2.91654638671875,-0.07510638664960861,-0.0031616789013147353,0.028353476368263363
1761915497869601300,2.926601318359375,-0.02522854928076267,0.00642272652387619,0.028939824888855218
1761915497879655400,2.936655517578125,-0.03385959950387478,0.02444704351425171,0.0197908882714808
1761915497889709300,2.946709228515625,-0.03952653922438621,0.027651684774458406,0.024244433614239096
1761915497899763500,2.956763427734375,0.012567220628261565,-0.002855389431118965,0.056489291397854684
1761915497909818400,2.966818359375,0.04519640155434608,-0.00680091218650341,0.08578406720422208
1761915497919872300,2.976872314453125,0.06988835974037647,0.00011135141998529433,0.12360365638025105
1761915497929926100,2.986926025390625,0.09988017790019511,-0.003908990137279034,0.14102365080192683
1761915497939980300,2.996980224609375,0.15348726492524145,-0.0018923896178603171,0.10944982414767146
1761915497950035500,3.007035400390625,0.1459697289019823,0.02979688010960817,0.06968114673048258
1761915497960089000,3.017089111328125,0.09338263257443905,0.017296879498660562,0.0680259999345988
1761915497970143200,3.027143310546875,0.108259883710742,-0.006086626437306404,0.07292831195816397
1761915497980197000,3.037197021484375,0.1615676955282688,-0.00817950706332922,0.06868344093002378
1761915497990251300,3.047251220703125,0.199460496070981,0.0016784546062350273,0.05893610002808272
1761915498000306400,3.057306396484375,0.1514987214565277,0.02080664118528366,0.04180332504995167
1761915498010360300,3.0673603515625,0.12399053680598734,0.018353402814269063,0.03737418349608779
1761915498020414500,3.07741455078125,0.15609890872836113,-0.03467559206187725,0.04239551878944039
1761915498030468400,3.08746826171875,0.10371581054031849,-0.033545418988168235,0.034479338837414976
1761915498040523300,3.097523193359375,0.04349719642102718,0.0011833645656704902,0.04845058104470372
1761915498050577200,3.1075771484375,0.05197685547471046,0.008896423161029815,0.10512838075198233
1761915498060631300,3.11763134765625,0.07897475251555443,-0.00734510206580162,0.11220460274852811
1761915498070685200,3.127685302734375,0.06881751563847065,0.006108253747224807,0.08252667284347116
1761915498080740000,3.137739990234375,0.05677461114525795,0.026818741081655023,0.0817458246640861
1761915498090794200,3.147794189453125,0.03615267887711525,0.008521452368795871,0.0894844560921192
1761915498100848000,3.15784814453125,0.02581248664855957,-0.0008440496087074279,0.09730141345337033
1761915498110902300,3.16790234375,0.040084173107147215,0.026967209641635417,0.08474281452298164
1761915498120956200,3.1779560546875,0.0573299069404602,0.02787818700671196,0.0876529298160225
1761915498131011300,3.18801123046875,0.03580722644031047,0.021543723288178444,0.10899835405312477
1761915498141065500,3.1980654296875,0.010195815321803092,0.02705810279548168,0.12080160457156598
1761915498151119400,3.208119384765625,0.012877601751685142,0.04578910675048828,0.11826404891796409
1761915498161173200,3.21817333984375,0.0816512782484293,0.006035773032903671,0.10203129151947796
1761915498171228200,3.228228271484375,0.15595219373404978,-0.0352180283755064,0.0893324804008007
1761915498181282300,3.2382822265625,0.1643997040838003,-0.00892448021173477,0.049899026287347076
1761915498191336200,3.248336181640625,0.1430810217231512,0.05750175637602806,0.004420081464573741
1761915498201390300,3.258390380859375,0.09681436058878898,0.07977905463576317,0.010577873441949485
1761915498211445200,3.2684453125,0.05114215821623802,0.023187398841977118,0.051242769046500325
1761915498221499100,3.2784990234375,0.0439583841919899,-0.032797523230314256,0.10054675205014646
1761915498231553300,3.28855322265625,0.046346156111359595,-0.012078268067538738,0.11492796329781413
1761915498241607200,3.298607177734375,0.05237959105670452,0.04100888673663139,0.07523008609451354
1761915498251661300,3.308661376953125,0.12917407692372798,0.04452274007648229,0.035393531072884794
1761915498261716500,3.318716552734375,0.17734511037468909,0.01730535506606102,0.04108260955996811
1761915498271770000,3.32877001953125,0.1524006387323141,-0.009874328282475472,0.04774484392814338
1761915498281824300,3.33882421875,0.16269231564402578,-0.012348317180573939,0.042610111388191575
1761915498291878100,3.348878173828125,0.18932780911326408,-0.02561550277173519,0.007343421565368771
1761915498301933300,3.358933349609375,0.13926175569593904,-0.04866057053357362,0.002358180498704314
1761915498311987200,3.3689873046875,0.12515373536646365,-0.049804772132635115,0.003398044940456748
1761915498322041300,3.379041259765625,0.15548282265663146,-0.036459552869200704,-0.006684080873802304
1761915498332095200,3.38909521484375,0.18454115935862064,-0.04474456613361835,-0.006720321230962872
1761915498342150100,3.399150146484375,0.09605682021975517,-0.017918226267397402,0.010113616931065916
1761915498352204300,3.409204345703125,0.04675882856547832,-0.02452624623030424,0.04824176059961319
1761915498362258200,3.419258056640625,0.01111351468861103,-0.01549099912047386,0.04808854279927909
1761915498372312300,3.429312255859375,-0.04101473195552826,0.022293080350756642,0.049169323773309584
1761915498382366200,3.4393662109375,-0.04492459887564182,0.023160510835051534,0.0924365838959813
1761915498392421000,3.449421142578125,-0.026254969719052314,-0.013687164568901062,0.11810988126955926
1761915498402475300,3.459475341796875,-0.01728080514669418,-0.011950550034642219,0.11639314047954975
1761915498412529200,3.469529052734375,-0.05924187804162502,0.006371580858528614,0.11609006587974727
1761915498422583300,3.479583251953125,-0.10758242284059524,0.046429742741584776,0.12099252403378485
1761915498432638200,3.48963818359375,-0.11210837583243846,0.06573533171415329,0.1110048715699464
1761915498442692400,3.4996923828125,-0.08115618820786476,0.03522767298668623,0.09646109017170965
1761915498452746200,3.509746337890625,-0.02416939561665058,-0.007272913612425327,0.10198686785586178
1761915498462800400,3.51980029296875,0.03267477363348007,-0.010116028083860874,0.07751929301023483
1761915498472855300,3.529855224609375,0.11463994013667106,0.0017065116569399833,0.041481691880151626
1761915498482909200,3.5399091796875,0.11310615469813347,0.012116261990368365,0.025321269065514206
1761915498492963300,3.54996337890625,0.0073871876418590545,-0.002905658313632011,0.04864237728975713
1761915498503017200,3.560017333984375,-0.06477262416183949,-0.028598025713860987,0.06525960396118462
1761915498513072000,3.570072021484375,-0.04926642747223377,-0.05329524459689855,0.08159275299422443
1761915498523126300,3.580126220703125,-0.008904606467485428,-0.05731997006833553,0.07966996823810041
1761915498533180200,3.59018017578125,0.03550269053578377,-0.06649521017074585,0.06233209914192557
1761915498543234300,3.600234375,0.10788812778890132,-0.054931029105186456,0.03168313224762678
1761915498553288200,3.6102880859375,0.06864741976857185,-0.01123246489316225,0.020622224529087543
1761915498563343400,3.62034326171875,0.007984569013118743,-0.009641980831325054,0.041114173742011186
1761915498573397200,3.630397216796875,0.03445931896269321,-0.04020429235547781,0.045305195691064
1761915498583451400,3.640451416015625,0.06018062019646168,-0.017542963214218617,0.04858407123126089
1761915498593505300,3.65050537109375,0.10020400302708149,0.022040859155356883,0.02713262933641672
1761915498603560200,3.660560302734375,0.12078852589428424,0.05410451515316963,0.01276822309307754
1761915498613614300,3.6706142578125,0.13207447454035282,0.0695841160967946,0.004930222943797707
1761915498623668200,3.680668212890625,0.14252455688416957,0.04225742549300193,-0.000025645897909998893
1761915498633722400,3.690722412109375,0.1400537828564644,-0.004514847075939178,-0.002762888842076063
1761915498643777300,3.70077734375,0.1678250023573637,-0.04932458740025759,0.010757686988264322
1761915498653831200,3.7108310546875,0.11263561457693576,0.015273849238455295,0.02238441189602017
1761915498663885300,3.72088525390625,0.09264613499343395,0.09321575157493352,0.028177973670884964
1761915498673939200,3.730939208984375,0.10155366407036781,0.08905950867831706,0.011096125162392854
1761915498683994400,3.740994384765625,0.11260638848245143,-0.014651041164994239,0.02800795086622238
1761915498694048300,3.75104833984375,0.14883973138034343,-0.08519903385788202,0.04683488947637379
1761915498704102400,3.761102294921875,0.1823819354981184,-0.03991349271535873,0.07929119805358349
1761915498714156000,3.771156005859375,0.20494389591813086,-0.0029629414588212967,0.07620777202025056
1761915498724210200,3.781210205078125,0.15837620601058006,0.008169277930259703,0.06559256224259734
1761915498734265300,3.791265380859375,0.06892857479751109,0.02006108351498842,0.06304850378297269
1761915498744319200,3.8013193359375,0.048911622685194014,0.01985328598320484,0.062485024681314824
1761915498754373400,3.811373291015625,0.07432955705821513,0.031062077739834784,0.03485511334724724
1761915498764427300,3.82142724609375,0.09513853633105754,0.0026499299868941307,0.030431597816571593
1761915498774482200,3.831482177734375,0.10408172124326229,-0.023511808490753173,0.012281462489441036
1761915498784536300,3.841536376953125,0.13916063340902327,-0.040535424005985254,0.004658201069384813
1761915498794590200,3.851590087890625,0.13389526022672651,-0.06885317147374152,-0.009711027479544282
1761915498804644400,3.861644287109375,0.10571195279359817,-0.08590601308345794,0.0011269582033157349
1761915498814699300,3.87169921875,0.08490297352075576,-0.09049480217844247,0.04143595304228365
1761915498824753400,3.88175341796875,0.08943068007826804,-0.08023936562389135,0.06344919353835285
1761915498834807000,3.89180712890625,0.056471244284510606,-0.019744564911723137,0.06883899681791662
1761915498844861200,3.901861083984375,0.04460837253332138,0.05454553691893815,0.0911930866409093
1761915498854915300,3.911915283203125,0.07074877596199512,0.06447948643416165,0.08956512011289595
1761915498864970200,3.92197021484375,0.01839198125898838,0.01849953328669071,0.08958660129234194
1761915498875024400,3.9320244140625,0.021178981629014014,-0.0040402153015136714,0.13061645775176584
1761915498885078300,3.942078369140625,0.044675592550635336,0.013342004393041134,0.14665515388287603
1761915498895132400,3.95213232421875,0.05642623609900474,0.04589607425630093,0.10697517766244709
1761915498905187300,3.962187255859375,0.05474748923182487,0.036033144150674344,0.08083608940802514
1761915498915241200,3.9722412109375,0.07983633778095245,0.010196984365582466,0.061966846026107664
1761915498925295400,3.98229541015625,0.08404547990858555,0.0009437105908989906,0.04567454046010971
1761915498935349500,3.992349609375,0.12738953159451483,0.016458382847905156,0.031621319057792426
1761915498945404400,4.002404296875,0.14653496156930923,0.013314239603281021,0.01947122786305845
1761915498955458300,4.012458251953125,0.14323475098013877,-0.005007014507055282,-0.005063566999882459
1761915498965512400,4.022512451171875,0.14700725525617597,-0.014917875407636165,-0.024730609695985912
1761915498975566300,4.03256640625,0.16430734962522983,-0.02759440162926912,-0.007801102204993367
1761915498985621500,4.04262158203125,0.14963526567220686,-0.013495733650028706,0.00661094257235527
1761915498995675400,4.05267529296875,0.12585048545897007,0.01146422782242298,0.03901800518035888
1761915499005729500,4.0627294921875,0.13942951347827912,0.0063236500635743135,0.06063998133651912
1761915499015783400,4.072783447265625,0.11829612455666065,-0.0008709376156330108,0.07595175143256783
1761915499025837300,4.08283740234375,0.0876987417191267,-0.016179858167469502,0.0672746701106429
1761915499035892500,4.092892578125,0.11135960329174995,-0.04571750281900167,0.04003733829073608
1761915499045946400,4.1029462890625,0.12510054387450217,-0.05003974993228912,0.023891163197159764
1761915499056000500,4.11300048828125,0.08394143501222133,-0.03366320014894009,0.04413425221554935
1761915499066054400,4.123054443359375,-0.010005845707654953,0.010064882418513298,0.09474624907784164
1761915499076109300,4.133109375,-0.06476034920215606,0.04089607401192188,0.1166560291994363
1761915499086163500,4.14316357421875,-0.1212953063726425,0.08099369112253188,0.12680296387821435
1761915499096217300,4.15321728515625,-0.18495558537840842,0.10586918918192385,0.1040703230664134
1761915499106271500,4.163271484375,-0.14871230560839174,0.08414689445644617,0.08923508444093167
1761915499116326400,4.173326416015625,-0.07893500502705574,0.058381461820006364,0.08705905557610094
1761915499126380500,4.183380615234375,-0.05521452222168445,0.0800344907015562,0.09909925665557384
1761915499136434400,4.193434326171875,-0.00023614684343338012,0.12459668600559234,0.0818343066651374
1761915499146488300,4.20348828125,0.07526420755982399,0.11211568235605955,0.06722016344442963
1761915499156543500,4.21354345703125,0.10122516276836395,0.04958879129439592,0.08334427283667027
1761915499166597400,4.223597412109375,0.13647417080402374,0.005588029265403747,0.08090440540388226
1761915499176651500,4.233651611328125,0.15581073943674564,0.04325374305397272,0.06727554689347744
1761915499186705400,4.243705322265625,0.1434030932843685,0.07053951712548732,0.021289675461873412
1761915499196759600,4.253759521484375,0.23416882135868072,0.07184913841933012,-0.015618571022897957
1761915499206814500,4.263814453125,0.2778904741853475,0.05456190353184938,-0.021682035780325532
1761915499216868400,4.273868408203125,0.24352175611555574,0.00826221691071987,-0.0029782851584255693
1761915499226922500,4.283922607421875,0.24703648623824118,-0.014053075271844863,0.009462824872136115
1761915499236976400,4.293976318359375,0.2837573203921318,-0.011199439406394958,-0.005395137041807174
1761915499247031600,4.304031494140625,0.32380642218589784,-0.020607903742790222,-0.033372838900238275
1761915499257085400,4.31408544921875,0.33863632704913615,-0.027228783187270164,-0.05869600766189396
1761915499267139300,4.324139404296875,0.3316746713429689,-0.03901128317862749,-0.06560593318082392
1761915499277193500,4.334193359375,0.2962573210030794,-0.05329495233595371,-0.044650531174615024
1761915499287248400,4.344248291015625,0.19504501771628854,-0.013305764035880565,0.004610562535375356
1761915499297302500,4.354302490234375,0.08824059351086616,0.012075637719035148,0.07419095230512321
1761915499307356400,4.3643564453125,0.04929390000104904,0.029965222413837908,0.10789828385673463
1761915499317410600,4.37441064453125,0.039729368320107455,0.07086246546953916,0.09792034906931221
1761915499327465500,4.384465576171875,0.033466800794005394,0.08716565775573253,0.053943552437797186
1761915499337519400,4.394519287109375,0.06365794091820716,0.040375557269155975,0.04162584959119558
1761915499347573500,4.404573486328125,0.06531739856302737,-0.005962123274803161,0.08724149947091936
1761915499357627400,4.41462744140625,0.13630232136845588,0.009696049106121063,0.09814933551959693
1761915499367681500,4.424681640625,0.1598649832636118,0.04085281939208507,0.07247698799408972
1761915499377736400,4.434736328125,0.13773790712952613,0.018577859219908715,0.07174173252210021
1761915499387790300,4.444790283203125,0.0752285517245531,-0.025511165614426134,0.08709639191180467
1761915499397844200,4.45484423828125,0.03123918787240982,-0.04568710768073797,0.08222038337327539
1761915499407898400,4.4648984375,0.030496845072507855,-0.0256891525298357,0.05077997384034097
1761915499417953500,4.47495361328125,0.05121113179922104,0.02844751132726669,0.03206036806218326
1761915499428007400,4.48500732421875,0.06232113935649394,0.03772153562903404,0.04766907527819276
1761915499438061600,4.4950615234375,0.1046300027757883,-0.0011605682119727133,0.05475099636316299
1761915499448115500,4.505115478515625,0.12629881374835966,-0.022446809607744214,0.04974916948787868
1761915499458170400,4.51517041015625,0.10717676464915275,-0.026993513126671313,0.02074358588643372
1761915499468224500,4.525224609375,0.04195698124170303,-0.016219021134078502,0.04181413870491087
1761915499478278400,4.5352783203125,-0.0064805941909551615,0.005399228695034981,0.08087883257120847
1761915499488332500,4.54533251953125,0.005115735578536987,0.016846797643601894,0.0958011649582535
1761915499498387500,4.555387451171875,0.03846913912594318,0.017096680751442907,0.09139080117009579
1761915499508441300,4.56544140625,0.09929039531350135,-0.0026019991919398306,0.07225238545797764
1761915499518495200,4.5754951171875,0.1332072779625654,-0.029246845011413097,0.0737277917727828
1761915499528549400,4.58554931640625,0.159450557243824,-0.023873043018579482,0.0740052935399115
1761915499538604500,4.5956044921875,0.15956512353420257,-0.03872165258228778,0.08679229439869522
1761915499548658400,4.605658447265625,0.14186580071449278,-0.03079085958302021,0.11755765421427786
1761915499558712600,4.615712646484375,0.0924479820728302,-0.02604161922931671,0.13439648774713278
1761915499568766500,4.625766357421875,0.04084872773885727,-0.00017974048107862473,0.12290807533152401
1761915499578820400,4.6358203125,0.056413376617431635,-0.013205518531799316,0.09943089976273477
1761915499588875500,4.64587548828125,0.0755944624274969,-0.031870179252326485,0.07061477431878448
1761915499598929400,4.655929443359375,0.09338730874955653,-0.005967968493700027,0.07147665184512735
1761915499608983600,4.665983642578125,0.08885726410448551,0.03920943609923124,0.07606507561393082
1761915499619037400,4.676037353515625,0.12005027474761008,0.009950023867189883,0.08634177415221929
1761915499629092400,4.68609228515625,0.1322328799724579,-0.08524374978244305,0.08910882771275937
1761915499639146200,4.696146240234375,0.09881576353907584,-0.1347463240981102,0.11295337528921663
1761915499649200400,4.706200439453125,0.03674129242002964,-0.08064560833722352,0.13730112314745782
1761915499659254300,4.716254150390625,0.0029208558827638624,-0.014744272406399249,0.130975208061561
1761915499669309400,4.726309326171875,0.015410335099697112,0.006391454602777957,0.1092003794312477
1761915499679363600,4.736363525390625,0.05980009644627571,-0.05680646758824587,0.10500117417573929
1761915499689417500,4.74641748046875,0.11039514217376709,-0.0998936219036579,0.09663900402188301
1761915499699471400,4.756471435546875,0.1127519344329834,-0.08897767561376094,0.07463760009407996
1761915499709526500,4.766526611328125,0.08084639160633086,-0.054930736844241615,0.031225743868947026
1761915499719580400,4.776580322265625,0.08126549380123614,-0.050713995932042594,0.015257628756016491
1761915499729634600,4.786634521484375,0.08730594300925731,-0.054122343070805067,0.014333645778894424
1761915499739688400,4.7966884765625,0.08017652952075004,-0.057411155483126634,-0.0060467328183352945
1761915499749743400,4.806743408203125,0.06119125854372978,-0.03852320740073919,-0.011582008983194827
1761915499759797200,4.81679736328125,0.018396072912216184,-0.033280338311195375,0.009467866373434662
1761915499769851400,4.826851318359375,0.0014653963774442671,-0.03403904772400856,0.04152881895750761
1761915499779905300,4.8369052734375,-0.03934183030724525,-0.020819500666856765,0.04438647341094911
1761915499789959400,4.84695947265625,-0.05628770441114902,-0.0012327566653490066,0.0411392351180315
1761915499800014600,4.8570146484375,-0.01845160249173641,0.0160556472659111,0.03613850422129035
1761915499810068500,4.867068359375,0.0015320318728685378,0.02648527134358883,0.04128222378529608
1761915499820122400,4.877122314453125,-0.018932079485058782,0.01423836871087551,0.07729132947325706
1761915499830176300,4.88717626953125,0.002053425398468971,0.01747340510934591,0.10182670885808766
1761915499840229600,4.897229736328125,0.002498246556520462,0.035460312698781485,0.07939012838341296
1761915499850283300,4.907283203125,0.014852116695046423,0.044452012927830215,0.05812624494992196
1761915499860338400,4.91733837890625,0.027978140249848363,0.0174456403195858,0.03771678638868034
1761915499870392300,4.927392333984375,0.042324060988426206,-0.00914455270320177,0.05174297365359962
1761915499880446500,4.937446533203125,0.026004209828376767,-0.004821721068024635,0.04920527186952531
1761915499890500600,4.94750048828125,0.024990064349770545,-0.004774959316849708,0.04611497770398855
1761915499900555300,4.95755517578125,0.008070493730902671,0.005388707301020622,0.05999722645357251
1761915499910609400,4.967609375,-0.0243950210660696,0.016065584138035775,0.0475397498100996
1761915499920663600,4.97766357421875,0.03853460557758808,0.013314239603281021,0.014585063256695866
1761915499930717700,4.9877177734375,0.03310556626617908,0.025264789637923238,0.0022406915988773105
1761915499940772600,4.997772705078125,0.03706862467825413,0.043811669197678565,-0.006755830935761332
1761915499950826800,5.00782666015625,0.04331541011333465,0.05156038362830877,0.021033435678482055
1761915499960880600,5.017880615234375,0.01873568013012409,0.036684009274840355,0.02921710746027529
1761915499970934500,5.0279345703125,0.05797638815045356,0.029931320144236086,0.03142798844277859
1761915499980988700,5.03798876953125,0.10657529162466525,0.004706277994811534,0.03466536292880773
1761915499991043600,5.048043701171875,0.14109890799522398,-0.017112462842464447,0.036100291102752084
1761915500001097700,5.05809765625,0.15782324830293654,-0.007821487405896187,0.024274463426321745
1761915500011151600,5.068151611328125,0.17759411669969558,0.0059463411837816236,0.006340820394083857
1761915500021205800,5.078205810546875,0.18623159666359423,-0.013024024485051631,0.005459288319200277
1761915500031260700,5.0882607421875,0.16606617599129675,-0.018383505691587924,0.020981194034591318
1761915500041314600,5.098314453125,0.1325935299783945,-0.02577186237722635,0.03402684582956135
1761915500051368700,5.10836865234375,0.11385025106370449,-0.04100947125852108,0.04087145102731883
1761915500061422600,5.118422607421875,0.1041074402064085,-0.04647621223181486,0.027278686743602155
1761915500071477800,5.128477783203125,0.07191197452247142,0.007683832500874996,0.006961217314749956
1761915500081531600,5.13853173828125,0.0455745872169733,0.06388648897707462,-0.003165989750251174
1761915500091585500,5.14858544921875,0.06040215399265289,0.03344809609353542,0.0203141084279865
1761915500101639700,5.1586396484375,0.015945757150650025,-0.053125733248889445,0.059767070959508416
1761915500111694600,5.168694580078125,0.009548749589920044,-0.09927256739586592,0.08509016665592789
1761915500121748700,5.178748779296875,0.007203647768497467,-0.03423018638193607,0.0983044530160725
1761915500131802600,5.188802734375,0.03683598496615886,0.02362315991073847,0.08224829429350793
1761915500141856800,5.198856689453125,0.05739011269509792,0.014219079488515854,0.07376921976171434
1761915500151911700,5.20891162109375,0.07534428705871105,-0.046319268104434014,0.06487381951399147
1761915500161965600,5.218965576171875,0.09661036244928836,-0.0826247994557023,0.0662943538364023
1761915500172019700,5.229019775390625,0.08750994114875793,-0.06822597948610783,0.07879121264219284
1761915500182073600,5.239073486328125,0.037906244546175,-0.04523176512867212,0.05720460006035864
1761915500192128800,5.249128662109375,0.041862288695573804,-0.041435295455157756,0.032100480876863
1761915500202182700,5.2591826171875,0.04360241036117077,-0.03843260650783777,0.026739976757019758
1761915500212236500,5.269236572265625,0.021681670454144476,-0.02213204457014799,0.008409735622629522
1761915500222290700,5.279290771484375,0.03881868321597576,0.003843523685634136,0.02755699222832918
1761915500232344600,5.289344482421875,0.07160977670550346,0.002294248417019844,0.05100106924511492
1761915500242399700,5.299399658203125,0.012726795104146003,0.026533202138543127,0.06630092970766127
1761915500252453600,5.30945361328125,-0.00907177972793579,0.040944589328765865,0.09489975913912058
1761915500262507800,5.3195078125,0.005866846206784248,0.05943038635104894,0.10722776418402791
1761915500272561700,5.329561767578125,0.024981881043314932,0.0890124546661973,0.0996525796893984
1761915500282616600,5.339616455078125,0.06690145288407802,0.061762336429953574,0.0750705116186291
1761915500292670700,5.349670654296875,0.13742869504988192,0.030044717390835283,0.07076580016203224
1761915500302724600,5.359724609375,0.18097206870019436,0.025770401072502135,0.06736468648165464
1761915500312778800,5.36977880859375,0.17026771933436394,0.03455284246504307,0.05000562846697867
1761915500322833700,5.379833740234375,0.18527122719883918,0.0446530884578824,0.03653670975863933
1761915500332887600,5.389887451171875,0.13631634989380836,0.042537703739106654,0.041944998542964455
1761915500342941400,5.39994140625,0.07859890494048595,0.03057867813706398,0.04792158873453736
1761915500352995600,5.40999560546875,0.04891863694787025,0.03398322588354349,0.037361543210223315
1761915500363050800,5.42005078125,0.04252572104036808,0.03723609019964933,0.03172412184514105
1761915500373104600,5.430104736328125,0.07673018845915794,0.02906710453033447,0.03382913130037486
1761915500383158800,5.44015869140625,0.1462660815000534,0.01748568006902933,0.044335620006546374
1761915500393212700,5.450212646484375,0.1739151359260082,-0.008065233033895492,0.026767157024890183
1761915500403267600,5.460267578125,0.17239654805660246,-0.019965514186024665,0.01386274033151567
1761915500413321700,5.47032177734375,0.12010989598035812,-0.044731414391100406,0.0066606269329786295
1761915500423377700,5.480377685546875,0.09628069210350512,-0.04560439783334732,0.031383199452981354
1761915500433432600,5.4904326171875,0.024206220495700835,-0.03801788822710514,0.04315232850611209
1761915500443486700,5.50048681640625,0.00908405468761921,-0.03118511959761381,0.05085625394694507
1761915500453540600,5.51054052734375,0.006202361771464347,-0.021091303345561026,0.04390555802620947
1761915500463594800,5.5205947265625,0.04829086043834686,-0.022801906655728815,0.04564911375790834
1761915500473649700,5.530649658203125,0.08486381055414677,-0.014448504330217837,0.05032974585480988
1761915500483703600,5.54070361328125,0.06724573627710342,0.01687310112863779,0.03543313243091106
1761915500493757700,5.5507578125,0.04107026153504848,0.022723580722510812,0.06007219138592481
1761915500503811600,5.5608115234375,0.0465115758061409,0.009952946476638316,0.07141184298060833
1761915500513866800,5.57086669921875,0.040946927416324615,-0.003496317683160305,0.030503567074239252
1761915500523920600,5.580920654296875,0.06757599114477635,-0.012237550282478332,0.005183686248213052
1761915500533974500,5.590974609375,0.07607610846459865,-0.0039621816292405125,-0.005969283667951822
1761915500544028400,5.6010283203125,0.08047580472826957,0.0765665223300457,-0.01512786489650607
1761915500554083600,5.61108349609375,0.05778524949252605,0.09794891757667064,0.010385711870715022
1761915500564137700,5.6211376953125,0.007171499064564705,0.03497486726939678,0.05436798839494586
1761915500574191600,5.631191650390625,-0.09145780199170112,-0.017379004824161527,0.08859547136314212
1761915500584245800,5.641245849609375,-0.09733283150494099,0.05184796839803457,0.1071359211821109
1761915500594300700,5.65130078125,-0.13312719846367835,0.15130524471104145,0.08824687712118029
1761915500604354600,5.6613544921875,-0.08871171815395355,0.18023469433635472,0.06275441620722412
1761915500614408700,5.67140869140625,0.02759410936832428,0.13387246387302876,0.03918400939702987
1761915500624462600,5.681462646484375,0.1157055235415697,0.06284019479453563,0.012970540732145309
1761915500634517800,5.691517822265625,0.15591127720177173,0.03761018420904875,-0.010605126775056123
1761915500644571600,5.701571533203125,0.23523440476357935,0.009414601816236972,-0.0033543519292026755
1761915500654625500,5.71162548828125,0.3111702279746532,-0.02442775429189205,-0.012489333086460828
1761915500664679400,5.721679443359375,0.33399171611368655,-0.05606733965873718,-0.03164769560806453
1761915500674734600,5.731734619140625,0.30282442443370816,-0.07331716514527797,-0.042009149820357555
1761915500684788700,5.741788818359375,0.2879080103307962,-0.06454612192958593,-0.036343963665515185
1761915500694842600,5.751842529296875,0.2135042189925909,-0.08289221822023392,-0.021434929151460527
1761915500704896800,5.761896728515625,0.11951543721854686,-0.07782265987098216,0.02859634521342814
1761915500714950700,5.77195068359375,0.045503860068321224,-0.06539104832112788,0.09111483377292752
1761915500725005600,5.782005615234375,0.004876666125655174,-0.03678016312569379,0.12914952700436114
1761915500735059700,5.792059814453125,-0.03236497703194618,0.022113047608733175,0.14234342816360293
1761915500745113600,5.802113525390625,-0.016087795969843863,0.037930502204597,0.1296811496630311
1761915500755167700,5.812167724609375,0.021876316243410108,0.022768004386126993,0.1267734455227852
1761915500765222700,5.82222265625,0.011895020455121993,0.003414484618604183,0.1021395741995424
1761915500775276500,5.832276611328125,0.021993220621347426,-0.015667232470214367,0.08866919418647885
1761915500785330400,5.842330322265625,-0.0044780221968889235,-0.01641220561861992,0.06168123401775956
1761915500795384600,5.852384521484375,-0.07116086389422416,-0.025061960542201993,0.039449236204475165
1761915500805439700,5.862439697265625,-0.06791092218756675,-0.07242752282917499,0.05065145208984613
1761915500815493600,5.87249365234375,0.00506897382736206,-0.07838263184130191,0.09294847894087434
1761915500825547800,5.8825478515625,0.051012394356727594,-0.10200491496920586,-0.035594971929118036
1761915500835601700,5.8926015625,0.04925239894688129,-0.1191781680881977,-0.07852620503045618
1761915500845656600,5.902656494140625,0.033784196180105204,-0.12137567813247442,-0.03494118419550359
1761915500855710700,5.912710693359375,0.004418985486030578,-0.08128449076265096,0.013756941869482398
1761915500865764600,5.9227646484375,0.006731938603520393,-0.056283320496976375,0.017881839779764413
1761915500875818800,5.93281884765625,-0.003612929800152778,-0.05119008901119232,-0.0007466536488384008
1761915500885873700,5.942873779296875,0.0006932429611682891,-0.04920037649869918,-0.015387319550290704
1761915500895927600,5.952927490234375,0.04463584506213665,-0.06033464171439409,-0.008984320640191435
1761915500905981400,5.9629814453125,0.07785890022814274,-0.041702714219689366,0.004655716851353645
1761915500916035600,5.97303564453125,0.1354915895074606,-0.010138239915668965,0.008335355212166905
1761915500926089500,5.98308935546875,0.10846329732835293,-0.011569441762566565,0.0035150954488664863
1761915500936143400,5.993143310546875,0.12724515468776226,-0.011644552825391292,0.015833967339247464
1761915500946197500,6.003197509765625,0.10292027624845504,0.008424713996052742,0.024117665429413317
1761915500956251600,6.013251708984375,0.09373802188336848,0.050723640543222426,0.026950331572070715
1761915500966306600,6.023306640625,0.1193833352714777,0.03747954356670379,0.039169688610732556
1761915500976360400,6.0333603515625,0.07643091325163841,0.060574880211055275,0.029720965329185126
1761915500986414300,6.043414306640625,0.06445990495085716,0.07228899114131927,0.018032281101122496
1761915500996468500,6.053468505859375,0.13512626332640648,0.05631751502752304,0.01023468602746725
1761915501006523600,6.063523681640625,0.1341705700367689,0.02062280905097723,0.01803951455950737
1761915501016577500,6.07357763671875,0.10388707545399666,0.04182020311951637,0.023243805204331874
1761915501026631700,6.083631591796875,0.11421382367908954,0.13595131597369908,0.0033990678537636995
1761915501036685600,6.093685546875,0.14786299530267716,0.13656155682653187,-0.02753478039652109
1761915501046740500,6.103740478515625,0.18963059145212172,0.026364275312423704,0.0009139730397611856
1761915501056794400,6.11379443359375,0.20604688872396945,-0.04935059862434864,0.03234605313576758
1761915501066848500,6.1238486328125,0.22722587035298347,-0.02399988426864147,0.059691448440030215
1761915501076902700,6.133902587890625,0.23736966322660444,0.0016273089408874511,0.05501885351911187
1761915501086957600,6.14395751953125,0.22097265517711637,0.005577800132334232,0.02088036400862038
1761915501097011500,6.154011474609375,0.18375322385132312,-0.021401684468984602,0.004910422264784574
1761915501107065300,6.1640654296875,0.1619721846759319,-0.04191109627336263,0.03479359241835773
1761915501117119500,6.174119384765625,0.11691431480944156,-0.022911796770989895,0.03745923143103719
1761915501127173400,6.18417333984375,0.1096709195524454,-0.02049158388674259,0.026273089897632596
1761915501137228500,6.194228515625,0.08950023818314075,-0.00794336021989584,0.01570223071835935
1761915501147282700,6.20428271484375,0.07236322542130946,-0.00750935271680355,0.024169687877595422
1761915501157336600,6.214336669921875,-0.002444470542669296,0.022402678205072878,0.049003831013292073
1761915501167390500,6.224390380859375,-0.09096855717003345,0.09045037851482629,0.07708302048482
1761915501177445400,6.2344453125,-0.13982348123192787,0.07080167519301175,0.08088679668195545
1761915501187499500,6.24449951171875,-0.23644904125034807,0.06042261225879192,0.04979753867425024
1761915501197553400,6.254553466796875,-0.2326309442669153,0.06085135906487703,0.011473507107421755
1761915501207607600,6.264607666015625,-0.08753858272135258,0.06307166546285152,0.004542977191880345
1761915501217662500,6.274662353515625,0.09458324053585529,0.0256128724232316,0.017589140443503855
1761915501227716400,6.28471630859375,0.20982932987213135,-0.025074235501885412,0.017616393776610492
1761915501237770500,6.2947705078125,0.22468436917662618,-0.048052375507354736,0.03514700896590948
1761915501247824400,6.304824462890625,0.1896539723277092,-0.05831833345592022,0.037520533164218065
1761915501257879600,6.314879638671875,0.1541395913541317,-0.05717442411780357,0.030252661053091285
1761915501267933700,6.32493359375,0.15328677391707896,-0.04578764544576406,0.017153087113797663
1761915501277987600,6.334987548828125,0.16882511931061744,-0.0486050409540534,-0.006853226895630359
1761915501288041500,6.34504150390625,0.17951193301975726,-0.04971475576162338,0.008616437175869941
1761915501298096400,6.355096435546875,0.14747779537737368,-0.051019116358458995,0.023786241517961024
1761915501308150500,6.365150634765625,0.10905600252449511,-0.04055091383606195,0.03200819948352873
1761915501318204400,6.375204345703125,0.09230243612229823,-0.01812573153823614,0.04546433177553117
1761915501328258600,6.385258544921875,0.06978782197535037,-0.0008396656945347785,0.05160575713999569
1761915501338313500,6.3953134765625,0.06917524303495884,-0.006245031869411468,0.05655789965465664
1761915501348367400,6.405367431640625,0.06669394761323928,-0.01846475423425436,0.0454199811771512
1761915501358421500,6.41542138671875,0.09737783969044685,-0.0013628127858042716,0.022470628874748943
1761915501368475400,6.425475341796875,0.11855857488512993,0.017250994530320165,0.0029637451764196157
1761915501378530600,6.435530517578125,0.08217793247103691,0.024330431397259236,0.025958763251453635
1761915501388584700,6.445584716796875,0.0478226584047079,0.011173720443248748,0.06786715611107647
1761915501398638600,6.455638671875,0.06406243006587028,-0.005146715238690376,0.07234620122127235
1761915501408692500,6.4656923828125,0.11354513063728809,-0.001233341187238693,0.05978504500761628
1761915501418747400,6.475747314453125,0.15598434243798254,-0.0022550854504108427,0.04314648328721523
1761915501428801500,6.485801513671875,0.19596505517065524,-0.005881166993081569,0.03313756883963943
1761915501438855400,6.49585546875,0.19719021305143833,0.0029500819772481915,0.024020780926197766
1761915501448909600,6.50590966796875,0.1930260791093111,0.025993396173417567,0.029748218662291763
1761915501458964500,6.515964599609375,0.14057225377261637,0.050994274178147316,0.023367139323055744
1761915501469018400,6.526018310546875,0.096325700289011,0.06250497149080038,0.02424837913699448
1761915501479072500,6.536072509765625,0.08858020072877407,0.04519143311828375,0.03759067579098046
1761915501489126400,6.54612646484375,0.12443126631081104,0.03194441353231668,0.0112172673240304
1761915501499181600,6.556181640625,0.12334054846465586,0.08556231421232223,0.0035498014360666272
1761915501509235700,6.566235595703125,0.1166378359556198,0.12334171750843524,0.0025092063419520855
1761915501519289600,6.57628955078125,0.15050737233161926,0.08468436233401298,0.012004618309438228
1761915501529343500,6.586343505859375,0.1700812568515539,-0.012485387563705444,0.013115136834606527
1761915501539398400,6.5963984375,0.1708791292309761,-0.022568974682688713,0.030837694399431344
1761915501549452500,6.60645263671875,0.15039806673824788,0.0035781507477164265,0.07158595743849873
1761915501559506400,6.61650634765625,0.08170680782794952,0.04537029681652784,0.07285590430907905
1761915501569560600,6.626560546875,0.06978723745346069,0.03888122705817222,0.03643259179703891
1761915501579615500,6.636615478515625,0.11461246760785579,0.023847908577322958,0.0035013591844588517
1761915501589669400,6.64666943359375,0.12241758840084076,0.0058019642770290375,0.000562383123114705
1761915501599723500,6.6567236328125,0.08709200799763202,0.008110825741291046,0.0006957271791994571
1761915501609777400,6.66677734375,0.08420914603769779,0.010502397052943705,-0.0003942600145936012
1761915501619831600,6.67683154296875,0.057657823720574375,0.0064680269703269,-0.025878026165440677
1761915501629886700,6.68688671875,0.03023965544104576,-0.008798515744507312,-0.03593275251612067
1761915501639940600,6.696940673828125,0.0013268646895885467,-0.020671324367821216,-0.007196925766766071
1761915501649994500,6.706994384765625,-0.02611000829041004,-0.020555296772718428,0.009361337259039282
1761915501660048400,6.71704833984375,-0.008165186277031899,-0.007307400403916835,0.01432882347330451
1761915501670103600,6.727103515625,-0.023496610921621322,-0.005670446851849555,0.029620792890340086
1761915501680157400,6.737157470703125,-0.025266543203592298,-0.016694821952283383,0.06793284175843001
1761915501690211600,6.747211669921875,0.006681669721007347,-0.031823125240206716,0.09161920309849082
1761915501700265500,6.757265380859375,0.051776364466547965,-0.04141454492807388,0.08826974654011428
1761915501710320400,6.7673203125,0.07299158645272255,-0.06143237382322549,0.09444719306603074
1761915501720374500,6.77737451171875,0.12231354350447654,-0.07799041765332222,0.09853913855478166
1761915501730428400,6.787428466796875,0.10985504394769668,-0.05165566069632768,0.09537227202169597
1761915501740482600,6.797482666015625,0.09907646030187606,-0.01867518211454153,0.11056297302134334
1761915501750537500,6.807537353515625,0.08995791882276534,-0.01445756441950798,0.09641462068147957
1761915501760591600,6.817591552734375,0.05540040018260479,-0.04370207134336233,0.07524776788167654
1761915501770645500,6.8276455078125,0.010799626433849335,-0.04851297875642776,0.09172237121202051
1761915501780699400,6.837699462890625,-0.008425298517942428,-0.0032271453529596327,0.09691584820188581
1761915501790754600,6.847754638671875,-0.02944704375863075,0.03189034525752067,0.08474054950065911
1761915501800808400,6.857808349609375,-0.09573591770231724,0.05421762013882398,0.09507496957555413
1761915501810862600,6.867862548828125,-0.09904548064172268,0.03483575105965137,0.08700469504036008
1761915501820916500,6.87791650390625,-0.05430325259566307,0.018373861080408095,0.06534107169955969
1761915501830971400,6.887971435546875,-0.03822948515117168,0.03234305746108293,0.05387282528914511
1761915501841025500,6.898025634765625,-0.020605565655231476,0.04122662114053964,0.04714410155601799
1761915501851079400,6.908079345703125,0.042350364473462104,0.02161561948060989,0.052747036129608744
1761915501861133600,6.918133544921875,0.10611819550693034,0.00552080924808979,0.07552534271404146
1761915501871188500,6.9281884765625,0.05041209037601947,0.004251227703690528,0.046915480431914326
1761915501881242600,6.93824267578125,0.023541034585237503,-0.010437807384133338,0.03469086269624531
1761915501891296500,6.948296630859375,0.05984919628500938,0.012262684723734854,0.04666903139017522
1761915501901350400,6.958350341796875,0.1410463010251522,0.004746610005199909,0.07817965661510824
1761915501911405600,6.968405517578125,0.20049100816249846,-0.012214753928780554,0.11139124053902924
1761915501921460700,6.978460693359375,0.22562720298469066,-0.03585954114943742,0.1459475170701742
1761915501931514600,6.9885146484375,0.2691045256614685,-0.07636369323432445,0.10621902553290129
1761915501941568500,6.998568603515625,0.3093780838608742,-0.07109101352840662,0.06517221793867647
1761915501951623400,7.00862353515625,0.24713000974059104,-0.04624211121499538,0.02405672902241349
1761915501961677600,7.018677490234375,0.19575521181225775,-0.06405541580319404,0.031734789369627835
1761915501971731500,7.0287314453125,0.16743395721316337,-0.05365501782000064,0.015498817100748418
1761915501981785600,7.03878564453125,0.13151859422326087,0.01949205145537853,-0.013061799212172627
1761915501991839500,7.048839599609375,0.1503355228960514,0.03175152130872011,-0.020639248729124662
1761915502001894400,7.058894287109375,0.138829209497571,-0.039844519132375716,-0.017162293333560227
1761915502011948500,7.068948486328125,0.09698562550246714,-0.09792670574486255,0.020938304740935564
1761915502022002400,7.07900244140625,0.06622457653582095,-0.07268558924347161,0.05759381857365369
1761915502032056600,7.089056640625,0.05049158535301685,-0.01644172397404909,0.04335128514431417
1761915502042111500,7.099111572265625,0.015512626430392265,0.004377776692807674,0.012777502378076315
1761915502052165600,7.10916552734375,0.01457388427555561,0.004679389987885952,0.00017477204501628875
1761915502062219500,7.119219482421875,0.013574936366081237,0.008489888186752797,-0.002996478402242064
1761915502072273400,7.1292734375,0.04169219282567501,0.004082885399460792,-0.005282397382333874
1761915502082328600,7.13932861328125,0.06602583909332752,-0.015938450627028942,-0.01751841329485178
1761915502092382500,7.149382568359375,0.06963292367458343,-0.03580138122141361,-0.0429774833958596
1761915502102436600,7.1594365234375,0.06302548823356628,-0.04041588927954435,-0.05799370461143553
1761915502112490500,7.169490478515625,0.10237082567214965,-0.06394435664415359,-0.06948387059271335
1761915502122545400,7.17954541015625,0.1081067389756441,-0.04187660948187113,-0.07181633212827146
1761915502132599600,7.189599609375,0.037922026637196536,0.007877309246361255,-0.04312514823824167
1761915502142653400,7.1996533203125,-0.008696516674757003,0.03156505882591009,0.00007379588857293128
1761915502152707600,7.20970751953125,-0.015626608198881148,0.04861673139184713,0.04099113188423216
1761915502162762500,7.219762451171875,-0.029795418804883955,0.062242228901386254,0.05563968883119523
1761915502172816600,7.229816650390625,-0.018559154519438743,0.08490589613020419,0.05448825377374887
1761915502182870500,7.23987060546875,0.016154431465268133,0.06674421649575234,0.07271240418516099
1761915502192924400,7.24992431640625,0.011783376774191856,0.03250643132925033,0.07099968198314309
1761915502202979600,7.2599794921875,0.058037762948870655,0.013696224658191203,0.05271664099134504
1761915502213033500,7.270033447265625,0.12454758616685867,0.009305296222865581,0.05508541594929993
1761915502223087600,7.280087646484375,0.14966273820102213,0.0077519293010234825,0.04300349461995065
1761915502233141500,7.2901416015625,0.13802140024602413,-0.0021174305453896523,0.017900690610706805
1761915502243196400,7.300196533203125,0.12424772643744945,-0.021147709707915782,0.007169234042242169
1761915502253250600,7.31025048828125,0.10192600451409817,-0.019582652348279952,-0.021704686003550886
1761915502263304400,7.320304443359375,0.07594459103941917,-0.009660685531795025,-0.0049852410666644574
1761915502273358600,7.330358642578125,0.053823944646120066,-0.0017360300123691558,0.003968538304790855
1761915502283413500,7.34041357421875,0.0025759879678487778,0.005891980648040771,0.019547946361079812
1761915502293467600,7.350467529296875,0.021883915027976035,0.0027229952231049535,0.028793840546905994
1761915502303521300,7.360521240234375,0.0638350510507822,-0.04052577939480543,0.03935417833216488
1761915502313575400,7.370575439453125,0.10429682529866695,-0.05783785646259784,0.027814620251208542
1761915502323630600,7.380630615234375,0.09337795639932155,-0.05389174918532371,0.004648483392968774
1761915502333684500,7.3906845703125,0.10156243189871311,-0.047290743485093115,0.0016976707633584737
1761915502343738600,7.400738525390625,0.0911976897507906,-0.052422553415596485,0.03258139626160264
1761915502353792500,7.41079248046875,0.04009761711061001,-0.03861380829364061,0.05852094335593283
1761915502363847400,7.420847412109375,0.025366496446728705,-0.013028700660169123,0.0503474276419729
1761915502373901600,7.430901611328125,0.027130583509802818,0.0027250410497188567,0.03331716319024563
1761915502383955500,7.44095556640625,0.02321954754590988,0.015995441511273384,0.027888635335490106
1761915502394009600,7.451009521484375,0.012426935374736785,0.02771598218232393,0.030265082143247125
1761915502404064500,7.461064453125,0.03569558275938034,0.022717443242669104,0.026933526567742228
1761915502414118700,7.47111865234375,0.04064472959935665,0.04347001615315675,0.023806626718863844
1761915502424172300,7.48117236328125,0.02865852372944355,0.05099895035326481,0.01569872358702123
1761915502434226400,7.491226318359375,0.044728784042596816,0.020498013627529142,0.021277254371717572
1761915502444281600,7.501281494140625,0.028633389288187025,0.02142828021496534,0.029059213484823702
1761915502454335500,7.51133544921875,-0.005711947906017303,0.09484861347377299,0.025765578766912222
1761915502464389600,7.5213896484375,-0.0025426702201366423,0.15606792906820774,-0.006470876514539122
1761915502474443500,7.531443603515625,0.026358430093526838,0.10066139140576123,0.002847279189899564
1761915502484497700,7.54149755859375,0.0323246450215578,0.01989770964682102,0.004255392422154546
1761915502494552600,7.551552490234375,0.05766892963647842,0.040329964561760426,-0.003325856487080455
1761915502504606500,7.5616064453125,0.01884732381105423,0.13438830444067715,0.03338387175090611
1761915502514660600,7.57166064453125,-0.00512041175365448,0.1729410301968455,0.06486242133714258
1761915502524714500,7.581714599609375,0.06495207238197326,0.10039689525067806,0.026563451146334408
1761915502534769400,7.591769287109375,0.15685118840038775,0.02011807439923286,-0.03309387582838535
1761915502544823300,7.6018232421875,0.2605862881630659,-0.04981178639531135,-0.06550020778402686
1761915502554877400,7.61187744140625,0.3582838613271713,-0.09749299050271511,-0.06713255822621285
1761915502564931600,7.621931640625,0.37541795147955415,-0.10867343294769524,-0.0690974285583943
1761915502574986500,7.631986572265625,0.34690497370064255,-0.10813684185296296,-0.0570375729303807
1761915502585040600,7.64204052734375,0.2565770525217056,-0.09828501766324042,-0.04777041676081717
1761915502595094500,7.652094482421875,0.15913725351095198,-0.07790332389175891,-0.04426540431454778
1761915502605148700,7.662148681640625,0.04683656997680664,-0.05605652600377798,-0.004452157103270292
1761915502615203600,7.67220361328125,-0.09636427873373031,-0.02058539965003729,0.04952843940928578
1761915502625257500,7.682257568359375,-0.10430091695189475,0.03203998286128044,0.11854505781643092
1761915502635311600,7.6923115234375,-0.16973346632719039,0.05934212354570627,0.10924027305021881
1761915502645365500,7.702365478515625,-0.16182722324728965,0.025291969905793667,0.08507087743356824
1761915502655420400,7.71242041015625,-0.06760287915170192,-0.0032099019572138783,0.08018252087011933
1761915502665474300,7.722474365234375,0.00906651903092861,-0.009760931035876273,0.08929485180415213
1761915502675528400,7.732528564453125,0.05270224713981151,0.013833002780377864,0.08646708103232086
1761915502685582300,7.742582275390625,0.05626958423256874,-0.004122340627014637,0.08082710238397121
1761915502695637500,7.752637451171875,0.0031722002953290937,-0.01691401766091585,0.061078080492839214
1761915502705691600,7.762691650390625,-0.004688450077176094,-0.03616875322908163,0.03677366031967103
1761915502715745500,7.77274560546875,-0.007235211950540542,-0.03065963441878557,0.03353197498470545
1761915502725799700,7.782799560546875,0.0410433735281229,-0.03453969072252512,0.06142557875625789
1761915502735854600,7.7928544921875,0.08937456597685814,-0.052721828623116015,0.051941857226565476
1761915502745908500,7.802908447265625,0.09433364968895912,-0.048101475346088406,0.041889761224389074
1761915502755962600,7.812962646484375,0.11205109268724918,-0.0477902174398303,0.03522058565877378
1761915502766016500,7.8230166015625,0.11183598863184452,-0.023414485596120357,0.025620325077325104
1761915502776071400,7.833071533203125,0.06437690284252166,-0.005268003530800342,0.06513173979781568
1761915502786125300,7.843125244140625,0.10509235959053038,-0.012174129657447337,0.07659947475157677
1761915502796179500,7.853179443359375,0.1027045876711607,0.026206454402208326,0.05861994675099849
1761915502806233300,7.8632333984375,0.06781856772899628,0.07174041734784842,0.05689867591634393
1761915502816288500,7.87328857421875,0.11002280173003673,0.04487491451501846,0.06817103442847729
1761915502826342700,7.8833427734375,0.11406652416288852,0.016759996142983437,0.0783744485348463
1761915502836396500,7.893396484375,0.09462064993679523,0.008075462166965008,0.09179689775295555
1761915502846450700,7.90345068359375,0.10556056162416934,-0.010403905114531516,0.08741364116743207
1761915502856504300,7.91350439453125,0.08157412135899067,-0.0013815174862742423,0.0796139272019267
1761915502866559500,7.9235595703125,0.06561316663920878,0.033385552251338955,0.06974573639929295
1761915502876613600,7.933613525390625,0.0861170254856348,0.07126549331247806,0.09664631054550409
1761915502886667500,7.94366748046875,0.057961190581321716,0.062333122055232525,0.07252111939676105
1761915502896721700,7.9537216796875,0.015495090773701667,0.05054039293080568,0.04127053334750235
1761915502906776300,7.9637763671875,0.056448447930812835,0.04654693938046694,0.03066759852953255
1761915502916830500,7.97383056640625,0.0923871917963028,0.004494388809800148,0.04663191425018012
1761915502926883600,7.983883544921875,0.11451894410550593,0.014364917699992655,0.040437005132809276
1761915502936937500,7.9939375,0.14189385776519775,0.0788496648311615,-0.00454253880046308
1761915502946992600,8.00399267578125,0.15131284349560736,0.10269523532092571,-0.01349982530325651
1761915502957046500,8.014046630859376,0.11110767435729503,0.04363251323848963,0.020485665602609514
1761915502967100700,8.0241005859375,0.08854162228405475,-0.03129296388626098,0.06143726919405162
1761915502977154600,8.034154541015624,0.09280570946931839,-0.03236994546800852,0.08920834256447852
1761915502987209500,8.04420947265625,0.034869068807363506,0.025638299125432966,0.07890928606390953
1761915502997263600,8.054263671875,-0.01406710379719734,0.06043313365280628,0.051934477637708185
1761915503007317500,8.0643173828125,-0.03538870876729488,0.0518947301492095,0.022929186297208068
1761915503017371600,8.07437158203125,-0.06012158348560333,0.05911328322589397,0.007682152000442147
1761915503027426600,8.084426513671875,-0.07692074259519577,0.0805380563095212,-0.015775661280751228
1761915503037480700,8.094480712890626,-0.028977672681212423,0.06253244401961565,-0.01191525952555239
1761915503047534600,8.10453466796875,0.06459960568249225,0.051155017697811125,-0.023578443986177443
1761915503057588500,8.11458837890625,0.12378829223215579,0.03347001566439867,-0.06888911956995725
1761915503067643600,8.1246435546875,0.18043313951790332,0.013687164568901062,-0.11068762231431901
1761915503077697500,8.134697509765624,0.1821504648298025,-0.008547463592886924,-0.12126396138630807
1761915503087751700,8.144751708984375,0.17379238632917404,-0.023790625432133672,-0.09389328551031649
1761915503097805600,8.1548056640625,0.1574631828188896,-0.035142040529847145,-0.05064136908724904
1761915503107860500,8.164860595703125,0.1351432144612074,-0.017782909449934957,-0.006000555589050054
1761915503117914400,8.174914306640625,0.13695289423167706,0.014184008175134658,0.02227218369320035
1761915503127968500,8.184968505859375,0.1164116259843111,0.03164630736857652,0.03680675887167453
1761915503138022700,8.195022705078125,0.10580606081783771,0.009048691113293171,0.04645093166008591
1761915503148077600,8.20507763671875,0.10438216549456118,-0.003534603866934776,0.07575067590251565
1761915503158131700,8.215131591796874,0.11192717404663562,0.003952537018060684,0.07926189889386295
1761915503168185600,8.225185546875,0.08482114045619964,0.014678805954754352,0.053011386154219506
1761915503178239500,8.235239501953124,0.05137772053778171,0.029707448260486123,0.04881166944205761
1761915503188294700,8.245294677734375,0.013501871129870413,0.028627251808345317,0.053337841629609466
1761915503198348500,8.2553486328125,0.03321837899088859,0.013756430412828922,0.03703055769018829
1761915503208402700,8.265402587890625,0.03728840490877628,0.02284428449273109,0.03872830151878297
1761915503218456600,8.27545654296875,0.04947860891819,0.029051614700257775,0.04170468698106706
1761915503228511500,8.285511474609375,0.06827332575917243,0.04000380134731531,0.050180327446758745
1761915503238565400,8.2955654296875,0.050642976522445676,0.05793780970573425,0.03217603033110499
1761915503248619500,8.30561962890625,0.04619593398571014,0.05181231256276369,0.02507408937141299
1761915503258673700,8.315673583984376,0.08178980993628501,0.03681961835324764,0.02083973973728716
1761915503268728600,8.325728515625,0.09905424847006797,0.043315702374279494,0.03861899592541158
1761915503278782700,8.33578271484375,0.12705343150794504,0.02305442011207342,0.08524996032752097
1761915503288836400,8.34583642578125,0.19403847102224825,0.05872165355980396,-0.0005445552054792642
1761915503298890500,8.355890380859375,0.19462357743382452,0.030961832235753533,-0.01991020380221307
1761915503308944400,8.3659443359375,0.25041034658551214,0.013225684536993503,0.022029680174216627
1761915503318999600,8.37599951171875,0.20738719741702077,0.06049947688728571,-0.016593261273950336
1761915503329053700,8.3860537109375,0.16974340319931505,0.025727146452665328,-0.05183057887181639
1761915503339107600,8.396107666015626,0.1706868215292692,0.023845570489764212,-0.016089038078859447
1761915503349161700,8.40616162109375,0.17100246334969996,0.04212853841632604,-0.00386610084362328
1761915503359216400,8.41621630859375,0.167921448469162,0.06296206760853529,-0.018801877234131098
1761915503369270500,8.4262705078125,0.15214169553518295,0.05756722282767295,-0.029835677750036118
1761915503379324400,8.436324462890624,0.11564356422126293,0.0646194794267416,-0.04962167065069079
1761915503389378600,8.446378662109375,0.11461422117352485,0.06324234585464,-0.06748604783900082
1761915503399433700,8.456433837890625,0.1413601892799139,0.03718582131713628,-0.07809080928787589
1761915503409487400,8.4664873046875,0.13120119883716105,0.06547755756080151,-0.06136683430634439
1761915503419541500,8.47654150390625,0.1106388878017664,0.11571195328235626,-0.06459960568249225
1761915503429595400,8.486595458984375,0.1311766489177942,0.1002203696399927,-0.07477415902055799
1761915503439650600,8.496650634765626,0.12948036639392374,0.00542407087534666,-0.050907180416584014
1761915503449704700,8.50670458984375,0.12442483657002448,-0.0779997700035572,0.0033572014734148978
1761915503459758600,8.516758544921874,0.1146820257127285,-0.04204845891743898,0.028314094205945727
1761915503469812700,8.526812744140624,0.08057809605896472,0.037168577921390535,0.02010360748246312
1761915503479867400,8.536867431640625,0.06490940228402614,0.06427285794615745,-0.009335545230656862
1761915503489921500,8.546921630859375,0.07835165218114852,0.029461949066817757,0.0019507687415927647
1761915503499975400,8.556975341796875,0.08417349020242691,-0.037379590323567385,0.04388341925963759
1761915503510029600,8.567029541015625,0.06984627416431903,-0.040561142969131464,0.04961823658458888
1761915503520084700,8.577084716796875,0.06516250026226043,-0.01180149695277214,0.05166282108947634
1761915503530138400,8.587138427734375,0.03211889331638813,-0.0017906828090548514,0.042299876395240424
1761915503540192500,8.597192626953126,-0.025070728370547295,-0.0006555412992835045,-0.009109700585529207
1761915503550246400,8.607246337890626,-0.0316015914440155,-0.011121405734121799,-0.021553660160303113
1761915503560301600,8.617301513671874,-0.022018939584493635,0.011967793430387973,0.0036154140181839465
1761915503570355700,8.627355712890624,-0.005685644420981407,-0.0010515548795461654,-0.03538096385225654
1761915503580409600,8.63740966796875,-0.07370294959247112,-0.020449206049740314,-0.01025412138029933
1761915503590463700,8.647463623046875,-0.0968219593733549,-0.04598492158353328,0.06238353706821799
1761915503600518400,8.657518310546875,-0.13520458925962447,-0.007369359724223613,0.08391498539671301
1761915503610572500,8.667572509765625,-0.12663432931303978,0.018460662581026552,0.0894222775761038
1761915503620626400,8.67762646484375,-0.09385784887075424,0.0039276948377490045,0.08771043215692043
1761915503630680600,8.6876806640625,-0.09472469483315944,-0.01336567752957344,0.09598368191830814
1761915503640735700,8.69773583984375,-0.06440963606834411,-0.031081951484084127,0.10384455148652195
1761915503650789400,8.707789306640626,0.00019230770170688627,-0.007694061633944511,0.08988178484663367
1761915503660843500,8.717843505859374,0.01752279720902443,0.036006256143748756,0.06822481044232845
1761915503670897400,8.7278974609375,-0.0266869313955307,0.055364744347333905,0.03235306739844382
1761915503680952600,8.73795263671875,-0.05159750076830387,0.05057312615662813,0.019947101746499538
1761915503691006700,8.7480068359375,-0.07631576243937015,0.056061786700785154,0.02521605512537062
1761915503701060600,8.758060546875,-0.07858195380568504,0.07619856580048799,0.01126008355244994
1761915503711114800,8.76811474609375,-0.018344634985923765,0.06716945617049933,-0.013344780872017145
1761915503721169400,8.77816943359375,0.08611819452941417,0.03264204040765762,-0.03023950931057334
1761915503731223600,8.7882236328125,0.16798399231135844,0.0068634560286998745,-0.03477291495651007
1761915503741277400,8.79827734375,0.22035013936460016,0.0012827332869172095,-0.03951316828615963
1761915503751331600,8.80833154296875,0.2213905883282423,-0.005183247856795787,-0.050585985638201235
1761915503761386800,8.81838671875,0.22780162441432475,-0.02024637695401907,-0.026865722028538583
1761915503771440400,8.8284404296875,0.24258476752638816,-0.030108722537755966,0.035476240920275445
1761915503781494500,8.83849462890625,0.24454233133494852,-0.012588263416290282,0.05697722104527056
1761915503791548400,8.84854833984375,0.23571488175690172,-0.003928279359638691,0.04314385293871164
1761915503801603600,8.858603515625,0.20889117223918438,-0.001361059220135212,0.03503594980686903
1761915503811657700,8.86865771484375,0.16019290004372597,0.021807927182316778,0.03860942437946796
1761915503821711600,8.878711669921875,0.10608663132488727,0.057336044420301914,0.05586144182309508
1761915503831765800,8.888765869140625,0.10653086796104907,0.04849602762162685,0.0759062317904085
1761915503841817600,8.898817626953125,0.10717968725860118,0.04721767824888229,0.078986735214293
1761915503851871500,8.90887158203125,0.10985738203525543,0.03815700443685054,0.08083134016767143
1761915503861926700,8.9189267578125,0.08199789972901343,0.06121463941931724,0.0679248045824468
1761915503871980500,8.92898046875,0.11680442469418048,0.05030015443414449,0.040342750978097315
1761915503882034400,8.939034423828126,0.17425298957824706,0.012685586310923098,0.016058423744887113
1761915503892088600,8.949088623046874,0.16484160263240336,-0.009353519278764724,0.01592851375490427
1761915503902143500,8.9591435546875,0.1427536894649267,0.02786620430797338,-0.009809373287484048
1761915503912197600,8.96919775390625,0.1126122337013483,0.05510989280343055,-0.03332432358339429
1761915503922251500,8.97925146484375,0.03554302254617214,-0.0001353168174624443,-0.008266016303002834
1761915503932306200,8.98930615234375,0.008543956461548805,-0.07067863333523274,0.04702390924245119
1761915503942361300,8.999361328125,0.02639583949446678,-0.048826867011189455,0.1065060988459736
1761915503952415200,9.009415283203126,0.04575988065600395,0.01232347500026226,0.14963226999752222
1761915503962469400,9.019469482421876,0.08049743203818797,0.026628771467506883,0.13874335784502326
1761915503972523300,9.029523193359376,0.10994213770925998,-0.010788228257000446,0.09722345284633338
1761915503982578200,9.039578125,0.15978782637417316,-0.038465047472715376,0.04479578486420214
1761915503992632000,9.049632080078124,0.17715864789187907,-0.04438771551996469,0.021900939228013158
1761915504002686200,9.059686279296875,0.09933364993333815,-0.022390695506334303,0.016348565797880292
1761915504012740400,9.069740234375,0.03439619059860706,-0.025898411366343497,0.03197217832207679
1761915504022795300,9.079795166015625,0.0545633648365736,-0.05338000027090311,0.02820142761170864
1761915504032849400,9.089849365234375,0.06846855607032776,-0.07411912917792797,0.00021349662020802497
1761915504042903300,9.0999033203125,0.07293079617619513,-0.059355275288224214,-0.016592019164934753
1761915504052957200,9.109957275390625,0.06546995877623557,-0.04436871855854988,-0.003675400577113032
1761915504063012400,9.120012451171876,0.037434535381197925,-0.038402795891463753,-0.005063713130354881
1761915504073066200,9.130066162109374,0.009620061260461806,-0.012505261307954787,0.008742693904042243
1761915504083120400,9.140120361328124,-0.010952186647057533,-0.0044081718310713764,0.045511824179068204
1761915504093174300,9.15017431640625,-0.05219079048633575,0.005783844098448753,0.07495119608789681
1761915504103229200,9.160229248046875,-0.0376058002948761,0.003914543095231056,0.08466266195885837
1761915504113283000,9.170282958984375,0.008294365614652632,-0.013395488145947456,0.07431940099038183
1761915504123337200,9.180337158203125,0.10493278511464595,-0.02692833893597126,0.06694733785241842
1761915504133391400,9.190391357421875,0.1896528032839298,-0.04240764761865139,0.04191175386048853
1761915504143446300,9.2004462890625,0.19851707774102686,-0.06415595356822014,0.04890687344484031
1761915504153500400,9.21050048828125,0.16303952164649962,-0.07724544450491666,0.04220730274096131
1761915504163554300,9.22055419921875,0.10887246265113353,-0.07971417270600795,0.02943213845044374
1761915504173608200,9.230608154296876,0.03385200071930885,-0.059117082618176935,0.03505860003009438
1761915504183663400,9.240663330078124,-0.03312953166365623,-0.011782792252302169,0.033097456024959684
1761915504193717200,9.25071728515625,-0.06331950274407863,0.032222353690862654,0.04448335791416466
1761915504203771400,9.260771484375,-0.06597615473270416,0.056775195667147636,0.04992671801187098
1761915504213825300,9.2708251953125,-0.06521043105721473,0.06023936464637518,0.04499488763287663
1761915504223880200,9.280880126953125,-0.036518005058169364,0.04637918159812689,0.015173603734374045
1761915504233934000,9.29093408203125,-0.006878069075942039,0.041189796261489386,0.009730682028084994
1761915504243988200,9.30098828125,-0.00042670097947120663,0.022838147012889384,-0.0019868629682809114
1761915504254042000,9.3110419921875,-0.05902151328921318,0.045318274368345735,0.011855565227568149
1761915504264097300,9.32109716796875,-0.04090367279648781,0.04645078552961349,0.020124358009546994
1761915504274151400,9.3311513671875,0.0012613982379436493,0.058065819999575614,0.024013547467812896
1761915504284205300,9.341205322265624,0.06326748029589653,0.08364303658753633,-0.0008751023340970277
1761915504294259200,9.35125927734375,0.1514817703217268,0.07489566650837659,-0.027964403985440728
1761915504304314400,9.361314453125,0.24121406369507312,0.03072890026271343,-0.03131429893523455
1761915504314368300,9.3713681640625,0.2856616927087307,0.002255377711355686,-0.022329101512208578
1761915504324422400,9.38142236328125,0.25608254700303074,-0.020412965692579745,-0.027250337431952355
1761915504334476300,9.391476318359375,0.2154647054105997,-0.02139905412048101,-0.04219904636926949
1761915504344531200,9.40153125,0.16131810468137264,-0.037845454269647597,-0.05696107362806797
1761915504354585000,9.411585205078126,0.1462058757454157,-0.04945961195677519,-0.06896861454695463
1761915504364639200,9.42163916015625,0.14246142852008342,-0.04357581461519003,-0.07106156823821365
1761915504374693000,9.431693115234374,0.11903729831278323,0.002565466573834419,-0.05698007058948278
1761915504384748300,9.441748291015625,0.10603928505182265,0.059550213338434695,-0.0487468605775386
1761915504394802400,9.451802490234375,0.1225070202499628,0.05658785640150308,-0.043713907911628484
1761915504404856300,9.461856201171875,0.12674831108152865,-0.02533843939602375,-0.0253030027564615
1761915504414910200,9.47191015625,0.08010171071887016,-0.08081278159767388,0.015507146537676453
1761915504424966400,9.48196630859375,0.023719898283481596,-0.036031390585005284,0.056976709588617086
1761915504435021000,9.49202099609375,0.02930851207077503,0.019839549718797207,0.0519609272532165
1761915504445075200,9.5020751953125,0.05545125358700752,0.0577484246134758,0.018732757520675658
1761915504455129000,9.512129150390624,0.05043605577349662,0.06415098513215779,0.0030515695903450247
1761915504465183200,9.522183349609374,0.05634557207822799,0.028224223965406418,0.0066218292925506825
1761915504475238400,9.53223828125,0.06872983735501766,-0.031229251000285146,0.010499109117314219
1761915504485292300,9.542292236328125,0.09573357961475848,-0.06101619423776865,-0.003345657166093588
1761915504495346400,9.552346435546875,0.09376257180273533,-0.0704866178944707,-0.015988427248597146
1761915504505400000,9.562400146484375,0.07947101159989833,-0.057741118089854715,-0.03694945527799427
1761915504515455200,9.572455322265625,0.042813890331983566,-0.03361906874626875,-0.025354732943698763
1761915504525509400,9.58250927734375,0.04952478614747524,-0.008120762613415718,-0.024194895384088158
1761915504535563300,9.592563232421876,0.024486791002750394,0.00800911893248558,-0.013030088899657129
1761915504545617400,9.602617431640626,-0.030729484784603116,0.0132911509886384,0.014772767848521471
1761915504555672000,9.612672119140624,-0.020759879434108734,0.012446516858041285,0.05837890453673899
1761915504565726200,9.622726318359375,-0.003977671459317207,0.022419337078928948,0.075099591582641
1761915504575780000,9.632780029296875,0.006209376034140586,0.04351297851204872,0.09064085958562791
1761915504585834200,9.642834228515625,0.024432430467009544,0.02384294014126062,0.09032097998149692
1761915504595889400,9.652889404296875,0.09263444455564021,-0.005407119740545749,0.09439129816032946
1761915504605943300,9.662943359375,0.13971125302910803,-0.0031660628154873845,0.08456606971658766
1761915504615997400,9.67299755859375,0.1590764632344246,0.009039923284947871,0.06536218755282461
1761915504626051000,9.683051025390625,0.15368015714883804,0.010878536888957024,0.03511442187055945
1761915504636106200,9.693106201171876,0.12858487885892392,-0.0070996028721332545,0.020319953646883368
1761915504646160400,9.703160400390624,0.12414192797541618,-0.0501166145607829,0.019457564663887022
1761915504656214300,9.71321435546875,0.1267114862024784,-0.04357786044180393,0.024599603727459906
1761915504666268400,9.723268310546874,0.12155366504788398,-0.007351531806588173,0.028228680944815277
1761915504676323000,9.733322998046875,0.1193482639580965,0.0010717208847403526,0.027256401846557855
1761915504686377200,9.743377197265625,0.07472177124619483,-0.004072656266391277,0.03297141849249601
1761915504696431000,9.75343115234375,0.03802607153356075,0.003760521577298641,0.03371361516192555
1761915504706485200,9.7634853515625,0.03591419394612312,0.03594254325777292,0.05230564903765916
1761915504716540400,9.77354052734375,0.08225508936047554,0.018380583082139492,0.04855725628957152
1761915504726594300,9.78359423828125,0.12072598205208777,-0.010789689561724661,0.028258053169772028
1761915504736648400,9.7936484375,0.0955588075697422,-0.01439911223053932,0.0037905513893812894
1761915504746702000,9.8037021484375,0.07100187394022942,-0.018218962779641152,0.00915164003111422
1761915504756757200,9.81375732421875,0.09514788868129252,-0.02308189264088869,0.02753390361368656
1761915504766811400,9.823811279296875,0.11397066257297991,-0.016745090834796427,0.0315313757520169
1761915504776865300,9.833865234375,0.11667699892222881,-0.013475859905779361,0.033951661701500414
1761915504786919400,9.84391943359375,0.08765782518684863,0.002806289592385292,0.010981339676305652
1761915504796974000,9.85397412109375,0.09213234025239944,0.015022504825890064,0.005797580362856387
1761915504807028200,9.8640283203125,0.10872574765682219,0.01968172880858183,-0.005292188123986125
1761915504817082000,9.87408203125,0.13072130636572837,0.014520400522649288,-0.005349032877758145
1761915504827136300,9.88413623046875,0.14617548060715196,-0.016030220563709736,-0.02732793271280825
1761915504837191400,9.89419140625,0.13455810804963111,-0.04990735572427511,-0.05409662410765886
1761915504847245300,9.904245361328124,0.11280629496872424,-0.06997574576288461,-0.062091787580028174
1761915504857299200,9.91429931640625,0.05727496188282966,-0.02647474994957447,-0.029671792425215244
1761915504867354000,9.92435400390625,-0.010530161842703818,0.06309796894788741,0.01400477915070951
1761915504877408300,9.934408203125,-0.045673371416330336,0.09880524214506149,0.01633249144591391
1761915504887462400,9.94446240234375,0.0110842885941267,0.027443887242674825,-0.005664090176299214
1761915504897516300,9.954516357421875,0.023041268369555473,-0.035136195310950274,0.028185280194506047
1761915504907571200,9.9645712890625,0.020104045873880386,-0.029061843833327293,0.06319894510433077
1761915504917625000,9.974625,-0.03397533483803272,0.04187953209131956,0.08680661518499255
1761915504927679200,9.98467919921875,-0.047396541947126385,0.07500497210174799,0.08393705109804868
1761915504937733000,9.994733154296876,-0.021025252372026442,0.03699818979054689,0.06633475891202688
1761915504947788300,10.004788330078124,-0.053882981356978416,-0.005345160420238971,0.06613514468669891
1761915504957842400,10.014842529296875,-0.08353986847400664,0.005716331820189952,0.05718669907748699
1761915504967896300,10.024896240234375,-0.021772855868935584,0.022459961350262164,0.028239348469302056
1761915504977950200,10.0349501953125,0.07199614567458629,0.027181729175150392,-0.012597104309871793
1761915504988005000,10.045005126953125,0.15246785874962807,0.011700959187746046,-0.049860593973100185
1761915504998059300,10.055059326171875,0.193287360394001,-0.032011341288685796,-0.07941226714998484
1761915505008113200,10.065113037109375,0.19298107092380523,-0.04190028261840343,-0.08609320621863006
1761915505018167300,10.075167236328125,0.18929390684366226,-0.05591887109875679,-0.08304653199911118
1761915505028222200,10.08522216796875,0.16996084534227848,-0.0411520945996046,-0.05159808529019355
1761915505038276000,10.095276123046874,0.12678688952624798,-0.019045768992602824,0.0035560850463807582
1761915505048330200,10.105330322265624,0.12441197708845138,0.0033832126975059506,0.03478226730674505
1761915505058384100,10.115384033203124,0.17239304092526433,0.023853753796219825,0.054507323800399896
1761915505068439300,10.125439208984375,0.21653964116573332,-0.003019347821176052,0.06257657542228698
1761915505078493400,10.135493408203125,0.18690905753374099,-0.007504676541686057,0.05323284688517451
1761915505088547300,10.14554736328125,0.14563538238108156,0.007762450695037841,0.05071289995349943
1761915505098601200,10.155601318359375,0.09630933367609977,0.02084375832527876,0.05869410796575248
1761915505108656000,10.16565625,0.017741992917656896,0.05913052662163973,0.04372494076229631
1761915505118710300,10.175710205078126,-0.05810030679106712,0.08958324029147624,-0.01276909987591207
1761915505128764200,10.18576416015625,-0.10876607966721057,0.11368337006419896,-0.02323269928842783
1761915505138819300,10.1958193359375,-0.10975918235778807,0.10018003762960434,0.010666793834418058
1761915505148873200,10.205873291015624,-0.06091185708045959,0.0654997693926096,0.01385126908943057
1761915505158927000,10.215927001953125,-0.029458149674534796,0.06080342826992273,-0.00479556371346116
1761915505168981200,10.225981201171875,0.049286301216483114,0.04006809875518083,-0.019397212778776884
1761915505179035100,10.23603515625,0.09033259735405444,0.020897534339129924,-0.016240575378760693
1761915505189090300,10.24609033203125,0.08116846316754818,-0.0039823476344347,-0.019529680052027105
1761915505199144400,10.25614453125,0.039823476344347,-0.017626549844443798,-0.02363660391420126
1761915505209198300,10.2661982421875,0.02352934414744377,-0.02012742674946785,-0.00472454430386424
1761915505219253200,10.276253173828126,0.008073416340351105,-0.0006783376529812812,0.009227847072482108
1761915505229307100,10.28630712890625,-0.012405308064818382,0.03879413329660892,0.044244288461282845
1761915505239361300,10.296361328125,0.015762801799178123,0.04095891011506319,0.06244827286750078
1761915505249415200,10.306415283203124,0.03782558052539825,0.03498480414152145,0.0625915537957102
1761915505259470300,10.31647021484375,0.08707505686283111,0.011267828467488288,0.05215389254204929
1761915505269524200,10.326524169921875,0.12815583979189396,-0.012253916895389556,0.03815846574157476
1761915505279578000,10.336578125,0.12260521992743015,-0.022617197738587856,0.053581075800955294
1761915505289632300,10.34663232421875,0.11994389176368712,-0.03331950127780437,0.06575213671848178
1761915505299687200,10.356687255859375,0.10191372955441474,-0.03637567397803068,0.0524841474097222
1761915505309741300,10.3667412109375,0.09501520221233367,-0.00841039320975542,0.035168124819174404
1761915505319795500,10.37679541015625,0.0943254663825035,0.01945551883727312,0.01982588651962578
1761915505329849300,10.386849365234376,0.06687631844282149,0.02372983515560627,0.01627929995395243
1761915505339904300,10.396904296875,0.039137832167744635,-0.007337503281235695,0.022555311483517287
1761915505349958100,10.406958251953125,0.05186462727189064,0.02200403427630663,0.03266987826265395
1761915505360012300,10.41701220703125,0.09803893394768237,0.08493716805130243,-0.0043305034849792715
1761915505370066200,10.427066162109375,0.12071370709240437,0.0953629927366972,-0.008319134729728101
1761915505380121300,10.437121337890625,0.12685937024056912,0.030330548594892023,0.017953735972195864
1761915505390175200,10.44717529296875,0.11562836665213107,-0.01388327166289091,0.05033244926854968
1761915505400229000,10.45722900390625,0.08741758669018745,0.011945873859524727,0.10706066398881375
1761915505410284300,10.4672841796875,0.09097031073570251,0.055802258981764316,0.0972256448034197
1761915505420338200,10.477338134765626,0.0739262369543314,0.05981529401540756,0.04851502458304167
1761915505430392300,10.487392333984374,0.09048457304537295,0.042621582630276676,0.031670491961762304
1761915505440446500,10.497446533203124,0.15333412019014359,-0.0037529227927327155,0.016700594105944037
1761915505450501000,10.507501220703125,0.16060440345406532,-0.004715045823156834,0.01196034077629447
1761915505460555300,10.51755517578125,0.1320966863721609,0.0014838088169693946,-0.004643514956906437
1761915505470609200,10.527609130859375,0.13577683618962763,0.0016615034714341163,-0.020510361652448773
1761915505480663300,10.537663330078125,0.08710662104487418,0.01736497629880905,-0.008421060734242201
1761915505490718500,10.547718505859375,0.02484218031167984,0.0029892449438571928,0.004389028739184141
1761915505500772400,10.5577724609375,0.041055648487806316,-0.017561375653743744,-0.003020005408301949
1761915505510826200,10.567826171875,0.045474633973836893,-0.014177578434348106,-0.03384403660856187
1761915505520880000,10.577880126953126,-0.004855623337626457,-0.006190086811780929,-0.04980163032747805
1761915505530935300,10.587935302734374,-0.06015314766764641,0.027139351338148116,-0.00439779656752944
1761915505540989200,10.5979892578125,-0.05761106196939945,0.0708344084188342,0.0424320514075458
1761915505551043300,10.608043212890625,-0.0224953249245882,0.06442512589842081,0.07179258592650294
1761915505561097200,10.61809716796875,-0.044411388656497,0.02130553061813116,0.0848640297498554
1761915505571152100,10.628152099609375,0.014065934753417967,-0.017962649931013583,0.0495326041277498
1761915505581206300,10.638206298828125,0.10952420455813407,-0.010251344901323317,-0.009978007852658628
1761915505591260200,10.64826025390625,0.16048399194478988,0.015227379748225212,-0.021039865419268607
1761915505601315300,10.6583154296875,0.11579729347825049,0.08867664684057235,0.04368979638367891
1761915505611369500,10.668369384765626,0.08506956225931644,0.10177461334466933,0.057532882166653865
1761915505621423400,10.67842333984375,0.05583002377152443,0.0987459131732583,0.10616934117227791
1761915505631477200,10.688477294921874,0.011133388432860374,0.1123597202450037,0.12598404871076344
1761915505641532200,10.6985322265625,-0.06563537847101689,0.14565028768926858,0.10043203962929546
1761915505651586300,10.70858642578125,-0.0005085340440273285,0.097181732596457,0.019431407309323547
1761915505661640200,10.71864013671875,0.04143500319421291,0.07104308273345232,0.03931903395354747
1761915505671694300,10.7286943359375,0.06464695195555686,0.0252469617202878,0.055769818016886706
1761915505681749200,10.738749267578125,0.0682791709780693,-0.02310147412419319,-0.04636814874745905
1761915505691803100,10.74880322265625,0.2531131758034229,-0.11169804146587849,-0.13948380094878374
1761915505701857300,10.758857177734376,0.28121465017199515,-0.1821525106564164,-0.141487761182338
1761915505711911200,10.7689111328125,0.3210352039068937,-0.2089157221585512,-0.1959520495586097
1761915505721966300,10.77896630859375,0.5745715735584497,-0.1683908195465803,-0.35219358162805436
1761915505732020500,10.7890205078125,0.820869224128127,-0.12166530872881412,-0.41123189992159603
1761915505742074400,10.799074462890625,1.0115519549816847,-0.0007478957578539848,-0.2648441648032516
1761915505752128300,10.809128173828125,-0.02669336113631725,0.27235826676040886,0.01586545845605433
1761915505762183200,10.81918310546875,-0.5849485906660556,0.06941431248784065,0.24526297375969588
1761915505772237300,10.8292373046875,-0.29139117627143857,-0.17570085029900073,0.3280774505686015
1761915505782291200,10.839291259765625,-0.07398118201196194,0.16838234397917984,0.30385237924195824
