time,seconds_elapsed,z,y,x
1761915494972725800,0.029725830078125,-0.948333740234375,-0.3094940185546875,0.05926513671875
1761915494982779600,0.039779541015625,-0.948974609375,-0.31005859375,0.053619384765625
1761915494992834800,0.049834716796875,-0.9616546630859375,-0.302032470703125,0.05377197265625
1761915495002888700,0.059888671875,-0.976898193359375,-0.29473876953125,0.0609893798828125
1761915495012942800,0.06994287109375,-0.97808837890625,-0.2930755615234375,0.0667724609375
1761915495022996700,0.079996826171875,-0.9737701416015625,-0.2943878173828125,0.066070556640625
1761915495033051600,0.0900517578125,-0.964691162109375,-0.2967529296875,0.057403564453125
1761915495043105800,0.100105712890625,-0.9546661376953125,-0.2998504638671875,0.048309326171875
1761915495053159700,0.11015966796875,-0.9412384033203125,-0.303436279296875,0.0476531982421875
1761915495063213800,0.1202138671875,-0.9380035400390625,-0.2985992431640625,0.05181884765625
1761915495073267700,0.130267822265625,-0.9565582275390625,-0.2874755859375,0.06109619140625
1761915495083323000,0.140322998046875,-0.9691314697265625,-0.2789459228515625,0.068817138671875
1761915495093376800,0.150376708984375,-0.9660491943359375,-0.277374267578125,0.071136474609375
1761915495103430700,0.1604306640625,-0.96319580078125,-0.281585693359375,0.0688934326171875
1761915495113484800,0.17048486328125,-0.956634521484375,-0.2855377197265625,0.065826416015625
1761915495123539700,0.180539794921875,-0.954498291015625,-0.2879638671875,0.0621795654296875
1761915495133593900,0.19059375,-0.953399658203125,-0.287261962890625,0.0625152587890625
1761915495143647700,0.200647705078125,-0.9583740234375,-0.2799072265625,0.067230224609375
1761915495153702000,0.210701904296875,-0.9669189453125,-0.2687225341796875,0.0720977783203125
1761915495163756800,0.2207568359375,-0.969024658203125,-0.26263427734375,0.0755615234375
1761915495173810700,0.230810791015625,-0.967559814453125,-0.2611846923828125,0.0744476318359375
1761915495183864800,0.24086474609375,-0.9667510986328125,-0.267791748046875,0.068267822265625
1761915495193918700,0.250918701171875,-0.9626312255859375,-0.2733917236328125,0.0633544921875
1761915495203972900,0.260972900390625,-0.9562225341796875,-0.275421142578125,0.0602569580078125
1761915495214027800,0.27102783203125,-0.9511566162109375,-0.2745819091796875,0.055145263671875
1761915495224081700,0.28108154296875,-0.9482574462890625,-0.269805908203125,0.05279541015625
1761915495234135800,0.2911357421875,-0.9589996337890625,-0.2652740478515625,0.0569915771484375
1761915495244189700,0.301189697265625,-0.9627685546875,-0.2643890380859375,0.0638580322265625
1761915495254244900,0.311244873046875,-0.9480133056640625,-0.26824951171875,0.0670013427734375
1761915495264298800,0.321298828125,-0.936248779296875,-0.2770538330078125,0.0646514892578125
1761915495274353000,0.331352783203125,-0.93450927734375,-0.2819976806640625,0.0620269775390625
1761915495284406800,0.34140673828125,-0.933837890625,-0.282379150390625,0.0604248046875
1761915495294461700,0.351461669921875,-0.9332733154296875,-0.2812347412109375,0.0589141845703125
1761915495304515800,0.361515869140625,-0.9395294189453125,-0.274322509765625,0.064910888671875
1761915495314569700,0.37156982421875,-0.94195556640625,-0.2713623046875,0.0731201171875
1761915495324624000,0.381623779296875,-0.9448089599609375,-0.2718353271484375,0.07177734375
1761915495334677800,0.391677734375,-0.949188232421875,-0.276031494140625,0.0712738037109375
1761915495344732700,0.401732666015625,-0.9478607177734375,-0.2824249267578125,0.0680389404296875
1761915495354786800,0.411786865234375,-0.947418212890625,-0.281707763671875,0.0652618408203125
1761915495364840700,0.4218408203125,-0.9495391845703125,-0.2778167724609375,0.06103515625
1761915495374894800,0.431894775390625,-0.9456787109375,-0.2779998779296875,0.0614471435546875
1761915495384949800,0.44194970703125,-0.9393310546875,-0.288543701171875,0.065460205078125
1761915495395004000,0.45200390625,-0.937225341796875,-0.3002777099609375,0.07177734375
1761915495405057800,0.462057861328125,-0.9426422119140625,-0.3031463623046875,0.0705413818359375
1761915495415111700,0.472111572265625,-0.9355316162109375,-0.3004150390625,0.0583648681640625
1761915495425165600,0.48216552734375,-0.931671142578125,-0.2884368896484375,0.0451202392578125
1761915495435220700,0.492220703125,-0.9480743408203125,-0.278533935546875,0.050537109375
1761915495445275000,0.50227490234375,-0.9682464599609375,-0.2828826904296875,0.0649566650390625
1761915495455328800,0.512328857421875,-0.9779510498046875,-0.29052734375,0.080078125
1761915495465383000,0.5223828125,-0.973846435546875,-0.29840087890625,0.087005615234375
1761915495475437800,0.532437744140625,-0.9653472900390625,-0.3058013916015625,0.08880615234375
1761915495485491700,0.54249169921875,-0.9557342529296875,-0.3145294189453125,0.08544921875
1761915495495545900,0.5525458984375,-0.953125,-0.32098388671875,0.0796356201171875
1761915495505599700,0.562599853515625,-0.9489593505859375,-0.319091796875,0.073394775390625
1761915495515655000,0.572655029296875,-0.93658447265625,-0.3102569580078125,0.064666748046875
1761915495525708800,0.582708740234375,-0.92706298828125,-0.29852294921875,0.055938720703125
1761915495535762700,0.5927626953125,-0.9176177978515625,-0.2958221435546875,0.048980712890625
1761915495545816600,0.602816650390625,-0.8958282470703125,-0.302398681640625,0.0408477783203125
1761915495555870700,0.61287060546875,-0.86822509765625,-0.31005859375,0.0366973876953125
1761915495565926000,0.62292578125,-0.874359130859375,-0.30682373046875,0.0386962890625
1761915495575979800,0.632979736328125,-0.89239501953125,-0.300018310546875,0.03717041015625
1761915495586034000,0.643033935546875,-0.8766021728515625,-0.2777557373046875,0.025634765625
1761915495596087800,0.653087890625,-0.872955322265625,-0.270294189453125,0.0351715087890625
1761915495606142700,0.663142822265625,-0.9000091552734375,-0.2985992431640625,0.0627899169921875
1761915495616196900,0.67319677734375,-0.924346923828125,-0.32861328125,0.081573486328125
1761915495626250800,0.683250732421875,-0.9300994873046875,-0.3465728759765625,0.098846435546875
1761915495636305000,0.693304931640625,-0.911834716796875,-0.3419647216796875,0.1091461181640625
1761915495646359800,0.70335986328125,-0.8916778564453125,-0.3300933837890625,0.0916595458984375
1761915495656413700,0.71341357421875,-0.8595123291015625,-0.321258544921875,0.07275390625
1761915495666467600,0.723467529296875,-0.846221923828125,-0.3253173828125,0.0715789794921875
1761915495676521700,0.733521728515625,-0.8600006103515625,-0.3389892578125,0.08502197265625
1761915495686575600,0.74357568359375,-0.8739471435546875,-0.367584228515625,0.1070098876953125
1761915495696630800,0.753630859375,-0.8971710205078125,-0.379058837890625,0.1376495361328125
1761915495706685000,0.763684814453125,-0.9057464599609375,-0.3635406494140625,0.1861419677734375
1761915495716738800,0.77373876953125,-0.8951263427734375,-0.369415283203125,0.2465972900390625
1761915495726792700,0.783792724609375,-0.89471435546875,-0.3876953125,0.2907562255859375
1761915495736848000,0.793847900390625,-0.9154510498046875,-0.4232940673828125,0.30908203125
1761915495746901800,0.80390185546875,-0.9283447265625,-0.44989013671875,0.34124755859375
1761915495756956000,0.813955810546875,-0.995849609375,-0.4390411376953125,0.3697967529296875
1761915495767009800,0.824009765625,-1.007415771484375,-0.4078216552734375,0.3594207763671875
1761915495777064700,0.834064697265625,-0.9816131591796875,-0.3534393310546875,0.299041748046875
1761915495787118600,0.84411865234375,-0.965728759765625,-0.3587646484375,0.260345458984375
1761915495797172700,0.8541728515625,-0.980316162109375,-0.376953125,0.2363128662109375
1761915495807226600,0.8642265625,-0.9918670654296875,-0.34332275390625,0.2050933837890625
1761915495817280800,0.87428076171875,-0.9870452880859375,-0.3034820556640625,0.1893463134765625
1761915495827336000,0.8843359375,-1.00335693359375,-0.286956787109375,0.18572998046875
1761915495837389800,0.894389892578125,-1.0104217529296875,-0.2812347412109375,0.1834869384765625
1761915495847443700,0.904443603515625,-0.996002197265625,-0.27911376953125,0.17584228515625
1761915495857497600,0.91449755859375,-0.9849853515625,-0.2733612060546875,0.174163818359375
1761915495867552800,0.924552734375,-0.990997314453125,-0.2624969482421875,0.1707000732421875
1761915495877607000,0.93460693359375,-0.99908447265625,-0.250457763671875,0.160919189453125
1761915495887660800,0.944660888671875,-0.9827880859375,-0.2448272705078125,0.14739990234375
1761915495897715000,0.95471484375,-0.9610443115234375,-0.2468719482421875,0.1330413818359375
1761915495907769600,0.96476953125,-0.9494171142578125,-0.2465972900390625,0.1224517822265625
1761915495917827300,0.974827392578125,-0.948944091796875,-0.2447662353515625,0.112823486328125
1761915495927881200,0.984881103515625,-0.9604644775390625,-0.24365234375,0.1016082763671875
1761915495937935400,0.994935302734375,-0.9668121337890625,-0.23779296875,0.094024658203125
1761915495947990500,1.004990478515625,-0.984344482421875,-0.238128662109375,0.08245849609375
1761915495958044400,1.01504443359375,-0.9657135009765625,-0.242889404296875,0.080352783203125
1761915495968098300,1.025098388671875,-0.943389892578125,-0.248443603515625,0.0743560791015625
1761915495978152200,1.035152099609375,-0.942626953125,-0.2502288818359375,0.0799102783203125
1761915495988206300,1.045206298828125,-0.96148681640625,-0.25152587890625,0.0886077880859375
1761915495998261200,1.05526123046875,-0.975830078125,-0.2625732421875,0.090545654296875
1761915496008315400,1.0653154296875,-0.955718994140625,-0.2702178955078125,0.082672119140625
1761915496018369300,1.075369384765625,-0.9251251220703125,-0.2699737548828125,0.0639801025390625
1761915496028423400,1.08542333984375,-0.9100494384765625,-0.273895263671875,0.0439300537109375
1761915496038478300,1.095478271484375,-0.9010009765625,-0.2812652587890625,0.0337371826171875
1761915496048532200,1.1055322265625,-0.9067535400390625,-0.2889556884765625,0.032440185546875
1761915496058586400,1.11558642578125,-0.9141387939453125,-0.295928955078125,0.0377349853515625
1761915496068640300,1.12564013671875,-0.9214019775390625,-0.3061676025390625,0.0477447509765625
1761915496078695400,1.1356953125,-0.9342498779296875,-0.3104705810546875,0.054901123046875
1761915496088749300,1.145749267578125,-0.933990478515625,-0.310333251953125,0.0531005859375
1761915496098803200,1.15580322265625,-0.9198150634765625,-0.3131561279296875,0.0443572998046875
1761915496108857300,1.165857421875,-0.9091644287109375,-0.316741943359375,0.035614013671875
1761915496118911200,1.1759111328125,-0.908294677734375,-0.31927490234375,0.0335540771484375
1761915496128966400,1.18596630859375,-0.924102783203125,-0.3224334716796875,0.042449951171875
1761915496139020300,1.196020263671875,-0.93536376953125,-0.3243408203125,0.0487213134765625
1761915496149074400,1.206074462890625,-0.9421234130859375,-0.3213043212890625,0.0532379150390625
1761915496159128000,1.216128173828125,-0.946380615234375,-0.3199005126953125,0.0562286376953125
1761915496169183200,1.226183349609375,-0.9468536376953125,-0.317840576171875,0.0586700439453125
1761915496179237400,1.2362373046875,-0.93939208984375,-0.314788818359375,0.05682373046875
1761915496189291300,1.246291259765625,-0.9276275634765625,-0.313690185546875,0.048492431640625
1761915496199345400,1.256345458984375,-0.9193267822265625,-0.3163909912109375,0.03814697265625
1761915496209399300,1.2663994140625,-0.9133453369140625,-0.3270721435546875,0.0339508056640625
1761915496219454200,1.2764541015625,-0.911346435546875,-0.3356170654296875,0.03564453125
1761915496229508400,1.28650830078125,-0.920654296875,-0.336395263671875,0.0473480224609375
1761915496239562200,1.296562255859375,-0.9361724853515625,-0.330078125,0.055877685546875
1761915496249616400,1.306616455078125,-0.940826416015625,-0.3217315673828125,0.054779052734375
1761915496259671300,1.31667138671875,-0.9356231689453125,-0.3202972412109375,0.05084228515625
1761915496269725400,1.326725341796875,-0.9300079345703125,-0.32489013671875,0.0471343994140625
1761915496279779000,1.336779052734375,-0.9272613525390625,-0.330474853515625,0.0450592041015625
1761915496289833200,1.346833251953125,-0.923736572265625,-0.3276519775390625,0.04473876953125
1761915496299888400,1.356888427734375,-0.9366302490234375,-0.318206787109375,0.053497314453125
1761915496309942300,1.3669423828125,-0.9622650146484375,-0.313995361328125,0.0675811767578125
1761915496319996400,1.376996337890625,-0.962982177734375,-0.318267822265625,0.0729522705078125
1761915496330050300,1.38705029296875,-0.94793701171875,-0.32257080078125,0.06707763671875
1761915496340105200,1.397105224609375,-0.9438629150390625,-0.3183746337890625,0.059722900390625
1761915496350159400,1.407159423828125,-0.944915771484375,-0.310455322265625,0.055877685546875
1761915496360213200,1.417213134765625,-0.945648193359375,-0.3069915771484375,0.056793212890625
1761915496370267400,1.427267333984375,-0.9413909912109375,-0.310302734375,0.0583953857421875
1761915496380321300,1.4373212890625,-0.9413909912109375,-0.3116455078125,0.061676025390625
1761915496390376400,1.44737646484375,-0.9452056884765625,-0.3092803955078125,0.062255859375
1761915496400430000,1.45743017578125,-0.950347900390625,-0.30572509765625,0.063934326171875
1761915496410484200,1.467484130859375,-0.946197509765625,-0.3040008544921875,0.06500244140625
1761915496420538000,1.4775380859375,-0.9384613037109375,-0.304656982421875,0.0625
1761915496430593300,1.48759326171875,-0.9341583251953125,-0.305633544921875,0.0592498779296875
1761915496440647400,1.4976474609375,-0.9318389892578125,-0.3095703125,0.0548553466796875
1761915496450701300,1.507701416015625,-0.927093505859375,-0.312103271484375,0.0535888671875
1761915496460755500,1.51775537109375,-0.92572021484375,-0.3092803955078125,0.05523681640625
1761915496470810400,1.527810302734375,-0.9387664794921875,-0.3038787841796875,0.0626678466796875
1761915496480864300,1.5378642578125,-0.947601318359375,-0.3019256591796875,0.0709381103515625
1761915496490918400,1.54791845703125,-0.9466552734375,-0.3031158447265625,0.0706939697265625
1761915496500972300,1.55797216796875,-0.9432830810546875,-0.302703857421875,0.069854736328125
1761915496511026400,1.5680263671875,-0.948394775390625,-0.3034820556640625,0.0707855224609375
1761915496521081000,1.5780810546875,-0.9482269287109375,-0.3058319091796875,0.0666961669921875
1761915496531135200,1.58813525390625,-0.9451141357421875,-0.3061676025390625,0.0635833740234375
1761915496541189000,1.598189208984375,-0.93792724609375,-0.3077850341796875,0.0626983642578125
1761915496551243300,1.6082431640625,-0.9310760498046875,-0.3123779296875,0.0601959228515625
1761915496561298400,1.61829833984375,-0.9356536865234375,-0.3125,0.0589141845703125
1761915496571352300,1.628352294921875,-0.9394378662109375,-0.3108673095703125,0.0582733154296875
1761915496581406500,1.638406494140625,-0.9391937255859375,-0.3100738525390625,0.0595245361328125
1761915496591460400,1.64846044921875,-0.9423675537109375,-0.3121337890625,0.0592193603515625
1761915496601515300,1.658515380859375,-0.9387054443359375,-0.317413330078125,0.055755615234375
1761915496611569400,1.6685693359375,-0.93255615234375,-0.32086181640625,0.0549468994140625
1761915496621623300,1.678623291015625,-0.92962646484375,-0.3220672607421875,0.05340576171875
1761915496631677400,1.688677490234375,-0.9247894287109375,-0.317291259765625,0.052947998046875
1761915496641731300,1.6987314453125,-0.9297332763671875,-0.3075103759765625,0.057891845703125
1761915496651786200,1.7087861328125,-0.93609619140625,-0.3081817626953125,0.0611114501953125
1761915496661840100,1.718840087890625,-0.9322662353515625,-0.308502197265625,0.065826416015625
1761915496671894300,1.728894287109375,-0.9320068359375,-0.30731201171875,0.0678558349609375
1761915496681948400,1.738948486328125,-0.93408203125,-0.3078765869140625,0.0699005126953125
1761915496692003300,1.74900341796875,-0.9290618896484375,-0.3090667724609375,0.0684051513671875
1761915496702057500,1.759057373046875,-0.9303436279296875,-0.3104400634765625,0.067779541015625
1761915496712111400,1.769111328125,-0.9404449462890625,-0.3059844970703125,0.0721588134765625
1761915496722165200,1.779165283203125,-0.95147705078125,-0.29925537109375,0.0804595947265625
1761915496732220400,1.789220458984375,-0.9530487060546875,-0.2985076904296875,0.0822601318359375
1761915496742274300,1.7992744140625,-0.9438934326171875,-0.301116943359375,0.0749053955078125
1761915496752328400,1.809328369140625,-0.9307098388671875,-0.303924560546875,0.0673675537109375
1761915496762382300,1.81938232421875,-0.931976318359375,-0.3010101318359375,0.062286376953125
1761915496772436500,1.8294365234375,-0.9342193603515625,-0.299896240234375,0.0617828369140625
1761915496782491100,1.8394912109375,-0.93701171875,-0.299530029296875,0.0625152587890625
1761915496792545300,1.849545166015625,-0.938629150390625,-0.30181884765625,0.06793212890625
1761915496802599200,1.85959912109375,-0.9328460693359375,-0.3059539794921875,0.0717315673828125
1761915496812653300,1.8696533203125,-0.9283294677734375,-0.306243896484375,0.0734405517578125
1761915496822708500,1.87970849609375,-0.9257659912109375,-0.302398681640625,0.07232666015625
1761915496832762400,1.889762451171875,-0.9229736328125,-0.29986572265625,0.0688934326171875
1761915496842816300,1.899816162109375,-0.923095703125,-0.3007354736328125,0.065765380859375
1761915496852870100,1.9098701171875,-0.9297332763671875,-0.3019256591796875,0.0647430419921875
1761915496862925300,1.91992529296875,-0.9357757568359375,-0.3013458251953125,0.0680084228515625
1761915496872979500,1.9299794921875,-0.93719482421875,-0.30413818359375,0.0670318603515625
1761915496883033300,1.940033447265625,-0.935089111328125,-0.3067779541015625,0.06591796875
1761915496893087500,1.95008740234375,-0.9368743896484375,-0.3065948486328125,0.0648345947265625
1761915496903141400,1.960141357421875,-0.9416046142578125,-0.305816650390625,0.063690185546875
1761915496913196300,1.9701962890625,-0.9449462890625,-0.30194091796875,0.065399169921875
1761915496923247400,1.980247314453125,-0.948577880859375,-0.3018341064453125,0.0703125
1761915496933301200,1.99030126953125,-0.9480133056640625,-0.305023193359375,0.0745849609375
1761915496943355400,2.00035546875,-0.949432373046875,-0.3005523681640625,0.0771484375
1761915496953410300,2.010410400390625,-0.9445648193359375,-0.2975311279296875,0.076446533203125
1761915496963464200,2.020464111328125,-0.9377288818359375,-0.2996978759765625,0.07598876953125
1761915496973518300,2.030518310546875,-0.9334564208984375,-0.30242919921875,0.0800323486328125
1761915496983572200,2.040572265625,-0.937347412109375,-0.303741455078125,0.083404541015625
1761915496993627400,2.05062744140625,-0.9435882568359375,-0.303375244140625,0.08514404296875
1761915497003681500,2.060681640625,-0.94921875,-0.301513671875,0.08819580078125
1761915497013735200,2.070735107421875,-0.949493408203125,-0.2994232177734375,0.087432861328125
1761915497023789300,2.080789306640625,-0.9500732421875,-0.2982025146484375,0.0868072509765625
1761915497033844200,2.09084423828125,-0.9470672607421875,-0.298980712890625,0.0866241455078125
1761915497043898400,2.1008984375,-0.9432525634765625,-0.2989654541015625,0.082366943359375
1761915497053952300,2.1109521484375,-0.9433746337890625,-0.2996063232421875,0.0797882080078125
1761915497064006400,2.12100634765625,-0.941436767578125,-0.3021697998046875,0.075439453125
1761915497074060300,2.131060302734375,-0.948699951171875,-0.3016204833984375,0.0745391845703125
1761915497084115200,2.141115234375,-0.95733642578125,-0.301483154296875,0.0753173828125
1761915497094169300,2.15116943359375,-0.956939697265625,-0.3027191162109375,0.0741119384765625
1761915497104223200,2.16122314453125,-0.950927734375,-0.3046875,0.075775146484375
1761915497114277400,2.17127734375,-0.94500732421875,-0.304351806640625,0.07647705078125
1761915497124332300,2.181332275390625,-0.9484100341796875,-0.2999725341796875,0.0760040283203125
1761915497134386200,2.19138623046875,-0.9521331787109375,-0.2989349365234375,0.07769775390625
1761915497144440300,2.2014404296875,-0.9548187255859375,-0.2959747314453125,0.0802764892578125
1761915497154494200,2.211494140625,-0.9612884521484375,-0.2942352294921875,0.08349609375
1761915497164549400,2.22154931640625,-0.9647979736328125,-0.29290771484375,0.0841064453125
1761915497174603300,2.231603271484375,-0.9676971435546875,-0.289398193359375,0.08319091796875
1761915497184657400,2.241657470703125,-0.964630126953125,-0.28558349609375,0.08319091796875
1761915497194711300,2.251711181640625,-0.9600372314453125,-0.2818145751953125,0.081207275390625
1761915497204765400,2.261765380859375,-0.957763671875,-0.278839111328125,0.08026123046875
1761915497214820400,2.2718203125,-0.9582061767578125,-0.2817230224609375,0.0817108154296875
1761915497224874200,2.281874267578125,-0.964202880859375,-0.2776641845703125,0.08367919921875
1761915497234928400,2.291928466796875,-0.961212158203125,-0.2689361572265625,0.0793609619140625
1761915497244982300,2.301982177734375,-0.9505157470703125,-0.2624359130859375,0.0706024169921875
1761915497255037200,2.312037109375,-0.9370880126953125,-0.269989013671875,0.0673370361328125
1761915497265091300,2.32209130859375,-0.926513671875,-0.2863311767578125,0.0689544677734375
1761915497275145200,2.332145263671875,-0.9196014404296875,-0.2940826416015625,0.073516845703125
1761915497285199400,2.342199462890625,-0.9161529541015625,-0.291229248046875,0.0768890380859375
1761915497295254300,2.352254150390625,-0.922332763671875,-0.2850494384765625,0.0752105712890625
1761915497305308400,2.362308349609375,-0.9273834228515625,-0.28466796875,0.0735015869140625
1761915497315362300,2.3723623046875,-0.928131103515625,-0.288421630859375,0.0723876953125
1761915497325416400,2.38241650390625,-0.9341278076171875,-0.2902374267578125,0.0727081298828125
1761915497335470000,2.392469970703125,-0.94036865234375,-0.2875518798828125,0.0737457275390625
1761915497345525200,2.402525146484375,-0.9467620849609375,-0.2860107421875,0.075927734375
1761915497355579400,2.412579345703125,-0.9595947265625,-0.283447265625,0.07708740234375
1761915497365633300,2.42263330078125,-0.9650421142578125,-0.2815399169921875,0.0806884765625
1761915497375687400,2.4326875,-0.968353271484375,-0.2810821533203125,0.0821075439453125
1761915497385742000,2.4427421875,-0.9656829833984375,-0.2822418212890625,0.081268310546875
1761915497395796200,2.452796142578125,-0.957122802734375,-0.28485107421875,0.079986572265625
1761915497405850400,2.462850341796875,-0.951324462890625,-0.2862701416015625,0.0805816650390625
1761915497415904300,2.472904296875,-0.9491729736328125,-0.28546142578125,0.0810394287109375
1761915497425959400,2.48295947265625,-0.952056884765625,-0.282440185546875,0.08221435546875
1761915497436013300,2.493013427734375,-0.96240234375,-0.2814483642578125,0.0861358642578125
1761915497446067500,2.5030673828125,-0.966461181640625,-0.2873687744140625,0.089508056640625
1761915497456121000,2.51312109375,-0.96380615234375,-0.28759765625,0.091766357421875
1761915497466175200,2.52317529296875,-0.95635986328125,-0.2862396240234375,0.0914154052734375
1761915497476230400,2.53323046875,-0.948272705078125,-0.2874755859375,0.089080810546875
1761915497486284300,2.5432841796875,-0.947418212890625,-0.2877655029296875,0.08624267578125
1761915497496338400,2.55333837890625,-0.950103759765625,-0.2858734130859375,0.086669921875
1761915497506392300,2.563392333984375,-0.9554595947265625,-0.28466796875,0.0872650146484375
1761915497516447200,2.573447265625,-0.9531402587890625,-0.2835845947265625,0.08612060546875
1761915497526501400,2.58350146484375,-0.954132080078125,-0.280029296875,0.0841217041015625
1761915497536555300,2.59355517578125,-0.9571075439453125,-0.2782440185546875,0.0810546875
1761915497546609400,2.603609375,-0.952423095703125,-0.280242919921875,0.07977294921875
1761915497556664300,2.613664306640625,-0.9483795166015625,-0.2826385498046875,0.0778045654296875
1761915497566718500,2.623718505859375,-0.9438018798828125,-0.2833404541015625,0.07855224609375
1761915497576772000,2.633772216796875,-0.93841552734375,-0.2870941162109375,0.0789947509765625
1761915497586826200,2.643826171875,-0.9330596923828125,-0.2901153564453125,0.0771636962890625
1761915497596880100,2.653880126953125,-0.9367218017578125,-0.28973388671875,0.077362060546875
1761915497606935300,2.663935302734375,-0.94281005859375,-0.2886810302734375,0.080810546875
1761915497616989400,2.673989501953125,-0.9436492919921875,-0.2877655029296875,0.08184814453125
1761915497627043300,2.684043212890625,-0.9404449462890625,-0.2880401611328125,0.080078125
1761915497637097500,2.694097412109375,-0.9373779296875,-0.286468505859375,0.0796661376953125
1761915497647152400,2.70415234375,-0.9384765625,-0.2860870361328125,0.081390380859375
1761915497657206300,2.714206298828125,-0.943817138671875,-0.286834716796875,0.0821380615234375
1761915497667260400,2.724260498046875,-0.9514923095703125,-0.2831878662109375,0.079925537109375
1761915497677314300,2.734314208984375,-0.958953857421875,-0.278289794921875,0.080047607421875
1761915497687369500,2.744369384765625,-0.955230712890625,-0.280609130859375,0.0810699462890625
1761915497697423000,2.754423095703125,-0.953155517578125,-0.2816619873046875,0.0799560546875
1761915497707477200,2.764477294921875,-0.9545440673828125,-0.275787353515625,0.0760040283203125
1761915497717531100,2.77453125,-0.953155517578125,-0.272247314453125,0.07293701171875
1761915497727585300,2.784585205078125,-0.949249267578125,-0.27813720703125,0.0732421875
1761915497737640400,2.794640380859375,-0.9461212158203125,-0.285980224609375,0.07550048828125
1761915497747694300,2.8046943359375,-0.9463043212890625,-0.2850189208984375,0.078521728515625
1761915497757748500,2.81474853515625,-0.943511962890625,-0.2800445556640625,0.0771026611328125
1761915497767802000,2.824802001953125,-0.9409637451171875,-0.281097412109375,0.0737762451171875
1761915497777857300,2.834857177734375,-0.9388427734375,-0.2872161865234375,0.073822021484375
1761915497787911400,2.844911376953125,-0.9383392333984375,-0.2913360595703125,0.07379150390625
1761915497797965300,2.85496533203125,-0.9405975341796875,-0.290740966796875,0.0742034912109375
1761915497808019500,2.86501953125,-0.9433441162109375,-0.2884063720703125,0.0727691650390625
1761915497818074000,2.87507421875,-0.9482421875,-0.2870941162109375,0.0723114013671875
1761915497828128300,2.885128173828125,-0.95538330078125,-0.2859039306640625,0.072113037109375
1761915497838182100,2.89518212890625,-0.96270751953125,-0.2847900390625,0.07012939453125
1761915497848236300,2.905236328125,-0.9663238525390625,-0.283203125,0.072174072265625
1761915497858290200,2.915290283203125,-0.9611968994140625,-0.2825469970703125,0.0726776123046875
1761915497868345300,2.925345458984375,-0.9586181640625,-0.2818603515625,0.0723876953125
1761915497878399500,2.9353994140625,-0.9610137939453125,-0.280181884765625,0.071502685546875
1761915497888453000,2.945453125,-0.9579315185546875,-0.2825164794921875,0.0740966796875
1761915497898507300,2.95550732421875,-0.9530029296875,-0.2852935791015625,0.0770111083984375
1761915497908562400,2.9655625,-0.950164794921875,-0.285430908203125,0.0811309814453125
1761915497918616300,2.9756162109375,-0.9476318359375,-0.285247802734375,0.0838623046875
1761915497928670200,2.985670166015625,-0.9425506591796875,-0.2867584228515625,0.083648681640625
1761915497938724400,2.995724365234375,-0.93914794921875,-0.284576416015625,0.078704833984375
1761915497948779300,3.005779296875,-0.943450927734375,-0.28326416015625,0.07708740234375
1761915497958833200,3.015833251953125,-0.9464874267578125,-0.2860565185546875,0.0780792236328125
1761915497968887300,3.02588720703125,-0.9420013427734375,-0.28692626953125,0.0778656005859375
1761915497978941200,3.035941162109375,-0.9364776611328125,-0.286285400390625,0.0777587890625
1761915497988995300,3.045995361328125,-0.9366455078125,-0.2848052978515625,0.07635498046875
1761915497999050500,3.056050537109375,-0.943115234375,-0.2827911376953125,0.07525634765625
1761915498009104100,3.066104248046875,-0.941131591796875,-0.286163330078125,0.075103759765625
1761915498019158300,3.076158203125,-0.941314697265625,-0.2900238037109375,0.07562255859375
1761915498029212200,3.086212158203125,-0.948760986328125,-0.2866363525390625,0.07501220703125
1761915498039267300,3.096267333984375,-0.9517059326171875,-0.28448486328125,0.0789642333984375
1761915498049321200,3.1063212890625,-0.9488677978515625,-0.28533935546875,0.083282470703125
1761915498059375400,3.116375244140625,-0.9476318359375,-0.2861480712890625,0.081329345703125
1761915498069429200,3.12642919921875,-0.9494781494140625,-0.283782958984375,0.079925537109375
1761915498079484200,3.136484130859375,-0.95050048828125,-0.2833251953125,0.08062744140625
1761915498089538300,3.146538330078125,-0.95263671875,-0.28680419921875,0.0818939208984375
1761915498099592200,3.15659228515625,-0.95263671875,-0.2847747802734375,0.0819854736328125
1761915498109646300,3.166646240234375,-0.9496307373046875,-0.28369140625,0.080780029296875
1761915498119700200,3.1767001953125,-0.9502410888671875,-0.2843170166015625,0.082427978515625
1761915498129755100,3.186755126953125,-0.9528350830078125,-0.2855224609375,0.084228515625
1761915498139809300,3.196809326171875,-0.95458984375,-0.283782958984375,0.0842742919921875
1761915498149863200,3.20686328125,-0.9506683349609375,-0.2854461669921875,0.08282470703125
1761915498159917300,3.216917236328125,-0.9416351318359375,-0.2914276123046875,0.081085205078125
1761915498169972200,3.22697216796875,-0.9378814697265625,-0.2930908203125,0.0784454345703125
1761915498180026400,3.2370263671875,-0.938262939453125,-0.2877655029296875,0.0731201171875
1761915498190080300,3.247080322265625,-0.9418182373046875,-0.2825469970703125,0.0706329345703125
1761915498200134400,3.257134521484375,-0.946807861328125,-0.284271240234375,0.07379150390625
1761915498210189300,3.267189208984375,-0.949981689453125,-0.291961669921875,0.0782318115234375
1761915498220243200,3.2772431640625,-0.9494171142578125,-0.2932891845703125,0.0823516845703125
1761915498230297300,3.28729736328125,-0.949951171875,-0.2891387939453125,0.0807037353515625
1761915498240351200,3.297351318359375,-0.9452056884765625,-0.2854766845703125,0.0758056640625
1761915498250405400,3.3074052734375,-0.9378662109375,-0.2879486083984375,0.07379150390625
1761915498260460300,3.317460205078125,-0.93621826171875,-0.29107666015625,0.07513427734375
1761915498270514200,3.32751416015625,-0.9392852783203125,-0.292755126953125,0.0753631591796875
1761915498280568300,3.337568359375,-0.9348907470703125,-0.2931671142578125,0.0724945068359375
1761915498290622200,3.347622314453125,-0.9373016357421875,-0.294921875,0.0696563720703125
1761915498300677400,3.357677490234375,-0.9409637451171875,-0.296417236328125,0.0701751708984375
1761915498310731300,3.367731201171875,-0.9409027099609375,-0.294708251953125,0.0692291259765625
1761915498320785400,3.377785400390625,-0.93609619140625,-0.29412841796875,0.0686187744140625
1761915498330839000,3.387839111328125,-0.93927001953125,-0.292938232421875,0.0699005126953125
1761915498340894200,3.397894287109375,-0.9488372802734375,-0.290924072265625,0.0732879638671875
1761915498350948400,3.4079482421875,-0.9508209228515625,-0.2915802001953125,0.07586669921875
1761915498361002200,3.418002197265625,-0.95697021484375,-0.2888336181640625,0.075347900390625
1761915498371056400,3.428056396484375,-0.9593048095703125,-0.28558349609375,0.077606201171875
1761915498381110300,3.4381103515625,-0.9580230712890625,-0.2888031005859375,0.0823516845703125
1761915498391165200,3.448165283203125,-0.956878662109375,-0.2908935546875,0.082611083984375
1761915498401219300,3.45821923828125,-0.957763671875,-0.2897796630859375,0.082855224609375
1761915498411273200,3.468273193359375,-0.9634246826171875,-0.2870025634765625,0.0824127197265625
1761915498421327400,3.478327392578125,-0.9660491943359375,-0.283447265625,0.0826873779296875
1761915498431382300,3.48838232421875,-0.96466064453125,-0.2843475341796875,0.0802001953125
1761915498441436400,3.4984365234375,-0.9595489501953125,-0.289459228515625,0.080230712890625
1761915498451490000,3.508489990234375,-0.9541778564453125,-0.2922515869140625,0.079498291015625
1761915498461544200,3.518544189453125,-0.9462890625,-0.2919158935546875,0.0757598876953125
1761915498471599400,3.528599365234375,-0.940704345703125,-0.2905731201171875,0.0729217529296875
1761915498481653200,3.5386533203125,-0.947357177734375,-0.29095458984375,0.07305908203125
1761915498491707400,3.548707275390625,-0.9578857421875,-0.2938232421875,0.07489013671875
1761915498501761300,3.55876123046875,-0.9605560302734375,-0.2965850830078125,0.076324462890625
1761915498511816200,3.568816162109375,-0.95654296875,-0.298980712890625,0.076263427734375
1761915498521870300,3.578870361328125,-0.9527130126953125,-0.2999420166015625,0.0750579833984375
1761915498531924200,3.58892431640625,-0.9454498291015625,-0.3014373779296875,0.07232666015625
1761915498541978400,3.598978271484375,-0.9422607421875,-0.29803466796875,0.069427490234375
1761915498552032300,3.6090322265625,-0.9505767822265625,-0.2960052490234375,0.0709228515625
1761915498562087400,3.61908740234375,-0.950653076171875,-0.2983856201171875,0.072601318359375
1761915498572141000,3.62914111328125,-0.9481048583984375,-0.2994384765625,0.07318115234375
1761915498582195200,3.6391953125,-0.944610595703125,-0.2955474853515625,0.072998046875
1761915498592249000,3.6492490234375,-0.941192626953125,-0.2922515869140625,0.071441650390625
1761915498602304300,3.65930419921875,-0.9396820068359375,-0.28973388671875,0.07080078125
1761915498612358400,3.6693583984375,-0.9380645751953125,-0.2907562255859375,0.070770263671875
1761915498622412300,3.679412353515625,-0.938079833984375,-0.2952880859375,0.0710906982421875
1761915498632466400,3.689466552734375,-0.9357452392578125,-0.3017425537109375,0.0721282958984375
1761915498642521300,3.699521240234375,-0.9364776611328125,-0.3023529052734375,0.0739288330078125
1761915498652575200,3.7095751953125,-0.942108154296875,-0.2929534912109375,0.0757904052734375
1761915498662629400,3.71962939453125,-0.9408721923828125,-0.2889404296875,0.074951171875
1761915498672683300,3.729683349609375,-0.9407958984375,-0.29498291015625,0.074981689453125
1761915498682738400,3.739738525390625,-0.937957763671875,-0.306854248046875,0.077301025390625
1761915498692792000,3.7497919921875,-0.9340667724609375,-0.3066864013671875,0.080596923828125
1761915498702846200,3.75984619140625,-0.9310455322265625,-0.3021697998046875,0.0825958251953125
1761915498712900000,3.769900146484375,-0.9314727783203125,-0.2992401123046875,0.0815887451171875
1761915498722954200,3.779954345703125,-0.939483642578125,-0.2976531982421875,0.080780029296875
1761915498733009400,3.790009521484375,-0.94647216796875,-0.2977142333984375,0.0807952880859375
1761915498743063300,3.800063232421875,-0.944854736328125,-0.2964019775390625,0.0790557861328125
1761915498753117400,3.810117431640625,-0.9422760009765625,-0.2978668212890625,0.0772705078125
1761915498763171000,3.820171142578125,-0.9408416748046875,-0.3007659912109375,0.07586669921875
1761915498773226200,3.830226318359375,-0.9389190673828125,-0.30340576171875,0.0746307373046875
1761915498783280400,3.8402802734375,-0.936187744140625,-0.305267333984375,0.0738067626953125
1761915498793334300,3.850334228515625,-0.9385986328125,-0.3081207275390625,0.0735015869140625
1761915498803388400,3.860388427734375,-0.9417724609375,-0.308837890625,0.077239990234375
1761915498813443000,3.870443115234375,-0.9423370361328125,-0.308135986328125,0.081085205078125
1761915498823497200,3.880497314453125,-0.9429779052734375,-0.3050689697265625,0.0825347900390625
1761915498833551000,3.890551025390625,-0.9475555419921875,-0.2966156005859375,0.0840911865234375
1761915498843605200,3.900605224609375,-0.944305419921875,-0.2922821044921875,0.085968017578125
1761915498853659100,3.9106591796875,-0.9465179443359375,-0.295074462890625,0.0847625732421875
1761915498863714300,3.92071435546875,-0.9497528076171875,-0.2995147705078125,0.0873870849609375
1761915498873768400,3.9307685546875,-0.947784423828125,-0.3006439208984375,0.0909271240234375
1761915498883822000,3.940822021484375,-0.94500732421875,-0.2969818115234375,0.08929443359375
1761915498893876200,3.950876220703125,-0.9460296630859375,-0.2957000732421875,0.0853271484375
1761915498903931400,3.960931396484375,-0.9434356689453125,-0.298004150390625,0.0835113525390625
1761915498913985300,3.9709853515625,-0.94244384765625,-0.3006744384765625,0.08172607421875
1761915498924039400,3.981039306640625,-0.9404754638671875,-0.2994842529296875,0.0802001953125
1761915498934093600,3.991093505859375,-0.93597412109375,-0.29840087890625,0.07958984375
1761915498944148500,4.0011484375,-0.9358978271484375,-0.3000640869140625,0.07818603515625
1761915498954202400,4.011202392578125,-0.9361724853515625,-0.30133056640625,0.075469970703125
1761915498964256500,4.021256591796875,-0.9349517822265625,-0.302215576171875,0.0765838623046875
1761915498974310400,4.031310302734375,-0.9338836669921875,-0.302703857421875,0.0780487060546875
1761915498984365600,4.041365478515625,-0.937164306640625,-0.2994842529296875,0.081329345703125
1761915498994419500,4.05141943359375,-0.9373779296875,-0.2987213134765625,0.0842742919921875
1761915499004473300,4.061473388671875,-0.936553955078125,-0.3001251220703125,0.086578369140625
1761915499014527200,4.07152734375,-0.940704345703125,-0.3005523681640625,0.087493896484375
1761915499024581400,4.081581298828125,-0.940704345703125,-0.30377197265625,0.085418701171875
1761915499034636500,4.091636474609375,-0.938385009765625,-0.3050384521484375,0.0838470458984375
1761915499044690400,4.1016904296875,-0.9384918212890625,-0.304931640625,0.0830841064453125
1761915499054744600,4.11174462890625,-0.9471588134765625,-0.300506591796875,0.0879058837890625
1761915499064798500,4.121798583984375,-0.95477294921875,-0.296875,0.0916900634765625
1761915499074853400,4.131853271484375,-0.9603118896484375,-0.29296875,0.0930633544921875
1761915499084907500,4.141907470703125,-0.9666595458984375,-0.2897491455078125,0.0924224853515625
1761915499094961400,4.15196142578125,-0.9687652587890625,-0.2893829345703125,0.090087890625
1761915499105015600,4.162015625,-0.9617919921875,-0.294097900390625,0.089385986328125
1761915499115070500,4.172070556640625,-0.9560394287109375,-0.295623779296875,0.0895843505859375
1761915499125124400,4.182124267578125,-0.953765869140625,-0.29241943359375,0.089630126953125
1761915499135178200,4.19217822265625,-0.94451904296875,-0.291290283203125,0.0870819091796875
1761915499145232400,4.202232421875,-0.93994140625,-0.297119140625,0.087249755859375
1761915499155287600,4.21228759765625,-0.93646240234375,-0.304718017578125,0.0874176025390625
1761915499165341400,4.222341552734375,-0.9327239990234375,-0.30535888671875,0.0866851806640625
1761915499175395600,4.2323955078125,-0.933258056640625,-0.3016815185546875,0.0830078125
1761915499185449500,4.242449462890625,-0.9302215576171875,-0.30120849609375,0.0775909423828125
1761915499195503400,4.25250341796875,-0.9197845458984375,-0.30230712890625,0.076019287109375
1761915499205558500,4.26255859375,-0.9213409423828125,-0.3056640625,0.076629638671875
1761915499215612400,4.2726123046875,-0.923736572265625,-0.3102264404296875,0.0784454345703125
1761915499225666600,4.28266650390625,-0.9205780029296875,-0.310882568359375,0.07855224609375
1761915499235720400,4.292720458984375,-0.9166412353515625,-0.3112945556640625,0.0763702392578125
1761915499245775400,4.302775390625,-0.9133453369140625,-0.3126678466796875,0.07330322265625
1761915499255829200,4.312829345703125,-0.912994384765625,-0.3131103515625,0.072479248046875
1761915499265883400,4.32288330078125,-0.9149322509765625,-0.31475830078125,0.0735015869140625
1761915499275937300,4.332937255859375,-0.921600341796875,-0.3126983642578125,0.078399658203125
1761915499285992400,4.342992431640625,-0.9340972900390625,-0.3074951171875,0.08447265625
1761915499296046600,4.353046630859375,-0.9420623779296875,-0.3055877685546875,0.0911102294921875
1761915499306100500,4.3631005859375,-0.943511962890625,-0.30169677734375,0.0917205810546875
1761915499316154400,4.373154296875,-0.9458770751953125,-0.297454833984375,0.0889434814453125
1761915499326209500,4.38320947265625,-0.9425201416015625,-0.2989501953125,0.0844268798828125
1761915499336263400,4.393263427734375,-0.9430999755859375,-0.3049163818359375,0.0867919921875
1761915499346317600,4.403317626953125,-0.9387664794921875,-0.3062591552734375,0.0910186767578125
1761915499356371500,4.413371337890625,-0.9325103759765625,-0.302154541015625,0.0890045166015625
1761915499366425600,4.423425537109375,-0.93359375,-0.3006744384765625,0.087982177734375
1761915499376480300,4.433480224609375,-0.9377899169921875,-0.304718017578125,0.08892822265625
1761915499386534400,4.443534423828125,-0.9448089599609375,-0.3066558837890625,0.089752197265625
1761915499396588300,4.45358837890625,-0.9471282958984375,-0.307098388671875,0.0877685546875
1761915499406642400,4.463642333984375,-0.9453887939453125,-0.3018646240234375,0.0838623046875
1761915499416697600,4.473697509765625,-0.9441986083984375,-0.297332763671875,0.084197998046875
1761915499426751500,4.48375146484375,-0.9423980712890625,-0.29931640625,0.0853118896484375
1761915499436805400,4.493805419921875,-0.9376373291015625,-0.302215576171875,0.0861663818359375
1761915499446859300,4.503859375,-0.9375762939453125,-0.30352783203125,0.0838623046875
1761915499456914400,4.51391455078125,-0.9424591064453125,-0.301910400390625,0.0834808349609375
1761915499466968600,4.523968505859375,-0.949981689453125,-0.2999725341796875,0.0871429443359375
1761915499477022500,4.5340224609375,-0.951080322265625,-0.297943115234375,0.0899810791015625
1761915499487076600,4.54407666015625,-0.9491729736328125,-0.29656982421875,0.09033203125
1761915499497131300,4.55413134765625,-0.9439849853515625,-0.29730224609375,0.0887908935546875
1761915499507185400,4.564185302734375,-0.939056396484375,-0.299896240234375,0.0874176025390625
1761915499517239300,4.5742392578125,-0.936187744140625,-0.300994873046875,0.08782958984375
1761915499527293400,4.58429345703125,-0.9347076416015625,-0.3006134033203125,0.088165283203125
1761915499537348600,4.5943486328125,-0.93572998046875,-0.3011016845703125,0.0903778076171875
1761915499547402500,4.604402587890625,-0.939300537109375,-0.299591064453125,0.0937042236328125
1761915499557456400,4.614456298828125,-0.945831298828125,-0.2972259521484375,0.09295654296875
1761915499567510300,4.62451025390625,-0.9475860595703125,-0.2952880859375,0.0908355712890625
1761915499577564400,4.634564453125,-0.9452972412109375,-0.2971038818359375,0.08746337890625
1761915499587619600,4.64461962890625,-0.9445648193359375,-0.296539306640625,0.08502197265625
1761915499597673500,4.654673583984375,-0.9432220458984375,-0.2908477783203125,0.08587646484375
1761915499607727600,4.6647275390625,-0.943328857421875,-0.2888946533203125,0.085845947265625
1761915499617781500,4.674781494140625,-0.939483642578125,-0.2950897216796875,0.0867767333984375
1761915499627836400,4.68483642578125,-0.9415130615234375,-0.304046630859375,0.087432861328125
1761915499637890300,4.694890380859375,-0.94635009765625,-0.3023529052734375,0.0908050537109375
1761915499647944400,4.7049443359375,-0.9527435302734375,-0.2947235107421875,0.0912017822265625
1761915499657998300,4.714998291015625,-0.953704833984375,-0.288970947265625,0.088958740234375
1761915499668053500,4.725053466796875,-0.9507598876953125,-0.29058837890625,0.0868682861328125
1761915499678107400,4.735107421875,-0.94586181640625,-0.2972869873046875,0.0864105224609375
1761915499688161300,4.745161376953125,-0.9419097900390625,-0.2982330322265625,0.0842742919921875
1761915499698215400,4.75521533203125,-0.945831298828125,-0.2944488525390625,0.0803375244140625
1761915499708270300,4.765270263671875,-0.9470367431640625,-0.2915191650390625,0.0765838623046875
1761915499718324500,4.775324462890625,-0.9467926025390625,-0.2908782958984375,0.0759429931640625
1761915499728378600,4.785378662109375,-0.947235107421875,-0.2906341552734375,0.07525634765625
1761915499738432500,4.7954326171875,-0.948028564453125,-0.289215087890625,0.0729217529296875
1761915499748487400,4.8054873046875,-0.95196533203125,-0.287200927734375,0.07452392578125
1761915499758541300,4.815541259765625,-0.9553985595703125,-0.2868499755859375,0.0776214599609375
1761915499768595500,4.825595458984375,-0.9575347900390625,-0.2859649658203125,0.079803466796875
1761915499778649300,4.8356494140625,-0.9621429443359375,-0.283660888671875,0.0792999267578125
1761915499788703500,4.845703369140625,-0.960418701171875,-0.281707763671875,0.078857421875
1761915499798758400,4.85575830078125,-0.95660400390625,-0.2798614501953125,0.0784912109375
1761915499808812300,4.865812255859375,-0.957550048828125,-0.27947998046875,0.07989501953125
1761915499818866400,4.875866455078125,-0.95806884765625,-0.2804412841796875,0.0846099853515625
1761915499828920300,4.88592041015625,-0.9557647705078125,-0.2782745361328125,0.0837249755859375
1761915499838972400,4.895972412109375,-0.956146240234375,-0.27728271484375,0.0818634033203125
1761915499849027300,4.90602734375,-0.95440673828125,-0.2773590087890625,0.0795745849609375
1761915499859081500,4.91608154296875,-0.9527740478515625,-0.2814483642578125,0.0792236328125
1761915499869135400,4.92613525390625,-0.952911376953125,-0.2821044921875,0.0807647705078125
1761915499879189500,4.936189453125,-0.9541778564453125,-0.2820281982421875,0.0792999267578125
1761915499889244400,4.946244384765625,-0.9540252685546875,-0.28167724609375,0.0799713134765625
1761915499899298300,4.95629833984375,-0.9588165283203125,-0.280487060546875,0.08026123046875
1761915499909352400,4.9663525390625,-0.9557647705078125,-0.280059814453125,0.0770111083984375
1761915499919406300,4.97640625,-0.9528656005859375,-0.280029296875,0.0746612548828125
1761915499929461800,4.986461669921875,-0.9533843994140625,-0.277984619140625,0.0741119384765625
1761915499939515600,4.996515625,-0.952117919921875,-0.2768402099609375,0.0746612548828125
1761915499949569800,5.00656982421875,-0.953582763671875,-0.2770843505859375,0.077880859375
1761915499959623700,5.016623779296875,-0.952850341796875,-0.2792205810546875,0.077545166015625
1761915499969677600,5.026677490234375,-0.948211669921875,-0.2803192138671875,0.0786285400390625
1761915499979732700,5.036732666015625,-0.9428253173828125,-0.2840118408203125,0.0782928466796875
1761915499989786600,5.04678662109375,-0.9407501220703125,-0.284759521484375,0.078338623046875
1761915499999840800,5.0568408203125,-0.9391326904296875,-0.283416748046875,0.0762176513671875
1761915500009894700,5.066894775390625,-0.937042236328125,-0.2840118408203125,0.074981689453125
1761915500019949600,5.076949462890625,-0.938018798828125,-0.285552978515625,0.076385498046875
1761915500030003500,5.08700341796875,-0.9405059814453125,-0.285552978515625,0.0772552490234375
1761915500040057600,5.0970576171875,-0.9439239501953125,-0.2863311767578125,0.0786285400390625
1761915500050111500,5.107111572265625,-0.944854736328125,-0.2882537841796875,0.0782318115234375
1761915500060166700,5.117166748046875,-0.9474334716796875,-0.285308837890625,0.0761871337890625
1761915500070220800,5.127220703125,-0.9511566162109375,-0.2775421142578125,0.07391357421875
1761915500080274700,5.137274658203125,-0.9507598876953125,-0.2762908935546875,0.0750732421875
1761915500090328600,5.14732861328125,-0.9524993896484375,-0.28265380859375,0.0787353515625
1761915500100383500,5.157383544921875,-0.9555511474609375,-0.2907257080078125,0.0821380615234375
1761915500110437600,5.167437744140625,-0.9560546875,-0.2895050048828125,0.084228515625
1761915500120491800,5.17749169921875,-0.954315185546875,-0.2818756103515625,0.0836639404296875
1761915500130545700,5.187545654296875,-0.9515533447265625,-0.2792816162109375,0.0817108154296875
1761915500140600600,5.1976005859375,-0.9496002197265625,-0.2834320068359375,0.0810089111328125
1761915500150654500,5.207654541015625,-0.94775390625,-0.2899169921875,0.0798797607421875
1761915500160708600,5.21770849609375,-0.9466094970703125,-0.29034423828125,0.0809478759765625
1761915500170762500,5.227762451171875,-0.9500274658203125,-0.28790283203125,0.080413818359375
1761915500180816600,5.237816650390625,-0.9537200927734375,-0.2860260009765625,0.0768890380859375
1761915500190871800,5.247871826171875,-0.951568603515625,-0.2862396240234375,0.0759429931640625
1761915500200925700,5.25792578125,-0.9531402587890625,-0.285430908203125,0.0742950439453125
1761915500210979600,5.2679794921875,-0.95458984375,-0.282501220703125,0.074188232421875
1761915500221033500,5.278033447265625,-0.94970703125,-0.281829833984375,0.07708740234375
1761915500231088600,5.288088623046875,-0.951629638671875,-0.2814483642578125,0.0789337158203125
1761915500241142800,5.298142822265625,-0.9571685791015625,-0.2788848876953125,0.0811920166015625
1761915500251196700,5.30819677734375,-0.9565582275390625,-0.2788543701171875,0.0840301513671875
1761915500261250800,5.318250732421875,-0.9543914794921875,-0.276123046875,0.084197998046875
1761915500271305500,5.328305419921875,-0.951751708984375,-0.2762908935546875,0.0815582275390625
1761915500281359600,5.338359619140625,-0.9454498291015625,-0.2807159423828125,0.0800628662109375
1761915500291413500,5.34841357421875,-0.9387054443359375,-0.2822265625,0.0800323486328125
1761915500301467600,5.358467529296875,-0.9382171630859375,-0.282196044921875,0.078826904296875
1761915500311522800,5.368522705078125,-0.9371795654296875,-0.2806396484375,0.0776519775390625
1761915500321576700,5.37857666015625,-0.9386138916015625,-0.27984619140625,0.0766754150390625
1761915500331630600,5.388630615234375,-0.9452056884765625,-0.280303955078125,0.077972412109375
1761915500341684500,5.3986845703125,-0.949981689453125,-0.28118896484375,0.07769775390625
1761915500351739600,5.40873974609375,-0.9515533447265625,-0.280426025390625,0.075958251953125
1761915500361793800,5.418793701171875,-0.9507598876953125,-0.2809600830078125,0.0758056640625
1761915500371847700,5.42884765625,-0.9440765380859375,-0.282501220703125,0.076416015625
1761915500381901800,5.43890185546875,-0.9388275146484375,-0.284912109375,0.0762786865234375
1761915500391956500,5.44895654296875,-0.9372406005859375,-0.287384033203125,0.0740509033203125
1761915500402010600,5.4590107421875,-0.9406585693359375,-0.2888946533203125,0.073516845703125
1761915500412064500,5.469064453125,-0.944091796875,-0.29052734375,0.0729827880859375
1761915500422118700,5.47911865234375,-0.943634033203125,-0.2902374267578125,0.0746612548828125
1761915500432173800,5.489173828125,-0.9498443603515625,-0.2895965576171875,0.0765533447265625
1761915500442227700,5.499227783203125,-0.9547271728515625,-0.2880706787109375,0.078155517578125
1761915500452281600,5.509281494140625,-0.95538330078125,-0.2873382568359375,0.0777740478515625
1761915500462335500,5.51933544921875,-0.9537811279296875,-0.286285400390625,0.0774078369140625
1761915500472390700,5.529390625,-0.9485931396484375,-0.2865753173828125,0.07806396484375
1761915500482444500,5.539444580078125,-0.947479248046875,-0.28436279296875,0.0771331787109375
1761915500492498700,5.549498779296875,-0.9511260986328125,-0.2823944091796875,0.07720947265625
1761915500502552800,5.559552734375,-0.950897216796875,-0.2830963134765625,0.08038330078125
1761915500512606700,5.569606689453125,-0.9516448974609375,-0.2850341796875,0.0778961181640625
1761915500522661600,5.57966162109375,-0.950042724609375,-0.2857208251953125,0.074188232421875
1761915500532715500,5.589715576171875,-0.948394775390625,-0.2870330810546875,0.072418212890625
1761915500542769700,5.599769775390625,-0.9471588134765625,-0.2820587158203125,0.071197509765625
1761915500552823600,5.609823486328125,-0.9489898681640625,-0.2745513916015625,0.0716094970703125
1761915500562878700,5.619878662109375,-0.9512939453125,-0.2775115966796875,0.075927734375
1761915500572932600,5.6299326171875,-0.9611053466796875,-0.2840576171875,0.08001708984375
1761915500582986500,5.639986572265625,-0.9665679931640625,-0.283843994140625,0.0832672119140625
1761915500593040600,5.65004052734375,-0.9675445556640625,-0.2727813720703125,0.0828399658203125
1761915500603095600,5.660095458984375,-0.9691162109375,-0.26580810546875,0.0802001953125
1761915500613149700,5.670149658203125,-0.9595489501953125,-0.2671051025390625,0.07781982421875
1761915500623203800,5.680203857421875,-0.9477386474609375,-0.274810791015625,0.0750274658203125
1761915500633257700,5.6902578125,-0.9417877197265625,-0.2803955078125,0.0715484619140625
1761915500643312600,5.700312744140625,-0.93634033203125,-0.2826995849609375,0.0713653564453125
1761915500653366500,5.710366455078125,-0.9273834228515625,-0.287109375,0.0705413818359375
1761915500663420700,5.720420654296875,-0.9210205078125,-0.290191650390625,0.0697174072265625
1761915500673474600,5.730474609375,-0.9235992431640625,-0.293670654296875,0.0675201416015625
1761915500683529700,5.74052978515625,-0.92462158203125,-0.29302978515625,0.0681915283203125
1761915500693583600,5.75058349609375,-0.9291534423828125,-0.2940826416015625,0.0695343017578125
1761915500703637500,5.760637451171875,-0.9383697509765625,-0.294647216796875,0.0735931396484375
1761915500713691600,5.770691650390625,-0.9474334716796875,-0.2929534912109375,0.0800628662109375
1761915500723746600,5.78074658203125,-0.95355224609375,-0.290435791015625,0.086212158203125
1761915500733800700,5.79080078125,-0.957275390625,-0.2849884033203125,0.0886688232421875
1761915500743854600,5.8008544921875,-0.95965576171875,-0.2797698974609375,0.0882110595703125
1761915500753908700,5.81090869140625,-0.9550323486328125,-0.27996826171875,0.0873870849609375
1761915500763963600,5.820963623046875,-0.954254150390625,-0.282318115234375,0.0857086181640625
1761915500774017500,5.831017578125,-0.954681396484375,-0.283721923828125,0.0835723876953125
1761915500784071700,5.84107177734375,-0.9542388916015625,-0.2856597900390625,0.0816802978515625
1761915500794125600,5.85112548828125,-0.9604034423828125,-0.2851715087890625,0.0791015625
1761915500804180700,5.8611806640625,-0.9636993408203125,-0.2888336181640625,0.0774688720703125
1761915500814234600,5.871234619140625,-0.9604644775390625,-0.2919769287109375,0.082672119140625
1761915500824288500,5.88128857421875,-0.951904296875,-0.2923736572265625,0.0776214599609375
1761915500834342700,5.8913427734375,-0.9512939453125,-0.29522705078125,0.06536865234375
1761915500844397600,5.9013974609375,-0.9513092041015625,-0.296112060546875,0.0679931640625
1761915500854451700,5.91145166015625,-0.95458984375,-0.294525146484375,0.0725555419921875
1761915500864505600,5.921505615234375,-0.9552001953125,-0.2906341552734375,0.076080322265625
1761915500874559700,5.931559814453125,-0.9554443359375,-0.289703369140625,0.0745697021484375
1761915500884614700,5.94161474609375,-0.9569244384765625,-0.2899627685546875,0.0731353759765625
1761915500894668500,5.95166845703125,-0.95330810546875,-0.29083251953125,0.0725555419921875
1761915500904722700,5.96172265625,-0.9493560791015625,-0.2915496826171875,0.0747528076171875
1761915500914776600,5.971776611328125,-0.9440155029296875,-0.288421630859375,0.07513427734375
1761915500924830500,5.98183056640625,-0.942413330078125,-0.2871856689453125,0.075775146484375
1761915500934884600,5.991884521484375,-0.9430084228515625,-0.28839111328125,0.07550048828125
1761915500944938500,6.0019384765625,-0.9426116943359375,-0.2880859375,0.0779571533203125
1761915500954992600,6.01199267578125,-0.9453582763671875,-0.2843170166015625,0.07769775390625
1761915500965046500,6.022046630859375,-0.9436492919921875,-0.2831268310546875,0.079345703125
1761915500975101400,6.032101318359375,-0.9435272216796875,-0.2837677001953125,0.0795135498046875
1761915500985155600,6.042155517578125,-0.948944091796875,-0.28094482421875,0.078643798828125
1761915500995209500,6.05220947265625,-0.9444580078125,-0.28155517578125,0.078338623046875
1761915501005263600,6.062263671875,-0.939361572265625,-0.28497314453125,0.0780181884765625
1761915501015318500,6.072318603515625,-0.9423370361328125,-0.287078857421875,0.0794830322265625
1761915501025372400,6.082372314453125,-0.94329833984375,-0.2807464599609375,0.0786895751953125
1761915501035426600,6.092426513671875,-0.94097900390625,-0.2733001708984375,0.075408935546875
1761915501045480400,6.10248046875,-0.9369354248046875,-0.280975341796875,0.075225830078125
1761915501055535600,6.11253564453125,-0.9333343505859375,-0.29205322265625,0.0791015625
1761915501065589500,6.122589599609375,-0.9319915771484375,-0.2943878173828125,0.0823974609375
1761915501075643600,6.1326435546875,-0.9294586181640625,-0.2905120849609375,0.0847930908203125
1761915501085697500,6.142697509765625,-0.930023193359375,-0.2900848388671875,0.0824432373046875
1761915501095752400,6.15275244140625,-0.933197021484375,-0.2902984619140625,0.07965087890625
1761915501105806600,6.162806640625,-0.9359130859375,-0.29351806640625,0.0809783935546875
1761915501115860500,6.172860595703125,-0.9398651123046875,-0.2928924560546875,0.083343505859375
1761915501125914600,6.18291455078125,-0.9428863525390625,-0.289825439453125,0.0825347900390625
1761915501135969300,6.19296923828125,-0.9440460205078125,-0.289703369140625,0.0807952880859375
1761915501146023400,6.2030234375,-0.9467315673828125,-0.287689208984375,0.0813140869140625
1761915501156077600,6.21307763671875,-0.9497222900390625,-0.2871246337890625,0.0828094482421875
1761915501166131500,6.22313134765625,-0.96044921875,-0.2804412841796875,0.0862884521484375
1761915501176186600,6.2331865234375,-0.9658660888671875,-0.27752685546875,0.08831787109375
1761915501186240500,6.243240478515625,-0.973419189453125,-0.2808074951171875,0.0876007080078125
1761915501196294700,6.253294677734375,-0.9808502197265625,-0.28118896484375,0.0834197998046875
1761915501206348500,6.2633486328125,-0.9712982177734375,-0.281402587890625,0.0804290771484375
1761915501216403500,6.273403564453125,-0.9539031982421875,-0.28326416015625,0.081024169921875
1761915501226457600,6.28345751953125,-0.936798095703125,-0.289337158203125,0.0817108154296875
1761915501236511500,6.293511474609375,-0.9310302734375,-0.2938232421875,0.08184814453125
1761915501246565600,6.303565673828125,-0.9319610595703125,-0.2952728271484375,0.0842132568359375
1761915501256620300,6.313620361328125,-0.9365081787109375,-0.2966766357421875,0.08349609375
1761915501266674400,6.32367431640625,-0.9379730224609375,-0.295745849609375,0.083740234375
1761915501276728600,6.333728515625,-0.936859130859375,-0.296051025390625,0.081451416015625
1761915501286782500,6.343782470703125,-0.935089111328125,-0.2954254150390625,0.081756591796875
1761915501296837600,6.353837646484375,-0.9359893798828125,-0.2958984375,0.0841064453125
1761915501306891500,6.3638916015625,-0.94036865234375,-0.29547119140625,0.0859222412109375
1761915501316945700,6.373945556640625,-0.943328857421875,-0.29345703125,0.0867919921875
1761915501326999600,6.38399951171875,-0.945404052734375,-0.291015625,0.0882110595703125
1761915501337053400,6.394053466796875,-0.94622802734375,-0.28955078125,0.0888824462890625
1761915501347108600,6.404108642578125,-0.94708251953125,-0.2909393310546875,0.0885772705078125
1761915501357162500,6.41416259765625,-0.945343017578125,-0.2911529541015625,0.08685302734375
1761915501367216600,6.424216552734375,-0.9420318603515625,-0.2883758544921875,0.0842437744140625
1761915501377270500,6.4342705078125,-0.9427490234375,-0.28753662109375,0.0842132568359375
1761915501387325400,6.444325439453125,-0.9471588134765625,-0.2880859375,0.0887603759765625
1761915501397379300,6.45437939453125,-0.94830322265625,-0.2901611328125,0.0914459228515625
1761915501407433500,6.46443359375,-0.9437255859375,-0.2913360595703125,0.0906219482421875
1761915501417487600,6.474487548828125,-0.93994140625,-0.290924072265625,0.088958740234375
1761915501427542500,6.48454248046875,-0.9341888427734375,-0.2918243408203125,0.0878753662109375
1761915501437596700,6.4945966796875,-0.932952880859375,-0.2912750244140625,0.0872039794921875
1761915501447650600,6.504650634765625,-0.9326629638671875,-0.2899169921875,0.087188720703125
1761915501457704400,6.514704345703125,-0.935546875,-0.2869110107421875,0.0873260498046875
1761915501467759600,6.524759521484375,-0.94140625,-0.2849273681640625,0.0869293212890625
1761915501477813500,6.5348134765625,-0.9442291259765625,-0.2846527099609375,0.0888671875
1761915501487867600,6.54486767578125,-0.9422454833984375,-0.2868804931640625,0.08782958984375
1761915501497921500,6.554921630859375,-0.9398956298828125,-0.2848358154296875,0.0856170654296875
1761915501507976400,6.5649765625,-0.941497802734375,-0.2786865234375,0.085296630859375
1761915501518030300,6.5750302734375,-0.939788818359375,-0.277740478515625,0.085784912109375
1761915501528084500,6.58508447265625,-0.936553955078125,-0.2865753173828125,0.0867767333984375
1761915501538138600,6.595138671875,-0.935821533203125,-0.2928009033203125,0.086761474609375
1761915501548193500,6.605193603515625,-0.9364471435546875,-0.2904205322265625,0.091217041015625
1761915501558247700,6.61524755859375,-0.9415283203125,-0.286956787109375,0.0933837890625
1761915501568301300,6.62530126953125,-0.947174072265625,-0.2835693359375,0.09130859375
1761915501578355500,6.63535546875,-0.944427490234375,-0.285430908203125,0.086456298828125
1761915501588410600,6.64541064453125,-0.9409637451171875,-0.2861175537109375,0.0843048095703125
1761915501598464500,6.655464599609375,-0.9434967041015625,-0.287017822265625,0.0847320556640625
1761915501608518700,6.6655185546875,-0.94610595703125,-0.2855377197265625,0.0842742919921875
1761915501618572500,6.675572509765625,-0.9464874267578125,-0.2857513427734375,0.082611083984375
1761915501628627500,6.68562744140625,-0.950164794921875,-0.2863006591796875,0.080352783203125
1761915501638681300,6.695681396484375,-0.9527130126953125,-0.2870941162109375,0.0816802978515625
1761915501648735500,6.705735595703125,-0.956451416015625,-0.2877197265625,0.084716796875
1761915501658789400,6.715789306640625,-0.9567108154296875,-0.2863616943359375,0.08575439453125
1761915501668844500,6.725844482421875,-0.9559783935546875,-0.2853851318359375,0.08636474609375
1761915501678898700,6.735898681640625,-0.9579010009765625,-0.2855377197265625,0.0898895263671875
1761915501688952300,6.745952392578125,-0.9560089111328125,-0.2881927490234375,0.09344482421875
1761915501699006500,6.75600634765625,-0.9513092041015625,-0.2886199951171875,0.09442138671875
1761915501709061600,6.7660615234375,-0.9483795166015625,-0.290618896484375,0.0940399169921875
1761915501719115500,6.776115478515625,-0.9448699951171875,-0.2925567626953125,0.0950469970703125
1761915501729169700,6.786169677734375,-0.9419708251953125,-0.2921600341796875,0.09417724609375
1761915501739223600,6.7962236328125,-0.9444732666015625,-0.288177490234375,0.0951995849609375
1761915501749278500,6.806278564453125,-0.945281982421875,-0.2859039306640625,0.095306396484375
1761915501759332400,6.816332275390625,-0.947113037109375,-0.2864990234375,0.0925750732421875
1761915501769386500,6.826386474609375,-0.951904296875,-0.2889862060546875,0.0930328369140625
1761915501779440400,6.8364404296875,-0.9553985595703125,-0.286102294921875,0.0946807861328125
1761915501789495600,6.84649560546875,-0.95697021484375,-0.2814788818359375,0.094329833984375
1761915501799549700,6.8565498046875,-0.9613189697265625,-0.278350830078125,0.0940704345703125
1761915501809603300,6.866603271484375,-0.966827392578125,-0.27777099609375,0.095062255859375
1761915501819657500,6.876657470703125,-0.963531494140625,-0.2804412841796875,0.092498779296875
1761915501829711400,6.88671142578125,-0.959564208984375,-0.2803497314453125,0.090972900390625
1761915501839766500,6.8967666015625,-0.9587554931640625,-0.2793121337890625,0.0897674560546875
1761915501849820700,6.906820556640625,-0.95440673828125,-0.2795867919921875,0.089324951171875
1761915501859874600,6.91687451171875,-0.9475555419921875,-0.2829742431640625,0.090545654296875
1761915501869928700,6.9269287109375,-0.9452972412109375,-0.2825775146484375,0.0921630859375
1761915501879983400,6.9369833984375,-0.9528961181640625,-0.2846527099609375,0.0874481201171875
1761915501890037500,6.94703759765625,-0.951141357421875,-0.283660888671875,0.0887603759765625
1761915501900091400,6.95709130859375,-0.945465087890625,-0.2827301025390625,0.09051513671875
1761915501910145500,6.9671455078125,-0.936553955078125,-0.2841033935546875,0.0941314697265625
1761915501920200700,6.97720068359375,-0.93341064453125,-0.2869873046875,0.0979156494140625
1761915501930255400,6.98725537109375,-0.929962158203125,-0.2901611328125,0.09765625
1761915501940309500,6.9973095703125,-0.92413330078125,-0.2937774658203125,0.092926025390625
1761915501950363400,7.00736328125,-0.9257659912109375,-0.29071044921875,0.0885009765625
1761915501960418600,7.01741845703125,-0.932769775390625,-0.2908477783203125,0.0865631103515625
1761915501970472400,7.027472412109375,-0.935638427734375,-0.2929534912109375,0.0870208740234375
1761915501980526300,7.0375263671875,-0.9401397705078125,-0.286956787109375,0.08367919921875
1761915501990580500,7.04758056640625,-0.9408111572265625,-0.2801513671875,0.081298828125
1761915502000635600,7.0576357421875,-0.9397735595703125,-0.2841339111328125,0.0809326171875
1761915502010689500,7.067689453125,-0.9432220458984375,-0.29095458984375,0.08294677734375
1761915502020743700,7.07774365234375,-0.9479827880859375,-0.292205810546875,0.0874176025390625
1761915502030797600,7.087797607421875,-0.94927978515625,-0.2861785888671875,0.0887451171875
1761915502040852500,7.0978525390625,-0.9531707763671875,-0.2818145751953125,0.0852203369140625
1761915502050906400,7.10790625,-0.95440673828125,-0.281036376953125,0.0829010009765625
1761915502060960500,7.11796044921875,-0.9550018310546875,-0.280548095703125,0.081695556640625
1761915502071014400,7.128014404296875,-0.952850341796875,-0.2808074951171875,0.080841064453125
1761915502081069600,7.138069580078125,-0.9508819580078125,-0.28228759765625,0.0799102783203125
1761915502091123500,7.14812353515625,-0.948333740234375,-0.284637451171875,0.0774383544921875
1761915502101177300,7.15817724609375,-0.950164794921875,-0.285675048828125,0.074127197265625
1761915502111231500,7.1682314453125,-0.948333740234375,-0.286590576171875,0.07342529296875
1761915502121286700,7.17828662109375,-0.9441375732421875,-0.2873687744140625,0.071685791015625
1761915502131340500,7.188340576171875,-0.9489593505859375,-0.2819366455078125,0.0737457275390625
1761915502141394700,7.198394775390625,-0.9559478759765625,-0.278045654296875,0.0771942138671875
1761915502151448600,7.208448486328125,-0.9579620361328125,-0.275665283203125,0.0820770263671875
1761915502161503500,7.21850341796875,-0.9590911865234375,-0.2740325927734375,0.085601806640625
1761915502171557400,7.228557373046875,-0.95977783203125,-0.27227783203125,0.0856170654296875
1761915502181611500,7.238611572265625,-0.956756591796875,-0.2716217041015625,0.0862274169921875
1761915502191665400,7.24866552734375,-0.9547119140625,-0.275390625,0.0874786376953125
1761915502201719600,7.258719482421875,-0.953948974609375,-0.278564453125,0.08563232421875
1761915502211774500,7.2687744140625,-0.946563720703125,-0.27996826171875,0.0845489501953125
1761915502221828400,7.278828369140625,-0.94195556640625,-0.280364990234375,0.084564208984375
1761915502231882500,7.288882568359375,-0.94158935546875,-0.279998779296875,0.0819854736328125
1761915502241936400,7.298936279296875,-0.9433746337890625,-0.2820587158203125,0.080902099609375
1761915502251991600,7.308991455078125,-0.945068359375,-0.2825927734375,0.07794189453125
1761915502262045700,7.319045654296875,-0.947723388671875,-0.2810516357421875,0.07763671875
1761915502272099600,7.329099609375,-0.949798583984375,-0.2798614501953125,0.0797271728515625
1761915502282153700,7.33915380859375,-0.9546966552734375,-0.2789306640625,0.0802459716796875
1761915502292208400,7.34920849609375,-0.95654296875,-0.27783203125,0.0825958251953125
1761915502302262500,7.359262451171875,-0.952667236328125,-0.28070068359375,0.0829620361328125
1761915502312316400,7.36931640625,-0.9482269287109375,-0.2846221923828125,0.0835723876953125
1761915502322370600,7.37937060546875,-0.946258544921875,-0.2850341796875,0.0814361572265625
1761915502332425500,7.389425537109375,-0.9473419189453125,-0.284027099609375,0.0800933837890625
1761915502342479400,7.399479248046875,-0.94622802734375,-0.284515380859375,0.0819244384765625
1761915502352533500,7.409533447265625,-0.95062255859375,-0.2833251953125,0.0853118896484375
1761915502362587400,7.41958740234375,-0.954132080078125,-0.2813720703125,0.08660888671875
1761915502372642600,7.429642578125,-0.9546966552734375,-0.2779083251953125,0.084686279296875
1761915502382696700,7.43969677734375,-0.95416259765625,-0.2772369384765625,0.083465576171875
1761915502392750600,7.44975048828125,-0.9561767578125,-0.275177001953125,0.08343505859375
1761915502402804700,7.4598046875,-0.9546661376953125,-0.2756195068359375,0.0831451416015625
1761915502412859400,7.469859375,-0.9526214599609375,-0.275299072265625,0.0825653076171875
1761915502422913500,7.47991357421875,-0.9537200927734375,-0.2733612060546875,0.08197021484375
1761915502432967400,7.489967529296875,-0.953460693359375,-0.2748870849609375,0.0816497802734375
1761915502443021600,7.500021484375,-0.9526824951171875,-0.2775115966796875,0.0823974609375
1761915502453076500,7.510076416015625,-0.955657958984375,-0.2736358642578125,0.0831756591796875
1761915502463130400,7.52013037109375,-0.9584503173828125,-0.2649383544921875,0.0804290771484375
1761915502473184500,7.5301845703125,-0.95550537109375,-0.26470947265625,0.078948974609375
1761915502483238400,7.54023828125,-0.95367431640625,-0.2734832763671875,0.0799102783203125
1761915502493293600,7.55029345703125,-0.952789306640625,-0.2779541015625,0.0794677734375
1761915502503347500,7.560347412109375,-0.951416015625,-0.270172119140625,0.0801849365234375
1761915502513401600,7.570401611328125,-0.957794189453125,-0.2627716064453125,0.085418701171875
1761915502523455700,7.580455810546875,-0.9539337158203125,-0.2653045654296875,0.084197998046875
1761915502533510400,7.590510498046875,-0.9457244873046875,-0.274505615234375,0.078369140625
1761915502543564500,7.600564453125,-0.9355010986328125,-0.2825164794921875,0.0731201171875
1761915502553618400,7.610618408203125,-0.92413330078125,-0.2895355224609375,0.071685791015625
1761915502563672600,7.620672607421875,-0.917816162109375,-0.2929534912109375,0.0714111328125
1761915502573727500,7.6307275390625,-0.9184417724609375,-0.293670654296875,0.072784423828125
1761915502583781400,7.640781494140625,-0.924591064453125,-0.2928314208984375,0.0745849609375
1761915502593835500,7.65083544921875,-0.9350433349609375,-0.2906951904296875,0.075103759765625
1761915502603889400,7.660889404296875,-0.94512939453125,-0.2879638671875,0.077972412109375
1761915502613944600,7.670944580078125,-0.9590911865234375,-0.2843780517578125,0.083465576171875
1761915502623998500,7.68099853515625,-0.9702606201171875,-0.2789459228515625,0.089385986328125
1761915502634052600,7.691052490234375,-0.9677734375,-0.272979736328125,0.0941009521484375
1761915502644106800,7.701106689453125,-0.9772186279296875,-0.2737884521484375,0.0899200439453125
1761915502654160400,7.711160400390625,-0.968536376953125,-0.2769622802734375,0.08935546875
1761915502664215600,7.721215576171875,-0.959991455078125,-0.2799835205078125,0.08880615234375
1761915502674269400,7.73126953125,-0.95343017578125,-0.2783203125,0.089691162109375
1761915502684323600,7.741323486328125,-0.950408935546875,-0.278594970703125,0.0893402099609375
1761915502694377500,7.75137744140625,-0.9537353515625,-0.281158447265625,0.0876922607421875
1761915502704432400,7.761432373046875,-0.9569091796875,-0.2827301025390625,0.0858306884765625
1761915502714486500,7.771486572265625,-0.9571075439453125,-0.2842864990234375,0.08367919921875
1761915502724540400,7.78154052734375,-0.9556732177734375,-0.2835693359375,0.0856170654296875
1761915502734594600,7.791594482421875,-0.94879150390625,-0.2846832275390625,0.0871429443359375
1761915502744649500,7.8016494140625,-0.9469451904296875,-0.2859039306640625,0.085174560546875
1761915502754703600,7.81170361328125,-0.9462432861328125,-0.28521728515625,0.0851287841796875
1761915502764757500,7.821757568359375,-0.9441070556640625,-0.2851409912109375,0.08404541015625
1761915502774811400,7.831811279296875,-0.9480133056640625,-0.2814178466796875,0.0849151611328125
1761915502784866600,7.841866455078125,-0.94830322265625,-0.2823486328125,0.0897216796875
1761915502794920400,7.85192041015625,-0.9440460205078125,-0.2811737060546875,0.08807373046875
1761915502804974600,7.861974609375,-0.9482879638671875,-0.275726318359375,0.087554931640625
1761915502815028500,7.872028564453125,-0.9474945068359375,-0.275421142578125,0.0877532958984375
1761915502825083400,7.88208349609375,-0.9434356689453125,-0.27874755859375,0.089508056640625
1761915502835137500,7.892137451171875,-0.9455718994140625,-0.2811126708984375,0.091156005859375
1761915502845191400,7.90219140625,-0.94537353515625,-0.2821197509765625,0.092010498046875
1761915502855245600,7.91224560546875,-0.946075439453125,-0.283599853515625,0.091827392578125
1761915502865300500,7.922300537109375,-0.947906494140625,-0.2813568115234375,0.0908203125
1761915502875354600,7.932354736328125,-0.9487762451171875,-0.2772369384765625,0.0917816162109375
1761915502885408500,7.942408447265625,-0.946624755859375,-0.275543212890625,0.0933380126953125
1761915502895462400,7.95246240234375,-0.952850341796875,-0.277557373046875,0.089263916015625
1761915502905517600,7.962517578125,-0.9525909423828125,-0.2775421142578125,0.08721923828125
1761915502915571500,7.972571533203125,-0.9477081298828125,-0.279815673828125,0.0872344970703125
1761915502925624600,7.98262451171875,-0.94500732421875,-0.283203125,0.08856201171875
1761915502935678500,7.992678466796875,-0.942169189453125,-0.27880859375,0.0847625732421875
1761915502945733600,8.002733642578125,-0.9398651123046875,-0.2731475830078125,0.08203125
1761915502955787800,8.012787841796875,-0.9414825439453125,-0.27508544921875,0.08343505859375
1761915502965841400,8.02284130859375,-0.945953369140625,-0.2836761474609375,0.0881195068359375
1761915502975895600,8.0328955078125,-0.9454345703125,-0.2878265380859375,0.0922393798828125
1761915502985950500,8.042950439453126,-0.948272705078125,-0.2841644287109375,0.093963623046875
1761915502996004600,8.053004638671876,-0.9549102783203125,-0.2786407470703125,0.0915985107421875
1761915503006058500,8.06305859375,-0.9575042724609375,-0.2771453857421875,0.0885162353515625
1761915503016112600,8.073112548828124,-0.96051025390625,-0.27850341796875,0.0859527587890625
1761915503026167600,8.08316748046875,-0.962371826171875,-0.2761077880859375,0.0833892822265625
1761915503036221400,8.093221435546875,-0.961883544921875,-0.2760162353515625,0.081573486328125
1761915503046275600,8.103275634765625,-0.953399658203125,-0.278106689453125,0.0812225341796875
1761915503056329500,8.11332958984375,-0.945648193359375,-0.2796173095703125,0.0770721435546875
1761915503066384600,8.123384521484375,-0.939300537109375,-0.281707763671875,0.0721893310546875
1761915503076438800,8.133438720703126,-0.936279296875,-0.284393310546875,0.0688629150390625
1761915503086492400,8.143492431640626,-0.93695068359375,-0.2860565185546875,0.0706634521484375
1761915503096546600,8.153546630859376,-0.937896728515625,-0.28826904296875,0.074554443359375
1761915503106601500,8.1636015625,-0.94024658203125,-0.287841796875,0.0803070068359375
1761915503116655600,8.173655517578124,-0.94091796875,-0.2855682373046875,0.084197998046875
1761915503126709500,8.18370947265625,-0.9412689208984375,-0.282470703125,0.086700439453125
1761915503136763600,8.193763671875,-0.9437255859375,-0.283538818359375,0.087738037109375
1761915503146817500,8.203817626953125,-0.944366455078125,-0.28521728515625,0.08953857421875
1761915503156872400,8.21387255859375,-0.943084716796875,-0.2856292724609375,0.0920867919921875
1761915503166926600,8.223926513671875,-0.9447479248046875,-0.2843170166015625,0.089691162109375
1761915503176980500,8.23398046875,-0.9479522705078125,-0.2823944091796875,0.08837890625
1761915503187034600,8.24403466796875,-0.9522247314453125,-0.280792236328125,0.088409423828125
1761915503197089800,8.25408984375,-0.9532928466796875,-0.281158447265625,0.088226318359375
1761915503207143400,8.264143310546874,-0.9514923095703125,-0.2818450927734375,0.087310791015625
1761915503217197600,8.274197509765624,-0.9510955810546875,-0.279937744140625,0.0876922607421875
1761915503227251500,8.28425146484375,-0.9494781494140625,-0.279998779296875,0.0890655517578125
1761915503237306600,8.294306640625,-0.9489593505859375,-0.2774810791015625,0.088623046875
1761915503247360500,8.304360595703125,-0.9508514404296875,-0.2772216796875,0.0874786376953125
1761915503257414700,8.31441455078125,-0.948822021484375,-0.279022216796875,0.0867462158203125
1761915503267468500,8.324468505859375,-0.9458160400390625,-0.2800445556640625,0.087921142578125
1761915503277523500,8.3345234375,-0.9441070556640625,-0.2804412841796875,0.0907745361328125
1761915503287577600,8.34457763671875,-0.937286376953125,-0.2817535400390625,0.091644287109375
1761915503297631500,8.354631591796876,-0.935211181640625,-0.2784881591796875,0.082000732421875
1761915503307685600,8.364685546875,-0.9324951171875,-0.2849578857421875,0.0868072509765625
1761915503317740500,8.374740478515625,-0.9298248291015625,-0.2802734375,0.08648681640625
1761915503327794400,8.38479443359375,-0.9362030029296875,-0.280120849609375,0.081695556640625
1761915503337848600,8.3948486328125,-0.937744140625,-0.2829132080078125,0.08258056640625
1761915503347902500,8.40490234375,-0.9375152587890625,-0.2815093994140625,0.08612060546875
1761915503357957600,8.41495751953125,-0.9371490478515625,-0.2787017822265625,0.08526611328125
1761915503368011500,8.425011474609375,-0.938690185546875,-0.277740478515625,0.0845489501953125
1761915503378065700,8.435065673828126,-0.9408111572265625,-0.2781524658203125,0.082672119140625
1761915503388119600,8.44511962890625,-0.9442291259765625,-0.276702880859375,0.080810546875
1761915503398174500,8.455174560546874,-0.9419097900390625,-0.2784271240234375,0.07879638671875
1761915503408228600,8.465228515625,-0.94073486328125,-0.2784576416015625,0.0793914794921875
1761915503418282500,8.475282470703124,-0.9433746337890625,-0.2734832763671875,0.08013916015625
1761915503428336600,8.485336669921875,-0.943328857421875,-0.2701416015625,0.0790252685546875
1761915503438391600,8.4953916015625,-0.9415130615234375,-0.2758636474609375,0.0792694091796875
1761915503448445400,8.505445556640625,-0.94293212890625,-0.2861328125,0.0841522216796875
1761915503458499600,8.51549951171875,-0.9430694580078125,-0.2882843017578125,0.089569091796875
1761915503468553500,8.525553466796875,-0.94610595703125,-0.2801513671875,0.09027099609375
1761915503478608600,8.535608642578126,-0.9491424560546875,-0.27410888671875,0.0879669189453125
1761915503488662500,8.54566259765625,-0.948699951171875,-0.273712158203125,0.0863037109375
1761915503498716700,8.555716552734374,-0.9477081298828125,-0.279693603515625,0.089813232421875
1761915503508770600,8.5657705078125,-0.948760986328125,-0.2831878662109375,0.092315673828125
1761915503518825500,8.575825439453125,-0.9496612548828125,-0.280242919921875,0.09161376953125
1761915503528879600,8.585879638671875,-0.9514617919921875,-0.2771759033203125,0.0919342041015625
1761915503538933500,8.59593359375,-0.9574127197265625,-0.2758331298828125,0.0877838134765625
1761915503548987600,8.605987548828125,-0.9613037109375,-0.275665283203125,0.0838470458984375
1761915503559042600,8.61604248046875,-0.961029052734375,-0.273956298828125,0.0855865478515625
1761915503569096400,8.626096435546875,-0.9580841064453125,-0.2720947265625,0.084930419921875
1761915503579150300,8.636150390625,-0.9626312255859375,-0.273681640625,0.0825958251953125
1761915503589204500,8.64620458984375,-0.9670867919921875,-0.276153564453125,0.08990478515625
1761915503599258600,8.656258544921876,-0.969757080078125,-0.27532958984375,0.0951995849609375
1761915503609313500,8.6663134765625,-0.97283935546875,-0.270843505859375,0.09600830078125
1761915503619367700,8.67636767578125,-0.9692535400390625,-0.2709808349609375,0.0960235595703125
1761915503629421600,8.686421630859375,-0.9680633544921875,-0.272491455078125,0.0962371826171875
1761915503639475700,8.696475830078125,-0.966583251953125,-0.274993896484375,0.0969390869140625
1761915503649530600,8.706530517578125,-0.9617767333984375,-0.274932861328125,0.0964202880859375
1761915503659584500,8.71658447265625,-0.9561004638671875,-0.271087646484375,0.0941314697265625
1761915503669638700,8.726638671875,-0.9583282470703125,-0.2680511474609375,0.091339111328125
1761915503679692500,8.736692626953126,-0.96270751953125,-0.26751708984375,0.0883636474609375
1761915503689747500,8.74674755859375,-0.964111328125,-0.268310546875,0.08892822265625
1761915503699801300,8.75680126953125,-0.966705322265625,-0.2667388916015625,0.0888671875
1761915503709855500,8.76685546875,-0.96380615234375,-0.265899658203125,0.0866546630859375
1761915503719909600,8.77690966796875,-0.954193115234375,-0.268890380859375,0.0843048095703125
1761915503729964500,8.786964599609375,-0.944244384765625,-0.2725067138671875,0.0836029052734375
1761915503740018700,8.797018798828125,-0.937347412109375,-0.27508544921875,0.0827484130859375
1761915503750072600,8.807072509765625,-0.9342193603515625,-0.27581787109375,0.082305908203125
1761915503760126500,8.81712646484375,-0.9346160888671875,-0.27691650390625,0.08197021484375
1761915503770181600,8.827181640625,-0.9330596923828125,-0.2790679931640625,0.0874786376953125
1761915503780235500,8.837235595703126,-0.9321746826171875,-0.277801513671875,0.092132568359375
1761915503790289700,8.84728955078125,-0.9329071044921875,-0.2761993408203125,0.0926513671875
1761915503800343600,8.857343505859374,-0.93426513671875,-0.27532958984375,0.0909423828125
1761915503810398500,8.8673984375,-0.9384002685546875,-0.2746124267578125,0.0917510986328125
1761915503820452400,8.877452392578125,-0.9439849853515625,-0.271087646484375,0.0921478271484375
1761915503830506500,8.887506591796875,-0.947418212890625,-0.2691192626953125,0.0946197509765625
1761915503840560400,8.897560302734375,-0.9457855224609375,-0.27130126953125,0.0955352783203125
1761915503850615600,8.907615478515625,-0.9483642578125,-0.2696685791015625,0.094482421875
1761915503860669700,8.917669677734375,-0.94781494140625,-0.268341064453125,0.0914154052734375
1761915503870723600,8.9277236328125,-0.94342041015625,-0.27142333984375,0.0888671875
1761915503880777500,8.937777587890626,-0.938629150390625,-0.274627685546875,0.0870208740234375
1761915503890832600,8.94783251953125,-0.9432830810546875,-0.273834228515625,0.0865936279296875
1761915503900886500,8.957886474609374,-0.943878173828125,-0.26861572265625,0.0829315185546875
1761915503910940700,8.967940673828124,-0.9513397216796875,-0.2692413330078125,0.0824432373046875
1761915503920994600,8.97799462890625,-0.9561309814453125,-0.277069091796875,0.086883544921875
1761915503931050200,8.98805029296875,-0.9577789306640625,-0.27923583984375,0.092254638671875
1761915503941104000,8.998104248046875,-0.954620361328125,-0.273834228515625,0.0977020263671875
1761915503951158300,9.008158203125,-0.952667236328125,-0.2686767578125,0.0990753173828125
1761915503961212200,9.018212158203125,-0.948638916015625,-0.2711029052734375,0.095428466796875
1761915503971267300,9.028267333984376,-0.9458770751953125,-0.2746124267578125,0.090484619140625
1761915503981321200,9.0383212890625,-0.9400177001953125,-0.2764434814453125,0.086273193359375
1761915503991375000,9.048375,-0.9441986083984375,-0.2750091552734375,0.0850830078125
1761915504001429200,9.05842919921875,-0.953460693359375,-0.2731170654296875,0.0849761962890625
1761915504011484200,9.068484130859375,-0.9550933837890625,-0.2745513916015625,0.0859222412109375
1761915504021538300,9.078538330078125,-0.9530181884765625,-0.276641845703125,0.0835723876953125
1761915504031592400,9.088592529296875,-0.952484130859375,-0.276580810546875,0.08099365234375
1761915504041646300,9.098646240234375,-0.9521331787109375,-0.274017333984375,0.0806427001953125
1761915504051701200,9.108701171875,-0.9543609619140625,-0.27337646484375,0.08160400390625
1761915504061755100,9.118755126953126,-0.957794189453125,-0.271148681640625,0.0818939208984375
1761915504071809300,9.128809326171876,-0.95928955078125,-0.26953125,0.084381103515625
1761915504081863200,9.13886328125,-0.963165283203125,-0.2686614990234375,0.0881805419921875
1761915504091918300,9.14891845703125,-0.9647979736328125,-0.2683563232421875,0.0897979736328125
1761915504101972200,9.15897216796875,-0.96160888671875,-0.2694854736328125,0.089263916015625
1761915504112026000,9.169026123046875,-0.9544677734375,-0.2716217041015625,0.0874786376953125
1761915504122080300,9.179080322265625,-0.9439697265625,-0.2729339599609375,0.0859527587890625
1761915504132135200,9.18913525390625,-0.9386138916015625,-0.275054931640625,0.0846405029296875
1761915504142189300,9.199189208984375,-0.941070556640625,-0.2766571044921875,0.0853424072265625
1761915504152243500,9.209243408203125,-0.946014404296875,-0.277008056640625,0.0835723876953125
1761915504162297300,9.21929736328125,-0.9523162841796875,-0.276153564453125,0.0837554931640625
1761915504172352300,9.229352294921876,-0.9607086181640625,-0.2718963623046875,0.0839996337890625
1761915504182406100,9.23940625,-0.9653472900390625,-0.2662506103515625,0.08404541015625
1761915504192460300,9.249460205078124,-0.9670257568359375,-0.2634124755859375,0.0852203369140625
1761915504202514200,9.25951416015625,-0.967041015625,-0.2618560791015625,0.085052490234375
1761915504212569300,9.2695693359375,-0.9651947021484375,-0.2632293701171875,0.0831298828125
1761915504222623200,9.279623291015625,-0.9621734619140625,-0.2646636962890625,0.081329345703125
1761915504232677000,9.289677001953125,-0.959259033203125,-0.266265869140625,0.080474853515625
1761915504242731300,9.299731201171875,-0.96270751953125,-0.266754150390625,0.080474853515625
1761915504252786200,9.3097861328125,-0.9656524658203125,-0.2648773193359375,0.0824432373046875
1761915504262840300,9.31984033203125,-0.96142578125,-0.2655181884765625,0.082366943359375
1761915504272894500,9.32989453125,-0.956787109375,-0.26324462890625,0.0819549560546875
1761915504282948400,9.3399482421875,-0.9482574462890625,-0.262908935546875,0.078826904296875
1761915504293003300,9.350003173828124,-0.9388885498046875,-0.2667694091796875,0.0771484375
1761915504303057200,9.36005712890625,-0.9306793212890625,-0.2713165283203125,0.0780029296875
1761915504313111300,9.370111328125,-0.930267333984375,-0.27423095703125,0.078948974609375
1761915504323165200,9.380165283203125,-0.9345703125,-0.276153564453125,0.07794189453125
1761915504333220400,9.390220458984375,-0.9390411376953125,-0.2758636474609375,0.076629638671875
1761915504343274200,9.400274169921875,-0.9439697265625,-0.2781829833984375,0.0753173828125
1761915504353328000,9.410328125,-0.94329833984375,-0.2776641845703125,0.074493408203125
1761915504363382300,9.42038232421875,-0.945068359375,-0.2755889892578125,0.075347900390625
1761915504373437200,9.430437255859376,-0.9476165771484375,-0.268798828125,0.0761871337890625
1761915504383491300,9.4404912109375,-0.94732666015625,-0.26531982421875,0.076751708984375
1761915504393545200,9.450545166015624,-0.9457244873046875,-0.2698822021484375,0.077880859375
1761915504403599400,9.460599365234375,-0.9473114013671875,-0.2785186767578125,0.0806884765625
1761915504413654300,9.470654296875,-0.9546356201171875,-0.2785491943359375,0.0858612060546875
1761915504423710500,9.48071044921875,-0.9568328857421875,-0.2722320556640625,0.0878753662109375
1761915504433765000,9.49076513671875,-0.954345703125,-0.2673797607421875,0.085418701171875
1761915504443819300,9.5008193359375,-0.9531707763671875,-0.2655792236328125,0.08251953125
1761915504453873200,9.510873046875,-0.953399658203125,-0.267242431640625,0.081634521484375
1761915504463927300,9.52092724609375,-0.952362060546875,-0.272796630859375,0.0825042724609375
1761915504473982200,9.530982177734375,-0.9505157470703125,-0.2778167724609375,0.081085205078125
1761915504484036000,9.5410361328125,-0.948699951171875,-0.2793731689453125,0.0801849365234375
1761915504494090200,9.55109033203125,-0.94970703125,-0.2789306640625,0.0773162841796875
1761915504504144100,9.56114404296875,-0.952972412109375,-0.276214599609375,0.077301025390625
1761915504514199300,9.57119921875,-0.9544830322265625,-0.27374267578125,0.0785675048828125
1761915504524253400,9.58125341796875,-0.9545745849609375,-0.2710723876953125,0.0791015625
1761915504534307300,9.591307373046876,-0.959564208984375,-0.270355224609375,0.0811767578125
1761915504544361500,9.601361572265626,-0.962432861328125,-0.2705841064453125,0.0854949951171875
1761915504554416000,9.611416015625,-0.9592132568359375,-0.2708892822265625,0.088592529296875
1761915504564470300,9.62147021484375,-0.9588623046875,-0.268707275390625,0.089813232421875
1761915504574524200,9.631524169921875,-0.9574432373046875,-0.2689056396484375,0.090545654296875
1761915504584578300,9.641578369140625,-0.9533843994140625,-0.2724761962890625,0.0907745361328125
1761915504594633200,9.65163330078125,-0.9461669921875,-0.2738800048828125,0.0900421142578125
1761915504604687000,9.66168701171875,-0.94329833984375,-0.2727813720703125,0.088714599609375
1761915504614741200,9.6717412109375,-0.94183349609375,-0.272430419921875,0.086151123046875
1761915504624795100,9.681795166015625,-0.9441375732421875,-0.2730255126953125,0.0833740234375
1761915504634850300,9.691850341796876,-0.9458160400390625,-0.2765960693359375,0.083038330078125
1761915504644904400,9.701904541015624,-0.945709228515625,-0.2789306640625,0.08349609375
1761915504654958300,9.711958251953124,-0.9460601806640625,-0.2752532958984375,0.0838623046875
1761915504665012500,9.722012451171874,-0.9458770751953125,-0.2730255126953125,0.0848236083984375
1761915504675067100,9.732067138671875,-0.9486083984375,-0.272216796875,0.084320068359375
1761915504685121300,9.742121337890625,-0.9533233642578125,-0.2733154296875,0.084869384765625
1761915504695175200,9.752175048828125,-0.95538330078125,-0.2700958251953125,0.0859222412109375
1761915504705229300,9.762229248046875,-0.9534912109375,-0.26934814453125,0.0868072509765625
1761915504715284200,9.7722841796875,-0.9473419189453125,-0.272918701171875,0.0854339599609375
1761915504725338000,9.782338134765626,-0.9470062255859375,-0.274383544921875,0.0828704833984375
1761915504735392300,9.792392333984376,-0.9502105712890625,-0.2747650146484375,0.0819091796875
1761915504745446100,9.802446044921876,-0.95074462890625,-0.2752532958984375,0.084075927734375
1761915504755501300,9.812501220703124,-0.9473876953125,-0.275665283203125,0.084991455078125
1761915504765555500,9.822555419921875,-0.9464111328125,-0.2746124267578125,0.085845947265625
1761915504775609300,9.832609375,-0.9476470947265625,-0.2740478515625,0.084320068359375
1761915504785663500,9.84266357421875,-0.9501953125,-0.2723541259765625,0.0832672119140625
1761915504795718100,9.85271826171875,-0.9478607177734375,-0.2713165283203125,0.0821533203125
1761915504805772300,9.862772216796875,-0.9466552734375,-0.2714385986328125,0.082122802734375
1761915504815826200,9.872826171875,-0.94384765625,-0.2728424072265625,0.0808868408203125
1761915504825880300,9.88288037109375,-0.9441986083984375,-0.276580810546875,0.07855224609375
1761915504835935200,9.892935302734376,-0.94549560546875,-0.279388427734375,0.0764312744140625
1761915504845989000,9.902989013671874,-0.9495391845703125,-0.278594970703125,0.077911376953125
1761915504856043300,9.913043212890624,-0.9563751220703125,-0.2705841064453125,0.08221435546875
1761915504866098200,9.92309814453125,-0.962646484375,-0.2624969482421875,0.0848541259765625
1761915504876152300,9.93315234375,-0.9612274169921875,-0.2643890380859375,0.0825958251953125
1761915504886206200,9.943206298828125,-0.9558258056640625,-0.273101806640625,0.0836181640625
1761915504896260400,9.95326025390625,-0.95660400390625,-0.276214599609375,0.08746337890625
1761915504906315300,9.963315185546875,-0.958343505859375,-0.272552490234375,0.091033935546875
1761915504916369200,9.973369140625,-0.964263916015625,-0.26544189453125,0.0923004150390625
1761915504926423300,9.98342333984375,-0.96112060546875,-0.266754150390625,0.0908203125
1761915504936477200,9.993477294921876,-0.961639404296875,-0.27203369140625,0.090179443359375
1761915504946532400,10.003532470703124,-0.9661407470703125,-0.2736053466796875,0.089202880859375
1761915504956586200,10.013586181640624,-0.964935302734375,-0.27130126953125,0.086669921875
1761915504966640000,10.02364013671875,-0.9554901123046875,-0.2706146240234375,0.082305908203125
1761915504976694300,10.0336943359375,-0.9464874267578125,-0.2715911865234375,0.077972412109375
1761915504986749200,10.043749267578125,-0.9398651123046875,-0.2754364013671875,0.0746612548828125
1761915504996803300,10.05380322265625,-0.93780517578125,-0.2789459228515625,0.0730438232421875
1761915505006857200,10.063857177734375,-0.9385833740234375,-0.279754638671875,0.073883056640625
1761915505016911400,10.073911376953125,-0.938873291015625,-0.2806243896484375,0.0756988525390625
1761915505026966300,10.08396630859375,-0.94281005859375,-0.277923583984375,0.08154296875
1761915505037020200,10.094020263671876,-0.945831298828125,-0.275970458984375,0.0858001708984375
1761915505047074300,10.10407421875,-0.9433135986328125,-0.2730712890625,0.0886077880859375
1761915505057128200,10.114128173828124,-0.9370574951171875,-0.2732696533203125,0.089752197265625
1761915505067183400,10.124183349609375,-0.937042236328125,-0.2760772705078125,0.090118408203125
1761915505077237200,10.1342373046875,-0.940460205078125,-0.2745513916015625,0.0886993408203125
1761915505087291100,10.144291015625,-0.9456024169921875,-0.2728118896484375,0.090057373046875
1761915505097345300,10.15434521484375,-0.9515838623046875,-0.26983642578125,0.0895538330078125
1761915505107400200,10.164400146484375,-0.960968017578125,-0.2655487060546875,0.0860443115234375
1761915505117454300,10.174454345703126,-0.967041015625,-0.2628173828125,0.080902099609375
1761915505127508200,10.18450830078125,-0.9703521728515625,-0.2613372802734375,0.0830535888671875
1761915505137563100,10.194563232421874,-0.967132568359375,-0.26531982421875,0.08514404296875
1761915505147617300,10.2046171875,-0.9631805419921875,-0.2672576904296875,0.0838775634765625
1761915505157671200,10.214671142578124,-0.95709228515625,-0.26861572265625,0.082183837890625
1761915505167725300,10.224725341796875,-0.9502716064453125,-0.2709808349609375,0.0818328857421875
1761915505177779200,10.234779296875,-0.9483489990234375,-0.273712158203125,0.0828399658203125
1761915505187834400,10.24483447265625,-0.95172119140625,-0.2757110595703125,0.0824432373046875
1761915505197888300,10.25488818359375,-0.9552764892578125,-0.2762451171875,0.083251953125
1761915505207942100,10.264942138671875,-0.9557647705078125,-0.2754364013671875,0.08526611328125
1761915505217997300,10.274997314453126,-0.958770751953125,-0.2720184326171875,0.0875396728515625
1761915505228051200,10.28505126953125,-0.95819091796875,-0.27001953125,0.090850830078125
1761915505238105300,10.295105224609374,-0.955169677734375,-0.27056884765625,0.0907440185546875
1761915505248159200,10.3051591796875,-0.9517059326171875,-0.2723541259765625,0.090606689453125
1761915505258214100,10.315214111328125,-0.946075439453125,-0.2757568359375,0.0889892578125
1761915505268268300,10.325268310546875,-0.9445343017578125,-0.277435302734375,0.089080810546875
1761915505278322200,10.335322265625,-0.9449310302734375,-0.27911376953125,0.091156005859375
1761915505288376300,10.345376220703125,-0.945831298828125,-0.2801055908203125,0.0909576416015625
1761915505298431200,10.35543115234375,-0.9473724365234375,-0.279296875,0.089202880859375
1761915505308485400,10.3654853515625,-0.9471893310546875,-0.27606201171875,0.0873870849609375
1761915505318539300,10.375539306640626,-0.94854736328125,-0.27435302734375,0.08612060546875
1761915505328593200,10.38559326171875,-0.9517669677734375,-0.2766265869140625,0.086395263671875
1761915505338648300,10.3956484375,-0.9530029296875,-0.2777252197265625,0.087249755859375
1761915505348702200,10.4057021484375,-0.949615478515625,-0.271575927734375,0.0864105224609375
1761915505358756400,10.41575634765625,-0.9455413818359375,-0.2672882080078125,0.0829925537109375
1761915505368810200,10.425810302734375,-0.944183349609375,-0.2704315185546875,0.08563232421875
1761915505378865200,10.435865234375,-0.9444122314453125,-0.277252197265625,0.0883026123046875
1761915505388919300,10.445919189453125,-0.94677734375,-0.2783203125,0.093292236328125
1761915505398973200,10.45597314453125,-0.9477691650390625,-0.273712158203125,0.096649169921875
1761915505409028400,10.4660283203125,-0.94830322265625,-0.2714385986328125,0.0918121337890625
1761915505419082200,10.476082275390626,-0.9496612548828125,-0.272216796875,0.089263916015625
1761915505429136400,10.486136474609374,-0.9441070556640625,-0.276336669921875,0.087310791015625
1761915505439190300,10.496190185546874,-0.9394683837890625,-0.2792205810546875,0.086517333984375
1761915505449245200,10.5062451171875,-0.94219970703125,-0.2784881591796875,0.085540771484375
1761915505459299300,10.51629931640625,-0.94305419921875,-0.2783203125,0.0833892822265625
1761915505469353200,10.526353271484375,-0.9444732666015625,-0.2768402099609375,0.0826416015625
1761915505479407400,10.536407470703125,-0.951995849609375,-0.2757110595703125,0.0848541259765625
1761915505489462300,10.546462158203125,-0.9545135498046875,-0.27825927734375,0.0848541259765625
1761915505499516200,10.55651611328125,-0.9520721435546875,-0.2785797119140625,0.0834503173828125
1761915505509570300,10.5665703125,-0.95428466796875,-0.278594970703125,0.0802154541015625
1761915505519624200,10.576624267578126,-0.96063232421875,-0.277252197265625,0.08209228515625
1761915505529679400,10.586679443359374,-0.9635162353515625,-0.2730865478515625,0.0870819091796875
1761915505539733200,10.596733154296874,-0.9603118896484375,-0.2711181640625,0.0915069580078125
1761915505549787400,10.606787353515625,-0.9595489501953125,-0.274505615234375,0.09295654296875
1761915505559841300,10.61684130859375,-0.9593353271484375,-0.279876708984375,0.0926055908203125
1761915505569896200,10.626896240234375,-0.949462890625,-0.2819366455078125,0.0869598388671875
1761915505579950300,10.636950439453125,-0.941741943359375,-0.2805633544921875,0.082794189453125
1761915505590004200,10.647004150390625,-0.940948486328125,-0.2746734619140625,0.0869293212890625
1761915505600059400,10.657059326171876,-0.9462890625,-0.2702789306640625,0.0915069580078125
1761915505610113300,10.66711328125,-0.9488677978515625,-0.270751953125,0.0941009521484375
1761915505620167200,10.677167236328126,-0.9503021240234375,-0.2716827392578125,0.09844970703125
1761915505630221300,10.68722119140625,-0.9607086181640625,-0.26837158203125,0.0974273681640625
1761915505640276200,10.697276123046874,-0.95770263671875,-0.2717132568359375,0.0900421142578125
1761915505650330400,10.707330322265625,-0.9544219970703125,-0.2764129638671875,0.0839385986328125
1761915505660384300,10.71738427734375,-0.9462432861328125,-0.28277587890625,0.08929443359375
1761915505670438400,10.7274384765625,-0.9507904052734375,-0.287384033203125,0.082305908203125
1761915505680493300,10.737493408203125,-0.9373931884765625,-0.296173095703125,0.0719146728515625
1761915505690547200,10.747547119140625,-0.92333984375,-0.30450439453125,0.0675811767578125
1761915505700601300,10.757601318359375,-0.92669677734375,-0.309906005859375,0.0678863525390625
1761915505710655200,10.7676552734375,-0.9091644287109375,-0.3070526123046875,0.0600433349609375
1761915505720710400,10.77771044921875,-0.881256103515625,-0.3001861572265625,0.0492706298828125
1761915505730764000,10.787763916015624,-0.8563995361328125,-0.294891357421875,0.0561370849609375
1761915505740818200,10.797818115234374,-0.8880157470703125,-0.2657470703125,0.088104248046875
1761915505750872300,10.807872314453125,-1.0059051513671875,-0.2575531005859375,0.1141815185546875
1761915505760927200,10.81792724609375,-0.99969482421875,-0.2945709228515625,0.13018798828125
1761915505770981400,10.8279814453125,-0.9736785888671875,-0.2787628173828125,0.1366424560546875
1761915505781035300,10.83803515625,-0.94573974609375,-0.26434326171875,0.1136322021484375
1761915505791090200,10.848090087890625,-0.9120941162109375,-0.2826995849609375,0.093231201171875
