time,seconds_elapsed,z,y,x
1761915494972725800,0.029725830078125,-0.01588043011724949,-0.1849040687084198,-0.25348713994026184
1761915494982779600,0.039779541015625,-0.009156480431556702,-0.16551892459392548,-0.2138473093509674
1761915494992834800,0.049834716796875,-0.012369051575660706,-0.17767705023288727,-0.18991108238697052
1761915495002888700,0.059888671875,-0.02231808938086033,-0.19221524894237518,-0.16643798351287842
1761915495012942800,0.06994287109375,-0.03008839301764965,-0.18881678581237793,-0.15006379783153534
1761915495022996700,0.079996826171875,-0.017076455056667328,-0.15434536337852478,-0.13864976167678833
1761915495033051600,0.0900517578125,0.003602191573008895,-0.10079425573348999,-0.13840501010417938
1761915495043105800,0.100105712890625,0.027050526812672615,-0.036854688078165054,-0.14340563118457794
1761915495053159700,0.11015966796875,0.044856421649456024,0.028679847717285156,-0.15250645577907562
1761915495063213800,0.1202138671875,0.03761155903339386,0.06000181660056114,-0.15866394340991974
1761915495073267700,0.130267822265625,0.013209811411798,0.03453933447599411,-0.16186480224132538
1761915495083323000,0.140322998046875,-0.012353072874248028,0.004202468320727348,-0.15447372198104858
1761915495093376800,0.150376708984375,-0.02617567777633667,-0.003832288784906268,-0.1320296674966812
1761915495103430700,0.1604306640625,-0.029770145192742348,0.005655755288898945,-0.11004287749528885
1761915495113484800,0.17048486328125,-0.024440627545118332,0.0309296865016222,-0.08110444247722626
1761915495123539700,0.180539794921875,-0.01022627204656601,0.05607258901000023,-0.06138373166322708
1761915495133593900,0.19059375,-0.009521333500742912,0.06814363598823547,-0.05158383026719093
1761915495143647700,0.200647705078125,-0.020850153639912605,0.03688105195760727,-0.04710199683904648
1761915495153702000,0.210701904296875,-0.04354667663574219,-0.008871788159012794,-0.03701101616024971
1761915495163756800,0.2207568359375,-0.07024966180324554,-0.048232775181531906,-0.01649215817451477
1761915495173810700,0.230810791015625,-0.0854874700307846,-0.05984975025057793,0.0181150883436203
1761915495183864800,0.24086474609375,-0.08710693567991257,-0.055635299533605576,0.05685289576649666
1761915495193918700,0.250918701171875,-0.07722501456737518,-0.03249642252922058,0.09094295650720596
1761915495203972900,0.260972900390625,-0.05475379154086113,-0.012030829675495625,0.10979121178388596
1761915495214027800,0.27102783203125,-0.03562803566455841,0.0070640346966683865,0.10950758308172226
1761915495224081700,0.28108154296875,-0.035177428275346756,0.0013941648649051785,0.09425380080938339
1761915495234135800,0.2911357421875,-0.047022104263305664,-0.03500591963529587,0.07552831619977951
1761915495244189700,0.301189697265625,-0.058160509914159775,-0.050207775086164474,0.06620725244283676
1761915495254244900,0.311244873046875,-0.054425425827503204,-0.03954634442925453,0.07192771881818771
1761915495264298800,0.321298828125,-0.04169498383998871,-0.009153018705546856,0.07558557391166687
1761915495274353000,0.331352783203125,-0.022096779197454453,0.029141640290617943,0.07231121510267258
1761915495284406800,0.34140673828125,-0.0026282735634595156,0.06205671280622482,0.059792228043079376
1761915495294461700,0.351461669921875,0.008144479244947433,0.07804020494222641,0.032825589179992676
1761915495304515800,0.361515869140625,0.001389637473039329,0.07270190119743347,0.013165869750082493
1761915495314569700,0.37156982421875,-0.0075726984068751335,0.06564319133758545,-0.003626426449045539
1761915495324624000,0.381623779296875,-0.01281486451625824,0.05253005400300026,-0.00436119269579649
1761915495334677800,0.391677734375,-0.008301339112222195,0.03506291285157204,0.01363272126764059
1761915495344732700,0.401732666015625,0.002548911375924945,0.025492576882243156,0.04123585298657417
1761915495354786800,0.411786865234375,0.007841943763196468,0.02022537589073181,0.07167498767375946
1761915495364840700,0.4218408203125,-0.002670884132385254,0.004481301177293062,0.10138814151287079
1761915495374894800,0.431894775390625,-0.004251203965395689,0.002751844236627221,0.1289300173521042
1761915495384949800,0.44194970703125,0.003748399205505848,0.018693527206778526,0.15284360945224762
1761915495395004000,0.45200390625,0.033976078033447266,0.029521940276026726,0.1831120252609253
1761915495405057800,0.462057861328125,0.07234317064285278,0.05686035379767418,0.21699969470500946
1761915495415111700,0.472111572265625,0.10276046395301819,0.12020736932754517,0.2435455471277237
1761915495425165600,0.48216552734375,0.10604681074619293,0.15692463517189026,0.257098913192749
1761915495435220700,0.492220703125,0.08904358744621277,0.14060078561306,0.2563851773738861
1761915495445275000,0.50227490234375,0.0598878338932991,0.08779243379831314,0.24676744639873505
1761915495455328800,0.512328857421875,0.029507558792829514,0.025043034926056862,0.2362482249736786
1761915495465383000,0.5223828125,0.006444050930440426,-0.020378774031996727,0.2304007112979889
1761915495475437800,0.532437744140625,-0.004759601317346096,-0.03778599575161934,0.21457834541797638
1761915495485491700,0.54249169921875,-0.008548480458557606,-0.041125066578388214,0.1913079023361206
1761915495495545900,0.5525458984375,0.011977034620940685,-0.027155721560120583,0.16164907813072205
1761915495505599700,0.562599853515625,0.05016409978270531,0.02298707515001297,0.14042209088802338
1761915495515655000,0.572655029296875,0.0836847797036171,0.10646358877420425,0.14034885168075562
1761915495525708800,0.582708740234375,0.10882502049207687,0.1954757571220398,0.16543583571910858
1761915495535762700,0.5927626953125,0.13760872185230255,0.30010202527046204,0.21149148046970367
1761915495545816600,0.602816650390625,0.1736101359128952,0.4352199137210846,0.26628148555755615
1761915495555870700,0.61287060546875,0.19138993322849274,0.5704184770584106,0.284823477268219
1761915495565926000,0.62292578125,0.2011866420507431,0.658102810382843,0.2732224762439728
1761915495575979800,0.632979736328125,0.19813279807567596,0.7209206223487854,0.25335049629211426
1761915495586034000,0.643033935546875,0.17625625431537628,0.7830716371536255,0.23627085983753204
1761915495596087800,0.653087890625,0.1706433743238449,0.7719305753707886,0.24057559669017792
1761915495606142700,0.663142822265625,0.2058495730161667,0.6986446380615234,0.2436656504869461
1761915495616196900,0.67319677734375,0.26844558119773865,0.5850400328636169,0.24187254905700684
1761915495626250800,0.683250732421875,0.3265741169452667,0.5232189893722534,0.24832379817962646
1761915495636305000,0.693304931640625,0.3512701392173767,0.5287165641784668,0.246846005320549
1761915495646359800,0.70335986328125,0.35111087560653687,0.588335394859314,0.24790620803833008
1761915495656413700,0.71341357421875,0.355317085981369,0.7056804299354553,0.2543063163757324
1761915495666467600,0.723467529296875,0.3525439500808716,0.789455771446228,0.24634505808353424
1761915495676521700,0.733521728515625,0.36176592111587524,0.831385612487793,0.22627894580364227
1761915495686575600,0.74357568359375,0.36485013365745544,0.8789832592010498,0.17648155987262726
1761915495696630800,0.753630859375,0.2826751172542572,0.8494237661361694,0.10614747554063797
1761915495706685000,0.763684814453125,0.16191565990447998,0.8572523593902588,0.04192481189966202
1761915495716738800,0.77373876953125,0.04575337469577789,0.820989191532135,-0.014917430467903614
1761915495726792700,0.783792724609375,-0.01788019761443138,0.6991402506828308,-0.0766172781586647
1761915495736848000,0.793847900390625,-0.033845849335193634,0.5058109760284424,-0.17580512166023254
1761915495746901800,0.80390185546875,-0.048647429794073105,0.16991740465164185,-0.32316872477531433
1761915495756956000,0.813955810546875,-0.09019167721271515,-0.20756012201309204,-0.4866088032722473
1761915495767009800,0.824009765625,-0.12661972641944885,-0.4447721242904663,-0.5843249559402466
1761915495777064700,0.834064697265625,-0.1477585732936859,-0.49541959166526794,-0.5861591100692749
1761915495787118600,0.84411865234375,-0.14773353934288025,-0.4639926850795746,-0.5512490272521973
1761915495797172700,0.8541728515625,-0.1568002700805664,-0.4227336645126343,-0.5276837944984436
1761915495807226600,0.8642265625,-0.18647401034832,-0.35024988651275635,-0.5197867155075073
1761915495817280800,0.87428076171875,-0.2267812192440033,-0.318635493516922,-0.5219851732254028
1761915495827336000,0.8843359375,-0.2613924443721771,-0.36740943789482117,-0.5331342220306396
1761915495837389800,0.894389892578125,-0.2804705500602722,-0.44188234210014343,-0.5390387177467346
1761915495847443700,0.904443603515625,-0.28528526425361633,-0.5064464211463928,-0.523773729801178
1761915495857497600,0.91449755859375,-0.27495673298835754,-0.5787472724914551,-0.4851935803890228
1761915495867552800,0.924552734375,-0.25377342104911804,-0.6874473690986633,-0.44523099064826965
1761915495877607000,0.93460693359375,-0.239824578166008,-0.7742475271224976,-0.3964703679084778
1761915495887660800,0.944660888671875,-0.22842784225940704,-0.7924896478652954,-0.33040907979011536
1761915495897715000,0.95471484375,-0.22324401140213013,-0.7693478465080261,-0.26469478011131287
1761915495907769600,0.96476953125,-0.230614572763443,-0.7221981287002563,-0.19423818588256836
1761915495917827300,0.974827392578125,-0.23561225831508636,-0.6832004189491272,-0.1263265162706375
1761915495927881200,0.984881103515625,-0.2475498765707016,-0.6542393565177917,-0.048835184425115585
1761915495937935400,0.994935302734375,-0.2576395273208618,-0.6691501140594482,0.02816479280591011
1761915495947990500,1.004990478515625,-0.25641635060310364,-0.6623470783233643,0.10155937820672989
1761915495958044400,1.01504443359375,-0.24970117211341858,-0.6102367043495178,0.1802257001399994
1761915495968098300,1.025098388671875,-0.24818290770053864,-0.5475714802742004,0.258520245552063
1761915495978152200,1.035152099609375,-0.2593095898628235,-0.5189398527145386,0.3246593177318573
1761915495988206300,1.045206298828125,-0.26486068964004517,-0.5435221195220947,0.3625347912311554
1761915495998261200,1.05526123046875,-0.2577228844165802,-0.5651763081550598,0.39139091968536377
1761915496008315400,1.0653154296875,-0.2531214654445648,-0.5098240971565247,0.4153748154640198
1761915496018369300,1.075369384765625,-0.24140702188014984,-0.4122227132320404,0.42886561155319214
1761915496028423400,1.08542333984375,-0.22418969869613647,-0.30051401257514954,0.4277987480163574
1761915496038478300,1.095478271484375,-0.20249797403812408,-0.21353811025619507,0.4055198132991791
1761915496048532200,1.1055322265625,-0.1760309487581253,-0.17039330303668976,0.36070331931114197
1761915496058586400,1.11558642578125,-0.15362630784511566,-0.15731719136238098,0.3042762577533722
1761915496068640300,1.12564013671875,-0.1364087015390396,-0.17332518100738525,0.2545846104621887
1761915496078695400,1.1356953125,-0.12960486114025116,-0.2042466104030609,0.21501164138317108
1761915496088749300,1.145749267578125,-0.13028156757354736,-0.20322288572788239,0.1882553994655609
1761915496098803200,1.15580322265625,-0.1356678158044815,-0.1713174283504486,0.16749338805675507
1761915496108857300,1.165857421875,-0.13786253333091736,-0.13051965832710266,0.1422194540500641
1761915496118911200,1.1759111328125,-0.1280040442943573,-0.11042078584432602,0.10957442969083786
1761915496128966400,1.18596630859375,-0.11450181156396866,-0.1124969869852066,0.07835978269577026
1761915496139020300,1.196020263671875,-0.10119639337062836,-0.1246684268116951,0.04791559278964996
1761915496149074400,1.206074462890625,-0.09444847702980042,-0.13653866946697235,0.028724055737257004
1761915496159128000,1.216128173828125,-0.09714013338088989,-0.15067686140537262,0.03202664107084274
1761915496169183200,1.226183349609375,-0.09590309113264084,-0.1615457534790039,0.04731185361742973
1761915496179237400,1.2362373046875,-0.09287161380052567,-0.14358459413051605,0.06973087787628174
1761915496189291300,1.246291259765625,-0.07967565208673477,-0.09931965917348862,0.08464537560939789
1761915496199345400,1.256345458984375,-0.05957464501261711,-0.03767148032784462,0.09115574508905411
1761915496209399300,1.2663994140625,-0.02695491909980774,0.020500481128692627,0.09355685114860535
1761915496219454200,1.2764541015625,-0.0032293491531163454,0.06246098130941391,0.09496805816888809
1761915496229508400,1.28650830078125,0.009454221464693546,0.05221526697278023,0.08862147480249405
1761915496239562200,1.296562255859375,0.01053306832909584,0.026868099346756935,0.08364163339138031
1761915496249616400,1.306616455078125,0.012373046018183231,0.01582450233399868,0.07331150025129318
1761915496259671300,1.31667138671875,0.010260093957185745,0.03735802322626114,0.06522028148174286
1761915496269725400,1.326725341796875,0.025286979973316193,0.07210642099380493,0.04100123047828674
1761915496279779000,1.336779052734375,0.044132307171821594,0.11877299100160599,-0.0015779229579493403
1761915496289833200,1.346833251953125,0.05878182500600815,0.12849804759025574,-0.050025083124637604
1761915496299888400,1.356888427734375,0.053348708897829056,0.07405265420675278,-0.09166627377271652
1761915496309942300,1.3669423828125,0.03802355006337166,-0.003394198836758733,-0.11902599036693573
1761915496319996400,1.376996337890625,0.029697176069021225,-0.024866200983524323,-0.11468050628900528
1761915496330050300,1.38705029296875,0.03531245142221451,-0.0008303736103698611,-0.08746087551116943
1761915496340105200,1.397105224609375,0.04493125528097153,0.03747786581516266,-0.04580477252602577
1761915496350159400,1.407159423828125,0.049253564327955246,0.07588331401348114,-0.009810020215809345
1761915496360213200,1.417213134765625,0.053463757038116455,0.10276313126087189,0.017617342993617058
1761915496370267400,1.427267333984375,0.04998966306447983,0.11655191332101822,0.021626198664307594
1761915496380321300,1.4373212890625,0.05048660933971405,0.09221141785383224,0.008531702682375908
1761915496390376400,1.44737646484375,0.043347474187612534,0.056824665516614914,-0.008743690326809883
1761915496400430000,1.45743017578125,0.0353955402970314,0.01726873591542244,-0.007420365698635578
1761915496410484200,1.467484130859375,0.023176159709692,0.010279535315930843,0.007422762457281351
1761915496420538000,1.4775380859375,0.018399514257907867,0.03245088458061218,0.028802620247006416
1761915496430593300,1.48759326171875,0.022755911573767662,0.0654786080121994,0.04731638357043266
1761915496440647400,1.4976474609375,0.032526250928640366,0.09293153882026672,0.05829819291830063
1761915496450701300,1.507701416015625,0.038115426898002625,0.11551780998706818,0.05182644724845886
1761915496460755500,1.51775537109375,0.03314090892672539,0.1115582212805748,0.026040121912956238
1761915496470810400,1.527810302734375,0.028119519352912903,0.07563617080450058,-0.007084274664521217
1761915496480864300,1.5378642578125,0.028175178915262222,0.03555266931653023,-0.02185176871716976
1761915496490918400,1.54791845703125,0.03273051604628563,0.0158346239477396,-0.020896758884191513
1761915496500972300,1.55797216796875,0.026399649679660797,0.007256847806274891,0.002686863299459219
1761915496511026400,1.5680263671875,0.025493642315268517,0.0012298477813601494,0.03482988476753235
1761915496521081000,1.5780810546875,0.022827284410595894,0.003962517250329256,0.062489476054906845
1761915496531135200,1.58813525390625,0.023785756900906563,0.013907826505601406,0.07391203939914703
1761915496541189000,1.598189208984375,0.029858296737074852,0.03482668846845627,0.07634377479553223
1761915496551243300,1.6082431640625,0.03831782937049866,0.04601942375302315,0.06589379906654358
1761915496561298400,1.61829833984375,0.040410805493593216,0.03734816983342171,0.049669284373521805
1761915496571352300,1.628352294921875,0.04014156013727188,0.03237684816122055,0.037043772637844086
1761915496581406500,1.638406494140625,0.04020015150308609,0.018250109627842903,0.021403025835752487
1761915496591460400,1.64846044921875,0.04343162849545479,0.019641079008579254,0.00626029260456562
1761915496601515300,1.658515380859375,0.05104880407452583,0.04150856286287308,-0.011863050982356071
1761915496611569400,1.6685693359375,0.054113566875457764,0.07072130590677261,-0.028422852978110313
1761915496621623300,1.678623291015625,0.06153792887926102,0.09697847813367844,-0.032947830855846405
1761915496631677400,1.688677490234375,0.0623997263610363,0.11159949749708176,-0.03585520386695862
1761915496641731300,1.6987314453125,0.05992059037089348,0.10095324367284775,-0.04049362987279892
1761915496651786200,1.7087861328125,0.06821846961975098,0.08464884012937546,-0.043728306889534
1761915496661840100,1.718840087890625,0.06506954878568649,0.07991719990968704,-0.039925310760736465
1761915496671894300,1.728894287109375,0.04580583795905113,0.06846427917480469,-0.03286207467317581
1761915496681948400,1.738948486328125,0.02815094403922558,0.062425825744867325,-0.020674651488661766
1761915496692003300,1.74900341796875,0.006296511739492416,0.06557368487119675,-0.00860494002699852
1761915496702057500,1.759057373046875,-0.01576458103954792,0.05774558708071709,-0.00449807895347476
1761915496712111400,1.769111328125,-0.039265114814043045,0.027169035747647285,-0.009521067142486572
1761915496722165200,1.779165283203125,-0.05162457749247551,-0.008654207922518253,-0.02484223246574402
1761915496732220400,1.789220458984375,-0.04824289679527283,-0.029979737475514412,-0.029202094301581383
1761915496742274300,1.7992744140625,-0.03332919627428055,-0.014812502078711987,-0.028622856363654137
1761915496752328400,1.809328369140625,-0.019268769770860672,0.015247928909957409,-0.022657908499240875
1761915496762382300,1.81938232421875,-0.0073505910113453865,0.033544644713401794,-0.02064242772758007
1761915496772436500,1.8294365234375,-0.007626760751008987,0.031856734305620193,-0.020901286974549294
1761915496782491100,1.8394912109375,-0.01818219944834709,0.014988803304731846,-0.020592359825968742
1761915496792545300,1.849545166015625,-0.02959304489195347,-0.003388073528185487,-0.014489993453025818
1761915496802599200,1.85959912109375,-0.0336487740278244,-0.01967010833323002,-0.002121474128216505
1761915496812653300,1.8696533203125,-0.03826509788632393,-0.027598338201642036,0.013194631785154343
1761915496822708500,1.87970849609375,-0.036909814924001694,-0.02117399498820305,0.027753867208957672
1761915496832762400,1.889762451171875,-0.0420563742518425,-0.0028839372098445892,0.03250414878129959
1761915496842816300,1.899816162109375,-0.047512125223875046,0.010359430685639381,0.024468857795000076
1761915496852870100,1.9098701171875,-0.05247492715716362,0.0062911855056881905,0.005784652195870876
1761915496862925300,1.91992529296875,-0.0624532587826252,-0.009193764999508858,-0.01834811456501484
1761915496872979500,1.9299794921875,-0.0653638243675232,-0.01028432883322239,-0.04572753980755806
1761915496883033300,1.940033447265625,-0.06620165705680847,0.0075695025734603405,-0.07033567875623703
1761915496893087500,1.95008740234375,-0.05982844531536102,0.027887290343642235,-0.0964282676577568
1761915496903141400,1.960141357421875,-0.05477749556303024,0.03713671490550041,-0.10822713375091553
1761915496913196300,1.9701962890625,-0.05329864099621773,0.04398663341999054,-0.10984048247337341
1761915496923247400,1.980247314453125,-0.04757657274603844,0.05070418864488602,-0.09196934103965759
1761915496933301200,1.99030126953125,-0.033245306462049484,0.04569398611783981,-0.06736385822296143
1761915496943355400,2.00035546875,-0.02232847549021244,0.048539306968450546,-0.04150696471333504
1761915496953410300,2.010410400390625,-0.008076834492385387,0.05542491003870964,-0.018606707453727722
1761915496963464200,2.020464111328125,0.001752360025420785,0.06935670226812363,-0.007494401652365923
1761915496973518300,2.030518310546875,0.00657561095431447,0.07065019756555557,-0.014552044682204723
1761915496983572200,2.040572265625,0.00755112711340189,0.06556756049394608,-0.031614117324352264
1761915496993627400,2.05062744140625,0.004024302586913109,0.04008536785840988,-0.054854460060596466
1761915497003681500,2.060681640625,-0.002673813607543707,0.015506255440413952,-0.08070895820856094
1761915497013735200,2.070735107421875,-0.013419668190181255,-0.006609699688851833,-0.09570308774709702
1761915497023789300,2.080789306640625,-0.02533118985593319,-0.033000826835632324,-0.09550894796848297
1761915497033844200,2.09084423828125,-0.0328998938202858,-0.054295994341373444,-0.08688296377658844
1761915497043898400,2.1008984375,-0.037994787096977234,-0.06347138434648514,-0.07804793119430542
1761915497053952300,2.1109521484375,-0.03448393940925598,-0.05355563759803772,-0.07037190347909927
1761915497064006400,2.12100634765625,-0.031010113656520844,-0.03508874401450157,-0.0665619820356369
1761915497074060300,2.131060302734375,-0.028624454513192177,-0.01805703155696392,-0.06464344263076782
1761915497084115200,2.141115234375,-0.022457106038928032,-0.013442838564515114,-0.0612146221101284
1761915497094169300,2.15116943359375,-0.01278583612293005,-0.0004679173871409148,-0.055330898612737656
1761915497104223200,2.16122314453125,-0.0014793860027566552,0.022096779197454453,-0.04123478755354881
1761915497114277400,2.17127734375,0.002555569401010871,0.027838822454214096,-0.034097250550985336
1761915497124332300,2.181332275390625,-0.0009432916413061321,0.026391925290226936,-0.03236992284655571
1761915497134386200,2.19138623046875,-0.011058243922889233,0.012951218523085117,-0.03363971784710884
1761915497144440300,2.2014404296875,-0.01943814568221569,-0.0006934871198609471,-0.03584694862365723
1761915497154494200,2.211494140625,-0.028778385370969772,-0.005474127363413572,-0.03080638125538826
1761915497164549400,2.22154931640625,-0.027337348088622093,-0.0041252365335822105,-0.020002735778689384
1761915497174603300,2.231603271484375,-0.020907413214445114,0.0036916739773005247,-0.0035324168857187033
1761915497184657400,2.241657470703125,-0.016278306022286415,0.026983680203557014,0.013493171893060207
1761915497194711300,2.251711181640625,-0.018748387694358826,0.04767351225018501,0.018259165808558464
1761915497204765400,2.261765380859375,-0.020321782678365707,0.05740949511528015,0.016500679776072502
1761915497214820400,2.2718203125,-0.021283451467752457,0.03272705525159836,0.01890498213469982
1761915497224874200,2.281874267578125,-0.02574930526316166,-0.016559002920985222,0.032935045659542084
1761915497234928400,2.291928466796875,-0.037944186478853226,-0.052070923149585724,0.05152257904410362
1761915497244982300,2.301982177734375,-0.051835499703884125,-0.05811310559511185,0.06791327148675919
1761915497255037200,2.312037109375,-0.05853228643536568,-0.04002784192562103,0.08535431325435638
1761915497265091300,2.32209130859375,-0.053701046854257584,-0.015926502645015717,0.085214763879776
1761915497275145200,2.332145263671875,-0.046185337007045746,0.010841462761163712,0.06959185749292374
1761915497285199400,2.342199462890625,-0.04252482205629349,0.025181785225868225,0.042398322373628616
1761915497295254300,2.352254150390625,-0.04048776999115944,0.019105518236756325,0.0014945659786462784
1761915497305308400,2.362308349609375,-0.04012664780020714,0.023240340873599052,-0.03525865450501442
1761915497315362300,2.3723623046875,-0.04135303199291229,0.0266028493642807,-0.06690926104784012
1761915497325416400,2.38241650390625,-0.03970373794436455,0.026509372517466545,-0.08003651350736618
1761915497335470000,2.392469970703125,-0.0355534665286541,0.029774140566587448,-0.09048356115818024
1761915497345525200,2.402525146484375,-0.03254702314734459,0.01636086404323578,-0.0927075669169426
1761915497355579400,2.412579345703125,-0.03220400959253311,-0.008348210714757442,-0.08711759001016617
1761915497365633300,2.42263330078125,-0.03277978301048279,-0.038955122232437134,-0.07096365839242935
1761915497375687400,2.4326875,-0.034511104226112366,-0.06836121529340744,-0.0512637197971344
1761915497385742000,2.4427421875,-0.03759611025452614,-0.06961742788553238,-0.02545342780649662
1761915497395796200,2.452796142578125,-0.039318379014730453,-0.05495353043079376,-0.006140184123069048
1761915497405850400,2.462850341796875,-0.03663657605648041,-0.02401132695376873,0.0022144184913486242
1761915497415904300,2.472904296875,-0.03319177404046059,0.008045676164329052,0.006652576383203268
1761915497425959400,2.48295947265625,-0.029275862500071526,0.02418895997107029,0.0021550299134105444
1761915497436013300,2.493013427734375,-0.030184533447027206,0.009109875187277794,0.0046517434529960155
1761915497446067500,2.5030673828125,-0.026620425283908844,-0.016896957531571388,0.015978699550032616
1761915497456121000,2.51312109375,-0.034143056720495224,-0.03277711942791939,0.03207005187869072
1761915497466175200,2.52317529296875,-0.0372440405189991,-0.03461816534399986,0.03906511142849922
1761915497476230400,2.53323046875,-0.03317419812083244,-0.023446204140782356,0.0385013185441494
1761915497486284300,2.5432841796875,-0.03461550176143646,-0.01865570992231369,0.025740517303347588
1761915497496338400,2.55333837890625,-0.03519900143146515,-0.019274627789855003,0.011447598226368427
1761915497506392300,2.563392333984375,-0.0355428121984005,-0.016339559108018875,0.007246727589517832
1761915497516447200,2.573447265625,-0.029375199228525162,-0.012613263912498951,0.010946657508611679
1761915497526501400,2.58350146484375,-0.026633474975824356,-0.018435997888445854,0.024033430963754654
1761915497536555300,2.59355517578125,-0.024827051907777786,-0.02335112914443016,0.03580886498093605
1761915497546609400,2.603609375,-0.0222626943141222,-0.02654292806982994,0.04483378306031227
1761915497556664300,2.613664306640625,-0.014931279234588146,-0.02774534374475479,0.04868844151496887
1761915497566718500,2.623718505859375,-0.009586048312485218,-0.020718595013022423,0.046009037643671036
1761915497576772000,2.633772216796875,0.0018679412314668298,-0.00036272252327762544,0.042751725763082504
1761915497586826200,2.643826171875,0.008164985105395317,0.02630537375807762,0.03567757084965706
1761915497596880100,2.653880126953125,0.006447246763855219,0.023726634681224823,0.025186046957969666
1761915497606935300,2.663935302734375,0.005113269202411175,0.006984938867390156,0.018760638311505318
1761915497616989400,2.673989501953125,-0.0014064153656363487,-0.009428655728697777,0.012229502201080322
1761915497627043300,2.684043212890625,-0.0005787048721686006,-0.01113387756049633,0.016567790880799294
1761915497637097500,2.694097412109375,-0.0014415690675377846,-0.006042712368071079,0.013172526843845844
1761915497647152400,2.70415234375,-0.007585748098790646,-0.001079645473510027,0.013291836716234684
1761915497657206300,2.714206298828125,-0.01239088922739029,-0.006887467112392187,0.007751929108053446
1761915497667260400,2.724260498046875,-0.02087598666548729,-0.022247249260544777,0.00304692261852324
1761915497677314300,2.734314208984375,-0.0239559318870306,-0.02640417590737343,0.004201402887701988
1761915497687369500,2.744369384765625,-0.019210180267691612,-0.02298041619360447,0.0028522454667836428
1761915497697423000,2.754423095703125,-0.012979980558156967,-0.015924638137221336,0.004470914602279663
1761915497707477200,2.764477294921875,-0.011608452536165714,-0.011053982190787792,0.006159625016152859
1761915497717531100,2.77453125,-0.014753379859030247,0.00004314320904086344,0.00851412583142519
1761915497727585300,2.784585205078125,-0.011153318919241428,0.015085741877555847,0.020862404257059097
1761915497737640400,2.794640380859375,-0.004048803821206093,0.019877567887306213,0.03701900318264961
1761915497747694300,2.8046943359375,0.0010508833220228553,0.011968512088060379,0.050641074776649475
1761915497757748500,2.81474853515625,-0.004526575095951557,0.006449110805988312,0.049250636249780655
1761915497767802000,2.824802001953125,-0.0067812069319188595,0.005121791269630194,0.037636060267686844
1761915497777857300,2.834857177734375,-0.010860903188586235,0.0032687638886272907,0.017474597319960594
1761915497787911400,2.844911376953125,-0.010012686252593994,-0.0023401195649057627,-0.005022455472499132
1761915497797965300,2.85496533203125,-0.013515542261302471,-0.010439591482281685,-0.023298664018511772
1761915497808019500,2.86501953125,-0.014239655807614326,-0.028609806671738625,-0.03969920799136162
1761915497818074000,2.87507421875,-0.009333048015832901,-0.03310708701610565,-0.045223671942949295
1761915497828128300,2.885128173828125,-0.009617473930120468,-0.035653069615364075,-0.04235677793622017
1761915497838182100,2.89518212890625,-0.012924320995807648,-0.03707439824938774,-0.026824690401554108
1761915497848236300,2.905236328125,-0.010595385916531086,-0.02695811353623867,-0.005546032916754484
1761915497858290200,2.915290283203125,-0.006695453077554703,-0.008796953596174717,0.019701000303030014
1761915497868345300,2.925345458984375,-0.004786232952028513,0.010306167416274548,0.03910905122756958
1761915497878399500,2.9353994140625,-0.006060555577278137,0.015614911913871765,0.05152257904410362
1761915497888453000,2.945453125,-0.008443285711109638,0.014667092822492123,0.05607312172651291
1761915497898507300,2.95550732421875,-0.01139912847429514,0.007626228034496307,0.06276245415210724
1761915497908562400,2.9655625,-0.011168498545885086,-0.004171042703092098,0.06588473916053772
1761915497918616300,2.9756162109375,-0.014485731720924377,-0.011839615181088448,0.0676027461886406
1761915497928670200,2.985670166015625,-0.009494435973465443,0.0018751317402347922,0.05891471728682518
1761915497938724400,2.995724365234375,-0.006714894436299801,0.018132131546735764,0.04373150318861008
1761915497948779300,3.005779296875,-0.00809174869209528,0.018281536176800728,0.023212378844618797
1761915497958833200,3.015833251953125,-0.005824067164212465,0.014676414430141449,0.0054703992791473866
1761915497968887300,3.02588720703125,-0.0067726848646998405,0.015797605738043785,-0.0009190568816848099
1761915497978941200,3.035941162109375,-0.005819273181259632,0.017312144860625267,0.001710814656689763
1761915497988995300,3.045995361328125,-0.004756938200443983,0.011379154399037361,-0.003382747294381261
1761915497999050500,3.056050537109375,0.0018945727497339249,0.00660517206415534,-0.0038748993538320065
1761915498009104100,3.066104248046875,0.0019014970166608691,0.013063337653875351,-0.003885818412527442
1761915498019158300,3.076158203125,0.0009006810723803937,0.007284544408321381,-0.0015195996966212988
1761915498029212200,3.086212158203125,-0.005602492019534111,-0.012830311432480812,0.002246376359835267
1761915498039267300,3.096267333984375,-0.008636098355054855,-0.012112056836485863,0.010390855371952057
1761915498049321200,3.1063212890625,-0.003796336008235812,-0.0023782027419656515,0.01751454547047615
1761915498059375400,3.116375244140625,-0.00027031084755435586,0.007420632056891918,0.02479722537100315
1761915498069429200,3.12642919921875,0.0023997745011001825,0.021343637257814407,0.027223099023103714
1761915498079484200,3.136484130859375,0.006767624989151955,0.03399685025215149,0.026989273726940155
1761915498089538300,3.146538330078125,0.015133678913116455,0.02604731358587742,0.030487867072224617
1761915498099592200,3.15659228515625,0.01073733251541853,0.018669558688998222,0.03952557221055031
1761915498109646300,3.166646240234375,0.007387875113636255,0.01720215566456318,0.041306961327791214
1761915498119700200,3.1767001953125,0.0011667308863252401,0.0006372944335453212,0.04734301567077637
1761915498129755100,3.186755126953125,-0.006445115897804499,-0.018967298790812492,0.05410211533308029
1761915498139809300,3.196809326171875,-0.017360348254442215,-0.04657362774014473,0.06598487496376038
1761915498149863200,3.20686328125,-0.01804850809276104,-0.05315083637833595,0.08353537321090698
1761915498159917300,3.216917236328125,-0.01227264478802681,-0.046295326203107834,0.09166201204061508
1761915498169972200,3.22697216796875,-0.004295412451028824,-0.03401282802224159,0.08287517726421356
1761915498180026400,3.2370263671875,-0.0018522285390645266,-0.02142486535012722,0.05765903368592262
1761915498190080300,3.247080322265625,-0.007261907681822777,-0.01743891090154648,0.03203276917338371
1761915498200134400,3.257134521484375,-0.008465389721095562,-0.01329849474132061,0.01107661984860897
1761915498210189300,3.267189208984375,0.002743322169408202,-0.004811533261090517,0.001901230658404529
1761915498220243200,3.2772431640625,0.010093647055327892,-0.0002849582233466208,0.01164387259632349
1761915498230297300,3.28729736328125,0.013635384850203991,0.002103630919009447,0.025046763941645622
1761915498240351200,3.297351318359375,0.01641945354640484,0.007195328362286091,0.03525519371032715
1761915498250405400,3.3074052734375,0.011237207800149918,0.002484196564182639,0.04133891686797142
1761915498260460300,3.317460205078125,0.005852296482771635,-0.012110725045204163,0.040587905794382095
1761915498270514200,3.32751416015625,-0.004450141917914152,-0.025531459599733353,0.028114991262555122
1761915498280568300,3.337568359375,-0.007348460145294666,-0.030173880979418755,0.010810569860041142
1761915498290622200,3.347622314453125,-0.013950170017778873,-0.03266207128763199,-0.0006815029191784561
1761915498300677400,3.357677490234375,-0.010780209675431252,-0.02948998101055622,-0.016536099836230278
1761915498310731300,3.367731201171875,-0.004804875236004591,-0.01158501673489809,-0.03043939918279648
1761915498320785400,3.377785400390625,-0.000441818410763517,0.01531610544770956,-0.035226430743932724
1761915498330839000,3.387839111328125,0.005101551301777363,0.02677994966506958,-0.03562217578291893
1761915498340894200,3.397894287109375,0.009678459726274014,0.03484027087688446,-0.02996349148452282
1761915498350948400,3.4079482421875,0.014585333876311779,0.03719130903482437,-0.02219345234334469
1761915498361002200,3.418002197265625,0.009591907262802124,0.027238545939326286,-0.0065172878094017506
1761915498371056400,3.428056396484375,0.003882888937368989,0.012456935830414295,0.007653126027435064
1761915498381110300,3.4381103515625,-0.0005512743373401463,0.004274639766663313,0.018499648198485374
1761915498391165200,3.448165283203125,0.0012330436147749424,-0.005422994960099459,0.025376996025443077
1761915498401219300,3.45821923828125,-0.000728907180018723,-0.012356001883745193,0.030540065839886665
1761915498411273200,3.468273193359375,-0.00008841694943839684,-0.020539097487926483,0.03230121359229088
1761915498421327400,3.478327392578125,0.0012708604335784912,-0.02238520048558712,0.038490135222673416
1761915498431382300,3.48838232421875,0.0013899037148803473,-0.017486581578850746,0.04699014499783516
1761915498441436400,3.4984365234375,0.0029561088886111975,-0.010116283781826496,0.050277285277843475
1761915498451490000,3.508489990234375,0.004239219706505537,-0.005886651109904051,0.05483155697584152
1761915498461544200,3.518544189453125,0.005506617948412895,-0.0020660804584622383,0.053468815982341766
1761915498471599400,3.528599365234375,0.002097505610436201,-0.007808388210833073,0.046962182968854904
1761915498481653200,3.5386533203125,-0.0035151063930243254,-0.029159216210246086,0.04103584960103035
1761915498491707400,3.548707275390625,-0.01655287854373455,-0.0565708689391613,0.038539670407772064
1761915498501761300,3.55876123046875,-0.02298334613442421,-0.07141373306512833,0.048479385673999786
1761915498511816200,3.568816162109375,-0.02544357441365719,-0.07151279598474503,0.06946323066949844
1761915498521870300,3.578870361328125,-0.014817295596003532,-0.05145573243498802,0.08495936542749405
1761915498531924200,3.58892431640625,-0.0034080471377819777,-0.01050297450274229,0.09453902393579483
1761915498541978400,3.598978271484375,0.004156661685556173,0.011787150986492634,0.0785968080163002
1761915498552032300,3.6090322265625,0.0029433255549520254,0.018434934318065643,0.05614902451634407
1761915498562087400,3.61908740234375,-0.001350488979369402,0.025422535836696625,0.036079972982406616
1761915498572141000,3.62914111328125,-0.000952080066781491,0.03122050315141678,0.019302325323224068
1761915498582195200,3.6391953125,0.001386175281368196,0.040768999606370926,0.01685461401939392
1761915498592249000,3.6492490234375,0.0024732777383178473,0.05471198260784149,0.02743002586066723
1761915498602304300,3.65930419921875,-0.0016431703697890043,0.06374195963144302,0.0426153689622879
1761915498612358400,3.6693583984375,0.0004926847759634256,0.06858065724372864,0.06442825496196747
1761915498622412300,3.679412353515625,-0.0013440974289551377,0.07213225215673447,0.07852889597415924
1761915498632466400,3.689466552734375,0.0064802695997059345,0.07292986661195755,0.0844925120472908
1761915498642521300,3.699521240234375,0.01071256585419178,0.05602678284049034,0.074632428586483
1761915498652575200,3.7095751953125,0.004151601810008287,0.040599625557661057,0.060572799295186996
1761915498662629400,3.71962939453125,-0.007989749312400818,0.02984950877726078,0.03954474627971649
1761915498672683300,3.729683349609375,-0.016022376716136932,0.03254995495080948,0.030555512756109238
1761915498682738400,3.739738525390625,-0.006956176832318306,0.030117688700556755,0.02845960482954979
1761915498692792000,3.7497919921875,-0.002639458980411291,0.03062342293560505,0.020801419392228127
1761915498702846200,3.75984619140625,0.0037294907961040735,0.033723875880241394,0.007999869994819164
1761915498712900000,3.769900146484375,0.0028993834275752306,0.027271835133433342,-0.0030423952266573906
1761915498722954200,3.779954345703125,-0.00031851406674832106,0.0014215953415259719,-0.004068777430802584
1761915498733009400,3.790009521484375,-0.004710865672677755,-0.019528960809111595,0.0019651465117931366
1761915498743063300,3.800063232421875,-0.010935472324490547,-0.02995922975242138,0.0178194772452116
1761915498753117400,3.810117431640625,-0.015799203887581825,-0.032219987362623215,0.030731547623872757
1761915498763171000,3.820171142578125,-0.015418371185660362,-0.025492044165730476,0.03431296721100807
1761915498773226200,3.830226318359375,-0.010977815836668015,0.001806155894882977,0.027092603966593742
1761915498783280400,3.8402802734375,-0.008274707943201065,0.028424184769392014,0.0086014773696661
1761915498793334300,3.850334228515625,0.00009400958515470847,0.04188033938407898,-0.013334181159734726
1761915498803388400,3.860388427734375,0.0027326694689691067,0.05078541487455368,-0.023976173251867294
1761915498813443000,3.870443115234375,0.00935941282659769,0.054248858243227005,-0.018205635249614716
1761915498823497200,3.880497314453125,0.009672600775957108,0.043469447642564774,-0.00663473317399621
1761915498833551000,3.890551025390625,0.002913231961429119,0.025849973782896996,0.012796488590538502
1761915498843605200,3.900605224609375,-0.004320978652685881,0.012586631812155247,0.02966308780014515
1761915498853659100,3.9106591796875,-0.014762700535356998,0.00202267081476748,0.037042707204818726
1761915498863714300,3.92071435546875,-0.016815997660160065,-0.010810569860041142,0.03855191916227341
1761915498873768400,3.9307685546875,-0.013335512951016426,-0.011270497925579548,0.03621312975883484
1761915498883822000,3.940822021484375,-0.011401258409023285,-0.012812201865017414,0.028988774865865707
1761915498893876200,3.950876220703125,-0.016518522053956985,-0.005912217777222395,0.022587068378925323
1761915498903931400,3.960931396484375,-0.01058926060795784,0.004532699938863516,0.018867963925004005
1761915498913985300,3.9709853515625,-0.011660650372505188,0.0082704471424222,0.0201587975025177
1761915498924039400,3.981039306640625,-0.013375992886722088,0.01569400727748871,0.022046713158488274
1761915498934093600,3.991093505859375,-0.010724017396569252,0.02659326046705246,0.012318185530602932
1761915498944148500,4.0011484375,-0.0054914383217692375,0.03424505516886711,0.003745469730347395
1761915498954202400,4.011202392578125,-0.005032309330999851,0.04399248957633972,-0.0065324679017066956
1761915498964256500,4.021256591796875,-0.007153783459216356,0.04649532958865166,-0.007110639940947294
1761915498974310400,4.031310302734375,-0.012654276564717293,0.03879213705658913,-0.0009118663729168475
1761915498984365600,4.041365478515625,-0.01324150338768959,0.024879783391952515,0.007947404868900776
1761915498994419500,4.05141943359375,-0.015473231673240662,0.029470007866621017,0.01702532172203064
1761915499004473300,4.061473388671875,-0.013246030546724796,0.028110196813941002,0.023187344893813133
1761915499014527200,4.07152734375,-0.016522251069545746,0.02774401381611824,0.02532932534813881
1761915499024581400,4.081581298828125,-0.018571553751826286,0.02521667256951332,0.01804424822330475
1761915499034636500,4.091636474609375,-0.020168118178844452,0.027181020006537437,0.008461661636829376
1761915499044690400,4.1016904296875,-0.021377727389335632,0.018667427822947502,-0.007935953326523304
1761915499054744600,4.11174462890625,-0.02544650435447693,0.00017656758427619934,-0.020141754299402237
1761915499064798500,4.121798583984375,-0.022641662508249283,-0.009340505115687847,-0.01966984197497368
1761915499074853400,4.131853271484375,-0.01763412170112133,-0.017000287771224976,-0.003995274193584919
1761915499084907500,4.141907470703125,-0.011887285858392715,-0.012616459280252457,0.02491706795990467
1761915499094961400,4.15196142578125,-0.005160939879715443,-0.007960987277328968,0.0586521290242672
1761915499105015600,4.162015625,0.006051767151802778,-0.002013349672779441,0.09870420396327972
1761915499115070500,4.172070556640625,0.010938667692244053,-0.00914263166487217,0.1250191628932953
1761915499125124400,4.182124267578125,0.008707471191883087,-0.022600118070840836,0.13669073581695557
1761915499135178200,4.19217822265625,-0.004435494542121887,-0.03413906320929527,0.13468830287456512
1761915499145232400,4.202232421875,-0.015924904495477676,-0.043124035000801086,0.1308504194021225
1761915499155287600,4.21228759765625,-0.014888668432831764,-0.04435015469789505,0.12061003595590591
1761915499165341400,4.222341552734375,-0.00899482611566782,-0.0456114262342453,0.10981810837984085
1761915499175395600,4.2323955078125,-0.0019678096286952496,-0.0445120744407177,0.08797406405210495
1761915499185449500,4.242449462890625,0.00026045716367661953,-0.018764367327094078,0.06397365778684616
1761915499195503400,4.25250341796875,0.0008428904693573713,0.0035049861762672663,0.047025833278894424
1761915499205558500,4.26255859375,-0.00692022405564785,-0.00015952334797475487,0.037449635565280914
1761915499215612400,4.2726123046875,-0.014766163192689419,-0.0070946612395346165,0.03534147888422012
1761915499225666600,4.28266650390625,-0.020831512287259102,-0.010411894880235195,0.037572409957647324
1761915499235720400,4.292720458984375,-0.0212395079433918,-0.001767273643054068,0.04026087000966072
1761915499245775400,4.302775390625,-0.01654355600476265,0.02496207505464554,0.02881726622581482
1761915499255829200,4.312829345703125,-0.008985505439341068,0.05993284285068512,0.008809204213321209
1761915499265883400,4.32288330078125,-0.00872211903333664,0.07948017865419388,-0.02099609561264515
1761915499275937300,4.332937255859375,-0.013547234237194061,0.07161027193069458,-0.049563292413949966
1761915499285992400,4.342992431640625,-0.017429856583476067,0.038553785532712936,-0.06896016001701355
1761915499296046600,4.353046630859375,-0.020243752747774124,0.003065032185986638,-0.07294664531946182
1761915499306100500,4.3631005859375,-0.021753499284386635,-0.010863034054636955,-0.05651041492819786
1761915499316154400,4.373154296875,-0.024404142051935196,-0.01709696091711521,-0.033305492252111435
1761915499326209500,4.38320947265625,-0.02353701740503311,-0.01200899202376604,-0.011766377836465836
1761915499336263400,4.393263427734375,-0.023085610941052437,-0.015134477987885475,-0.00021891183860134333
1761915499346317600,4.403317626953125,-0.01401754841208458,-0.007656588219106197,-0.008222243748605251
1761915499356371500,4.413371337890625,-0.014360563829541206,0.0037092508282512426,-0.02652934566140175
1761915499366425600,4.423425537109375,-0.014358432963490486,0.00999431125819683,-0.048825595527887344
1761915499376480300,4.433480224609375,-0.01786368526518345,-0.0006977482116781175,-0.0645475685596466
1761915499386534400,4.443534423828125,-0.01991458609700203,-0.013790380209684372,-0.0667278990149498
1761915499396588300,4.45358837890625,-0.024096282199025154,-0.02558072656393051,-0.05398280918598175
1761915499406642400,4.463642333984375,-0.027787422761321068,-0.030854584649205208,-0.033912960439920425
1761915499416697600,4.473697509765625,-0.032222386449575424,-0.029389847069978714,-0.02395140565931797
1761915499426751500,4.48375146484375,-0.023439811542630196,-0.015382152050733566,-0.024592427536845207
1761915499436805400,4.493805419921875,-0.011902731843292713,0.009365804493427277,-0.02883031591773033
1761915499446859300,4.503859375,-0.005269064102321863,0.026075541973114014,-0.03590979799628258
1761915499456914400,4.51391455078125,-0.00899482611566782,0.021395303308963776,-0.042265962809324265
1761915499466968600,4.523968505859375,-0.013099556788802147,0.000060453756304923445,-0.04903199151158333
1761915499477022500,4.5340224609375,-0.014224476180970669,-0.019171297550201416,-0.038838475942611694
1761915499487076600,4.54407666015625,-0.02116973325610161,-0.02821432799100876,-0.02514503337442875
1761915499497131300,4.55413134765625,-0.016957145184278488,-0.021682392805814743,-0.010962369851768017
1761915499507185400,4.564185302734375,-0.011141334660351276,-0.007773767225444317,-0.00031664984999224544
1761915499517239300,4.5742392578125,-0.0038219024427235126,0.006727943662554026,-0.006882407236844301
1761915499527293400,4.58429345703125,0.005020325072109699,0.00771890627220273,-0.01889432966709137
1761915499537348600,4.5943486328125,0.003964914008975029,0.00424241553992033,-0.036184102296829224
1761915499547402500,4.604402587890625,-0.0005864280392415822,-0.020430972799658775,-0.05330663174390793
1761915499557456400,4.614456298828125,-0.001761148450896144,-0.03988935798406601,-0.06528952717781067
1761915499567510300,4.62451025390625,-0.004641090985387564,-0.045166946947574615,-0.06555024534463882
1761915499577564400,4.634564453125,-0.00293373828753829,-0.04757923632860184,-0.06332144886255264
1761915499587619600,4.64461962890625,0.0010961571242660284,-0.04475735127925873,-0.05844440311193466
1761915499597673500,4.654673583984375,0.0020692760590463877,-0.03875724971294403,-0.06083991378545761
1761915499607727600,4.6647275390625,0.008058459497988224,-0.026561835780739784,-0.06221943348646164
1761915499617781500,4.674781494140625,0.012430304661393166,-0.0049132658168673515,-0.05673651769757271
1761915499627836400,4.68483642578125,0.020665064454078674,0.005884254351258278,-0.052433647215366364
1761915499637890300,4.694890380859375,0.023074159398674965,-0.009856625460088253,-0.04605484381318092
1761915499647944400,4.7049443359375,0.018196847289800644,-0.0258739423006773,-0.04760373756289482
1761915499657998300,4.714998291015625,0.015002119354903698,-0.04674407094717026,-0.04498798027634621
1761915499668053500,4.725053466796875,0.009131979197263718,-0.05089567229151726,-0.045888662338256836
1761915499678107400,4.735107421875,0.006139118690043688,-0.04788150638341904,-0.0421714223921299
1761915499688161300,4.745161376953125,0.003602990647777915,-0.040878456085920334,-0.04056260734796524
1761915499698215400,4.75521533203125,0.0010335728293284774,-0.0389695018529892,-0.05433487892150879
1761915499708270300,4.765270263671875,0.0010953581659123302,-0.03241945803165436,-0.06686318665742874
1761915499718324500,4.775324462890625,0.005517537239938974,-0.019103920087218285,-0.07746656239032745
1761915499728378600,4.785378662109375,0.01215733028948307,-0.005358280148357153,-0.07305850088596344
1761915499738432500,4.7954326171875,0.01236612256616354,0.012820989824831486,-0.061046041548252106
1761915499748487400,4.8054873046875,0.011759454384446144,0.021746573969721794,-0.048950497061014175
1761915499758541300,4.815541259765625,0.009179383516311646,0.0226198248565197,-0.03165007010102272
1761915499768595500,4.825595458984375,0.008464857004582882,0.013670272193849087,-0.019364910200238228
1761915499778649300,4.8356494140625,0.002329733222723007,0.0026791400741785765,-0.015739815309643745
1761915499788703500,4.845703369140625,-0.001204814063385129,-0.0029577065724879503,-0.020114056766033173
1761915499798758400,4.85575830078125,0.00004713794987765141,-0.016701215878129005,-0.024109596386551857
1761915499808812300,4.865812255859375,-0.0018903117161244154,-0.024764735251665115,-0.021812355145812035
1761915499818866400,4.875866455078125,0.004206462763249874,-0.01667005755007267,-0.015736086294054985
1761915499828920300,4.88592041015625,0.008859537541866302,0.004456267226487398,-0.006756439805030823
1761915499838972400,4.895972412109375,0.009884055703878403,0.021284248679876328,-0.00011957593233091757
1761915499849027300,4.90602734375,0.012406602501869202,0.028428977355360985,0.0056978329084813595
1761915499859081500,4.91608154296875,0.008235293440520763,0.02582094445824623,0.015057778917253017
1761915499869135400,4.92613525390625,0.0032509206794202328,0.004996622912585735,0.023511717095971107
1761915499879189500,4.936189453125,-0.005902363918721676,-0.023184947669506073,0.02760925702750683
1761915499889244400,4.946244384765625,-0.01420689933001995,-0.04965676739811897,0.027064373716711998
1761915499899298300,4.95629833984375,-0.017288176342844963,-0.05613677203655243,0.01714756153523922
1761915499909352400,4.9663525390625,-0.01118953712284565,-0.03626826032996178,0.01743944361805916
1761915499919406300,4.97640625,-0.009998039342463017,-0.012060390785336494,0.01775130070745945
1761915499929461800,4.986461669921875,-0.005272259935736656,0.009488577023148537,0.024054469540715218
1761915499939515600,4.996515625,0.0037204360123723745,0.02034575119614601,0.028172515332698822
1761915499949569800,5.00656982421875,0.0013648699969053268,0.015872439369559288,0.03335769101977348
1761915499959623700,5.016623779296875,-0.0002495381922926754,0.008374310098588467,0.03683364763855934
1761915499969677600,5.026677490234375,-0.0013731258222833276,-0.0008056062506511807,0.041310686618089676
1761915499979732700,5.036732666015625,-0.0065050371922552586,-0.007731422781944275,0.04579545184969902
1761915499989786600,5.04678662109375,-0.008980179205536842,-0.009118929505348206,0.048834118992090225
1761915499999840800,5.0568408203125,-0.008384429849684238,-0.007829959504306316,0.04422258958220482
1761915500009894700,5.066894775390625,-0.01071176677942276,-0.007709851488471031,0.03750982508063316
1761915500019949600,5.076949462890625,-0.013399961404502392,-0.006324474699795246,0.02021845243871212
1761915500030003500,5.08700341796875,-0.020777717232704163,-0.01410596538335085,-0.002776611829176545
1761915500040057600,5.0970576171875,-0.017587782815098763,-0.018069814890623093,-0.021684788167476654
1761915500050111500,5.107111572265625,-0.011011905036866665,-0.015801066532731056,-0.0270095132291317
1761915500060166700,5.117166748046875,-0.010570352897047997,-0.012536564841866493,-0.02623160369694233
1761915500070220800,5.127220703125,-0.011518704704940319,-0.007927964441478252,-0.022361764684319496
1761915500080274700,5.137274658203125,-0.012623117305338383,0.008131163194775581,-0.014573882333934307
1761915500090328600,5.14732861328125,-0.009140501730144024,0.014485731720924377,-0.005359345115721226
1761915500100383500,5.157383544921875,-0.002523611532524228,0.010733338072896004,0.006098638754338026
1761915500110437600,5.167437744140625,0.0010695254895836115,-0.0067692226730287075,0.018643459305167198
1761915500120491800,5.17749169921875,0.00036432043998502195,-0.024705080315470695,0.024220917373895645
1761915500130545700,5.187545654296875,-0.0015683355741202831,-0.034456510096788406,0.02761192061007023
1761915500140600600,5.1976005859375,-0.003215234261006117,-0.03672392666339874,0.025784458965063095
1761915500150654500,5.207654541015625,-0.007522098254412413,-0.03158295899629593,0.014693991281092167
1761915500160708600,5.21770849609375,-0.01113281212747097,-0.028292624279856682,0.007697600871324539
1761915500170762500,5.227762451171875,-0.011421765200793743,-0.02882925048470497,-0.0010183927370235324
1761915500180816600,5.237816650390625,-0.016265256330370903,-0.02853230945765972,-0.0025449167005717754
1761915500190871800,5.247871826171875,-0.016592292115092278,-0.022698920220136642,0.0029518476221710443
1761915500200925700,5.25792578125,-0.014697453007102013,-0.015685752034187317,0.009063536301255226
1761915500210979600,5.2679794921875,-0.00944889523088932,-0.006820089183747768,0.014326474629342556
1761915500221033500,5.278033447265625,-0.0007472829893231392,0.015224493108689785,0.02611655555665493
1761915500231088600,5.288088623046875,0.007528223562985659,0.02587580494582653,0.03580620139837265
1761915500241142800,5.298142822265625,0.007787881884723902,0.019281020388007164,0.048894040286540985
1761915500251196700,5.30819677734375,0.008472846820950508,0.0049705239944159985,0.06544185429811478
1761915500261250800,5.318250732421875,0.0031244205310940742,-0.00944996066391468,0.07143636792898178
1761915500271305500,5.328305419921875,0.0007209177128970623,-0.01864878460764885,0.06394276022911072
1761915500281359600,5.338359619140625,0.0011922972043976188,-0.012939500622451305,0.051299139857292175
1761915500291413500,5.34841357421875,0.008154332637786865,-0.0036368127912282944,0.029707562178373337
1761915500301467600,5.358467529296875,0.011261709034442902,0.006395314820110798,0.006324208807200193
1761915500311522800,5.368522705078125,0.012171445414423943,0.017717745155096054,-0.013482785783708096
1761915500321576700,5.37857666015625,0.014057761989533901,0.020386232063174248,-0.022050440311431885
1761915500331630600,5.388630615234375,0.01594035141170025,0.009547432884573936,-0.019948141649365425
1761915500341684500,5.3986845703125,0.012221512384712696,-0.007765511516481638,-0.0016447682864964008
1761915500351739600,5.40873974609375,0.00945155881345272,-0.022958312183618546,0.025470472872257233
1761915500361793800,5.418793701171875,0.004477572627365589,-0.031863123178482056,0.04588786140084267
1761915500371847700,5.42884765625,0.0015627428656443954,-0.027047863230109215,0.05596233531832695
1761915500381901800,5.43890185546875,0.0032919333316385746,-0.011541075073182583,0.05576259642839432
1761915500391956500,5.44895654296875,0.0015483618481084704,0.0004950816510245204,0.03910772129893303
1761915500402010600,5.4590107421875,0.0023329290561378,0.010214287787675858,0.01696060784161091
1761915500412064500,5.469064453125,0.009352489374577999,0.021191304549574852,-0.001859419047832489
1761915500422118700,5.47911865234375,0.012734437361359596,0.027846278622746468,-0.018849320709705353
1761915500432173800,5.489173828125,0.011355452239513397,0.019224826246500015,-0.024341026321053505
1761915500442227700,5.499227783203125,0.008231564424932003,0.004816326778382063,-0.01955425925552845
1761915500452281600,5.509281494140625,0.006228867452591658,-0.00392842898145318,-0.007650462910532951
1761915500462335500,5.51933544921875,0.00555322365835309,-0.00660463934764266,0.005660815164446831
1761915500472390700,5.529390625,0.005392634775489569,-0.0013291836949065328,0.019518041983246803
1761915500482444500,5.539444580078125,0.005169195588678122,0.004530569538474083,0.027906466275453568
1761915500492498700,5.549498779296875,-0.0022594258189201355,-0.001511343871243298,0.030105704441666603
1761915500502552800,5.559552734375,-0.0035236284602433443,-0.004421912599354982,0.03014778159558773
1761915500512606700,5.569606689453125,-0.0017457021167501807,-0.010612430982291698,0.028130704537034035
1761915500522661600,5.57966162109375,-0.0009062737226486206,-0.01281353272497654,0.023937556892633438
1761915500532715500,5.589715576171875,0.009060872718691826,-0.008328503929078579,0.01190885715186596
1761915500542769700,5.599769775390625,0.007681888062506914,-0.005752161610871553,-0.007093063089996576
1761915500552823600,5.609823486328125,-0.0019038938917219639,0.005026982631534338,-0.02466966025531292
1761915500562878700,5.619878662109375,0.0057585532777011395,0.014606107026338577,-0.037400104105472565
1761915500572932600,5.6299326171875,0.014510765671730042,0.012806342914700508,-0.03013633005321026
1761915500582986500,5.639986572265625,0.024054469540715218,0.008607336319983006,-0.01577257178723812
1761915500593040600,5.65004052734375,0.021687451750040054,-0.0044232443906366825,0.007424360606819391
1761915500603095600,5.660095458984375,0.017824269831180573,-0.01449798233807087,0.03502749279141426
1761915500613149700,5.670149658203125,0.011998605914413929,-0.016639430075883865,0.05992991104722023
1761915500623203800,5.680203857421875,0.013276923447847366,-0.018750252202153206,0.07073275744915009
1761915500633257700,5.6902578125,0.013641776517033577,-0.025473402813076973,0.06575717777013779
1761915500643312600,5.700312744140625,0.012644688598811626,-0.02213459648191929,0.05586619675159454
1761915500653366500,5.710366455078125,0.010569553822278976,0.0013699301052838564,0.047680437564849854
1761915500663420700,5.720420654296875,0.01817500963807106,0.020193684846162796,0.03638730198144913
1761915500673474600,5.730474609375,0.025116272270679474,0.04158099740743637,0.026389529928565025
1761915500683529700,5.74052978515625,0.02448137477040291,0.06760301440954208,0.008871788159012794
1761915500693583600,5.75058349609375,0.023015037178993225,0.0822615846991539,-0.020081300288438797
1761915500703637500,5.760637451171875,0.020600084215402603,0.07423880696296692,-0.047804806381464005
1761915500713691600,5.770691650390625,0.0195502657443285,0.05073614791035652,-0.0627288967370987
1761915500723746600,5.78074658203125,0.01471476349979639,0.016169914975762367,-0.05903562158346176
1761915500733800700,5.79080078125,0.010032127611339092,-0.014361628331243992,-0.04297969117760658
1761915500743854600,5.8008544921875,0.010929347015917301,-0.023541012778878212,-0.023265374824404716
1761915500753908700,5.81090869140625,0.014747254550457,-0.012166384607553482,0.0011206581257283688
1761915500763963600,5.820963623046875,0.018490593880414963,-0.0002492718631401658,0.01979660801589489
1761915500774017500,5.831017578125,0.02353541925549507,0.012119246646761894,0.02600044198334217
1761915500784071700,5.84107177734375,0.02436685934662819,0.016537964344024658,0.028718197718262672
1761915500794125600,5.85112548828125,0.01865118183195591,0.004822718445211649,0.02016359195113182
1761915500804180700,5.8611806640625,0.023608123883605003,-0.010297911241650581,0.009444634430110455
1761915500814234600,5.871234619140625,0.03316301479935646,-0.019657324999570847,-0.0021728731226176023
1761915500824288500,5.88128857421875,0.02694879285991192,-0.007588943932205439,0.00040772996726445854
1761915500834342700,5.8913427734375,0.01672917976975441,0.012527509592473507,0.016217052936553955
1761915500844397600,5.9013974609375,0.012146411463618279,0.026276344433426857,0.03001675382256508
1761915500854451700,5.91145166015625,0.017184313386678696,0.016818661242723465,0.03472389280796051
1761915500864505600,5.921505615234375,0.01725994609296322,0.012804212048649788,0.04433763772249222
1761915500874559700,5.931559814453125,0.015783224254846573,0.01366281509399414,0.04700745642185211
1761915500884614700,5.94161474609375,0.02105015702545643,0.023260315880179405,0.049967292696237564
1761915500894668500,5.95166845703125,0.022905582562088966,0.032218921929597855,0.05344085395336151
1761915500904722700,5.96172265625,0.02851499803364277,0.03444159775972366,0.056586846709251404
1761915500914776600,5.971776611328125,0.020541228353977203,0.039213184267282486,0.05862922593951225
1761915500924830500,5.98183056640625,0.015033277682960033,0.027825506404042244,0.05722067877650261
1761915500934884600,5.991884521484375,0.009395898319780827,0.020966799929738045,0.05417908355593681
1761915500944938500,6.0019384765625,0.007184942252933979,0.013087572529911995,0.041967954486608505
1761915500954992600,6.01199267578125,0.004303401801735163,0.021585719659924507,0.029511285945773125
1761915500965046500,6.022046630859375,0.009031844325363636,0.03990693762898445,0.02588299661874771
1761915500975101400,6.032101318359375,0.006874151527881622,0.04098951071500778,0.027753600850701332
1761915500985155600,6.042155517578125,0.008350607939064503,0.03166498616337776,0.034340132027864456
1761915500995209500,6.05220947265625,0.006149771623313427,0.030714236199855804,0.04123718664050102
1761915501005263600,6.062263671875,0.0107120331376791,0.0229180995374918,0.04240364953875542
1761915501015318500,6.072318603515625,0.01619628071784973,0.0059449742548167706,0.03934900462627411
1761915501025372400,6.082372314453125,0.011508584022521973,-0.0018511632224544883,0.0284659955650568
1761915501035426600,6.092426513671875,0.0016982977977022529,0.0052019525319337845,0.021997444331645966
1761915501045480400,6.10248046875,-0.0033076461404561996,0.02353036031126976,0.023365244269371033
1761915501055535600,6.11253564453125,0.004365986213088036,0.04195037856698036,0.029707828536629677
1761915501065589500,6.122589599609375,0.01242098305374384,0.05144774541258812,0.029951773583889008
1761915501075643600,6.1326435546875,0.014029532670974731,0.0508035272359848,0.021500764414668083
1761915501085697500,6.142697509765625,0.01853959634900093,0.04352404177188873,0.006128466222435236
1761915501095752400,6.15275244140625,0.013134710490703583,0.02731391228735447,-0.018087657168507576
1761915501105806600,6.162806640625,0.007153783459216356,0.008652877062559128,-0.04296237975358963
1761915501115860500,6.172860595703125,-0.00008388957212446257,-0.005029646214097738,-0.06250492483377457
1761915501125914600,6.18291455078125,-0.010720554739236832,-0.010944793000817299,-0.06401999294757843
1761915501135969300,6.19296923828125,-0.016702547669410706,-0.004547347314655781,-0.05356255918741226
1761915501146023400,6.2030234375,-0.01613769121468067,0.018740132451057434,-0.03620593994855881
1761915501156077600,6.21307763671875,-0.010150904767215252,0.03092329390347004,-0.01188142690807581
1761915501166131500,6.22313134765625,-0.008954346179962158,0.034929756075143814,0.013879862613976002
1761915501176186600,6.2331865234375,-0.011572499759495258,0.0341704860329628,0.03537583351135254
1761915501186240500,6.243240478515625,-0.016033828258514404,0.011346664279699326,0.05813733860850334
1761915501196294700,6.253294677734375,-0.01829698123037815,-0.025357287377119064,0.06732790917158127
1761915501206348500,6.2633486328125,-0.021529261022806168,-0.0437014065682888,0.07801757007837296
1761915501216403500,6.273403564453125,-0.01332912128418684,-0.033417344093322754,0.07617253065109253
1761915501226457600,6.28345751953125,-0.00021305288828443736,-0.008739429526031017,0.06970051676034927
1761915501236511500,6.293511474609375,0.007099454756826162,0.023210780695080757,0.0630791038274765
1761915501246565600,6.303565673828125,0.009604424238204956,0.04241270571947098,0.050165433436632156
1761915501256620300,6.313620361328125,0.01137116551399231,0.055273640900850296,0.0359840989112854
1761915501266674400,6.32367431640625,0.009152485989034176,0.060269199311733246,0.02593679167330265
1761915501276728600,6.333728515625,0.006689327768981457,0.06649433821439743,0.017236776649951935
1761915501286782500,6.343782470703125,0.005041896365582943,0.06221943348646164,0.008780175819993019
1761915501296837600,6.353837646484375,-0.0006791060441173613,0.044859349727630615,-0.0005781722720712423
1761915501306891500,6.3638916015625,-0.0033547841012477875,0.02448164112865925,-0.013952833600342274
1761915501316945700,6.373945556640625,-0.009653426706790924,0.003206445835530758,-0.022359633818268776
1761915501326999600,6.38399951171875,-0.013551761396229267,-0.0041308291256427765,-0.022915702313184738
1761915501337053400,6.394053466796875,-0.01465670671314001,-0.006001433357596397,-0.013856959529221058
1761915501347108600,6.404108642578125,-0.01312219351530075,-0.0026349315885454416,-0.002210956299677491
1761915501357162500,6.41416259765625,-0.005813680589199066,0.01401728205382824,0.018490327522158623
1761915501367216600,6.424216552734375,-0.0051276502199471,0.0191918034106493,0.032047681510448456
1761915501377270500,6.4342705078125,-0.007728493306785822,0.01968209259212017,0.043119773268699646
1761915501387325400,6.444325439453125,-0.014575746841728687,0.005155613645911217,0.04553286358714104
1761915501397379300,6.45437939453125,-0.02094256691634655,-0.006866161711513996,0.04468784108757973
1761915501407433500,6.46443359375,-0.022641396149992943,-0.007845140062272549,0.04054449498653412
1761915501417487600,6.474487548828125,-0.02371172048151493,0.0024708807468414307,0.03099812939763069
1761915501427542500,6.48454248046875,-0.018910573795437813,0.01918621174991131,0.02382703498005867
1761915501437596700,6.4945966796875,-0.012856409884989262,0.025501897558569908,0.015023424290120602
1761915501447650600,6.504650634765625,-0.011786618269979954,0.02731817401945591,0.004518585279583931
1761915501457704400,6.514704345703125,-0.01113281212747097,0.020782776176929474,-0.008504006080329418
1761915501467759600,6.524759521484375,-0.018270617350935936,0.004724713973701,-0.017891382798552513
1761915501477813500,6.5348134765625,-0.017951570451259613,-0.013403955847024918,-0.019229887053370476
1761915501487867600,6.54486767578125,-0.013175456784665585,-0.009154615923762321,-0.014842595905065536
1761915501497921500,6.554921630859375,-0.004885036498308182,-0.008072573691606522,-0.0041153826750814915
1761915501507976400,6.5649765625,-0.01170246209949255,-0.0017499631503596902,-0.0013084110105410218
1761915501518030300,6.5750302734375,-0.014783473685383797,0.007952465675771236,0.001204547705128789
1761915501528084500,6.58508447265625,-0.014843660406768322,0.01937609538435936,0.0025537051260471344
1761915501538138600,6.595138671875,-0.012207929976284504,0.01859099417924881,-0.004341484978795052
1761915501548193500,6.605193603515625,-0.0084275733679533,-0.002621615771204233,-0.01666899211704731
1761915501558247700,6.61524755859375,-0.012926184572279453,-0.02851846069097519,-0.02804148755967617
1761915501568301300,6.62530126953125,-0.018248777836561203,-0.043174367398023605,-0.03528022766113281
1761915501578355500,6.63535546875,-0.020979316905140877,-0.041785795241594315,-0.034814972430467606
1761915501588410600,6.64541064453125,-0.024803616106510162,-0.03327912837266922,-0.03056589886546135
1761915501598464500,6.655464599609375,-0.02509150467813015,-0.03201412409543991,-0.03184475004673004
1761915501608518700,6.6655185546875,-0.026280073449015617,-0.03141864389181137,-0.03160133585333824
1761915501618572500,6.675572509765625,-0.025615613907575607,-0.022424615919589996,-0.034747861325740814
1761915501628627500,6.68562744140625,-0.024060329422354698,-0.00567040266469121,-0.03481949865818024
1761915501638681300,6.695681396484375,-0.017177121713757515,0.010583136230707169,-0.03123195469379425
1761915501648735500,6.705735595703125,-0.010651845484972,0.014636999927461147,-0.021037107333540916
1761915501658789400,6.715789306640625,-0.007438741624355316,0.029020465910434723,-0.007505320478230715
1761915501668844500,6.725844482421875,-0.008672317489981651,0.029091838747262955,0.008687231689691544
1761915501678898700,6.735898681640625,-0.006095176562666893,0.014456170611083508,0.02491253986954689
1761915501688952300,6.745952392578125,-0.003864513011649251,-0.0007326356135308743,0.031039142981171608
1761915501699006500,6.75600634765625,-0.00714552728459239,-0.010130664333701134,0.027163177728652954
1761915501709061600,6.7660615234375,-0.006898119580000639,-0.015140603296458721,0.010529872961342335
1761915501719115500,6.776115478515625,-0.009324791841208935,-0.01823785901069641,-0.004552674014121294
1761915501729169700,6.786169677734375,-0.004970257636159658,-0.019330022856593132,-0.01672758162021637
1761915501739223600,6.7962236328125,-0.006161755882203579,-0.01949061080813408,-0.029817815870046616
1761915501749278500,6.806278564453125,-0.0065047708339989185,-0.004607801325619221,-0.03363971784710884
1761915501759332400,6.816332275390625,-0.003368099918588996,0.010416688397526741,-0.030599188059568405
1761915501769386500,6.826386474609375,0.0007374293054454029,0.026198847219347954,-0.025885924696922302
1761915501779440400,6.8364404296875,0.005397428758442402,0.03039146214723587,-0.012374111451208591
1761915501789495600,6.84649560546875,0.0028991170693188906,0.02359906956553459,-0.004817125853151083
1761915501799549700,6.8565498046875,0.0011222560424357653,0.0007331682136282325,-0.000985103310085833
1761915501809603300,6.866603271484375,-0.0025539714843034744,-0.017297763377428055,0.0043864925391972065
1761915501819657500,6.876657470703125,0.0031095067970454693,-0.020475447177886963,0.015165104530751705
1761915501829711400,6.88671142578125,0.003168362658470869,-0.023078154772520065,0.031804002821445465
1761915501839766500,6.8967666015625,0.0044317664578557014,-0.01961631141602993,0.03786429017782211
1761915501849820700,6.906820556640625,0.009385512210428715,-0.008946623653173447,0.03530712425708771
1761915501859874600,6.91687451171875,0.01563728228211403,0.012130964547395706,0.027601268142461777
1761915501869928700,6.9269287109375,0.01943202130496502,0.015563513152301311,0.014610634185373783
1761915501879983400,6.9369833984375,0.023616645485162735,0.008051535114645958,0.013946974650025368
1761915501890037500,6.94703759765625,0.018140122294425964,-0.010404437780380249,0.019042933359742165
1761915501900091400,6.95709130859375,0.015266571193933487,-0.01372380182147026,0.027662254869937897
1761915501910145500,6.9671455078125,0.01594035141170025,-0.009829195216298103,0.03870398551225662
1761915501920200700,6.97720068359375,0.012401276268064976,-0.005519667640328407,0.05113722011446953
1761915501930255400,6.98725537109375,0.021811556071043015,-0.00009161273919744417,0.05343925580382347
1761915501940309500,6.9973095703125,0.03014485351741314,0.007355384528636932,0.04722290486097336
1761915501950363400,7.00736328125,0.02503983862698078,0.00341603672131896,0.02959943749010563
1761915501960418600,7.01741845703125,0.020357735455036163,-0.00640676636248827,0.005293298978358507
1761915501970472400,7.027472412109375,0.01992816850543022,-0.019340408965945244,-0.0255141481757164
1761915501980526300,7.0375263671875,0.012401009909808636,-0.03139334172010422,-0.04826047271490097
1761915501990580500,7.04758056640625,0.00577719509601593,-0.024104537442326546,-0.06012405827641487
1761915502000635600,7.0576357421875,0.0030746194534003735,-0.011051319539546967,-0.06114564463496208
1761915502010689500,7.067689453125,0.01008086372166872,-0.008233428932726383,-0.0563783198595047
1761915502020743700,7.07774365234375,0.017161943018436432,-0.009092831052839756,-0.044438038021326065
1761915502030797600,7.087797607421875,0.01865304633975029,-0.015340340323746204,-0.029826605692505836
1761915502040852500,7.0978525390625,0.01870950497686863,-0.022886939346790314,-0.01170459296554327
1761915502050906400,7.10790625,0.012599947862327099,-0.03873248025774956,0.0071753547526896
1761915502060960500,7.11796044921875,0.0002743055811151862,-0.05372501537203789,0.0225556418299675
1761915502071014400,7.128014404296875,-0.008884571492671967,-0.0614207498729229,0.025129588320851326
1761915502081069600,7.138069580078125,-0.008279235102236271,-0.059367187321186066,0.01980033703148365
1761915502091123500,7.14812353515625,-0.013099556788802147,-0.049916159361600876,0.0035475967451930046
1761915502101177300,7.15817724609375,-0.011854794807732105,-0.037043239921331406,-0.013796505518257618
1761915502111231500,7.1682314453125,-0.002499376656487584,-0.015673235058784485,-0.02780153788626194
1761915502121286700,7.17828662109375,0.006247509736567736,0.01053466647863388,-0.03711621090769768
1761915502131340500,7.188340576171875,0.004347876645624638,0.018310297280550003,-0.03459632769227028
1761915502141394700,7.198394775390625,0.00794580765068531,0.014483868144452572,-0.024581242352724075
1761915502151448600,7.208448486328125,0.006393184419721365,0.014512630179524422,-0.003206445835530758
1761915502161503500,7.21850341796875,0.002639458980411291,0.0029529130551964045,0.01708045043051243
1761915502171557400,7.228557373046875,0.0012833772925660014,-0.009098690003156662,0.03218936175107956
1761915502181611500,7.238611572265625,-0.002638926263898611,-0.015342471189796925,0.045293178409338
1761915502191665400,7.24866552734375,-0.00469595193862915,-0.015060442499816418,0.048813346773386
1761915502201719600,7.258719482421875,-0.0029286781791597605,-0.02124936133623123,0.04000866785645485
1761915502211774500,7.2687744140625,-0.0007984156836755574,-0.012683837674558163,0.024331972002983093
1761915502221828400,7.278828369140625,-0.0011709919199347496,-0.003861050819978118,0.003037867834791541
1761915502231882500,7.288882568359375,-0.0006202502408996224,-0.0007246461464092135,-0.014443919993937016
1761915502241936400,7.298936279296875,0.0017595505341887474,0.004229366313666105,-0.030827954411506653
1761915502251991600,7.308991455078125,-0.0018599516479298472,0.00762862479314208,-0.039433691650629044
1761915502262045700,7.319045654296875,-0.0020306603983044624,0.012167183682322502,-0.033484455198049545
1761915502272099600,7.329099609375,-0.005071191117167473,0.013513944111764431,-0.02124323695898056
1761915502282153700,7.33915380859375,-0.0060091568157076836,0.0032898029312491417,-0.0036072516813874245
1761915502292208400,7.34920849609375,-0.013484649360179901,-0.0046450854279100895,0.010816162452101707
1761915502302262500,7.359262451171875,-0.012117915786802769,0.0014285196084529161,0.025320271030068398
1761915502312316400,7.36931640625,-0.010516024194657803,0.009847304783761501,0.027876637876033783
1761915502322370600,7.37937060546875,-0.012259596027433872,0.015356851741671562,0.018318818882107735
1761915502332425500,7.389425537109375,-0.013419934548437595,0.020233366638422012,-0.004186222795397043
1761915502342479400,7.399479248046875,-0.016943829134106636,0.020651482045650482,-0.023686153814196587
1761915502352533500,7.409533447265625,-0.017067933455109596,0.010498713701963425,-0.03127136826515198
1761915502362587400,7.41958740234375,-0.020865067839622498,-0.005868541542440653,-0.027719778940081596
1761915502372642600,7.429642578125,-0.022517826408147812,-0.020175842568278313,-0.008422513492405415
1761915502382696700,7.43969677734375,-0.0233513955026865,-0.02804015576839447,0.01570732332766056
1761915502392750600,7.44975048828125,-0.019943613559007645,-0.02816372737288475,0.034082069993019104
1761915502402804700,7.4598046875,-0.022976422682404518,-0.02154017984867096,0.03870025649666786
1761915502412859400,7.469859375,-0.02309679612517357,-0.013319799676537514,0.03765843063592911
1761915502422913500,7.47991357421875,-0.021437913179397583,-0.007215568795800209,0.029753634706139565
1761915502432967400,7.489967529296875,-0.015634087845683098,-0.004742290824651718,0.02196069248020649
1761915502443021600,7.500021484375,-0.01130964607000351,-0.008522115647792816,0.014117683283984661
1761915502453076500,7.510076416015625,-0.008964466862380505,-0.022494124248623848,0.011057444848120213
1761915502463130400,7.52013037109375,-0.017249293625354767,-0.027814054861664772,0.014599449001252651
1761915502473184500,7.5301845703125,-0.01810896210372448,-0.021436583250761032,0.021453892812132835
1761915502483238400,7.54023828125,-0.00759853096678853,-0.0043657198548316956,0.03142903000116348
1761915502493293600,7.55029345703125,-0.002302835462614894,0.00950641930103302,0.03832288831472397
1761915502503347500,7.560347412109375,-0.003209375310689211,0.0007227819296531379,0.04126647859811783
1761915502513401600,7.570401611328125,-0.009270995855331421,-0.03026070073246956,0.04745912924408913
1761915502523455700,7.580455810546875,-0.01653902977705002,-0.03961159288883209,0.058938153088092804
1761915502533510400,7.590510498046875,-0.018445853143930435,-0.035468779504299164,0.06903952360153198
1761915502543564500,7.600564453125,-0.016175774857401848,-0.015280419029295444,0.07443109154701233
1761915502553618400,7.610618408203125,-0.012695289216935635,0.0168511513620615,0.06977162510156631
1761915502563672600,7.620672607421875,-0.008827580139040947,0.03636013716459274,0.04659333452582359
1761915502573727500,7.6307275390625,-0.008136223070323467,0.05249250307679176,0.011448396369814873
1761915502583781400,7.640781494140625,-0.006130330264568329,0.05584196001291275,-0.028438033536076546
1761915502593835500,7.65083544921875,-0.007757788058370352,0.04952600598335266,-0.05919194966554642
1761915502603889400,7.660889404296875,-0.004033890087157488,0.03977377712726593,-0.07732301950454712
1761915502613944600,7.670944580078125,-0.008459264412522316,0.01600266806781292,-0.07257779687643051
1761915502623998500,7.68099853515625,-0.009983391501009464,-0.0034136399626731873,-0.057857174426317215
1761915502634052600,7.691052490234375,-0.014087855815887451,-0.0246635340154171,-0.0321187861263752
1761915502644106800,7.701106689453125,-0.016993364319205284,-0.03031929023563862,0.0011427623685449362
1761915502654160400,7.711160400390625,-0.00977246928960085,-0.025598570704460144,0.033557161688804626
1761915502664215600,7.721215576171875,-0.005393433850258589,-0.012064119800925255,0.05510266497731209
1761915502674269400,7.73126953125,-0.00010679275874281302,-0.00006631271389778703,0.06063911318778992
1761915502684323600,7.741323486328125,-0.00037763622822239995,0.010905644856393337,0.05834666267037392
1761915502694377500,7.75137744140625,-0.0014207963831722736,0.011173025704920292,0.04817711561918259
1761915502704432400,7.761432373046875,-0.00833968911319971,0.0052951630204916,0.034992337226867676
1761915502714486500,7.771486572265625,-0.010045443661510944,-0.0009478190331719816,0.020369719713926315
1761915502724540400,7.78154052734375,-0.011782623827457428,-0.0015819176333025098,0.011729626916348934
1761915502734594600,7.791594482421875,-0.005329251755028963,0.006816360633820295,0.010901649482548237
1761915502744649500,7.8016494140625,0.00039175100391730666,0.010792193934321404,0.015600531361997128
1761915502754703600,7.81170361328125,0.005350823048502207,0.01878460682928562,0.025717347860336304
1761915502764757500,7.821757568359375,0.006286657880991697,0.017978999763727188,0.031199730932712555
1761915502774811400,7.831811279296875,0.002380067016929388,0.009358081966638565,0.03334623947739601
1761915502784866600,7.841866455078125,0.0039084553718566895,0.010581538081169128,0.03473187983036041
1761915502794920400,7.85192041015625,-0.0026370619889348745,0.015674300491809845,0.03254622593522072
1761915502804974600,7.861974609375,-0.0012330436147749424,0.013292635791003704,0.026458771899342537
1761915502815028500,7.872028564453125,0.0025869945529848337,0.02646942436695099,0.02623613178730011
1761915502825083400,7.88208349609375,0.0056770602241158485,0.03705309331417084,0.028378911316394806
1761915502835137500,7.892137451171875,0.011348261497914791,0.033354759216308594,0.033177126199007034
1761915502845191400,7.90219140625,0.01660800538957119,0.043408993631601334,0.037522342056035995
1761915502855245600,7.91224560546875,0.018684204667806625,0.03957483917474747,0.03569141775369644
1761915502865300500,7.922300537109375,0.018870361149311066,0.02672135829925537,0.030913174152374268
1761915502875354600,7.932354736328125,0.015520104207098484,0.01913241483271122,0.014151505194604397
1761915502885408500,7.942408447265625,0.008806008845567703,0.005200887098908424,0.0031502533238381147
1761915502895462400,7.95246240234375,0.0037731665652245283,-0.012738964520394802,0.001290834159590304
1761915502905517600,7.962517578125,0.0013036173768341541,-0.025470206514000893,0.009424393996596336
1761915502915571500,7.972571533203125,0.0024591628462076187,-0.026634007692337036,0.024098677560687065
1761915502925624600,7.98262451171875,0.016562199220061302,-0.023003851994872093,0.03883608058094978
1761915502935678500,7.992678466796875,0.023438213393092155,-0.003450924064964056,0.03476011008024216
1761915502945733600,8.002733642578125,0.025065138936042786,0.025425998494029045,0.02334580197930336
1761915502955787800,8.012787841796875,0.025180453434586525,0.04097246751189232,0.012629242613911629
1761915502965841400,8.02284130859375,0.02802976965904236,0.04717470332980156,0.008827047422528267
1761915502975895600,8.0328955078125,0.030556045472621918,0.04653234779834747,0.008162855170667171
1761915502985950500,8.042950439453126,0.03490285575389862,0.03232225403189659,0.005402222275733948
1761915502996004600,8.053004638671876,0.0337478443980217,0.005860019475221634,0.0032085764687508345
1761915503006058500,8.06305859375,0.023811856284737587,-0.01967809721827507,0.0070794811472296715
1761915503016112600,8.073112548828124,0.01624501682817936,-0.04508305713534355,0.012406602501869202
1761915503026167600,8.08316748046875,0.013228720054030418,-0.07677600532770157,0.022642994299530983
1761915503036221400,8.093221435546875,0.008310660719871521,-0.08689228445291519,0.03437182307243347
1761915503046275600,8.103275634765625,0.01690228469669819,-0.07089600712060928,0.039977509528398514
1761915503056329500,8.11332958984375,0.026910975575447083,-0.03500725328922272,0.03531937301158905
1761915503066384600,8.123384521484375,0.03464319929480553,0.01426335796713829,0.026765568181872368
1761915503076438800,8.133438720703126,0.037627801299095154,0.05290129780769348,0.02551761083304882
1761915503086492400,8.143492431640626,0.03797081857919693,0.06815268844366074,0.024403076618909836
1761915503096546600,8.153546630859376,0.03142929449677467,0.06562747806310654,0.028730181977152824
1761915503106601500,8.1636015625,0.026671292260289192,0.05062349513173103,0.030659642070531845
1761915503116655600,8.173655517578124,0.020362529903650284,0.03122290037572384,0.0321347676217556
1761915503126709500,8.18370947265625,0.01020017359405756,0.014228736981749535,0.026463830843567848
1761915503136763600,8.193763671875,0.006595584563910961,-0.006038185209035873,0.01962190493941307
1761915503146817500,8.203817626953125,0.0006298375665210187,-0.014907577075064182,0.0007888282998465002
1761915503156872400,8.21387255859375,0.0026317357551306486,-0.009256615303456783,-0.02209518291056156
1761915503166926600,8.223926513671875,0.0114590497687459,0.0013795174891129136,-0.03979108855128288
1761915503176980500,8.23398046875,0.008826781064271927,0.009273126721382141,-0.04777764156460762
1761915503187034600,8.24403466796875,0.0034551850985735655,0.012866264209151268,-0.04110269621014595
1761915503197089800,8.25408984375,0.0051718587055802345,0.02070128358900547,-0.028617262840270996
1761915503207143400,8.264143310546874,0.00902491994202137,0.024643294513225555,-0.01871989108622074
1761915503217197600,8.274197509765624,0.007002515718340874,0.02545715682208538,-0.006854710169136524
1761915503227251500,8.28425146484375,0.008322112262248993,0.033300966024398804,0.01101563312113285
1761915503237306600,8.294306640625,0.006654973141849041,0.0311624463647604,0.027722174301743507
1761915503247360500,8.304360595703125,0.001912948559038341,0.0202778410166502,0.04572674259543419
1761915503257414700,8.31441455078125,0.001386707997880876,0.020242687314748764,0.06163913011550903
1761915503267468500,8.324468505859375,-0.001398425898514688,0.017183514311909676,0.06620059162378311
1761915503277523500,8.3345234375,0.01387027557939291,0.010171410627663136,0.05657060071825981
1761915503287577600,8.34457763671875,0.010487794876098633,0.012410330586135387,0.042697660624980927
1761915503297631500,8.354631591796876,0.007441138383001089,0.013347763568162918,0.022058697417378426
1761915503307685600,8.364685546875,0.014740862883627415,0.02924790047109127,0.00490181427448988
1761915503317740500,8.374740478515625,0.011916314251720905,0.03309110924601555,-0.0013875069562345743
1761915503327794400,8.38479443359375,0.0020841897930949926,0.028267057612538338,-0.005647765472531319
1761915503337848600,8.3948486328125,-0.005695702508091927,0.024775654077529907,-0.005345763172954321
1761915503347902500,8.40490234375,-0.006629939656704664,0.015249792486429214,-0.0036738307680934668
1761915503357957600,8.41495751953125,-0.010559167712926865,0.008073905482888222,-0.005591573193669319
1761915503368011500,8.425011474609375,-0.01853320375084877,-0.00016884441720321774,-0.008941562846302986
1761915503378065700,8.435065673828126,-0.02309892699122429,-0.01016581803560257,-0.015476694330573082
1761915503388119600,8.44511962890625,-0.022782543674111366,-0.014809305779635906,-0.019573701545596123
1761915503398174500,8.455174560546874,-0.01938701421022415,-0.018328674137592316,-0.019774237647652626
1761915503408228600,8.465228515625,-0.018029334023594856,-0.013776266016066074,-0.023513581603765488
1761915503418282500,8.475282470703124,-0.019343869760632515,-0.010263290256261826,-0.02953791804611683
1761915503428336600,8.485336669921875,-0.028750421479344368,0.0007536745979450643,-0.03435557708144188
1761915503438391600,8.4953916015625,-0.029589317739009857,0.018183264881372452,-0.04151362180709839
1761915503448445400,8.505445556640625,-0.024768995121121407,0.0311022587120533,-0.040404412895441055
1761915503458499600,8.51549951171875,-0.020061591640114784,0.029874542728066444,-0.038717035204172134
1761915503468553500,8.525553466796875,-0.016094546765089035,0.012462794780731201,-0.033061280846595764
1761915503478608600,8.535608642578126,-0.02346937358379364,-0.006382265593856573,-0.03486237674951553
1761915503488662500,8.54566259765625,-0.031568046659231186,-0.018975289538502693,-0.03832847997546196
1761915503498716700,8.555716552734374,-0.03880412131547928,-0.03171665221452713,-0.04374854639172554
1761915503508770600,8.5657705078125,-0.04253893718123436,-0.0405769869685173,-0.05576286464929581
1761915503518825500,8.575825439453125,-0.047396011650562286,-0.046600259840488434,-0.06884484738111496
1761915503528879600,8.585879638671875,-0.047992292791604996,-0.0385841429233551,-0.07974036782979965
1761915503538933500,8.59593359375,-0.04486494138836861,-0.02809475176036358,-0.0824488028883934
1761915503548987600,8.605987548828125,-0.034929756075143814,-0.013546701520681381,-0.07703246921300888
1761915503559042600,8.61604248046875,-0.023030484095215797,0.0011851066956296563,-0.06980757415294647
1761915503569096400,8.626096435546875,-0.024475248530507088,0.027357054874300957,-0.04808949679136276
1761915503579150300,8.636150390625,-0.024708542972803116,0.03460964187979698,-0.02503025159239769
1761915503589204500,8.64620458984375,-0.019389675930142403,0.028626851737499237,-0.005051483865827322
1761915503599258600,8.656258544921876,-0.0211819838732481,0.007113569416105747,0.008596683852374554
1761915503609313500,8.6663134765625,-0.025596972554922104,-0.01823705993592739,0.015208779834210873
1761915503619367700,8.67636767578125,-0.03502775728702545,-0.031976573169231415,0.02353568561375141
1761915503629421600,8.686421630859375,-0.044739507138729095,-0.04448650777339935,0.025410817936062813
1761915503639475700,8.696475830078125,-0.042625490576028824,-0.04668494686484337,0.03201918676495552
1761915503649530600,8.706530517578125,-0.033796314150094986,-0.02796904928982258,0.03888667747378349
1761915503659584500,8.71658447265625,-0.023322366178035736,-0.007513576187193394,0.041856370866298676
1761915503669638700,8.726638671875,-0.02081473357975483,0.01438266783952713,0.036126844584941864
1761915503679692500,8.736692626953126,-0.01949806697666645,0.019693011417984962,0.02785533294081688
1761915503689747500,8.74674755859375,-0.01974361017346382,0.017552629113197327,0.02930968627333641
1761915503699801300,8.75680126953125,-0.023205719888210297,0.003299123840406537,0.03434092923998833
1761915503709855500,8.76685546875,-0.02381904609501362,-0.006734601687639952,0.0492788664996624
1761915503719909600,8.77690966796875,-0.022481340914964676,-0.01378239132463932,0.06375633925199509
1761915503729964500,8.786964599609375,-0.018643725663423538,-0.011284878477454185,0.0715588703751564
1761915503740018700,8.797018798828125,-0.016987772658467293,-0.008519984781742096,0.06790927797555923
1761915503750072600,8.807072509765625,-0.020371317863464355,-0.0054664043709635735,0.0418798066675663
1761915503760126500,8.81712646484375,-0.0222078338265419,-0.0026173547375947237,0.01624102145433426
1761915503770181600,8.827181640625,-0.017532121390104294,0.006389189511537552,-0.003451190423220396
1761915503780235500,8.837235595703126,-0.014051903039216995,0.023935426026582718,-0.008897621184587479
1761915503790289700,8.84728955078125,-0.00947872269898653,0.03214621916413307,-0.004252269398421049
1761915503800343600,8.857343505859374,-0.00869388971477747,0.026875022798776627,0.007818241603672504
1761915503810398500,8.8673984375,-0.014390391297638416,0.011227620765566826,0.01630839891731739
1761915503820452400,8.877452392578125,-0.021463479846715927,-0.016871390864253044,0.013342703692615032
1761915503830506500,8.887506591796875,-0.024512266740202904,-0.035236284136772156,0.0051958272233605385
1761915503840560400,8.897560302734375,-0.027059314772486687,-0.04381352663040161,-0.004066114313900471
1761915503850615600,8.907615478515625,-0.030964573845267296,-0.057022806257009506,-0.008294414728879929
1761915503860669700,8.917669677734375,-0.030001841485500336,-0.05510346591472626,-0.0015472965314984322
1761915503870723600,8.9277236328125,-0.023437947034835815,-0.03657345846295357,-0.0012386362068355083
1761915503880777500,8.937777587890626,-0.011637480929493904,-0.024115456268191338,-0.0037558560725301504
1761915503890832600,8.94783251953125,-0.00794420950114727,-0.012462794780731201,-0.019814183935523033
1761915503900886500,8.957886474609374,-0.0121264373883605,-0.012971725314855576,-0.032762207090854645
1761915503910940700,8.967940673828124,-0.023154055699706078,-0.0250246599316597,-0.04105608910322189
1761915503920994600,8.97799462890625,-0.02340093068778515,-0.042218293994665146,-0.04452192783355713
1761915503931050200,8.98805029296875,-0.01600692979991436,-0.0514376237988472,-0.032412800937891006
1761915503941104000,8.998104248046875,-0.011543471366167068,-0.0534224770963192,-0.016087889671325684
1761915503951158300,9.008158203125,-0.007788414601236582,-0.047621846199035645,0.0020730046089738607
1761915503961212200,9.018212158203125,-0.0003382214636076242,-0.03243596851825714,0.014392787590622902
1761915503971267300,9.028267333984376,0.0020602215081453323,-0.015922773629426956,0.01738165318965912
1761915503981321200,9.0383212890625,0.0010130665032193065,-0.002740126335993409,0.0063034361228346825
1761915503991375000,9.048375,-0.003349990351125598,-0.018560634925961494,-0.014215420931577682
1761915504001429200,9.05842919921875,-0.005919940769672394,-0.035771314054727554,-0.036506347358226776
1761915504011484200,9.068484130859375,-0.008981244638562202,-0.04109017923474312,-0.04808603599667549
1761915504021538300,9.078538330078125,-0.0024146882351487875,-0.0336514376103878,-0.049192581325769424
1761915504031592400,9.088592529296875,0.0007560714147984982,-0.0190727598965168,-0.038965508341789246
1761915504041646300,9.098646240234375,-0.0005137237603776157,-0.0008905610884539783,-0.026971962302923203
1761915504051701200,9.108701171875,0.005287972744554281,0.004772118292748928,-0.014148309826850891
1761915504061755100,9.118755126953126,0.00833862368017435,0.003772101365029812,0.00027563716867007315
1761915504071809300,9.128809326171876,0.011197793297469616,-0.0022514364682137966,0.00628958735615015
1761915504081863200,9.13886328125,0.011120827868580818,-0.017723336815834045,0.014310762286186218
1761915504091918300,9.14891845703125,0.008856608532369137,-0.03678357973694801,0.02473410777747631
1761915504101972200,9.15897216796875,0.010645187459886074,-0.04799894988536835,0.036134034395217896
1761915504112026000,9.169026123046875,0.012741628102958202,-0.04327183961868286,0.03665628284215927
1761915504122080300,9.179080322265625,0.01709696091711521,-0.021498899906873703,0.029202094301581383
1761915504132135200,9.18913525390625,0.014698784798383713,-0.0023286680225282907,0.01158821303397417
1761915504142189300,9.199189208984375,0.013291037641465664,0.008942628279328346,-0.013547766953706741
1761915504152243500,9.209243408203125,0.012455604039132595,0.011274492368102074,-0.03098774328827858
1761915504162297300,9.21929736328125,0.010182064026594162,0.008933573961257935,-0.04224812239408493
1761915504172352300,9.229352294921876,0.004352137912064791,-0.000023435817638528533,-0.03410444036126137
1761915504182406100,9.23940625,0.0020301276817917824,-0.008695753291249275,-0.01618908904492855
1761915504192460300,9.249460205078124,0.002410160843282938,-0.013560815714299679,0.014993863180279732
1761915504202514200,9.25951416015625,0.006641923915594816,-0.01329902745783329,0.03981532156467438
1761915504212569300,9.2695693359375,0.015424496494233608,-0.0004972121678292751,0.055322643369436264
1761915504222623200,9.279623291015625,0.01991059072315693,0.014684404246509075,0.05844200402498245
1761915504232677000,9.289677001953125,0.02395220473408699,0.021322598680853844,0.04963333159685135
1761915504242731300,9.299731201171875,0.02418496459722519,0.016592292115092278,0.03910665586590767
1761915504252786200,9.3097861328125,0.02628992684185505,0.00950721837580204,0.031430359929800034
1761915504262840300,9.31984033203125,0.02731897309422493,0.005892776418477297,0.0436667874455452
1761915504272894500,9.32989453125,0.024051805958151817,0.007922904565930367,0.057467021048069
1761915504282948400,9.3399482421875,0.01780989021062851,0.011788749136030674,0.07785964757204056
1761915504293003300,9.350003173828124,0.021740449592471123,0.01954999938607216,0.08854318410158157
1761915504303057200,9.36005712890625,0.022115422412753105,0.02906307764351368,0.08192389458417892
1761915504313111300,9.370111328125,0.019405122846364975,0.03693058714270592,0.059722717851400375
1761915504323165200,9.380165283203125,0.017834924161434174,0.03856842964887619,0.02774534374475479
1761915504333220400,9.390220458984375,0.013223127461969852,0.032408807426691055,0.0023672839161008596
1761915504343274200,9.400274169921875,0.009875267744064331,0.022155368700623512,-0.011328554712235928
1761915504353328000,9.410328125,0.0065100970678031445,0.012593556195497513,-0.011272627860307693
1761915504363382300,9.42038232421875,0.004505536053329706,-0.004953745752573013,-0.008045143447816372
1761915504373437200,9.430437255859376,-0.0013933659065514803,-0.018920693546533585,-0.008607069961726665
1761915504383491300,9.4404912109375,-0.004520183429121971,-0.019539879634976387,-0.014546984806656837
1761915504393545200,9.450545166015624,-0.00914156623184681,-0.007222759071737528,-0.015912920236587524
1761915504403599400,9.460599365234375,-0.0010128001449629664,0.010777546092867851,-0.014707840047776699
1761915504413654300,9.470654296875,-0.002242914168164134,0.013943511992692947,-0.007967112585902214
1761915504423710500,9.48071044921875,-0.0013552826130762696,0.007678159512579441,0.005567871034145355
1761915504433765000,9.49076513671875,-0.0028426581993699074,0.00138031633105129,0.026883812621235847
1761915504443819300,9.5008193359375,-0.011405786499381065,-0.010851582512259483,0.044017259031534195
1761915504453873200,9.510873046875,-0.021209148690104485,-0.025500565767288208,0.051851481199264526
1761915504463927300,9.52092724609375,-0.02967054396867752,-0.033908165991306305,0.044976796954870224
1761915504473982200,9.530982177734375,-0.031864989548921585,-0.03767414018511772,0.02335432544350624
1761915504484036000,9.5410361328125,-0.026514431461691856,-0.026644926518201828,-0.005357481073588133
1761915504494090200,9.55109033203125,-0.019475962966680527,-0.014604508876800537,-0.02292688749730587
1761915504504144100,9.56114404296875,-0.010104299522936344,0.00044847631943412125,-0.029283054172992706
1761915504514199300,9.57119921875,-0.0009299758239649236,0.0178141500800848,-0.021359883248806
1761915504524253400,9.58125341796875,-0.000036485307646216825,0.028255606070160866,-0.0021872541401535273
1761915504534307300,9.591307373046876,0.000005592638444795739,0.024026505649089813,0.021033646538853645
1761915504544361500,9.601361572265626,-0.0000655137628200464,0.013937386684119701,0.041860099881887436
1761915504554416000,9.611416015625,-0.002698048483580351,0.006711165886372328,0.050222158432006836
1761915504564470300,9.62147021484375,-0.0038514635525643826,-0.007736483123153448,0.047389887273311615
1761915504574524200,9.631524169921875,-0.004575577098876238,-0.017588581889867783,0.03686374053359032
1761915504584578300,9.641578369140625,-0.002670884132385254,-0.015532353892922401,0.027031084522604942
1761915504594633200,9.65163330078125,-0.0019768644124269485,-0.013318468816578388,0.02653706818819046
1761915504604687000,9.66168701171875,0.001975799212232232,-0.005875732284039259,0.025538915768265724
1761915504614741200,9.6717412109375,0.000027430558475316502,0.0015664712991565466,0.02744094468653202
1761915504624795100,9.681795166015625,-0.0011627360945567489,0.012889167293906212,0.016033029183745384
1761915504634850300,9.691850341796876,0.0027348001021891832,0.016715597361326218,0.007158310618251562
1761915504644904400,9.701904541015624,0.006786533165723085,0.01471609529107809,-0.004020574036985636
1761915504654958300,9.711958251953124,0.0035891421139240265,0.02142592892050743,-0.010754110291600227
1761915504665012500,9.722012451171874,0.0004892227007076144,0.015490543097257614,-0.012648949399590492
1761915504675067100,9.732067138671875,-0.0033124396577477455,0.0034171019215136766,-0.008403604850172997
1761915504685121300,9.742121337890625,-0.006363090593367815,-0.012910205870866776,0.00033662354690022767
1761915504695175200,9.752175048828125,-0.006216616835445166,-0.025186313316226006,0.011080614291131496
1761915504705229300,9.762229248046875,0.00007536746124969795,-0.013410613872110844,0.02298174798488617
1761915504715284200,9.7722841796875,0.005770537536591291,0.00957006961107254,0.028144020587205887
1761915504725338000,9.782338134765626,0.010833472944796085,0.026332272216677666,0.030340062454342842
1761915504735392300,9.792392333984376,0.013916081748902798,0.02522413060069084,0.027212180197238922
1761915504745446100,9.802446044921876,0.012715795077383518,0.020726317539811134,0.02640657313168049
1761915504755501300,9.812501220703124,0.009476060047745705,0.012296346947550774,0.016877517104148865
1761915504765555500,9.822555419921875,0.004584631882607937,0.007208910770714283,0.01309236604720354
1761915504775609300,9.832609375,0.0006679208017885685,0.0014154701493680477,0.01070697233080864
1761915504785663500,9.84266357421875,0.0006226470577530563,-0.004035221878439188,0.0048919604159891605
1761915504795718100,9.85271826171875,-0.0026527747977524996,-0.0011427623685449362,0.007512777578085661
1761915504805772300,9.862772216796875,-0.0009888317435979843,0.004865062423050404,0.005950034596025944
1761915504815826200,9.872826171875,-0.0001906823308672756,0.01655527390539646,0.0028695559594780207
1761915504825880300,9.88288037109375,-0.0027180220931768417,0.025482989847660065,-0.00015446334145963192
1761915504835935200,9.892935302734376,-0.005617139395326376,0.021277325227856636,-0.0024474449455738068
1761915504845989000,9.902989013671874,-0.005137504078447819,0.00692102313041687,-0.016039419919252396
1761915504856043300,9.913043212890624,-0.010355968028306961,-0.018555574119091034,-0.026669960469007492
1761915504866098200,9.92309814453125,-0.015125423669815063,-0.03051583096385002,-0.031143538653850555
1761915504876152300,9.93315234375,-0.01260793674737215,-0.013819674961268902,-0.012050803750753403
1761915504886206200,9.943206298828125,-0.00839907769113779,0.010293650440871716,0.01660960353910923
1761915504896260400,9.95326025390625,0.0013824469642713666,0.030914505943655968,0.04109444096684456
1761915504906315300,9.963315185546875,0.007392668630927801,0.03377847000956535,0.04812491685152054
1761915504916369200,9.973369140625,0.008100803010165691,0.025836924090981483,0.04024675488471985
1761915504926423300,9.98342333984375,0.004711132030934095,0.019893014803528786,0.024418523535132408
1761915504936477200,9.993477294921876,-0.0011776498286053538,-0.0075633772648870945,0.014925952069461346
1761915504946532400,10.003532470703124,-0.012062788009643555,-0.049182992428541183,0.013702495954930782
1761915504956586200,10.013586181640624,-0.018912971019744873,-0.07122970372438431,0.02743881568312645
1761915504966640000,10.02364013671875,-0.016708139330148697,-0.07360577583312988,0.04079084098339081
1761915504976694300,10.0336943359375,-0.010066215880215168,-0.04100282862782478,0.057314421981573105
1761915504986749200,10.043749267578125,0.0029201561119407415,0.003439738880842924,0.060856159776449203
1761915504996803300,10.05380322265625,0.008409996517002583,0.047268178313970566,0.05760257691144943
1761915505006857200,10.063857177734375,0.014600248076021671,0.076884925365448,0.04271524026989937
1761915505016911400,10.073911376953125,0.014161092229187489,0.07864980399608612,0.022771891206502914
1761915505026966300,10.08396630859375,0.012164254672825336,0.053342051804065704,0.004835501778870821
1761915505037020200,10.094020263671876,0.005964149255305529,0.019211245700716972,-0.002373941708356142
1761915505047074300,10.10407421875,0.0015795208746567369,-0.0008522115531377494,0.002412557601928711
1761915505057128200,10.114128173828124,0.0015315839555114508,0.0020072245970368385,0.005870672408491373
1761915505067183400,10.124183349609375,0.0041398839093744755,0.006886135786771774,0.005004345905035734
1761915505077237200,10.1342373046875,0.00765818590298295,0.01257837563753128,-0.008569786325097084
1761915505087291100,10.144291015625,0.0000953411654336378,0.013953099958598614,-0.023182284086942673
1761915505097345300,10.15434521484375,-0.002957440447062254,0.009168731048703194,-0.032167524099349976
1761915505107400200,10.164400146484375,-0.007238205522298813,-0.003621100215241313,-0.03181305527687073
1761915505117454300,10.174454345703126,-0.015742477029561996,-0.023486150428652763,-0.014362693764269352
1761915505127508200,10.18450830078125,-0.022171081975102425,-0.02822418138384819,0.008761533536016941
1761915505137563100,10.194563232421874,-0.020423516631126404,-0.023987092077732086,0.02966042421758175
1761915505147617300,10.2046171875,-0.018913503736257553,-0.014011156745254993,0.047743555158376694
1761915505157671200,10.214671142578124,-0.01468520238995552,0.0028101676143705845,0.047753673046827316
1761915505167725300,10.224725341796875,-0.006711432244628668,0.020968664437532425,0.04182787239551544
1761915505177779200,10.234779296875,-0.002100967802107334,0.042627621442079544,0.025535453110933304
1761915505187834400,10.24483447265625,-0.002495914464816451,0.04310006648302078,0.010906443931162357
1761915505197888300,10.25488818359375,-0.004448277875781059,0.036791834980249405,0.002142246812582016
1761915505207942100,10.264942138671875,-0.0043910201638937,0.01606765016913414,0.001977929612621665
1761915505217997300,10.274997314453126,-0.00711676524952054,-0.004117513541132212,0.015298528596758842
1761915505228051200,10.28505126953125,-0.007893343456089497,-0.022107167169451714,0.027187146246433258
1761915505238105300,10.295105224609374,-0.008036354556679726,-0.02707768976688385,0.041373006999492645
1761915505248159200,10.3051591796875,-0.006030728109180927,-0.012723518535494804,0.05217904970049858
1761915505258214100,10.315214111328125,-0.0021169467363506556,0.00905581284314394,0.055441420525312424
1761915505268268300,10.325268310546875,-0.0031340080313384533,0.0170892383903265,0.05228158086538315
1761915505278322200,10.335322265625,0.0001294296234846115,0.02195563167333603,0.05139714479446411
1761915505288376300,10.345376220703125,0.0006181196658872068,0.005784652195870876,0.04162973538041115
1761915505298431200,10.35543115234375,-0.004263454582542181,-0.014624749310314655,0.0349755622446537
1761915505308485400,10.3654853515625,-0.012401808053255081,-0.020891966298222542,0.03549221530556679
1761915505318539300,10.375539306640626,-0.011773568578064442,-0.019209913909435272,0.03485465422272682
1761915505328593200,10.38559326171875,-0.006886668037623167,-0.016956612467765808,0.03002740815281868
1761915505338648300,10.3956484375,0.0046237800270318985,-0.0005243764026090503,0.02497432567179203
1761915505348702200,10.4057021484375,0.003964914008975029,0.012357866391539574,0.012663863599300385
1761915505358756400,10.41575634765625,-0.0054970309138298035,0.024325313046574593,0.011625763028860092
1761915505368810200,10.425810302734375,-0.006478139199316502,0.020355338230729103,0.010349842719733715
1761915505378865200,10.435865234375,0.0017832526937127113,0.01203881949186325,0.00935275573283434
1761915505388919300,10.445919189453125,0.005435511935502291,0.005770004820078611,0.016337428241968155
1761915505398973200,10.45597314453125,0.00920388475060463,-0.0009105347562581301,0.02315671741962433
1761915505409028400,10.4660283203125,0.013430587947368622,-0.004802212119102478,0.030235933139920235
1761915505419082200,10.476082275390626,0.017723603174090385,0.0001334243715973571,0.0342293418943882
1761915505429136400,10.486136474609374,0.01221458800137043,0.006426474079489708,0.03791435807943344
1761915505439190300,10.496190185546874,0.00905900914222002,0.008212655782699585,0.03146764636039734
1761915505449245200,10.5062451171875,0.0065473816357553005,-0.005297826137393713,0.019846942275762558
1761915505459299300,10.51629931640625,0.003947337158024311,-0.009603092446923256,-0.004664793144911528
1761915505469353200,10.526353271484375,0.0011113371001556516,-0.016574449837207794,-0.02564011514186859
1761915505479407400,10.536407470703125,0.0013768542557954788,-0.013118199072778225,-0.037106357514858246
1761915505489462300,10.546462158203125,0.005666674114763737,0.0062911855056881905,-0.02395699732005596
1761915505499516200,10.55651611328125,0.006680273450911045,0.024449417367577553,0.006924751214683056
1761915505509570300,10.5665703125,0.011040667071938515,0.031015174463391304,0.03653936833143234
1761915505519624200,10.576624267578126,0.015616243705153465,0.013675598427653313,0.06264686584472656
1761915505529679400,10.586679443359374,0.012436163611710072,-0.002257827902212739,0.07156606018543243
1761915505539733200,10.596733154296874,0.008887767791748047,-0.014043913222849369,0.06276058405637741
1761915505549787400,10.606787353515625,0.00541314110159874,-0.01853133924305439,0.05223497375845909
1761915505559841300,10.61684130859375,0.008433698676526546,-0.006902913562953472,0.04158446192741394
1761915505569896200,10.626896240234375,0.013660152442753315,0.02370026893913746,0.032641299068927765
1761915505579950300,10.636950439453125,0.02341078408062458,0.05431889742612839,0.03003033623099327
1761915505590004200,10.647004150390625,0.01037620846182108,0.05441077798604965,0.03001835197210312
1761915505600059400,10.657059326171876,-0.00914715975522995,0.032515332102775574,0.04229525849223137
1761915505610113300,10.66711328125,-0.02611682191491127,-0.0031340080313384533,0.06587515026330948
1761915505620167200,10.677167236328126,-0.05922337621450424,-0.05705023556947708,0.09531373530626297
1761915505630221300,10.68722119140625,-0.07300097495317459,-0.10324542969465256,0.11252015084028244
1761915505640276200,10.697276123046874,-0.07440632581710815,-0.12834998965263367,0.13858450949192047
1761915505650330400,10.707330322265625,-0.06035814806818962,-0.1233363151550293,0.16572637856006622
1761915505660384300,10.71738427734375,-0.03876284137368202,-0.10257058590650558,0.1775641292333603
1761915505670438400,10.7274384765625,-0.020123111084103584,-0.058751996606588364,0.1633250117301941
1761915505680493300,10.737493408203125,0.019341208040714264,0.017288176342844963,0.11685897409915924
1761915505690547200,10.747547119140625,0.05836477130651474,0.08804330229759216,0.04055168852210045
1761915505700601300,10.757601318359375,0.09736809879541397,0.1744847148656845,-0.04801040142774582
1761915505710655200,10.7676552734375,0.12071842700242996,0.2992839217185974,-0.1355687528848648
1761915505720710400,10.77771044921875,0.1432192027568817,0.4384266138076782,-0.20043988525867462
1761915505730764000,10.787763916015624,0.11629331856966019,0.5553090572357178,-0.14536066353321075
1761915505740818200,10.797818115234374,0.05573223903775215,0.3938530385494232,-0.11418356001377106
1761915505750872300,10.807872314453125,0.0205092690885067,0.16095027327537537,-0.13061846792697906
1761915505760927200,10.81792724609375,-0.00839641410857439,0.005486644338816404,-0.1280306726694107
1761915505770981400,10.8279814453125,-0.0599948950111866,-0.04271124303340912,-0.10994727164506912
1761915505781035300,10.83803515625,-0.06669540703296661,0.013432451523840427,-0.049609895795583725
