time,seconds_elapsed,z,y,x
1761915495024252700,0.081252685546875,-0.01427882444113493,-0.15065695345401764,-0.14923429489135742
1761915495034307800,0.091307861328125,0.006561914924532175,-0.09415709227323532,-0.15084168314933777
1761915495044361700,0.10136181640625,0.032122932374477386,-0.030877988785505295,-0.15530595183372498
1761915495054415600,0.11141552734375,0.04741540178656578,0.0370095893740654,-0.16345928609371185
1761915495064469800,0.1214697265625,0.03742588683962822,0.05776306986808777,-0.17087697982788086
1761915495074523600,0.131523681640625,0.012163043953478336,0.030425285920500755,-0.17227745056152344
1761915495084578800,0.141578857421875,-0.01324058324098587,0.00007110871956683695,-0.16513273119926453
1761915495094633000,0.151633056640625,-0.026092858985066414,-0.003994219936430454,-0.14051273465156555
1761915495104686800,0.161686767578125,-0.028496094048023224,0.0100560849532485,-0.11523080617189407
1761915495114740700,0.17174072265625,-0.021470142528414726,0.035258110612630844,-0.0898335725069046
1761915495124795600,0.181795654296875,-0.00906993169337511,0.058483272790908813,-0.07056213915348053
1761915495134849800,0.191849853515625,-0.009444387629628181,0.06566176563501358,-0.0644373744726181
1761915495144903700,0.201903564453125,-0.021277079358696938,0.03258050978183746,-0.05642658844590187
1761915495154957800,0.211957763671875,-0.046371106058359146,-0.015586413443088531,-0.04280814528465271
1761915495165012700,0.2220126953125,-0.07234145700931549,-0.053699977695941925,-0.02499772235751152
1761915495175066600,0.232066650390625,-0.08353093266487122,-0.058895666152238846,0.012514167465269566
1761915495185120800,0.242120849609375,-0.0854305624961853,-0.05495045706629753,0.049377378076314926
1761915495195174700,0.252174560546875,-0.07463222742080688,-0.02996143326163292,0.08339258283376694
1761915495205228800,0.262228759765625,-0.05003447085618973,-0.011418643407523632,0.09820401668548584
1761915495215284000,0.272283935546875,-0.03630852326750755,0.007050624117255211,0.09717150777578354
1761915495225337900,0.282337890625,-0.03429650515317917,-0.003013994311913848,0.08074593544006348
1761915495235391700,0.292391845703125,-0.04650858789682388,-0.038169894367456436,0.061497293412685394
1761915495245445600,0.302445556640625,-0.05839480832219124,-0.051269449293613434,0.054564014077186584
1761915495255500800,0.312500732421875,-0.05189979821443558,-0.03564390912652016,0.060310475528240204
1761915495265554700,0.3225546875,-0.039305709302425385,-0.0033533459063619375,0.06466767191886902
1761915495275608800,0.33260888671875,-0.019553260877728462,0.03524944931268692,0.05798232555389404
1761915495285662700,0.342662841796875,0.0030114352703094482,0.0645226463675499,0.044385820627212524
1761915495295717600,0.352717529296875,0.0062041571363806725,0.07660043984651566,0.019628647714853287
1761915495305771800,0.362771728515625,-0.0006891690427437425,0.07231008261442184,-0.0026265913620591164
1761915495315825700,0.37282568359375,-0.007361734285950661,0.06512642651796341,-0.019377853721380234
1761915495325879800,0.3828798828125,-0.014734962023794651,0.047994840890169144,-0.014372441917657852
1761915495335933700,0.39293359375,-0.00627068430185318,0.033399298787117004,0.005895589478313923
1761915495345988900,0.40298876953125,0.005483709741383791,0.025884922593832016,0.03366783261299133
1761915495356042800,0.413042724609375,0.006395859178155661,0.017337223514914513,0.06391335278749466
1761915495366096600,0.4230966796875,-0.003813901450484991,0.00405524019151926,0.09381825476884842
1761915495376150800,0.43315087890625,-0.004883787594735622,0.004772259388118982,0.11926404386758804
1761915495386205700,0.443205810546875,0.008679691702127457,0.02135176956653595,0.1458977907896042
1761915495396259800,0.453259765625,0.037994638085365295,0.03201765567064285,0.1750650554895401
1761915495406313700,0.463313720703125,0.07733911275863647,0.06207568943500519,0.20940251648426056
1761915495416367900,0.473367919921875,0.10557642579078674,0.12390909343957901,0.2352268397808075
1761915495426421800,0.483421875,0.10386241972446442,0.15972088277339935,0.24847207963466644
1761915495436476700,0.4934765625,0.08686447143554688,0.1356319636106491,0.2438422292470932
1761915495446530800,0.50353076171875,0.05760379135608673,0.07973461598157883,0.23101884126663208
1761915495456584700,0.513584716796875,0.028708964586257935,0.015774939209222794,0.22405153512954712
1761915495466638800,0.523638916015625,0.004742646589875221,-0.022159393876791,0.2152242213487625
1761915495476693800,0.53369384765625,-0.006720696575939655,-0.039239611476659775,0.20138992369174957
1761915495486747600,0.54374755859375,-0.006391796283423901,-0.04030993580818176,0.177035853266716
1761915495496801800,0.5538017578125,0.018350552767515182,-0.023678814992308617,0.14544598758220673
1761915495506855700,0.563855712890625,0.05678795650601387,0.032591648399829865,0.12796978652477264
1761915495516910800,0.573910888671875,0.08848337829113007,0.11706224083900452,0.12975136935710907
1761915495526964700,0.58396484375,0.11208058148622513,0.209149569272995,0.158244788646698
1761915495537019000,0.594018798828125,0.14260932803153992,0.3164008557796478,0.20601165294647217
1761915495547072800,0.60407275390625,0.1808515191078186,0.45318880677223206,0.2570423483848572
1761915495557126700,0.614126708984375,0.19452758133411407,0.5840052366256714,0.27353644371032715
1761915495567181800,0.624181884765625,0.20169681310653687,0.6634822487831116,0.25592413544654846
1761915495577235700,0.634235595703125,0.19621878862380981,0.7310242056846619,0.23912937939167023
1761915495587289900,0.644289794921875,0.17384983599185944,0.7842402458190918,0.2238476276397705
1761915495597343700,0.65434375,0.17350323498249054,0.7660347819328308,0.227562814950943
1761915495607398700,0.664398681640625,0.21428555250167847,0.6832067370414734,0.23416294157505035
1761915495617452800,0.674452880859375,0.2769572138786316,0.5729161500930786,0.23236876726150513
1761915495627506700,0.684506591796875,0.3306659758090973,0.5196837782859802,0.23434856534004211
1761915495637560800,0.694560791015625,0.3539651334285736,0.5328037738800049,0.2329685539007187
1761915495647615700,0.70461572265625,0.35151368379592896,0.5995678901672363,0.23709724843502045
1761915495657670000,0.714669921875,0.3543128967285156,0.7174626588821411,0.24137622117996216
1761915495667723800,0.724723876953125,0.3546617925167084,0.7990086674690247,0.23255769908428192
1761915495677777700,0.734777587890625,0.36478352546691895,0.837597131729126,0.21108365058898926
1761915495687831800,0.744831787109375,0.3612186312675476,0.8745357394218445,0.15670403838157654
1761915495697886700,0.75488671875,0.269992470741272,0.8534476161003113,0.08457082509994507
1761915495707940900,0.76494091796875,0.14551766216754913,0.8532920479774475,0.025170084089040756
1761915495717994800,0.774994873046875,0.034586403518915176,0.8130650520324707,-0.03460433706641197
1761915495728049000,0.785048828125,-0.02213599532842636,0.677800178527832,-0.09545117616653442
1761915495738103800,0.795103759765625,-0.03314985707402229,0.47004014253616333,-0.2027735412120819
1761915495748157700,0.80515771484375,-0.0510881133377552,0.12073195725679398,-0.35355934500694275
1761915495758211800,0.8152119140625,-0.09356585890054703,-0.24540480971336365,-0.5156952142715454
1761915495768265700,0.825265625,-0.12949137389659882,-0.46027612686157227,-0.600985050201416
1761915495778321000,0.83532080078125,-0.1474214792251587,-0.49583593010902405,-0.5925019979476929
1761915495788374800,0.845374755859375,-0.14784012734889984,-0.46075010299682617,-0.5604181289672852
1761915495798428700,0.8554287109375,-0.156618133187294,-0.41409844160079956,-0.5396915078163147
1761915495808482600,0.865482666015625,-0.1923803836107254,-0.34246793389320374,-0.5327188372612
1761915495818536700,0.87553662109375,-0.23109473288059235,-0.3206651210784912,-0.5336259603500366
1761915495828591900,0.885591796875,-0.26481303572654724,-0.3750596344470978,-0.5460642576217651
1761915495838645800,0.895645751953125,-0.28077080845832825,-0.4522630274295807,-0.550593376159668
1761915495848700000,0.905699951171875,-0.28379401564598083,-0.514460027217865,-0.5321325659751892
1761915495858753800,0.91575390625,-0.2680879831314087,-0.5906103849411011,-0.49321427941322327
1761915495868808700,0.92580859375,-0.2526951730251312,-0.701409101486206,-0.4536682069301605
1761915495878862800,0.93586279296875,-0.2370423823595047,-0.7794329524040222,-0.401165634393692
1761915495888916700,0.945916748046875,-0.22632235288619995,-0.794602632522583,-0.33519166707992554
1761915495898971000,0.955970947265625,-0.22368134558200836,-0.7627559304237366,-0.26658037304878235
1761915495909025800,0.96602587890625,-0.2301301807165146,-0.7167232036590576,-0.19636693596839905
1761915495919083300,0.976083251953125,-0.2341655045747757,-0.6832352876663208,-0.13111217319965363
1761915495929137200,0.98613720703125,-0.2484041005373001,-0.6548164486885071,-0.0508146733045578
1761915495939191300,0.99619140625,-0.2570309638977051,-0.6715364456176758,0.025684431195259094
1761915495949246500,1.00624658203125,-0.2546546161174774,-0.6573362350463867,0.09809605032205582
1761915495959300400,1.01630029296875,-0.24975496530532837,-0.6006554365158081,0.1770327091217041
1761915495969354500,1.0263544921875,-0.24741432070732117,-0.5407827496528625,0.25635072588920593
1761915495979408400,1.036408447265625,-0.2618328034877777,-0.5195629596710205,0.3163755536079407
1761915495989462300,1.046462158203125,-0.26277315616607666,-0.5512716174125671,0.35609713196754456
1761915495999517200,1.05651708984375,-0.2569017708301544,-0.5598431825637817,0.3827815651893616
1761915496009571300,1.0665712890625,-0.25037944316864014,-0.500420331954956,0.4061864912509918
1761915496019625200,1.076625244140625,-0.24019375443458557,-0.3952488601207733,0.41877883672714233
1761915496029679400,1.086679443359375,-0.22166800498962402,-0.28679534792900085,0.41540488600730896
1761915496039734300,1.096734375,-0.19802920520305634,-0.20528385043144226,0.3895399272441864
1761915496049788200,1.1067880859375,-0.17142102122306824,-0.16994929313659668,0.3406038284301758
1761915496059842300,1.11684228515625,-0.14951494336128235,-0.15490753948688507,0.28510141372680664
1761915496069896200,1.126896240234375,-0.13552802801132202,-0.17784720659255981,0.23786546289920807
1761915496079951400,1.136951416015625,-0.13000944256782532,-0.20549193024635315,0.19951410591602325
1761915496090005500,1.147005615234375,-0.13182571530342102,-0.20035655796527863,0.1742071509361267
1761915496100059400,1.157059326171875,-0.13645948469638824,-0.16719754040241241,0.15315179526805878
1761915496110113300,1.16711328125,-0.13534894585609436,-0.12197307497262955,0.12554174661636353
1761915496120167200,1.177167236328125,-0.12663288414478302,-0.11002461612224579,0.09334243834018707
1761915496130222300,1.187222412109375,-0.11223263293504715,-0.11160573363304138,0.06143244355916977
1761915496140276200,1.197276123046875,-0.09982874244451523,-0.12349870055913925,0.031792301684617996
1761915496150330400,1.207330322265625,-0.09358735382556915,-0.1390417069196701,0.015659671276807785
1761915496160384500,1.217384521484375,-0.09557940810918808,-0.15193872153759003,0.022091783583164215
1761915496170439200,1.227439208984375,-0.09433145076036453,-0.1626584678888321,0.03775623068213463
1761915496180493300,1.237493408203125,-0.08926921337842941,-0.1394178420305252,0.05934793874621391
1761915496190547200,1.247547119140625,-0.07823946326971054,-0.09183833003044128,0.07415138185024261
1761915496200601300,1.257601318359375,-0.0543668232858181,-0.030543750151991844,0.07956528663635254
1761915496210655200,1.2676552734375,-0.022976143285632133,0.02682446874678135,0.08430491387844086
1761915496220710400,1.27771044921875,0.0026919343508780003,0.0636298879981041,0.08114347606897354
1761915496230764300,1.287764404296875,0.011078760959208012,0.05073832347989082,0.07596788555383682
1761915496240818200,1.297818115234375,0.011993714608252048,0.024666285142302513,0.07057269662618637
1761915496250872300,1.307872314453125,0.009456787258386612,0.01504934299737215,0.05952324718236923
1761915496260927200,1.31792724609375,0.014193814247846603,0.042416125535964966,0.050113432109355927
1761915496270981400,1.3279814453125,0.029839884489774704,0.07754135876893997,0.026377739384770393
1761915496281035500,1.338035400390625,0.050274040549993515,0.12161235511302948,-0.018608352169394493
1761915496291089400,1.34808935546875,0.05937459319829941,0.12418949604034424,-0.06722116470336914
1761915496301144300,1.358144287109375,0.04917192459106445,0.060617074370384216,-0.1113632544875145
1761915496311198200,1.3681982421875,0.0358089804649353,-0.010527674108743668,-0.13275429606437683
1761915496321252400,1.37825244140625,0.03517409786581993,-0.02366366982460022,-0.12530918419361115
1761915496331306200,1.38830615234375,0.03781222552061081,0.0010616501094773412,-0.09538803994655609
1761915496341361400,1.398361328125,0.045709915459156036,0.04345230758190155,-0.05313942953944206
1761915496351415300,1.408415283203125,0.04994194209575653,0.07986410707235336,-0.01530470047146082
1761915496361469200,1.41846923828125,0.05494169518351555,0.10562001168727875,0.007286137901246548
1761915496371523300,1.4285234375,0.05104895308613777,0.11357620358467102,0.0094622066244483
1761915496381577200,1.4385771484375,0.048367999494075775,0.09139801561832428,-0.002995307557284832
1761915496391632400,1.44863232421875,0.04328615590929985,0.05198349803686142,-0.019354574382305145
1761915496401686300,1.458686279296875,0.032287485897541046,0.015451396815478802,-0.0174734927713871
1761915496411740400,1.468740478515625,0.022583194077014923,0.011889684945344925,-0.004225864075124264
1761915496421794300,1.478794189453125,0.01833599992096424,0.03701506555080414,0.019442424178123474
1761915496431849200,1.48884912109375,0.02747383899986744,0.0673881471157074,0.036825407296419144
1761915496441903400,1.4989033203125,0.035132355988025665,0.09490513801574707,0.0455370768904686
1761915496451957200,1.508957275390625,0.03941231966018677,0.11715345084667206,0.037862107157707214
1761915496462011400,1.519011474609375,0.03438931703567505,0.1081710010766983,0.010777819901704788
1761915496472066300,1.52906640625,0.032439880073070526,0.06907925754785538,-0.020481299608945847
1761915496482120200,1.5391201171875,0.029354939237236977,0.029651567339897156,-0.033643510192632675
1761915496492174300,1.54917431640625,0.03474384546279907,0.01351840328425169,-0.030414694920182228
1761915496502228200,1.559228271484375,0.027371322736144066,0.006572788115590811,-0.0076115853153169155
1761915496512282400,1.569282470703125,0.025575552135705948,0.00108427950181067,0.025342635810375214
1761915496522337300,1.579337158203125,0.022229885682463646,0.0041714804247021675,0.05408556014299393
1761915496532391400,1.589391357421875,0.02327411249279976,0.01708275079727173,0.0634649470448494
1761915496542445300,1.5994453125,0.029849205166101456,0.037955064326524734,0.06229180097579956
1761915496552499200,1.609499267578125,0.0397348627448082,0.044763170182704926,0.052991241216659546
1761915496562554400,1.619554443359375,0.04087626188993454,0.03722745552659035,0.03826797753572464
1761915496572608300,1.629608154296875,0.04039902240037918,0.029353821650147438,0.02387279085814953
1761915496582662400,1.639662353515625,0.041855551302433014,0.014410377480089664,0.010467194952070713
1761915496592716300,1.64971630859375,0.04656321927905083,0.021726880222558975,-0.00757439061999321
1761915496602771200,1.659771240234375,0.05036444216966629,0.04490400850772858,-0.026780664920806885
1761915496612825300,1.669825439453125,0.05217060074210167,0.07548881322145462,-0.042181193828582764
1761915496622879200,1.679879150390625,0.06316366046667099,0.09859924763441086,-0.04472028464078903
1761915496632933400,1.689933349609375,0.06391946226358414,0.11276300251483917,-0.04753897339105606
1761915496642987300,1.6999873046875,0.06413204967975616,0.09828886389732361,-0.052303969860076904
1761915496653042400,1.71004248046875,0.06891748309135437,0.08339859545230865,-0.057478491216897964
1761915496663096000,1.720095947265625,0.061482202261686325,0.07850530743598938,-0.04974121227860451
1761915496673150200,1.730150146484375,0.046189796179533005,0.06943191587924957,-0.0425858274102211
1761915496683204400,1.740204345703125,0.02443702146410942,0.060798369348049164,-0.03010433167219162
1761915496693259300,1.75025927734375,0.005494222044944763,0.070100799202919,-0.02036488614976406
1761915496703313400,1.7603134765625,-0.017545802518725395,0.05553418770432472,-0.01412088144570589
1761915496713367300,1.7703671875,-0.040289733558893204,0.022874776273965836,-0.026101909577846527
1761915496723421400,1.78042138671875,-0.051196299493312836,-0.011510908603668213,-0.03771049529314041
1761915496733476400,1.790476318359375,-0.0474843829870224,-0.029679525643587112,-0.0401611328125
1761915496743530200,1.8005302734375,-0.030721623450517654,-0.0099147018045187,-0.03759205341339111
1761915496753584400,1.81058447265625,-0.015995405614376068,0.018037036061286926,-0.03191579133272171
1761915496763638300,1.82063818359375,-0.006919304374605417,0.03302666172385216,-0.03219997510313988
1761915496773692400,1.8306923828125,-0.007188283838331699,0.030162964016199112,-0.0317927785217762
1761915496783747000,1.8407470703125,-0.01887589693069458,0.010969329625368118,-0.032402534037828445
1761915496793801200,1.85080126953125,-0.029000703245401382,-0.007057608105242252,-0.026678867638111115
1761915496803855400,1.86085546875,-0.03328873589634895,-0.021875007078051567,-0.009430582635104656
1761915496813909200,1.8709091796875,-0.03777137026190758,-0.026514234021306038,0.004341421648859978
1761915496823964400,1.88096435546875,-0.03783946856856346,-0.01858014240860939,0.01748373731970787
1761915496834018300,1.891018310546875,-0.042311981320381165,0.0003514700511004776,0.019559670239686966
1761915496844072400,1.901072509765625,-0.049009136855602264,0.011431789956986904,0.010381488129496574
1761915496854126300,1.911126220703125,-0.05301719531416893,0.0038175461813807487,-0.01116028893738985
1761915496864181200,1.92118115234375,-0.06062440946698189,-0.010870722122490406,-0.03423931449651718
1761915496874235400,1.9312353515625,-0.06410329043865204,-0.00782007072120905,-0.06217161566019058
1761915496884289300,1.941289306640625,-0.06473083049058914,0.010090943425893784,-0.08656532317399979
1761915496894343400,1.951343505859375,-0.0579669326543808,0.028877146542072296,-0.11000566929578781
1761915496904397300,1.961397216796875,-0.05420964956283569,0.03584308177232742,-0.1210235208272934
1761915496914449200,1.97144921875,-0.052173130214214325,0.0473061241209507,-0.12122911214828491
1761915496924503300,1.98150341796875,-0.04385128617286682,0.04923691600561142,-0.10226820409297943
1761915496934557200,1.99155712890625,-0.027568984776735306,0.045120734721422195,-0.07680226117372513
1761915496944611300,2.001611328125,-0.015732362866401672,0.048702090978622437,-0.048518117517232895
1761915496954666500,2.01166650390625,-0.008136495016515255,0.05710489675402641,-0.028165441006422043
1761915496964720000,2.02172021484375,0.001953784143552184,0.07235965132713318,-0.01796216145157814
1761915496974774300,2.031774169921875,0.007450814824551344,0.0707114189863205,-0.029133591800928116
1761915496984828200,2.041828125,0.00799524411559105,0.061612583696842194,-0.04585004970431328
1761915496994883300,2.05188330078125,0.0027291090227663517,0.037552788853645325,-0.0721929743885994
1761915497004937500,2.0619375,-0.0007310111541301012,0.011574644595384598,-0.0927920937538147
1761915497014991400,2.071991455078125,-0.01461540162563324,-0.009989502839744091,-0.10807810723781586
1761915497025045500,2.08204541015625,-0.02561059221625328,-0.03721194714307785,-0.10423029959201813
1761915497035100200,2.09210009765625,-0.03449862450361252,-0.05546179041266441,-0.09763311594724655
1761915497045154300,2.102154296875,-0.036804042756557465,-0.061463817954063416,-0.08795715123414993
1761915497055208200,2.112208251953125,-0.03436112776398659,-0.05247698351740837,-0.08228355646133423
1761915497065262300,2.122262451171875,-0.03063235618174076,-0.03161846846342087,-0.07877542823553085
1761915497075316200,2.132316162109375,-0.030064571648836136,-0.019079772755503654,-0.07586965709924698
1761915497085371100,2.14237109375,-0.02187040075659752,-0.012893208302557468,-0.07493104785680771
1761915497095425300,2.15242529296875,-0.011270220391452312,0.0036077378317713737,-0.06788059324026108
1761915497105479200,2.162479248046875,0.0011944995494559407,0.020194197073578835,-0.053432267159223557
1761915497115533300,2.172533203125,0.0045442236587405205,0.030896643176674843,-0.046678490936756134
1761915497125588500,2.18258837890625,-0.0016162769170477986,0.02500973455607891,-0.04420962929725647
1761915497135642400,2.192642333984375,-0.010675551369786263,0.01083319541066885,-0.04812820255756378
1761915497145696500,2.202696533203125,-0.020843515172600746,-0.0014785744715481997,-0.047984398901462555
1761915497155750400,2.21275048828125,-0.028607962653040886,-0.00675163371488452,-0.039195701479911804
1761915497165805300,2.222805419921875,-0.025351982563734055,-0.0020160817075520754,-0.02976408414542675
1761915497175859200,2.232859130859375,-0.02063552290201187,0.00459841126576066,-0.014962500892579556
1761915497185913300,2.242913330078125,-0.01386876031756401,0.029084790498018265,0.001899605616927147
1761915497195967200,2.25296728515625,-0.019622253254055977,0.049182601273059845,0.007695975713431835
1761915497206021400,2.263021484375,-0.018018342554569244,0.05540085583925247,0.004773000255227089
1761915497216076300,2.273076171875,-0.021826928481459618,0.02626321278512478,0.009693989530205727
1761915497226130200,2.283130126953125,-0.02877882681787014,-0.02175760269165039,0.02351207658648491
1761915497236184300,2.293184326171875,-0.03920110687613487,-0.053801022469997406,0.04254195839166641
1761915497246238200,2.30323828125,-0.05430220812559128,-0.05270056053996086,0.061053719371557236
1761915497256293400,2.31329345703125,-0.05890548229217529,-0.03855730965733528,0.07495328783988953
1761915497266347500,2.323347412109375,-0.05201388895511627,-0.010370465926826,0.07250386476516724
1761915497276401400,2.3334013671875,-0.04311307519674301,0.013456303626298904,0.055121682584285736
1761915497286455300,2.343455322265625,-0.04024013131856918,0.02432101033627987,0.025368401780724525
1761915497296510200,2.35351025390625,-0.03878870978951454,0.019849030300974846,-0.01332945842295885
1761915497306564400,2.363564453125,-0.03726591542363167,0.02617463655769825,-0.05216395854949951
1761915497316618200,2.3736181640625,-0.04126225411891937,0.02653203159570694,-0.08199003338813782
1761915497326672400,2.38367236328125,-0.03847334533929825,0.026665810495615005,-0.09390851855278015
1761915497336726300,2.393726318359375,-0.03132408857345581,0.028966516256332397,-0.09958132356405258
1761915497346781200,2.40378125,-0.031098036095499992,0.012315546162426472,-0.10437390208244324
1761915497356835300,2.41383544921875,-0.02716854214668274,-0.01266836654394865,-0.09671944379806519
1761915497366889200,2.42388916015625,-0.030603187158703804,-0.04214746505022049,-0.07998041063547134
1761915497376943400,2.433943359375,-0.03673538193106651,-0.07006164640188217,-0.06071723252534866
1761915497386998500,2.44399853515625,-0.03748534247279167,-0.0691329836845398,-0.034798286855220795
1761915497397052400,2.454052490234375,-0.039802826941013336,-0.05099073424935341,-0.0160075556486845
1761915497407106300,2.464106201171875,-0.03402594476938248,-0.02075754851102829,-0.0071080271154642105
1761915497417160200,2.47416015625,-0.030117489397525787,0.011348720639944077,-0.005484031513333321
1761915497427215400,2.48421533203125,-0.027560072019696236,0.02038184553384781,-0.009326949715614319
1761915497437269200,2.494269287109375,-0.026608791202306747,0.004785308614373207,-0.005592931527644396
1761915497447323400,2.504323486328125,-0.026502592489123344,-0.02136440947651863,0.005858461372554302
1761915497457377300,2.514377197265625,-0.034027088433504105,-0.036917537450790405,0.021504797041416168
1761915497467431400,2.524431396484375,-0.03751998022198677,-0.033167313784360886,0.026981746777892113
1761915497477486300,2.534486328125,-0.031408824026584625,-0.02283957600593567,0.023556655272841454
1761915497487540200,2.544540283203125,-0.03513477370142937,-0.01798771694302559,0.010481802746653557
1761915497497594400,2.554594482421875,-0.03544875979423523,-0.018188253045082092,-0.0011623352766036987
1761915497507648300,2.564648193359375,-0.03361445665359497,-0.015990126878023148,-0.004194836597889662
1761915497517703200,2.574703125,-0.028774693608283997,-0.014582647010684013,0.0013991333544254303
1761915497527757300,2.58475732421875,-0.02520439587533474,-0.017758658155798912,0.013670398853719234
1761915497537811200,2.594811279296875,-0.022944170981645584,-0.02159307710826397,0.025702297687530518
1761915497547865300,2.604865234375,-0.019074441865086555,-0.02703041024506092,0.03500882536172867
1761915497557920300,2.614920166015625,-0.01220828015357256,-0.031516771763563156,0.03687543421983719
1761915497567974400,2.624974365234375,-0.006673651747405529,-0.016776179894804955,0.03510548546910286
1761915497578028300,2.6350283203125,0.004574209451675415,0.004569323267787695,0.03114323318004608
1761915497588082400,2.64508251953125,0.008773043751716614,0.02746530808508396,0.02247878536581993
1761915497598136000,2.655135986328125,0.006446239538490772,0.021643105894327164,0.012506311759352684
1761915497608191200,2.665191162109375,0.0075898789800703526,0.004386547952890396,0.00671943835914135
1761915497618245400,2.675245361328125,-0.0013064106460660696,-0.010299719870090485,-0.0009954730048775673
1761915497628299300,2.68529931640625,-0.0006632099393755198,-0.01120617426931858,0.005399531684815884
1761915497638353400,2.695353515625,-0.0024115750566124916,-0.007067622151225805,0.004128404892981052
1761915497648408300,2.705408203125,-0.005389208905398846,-0.0012828848557546735,-0.0013984963297843933
1761915497658462200,2.715462158203125,-0.011981330811977386,-0.006301079411059618,-0.006572485901415348
1761915497668516400,2.725516357421875,-0.020759111270308495,-0.02386329509317875,-0.008158665150403976
1761915497678570200,2.7355703125,-0.02512429840862751,-0.025592485442757607,-0.010164557956159115
1761915497688625400,2.74562548828125,-0.01644510217010975,-0.020577572286128998,-0.01035306602716446
1761915497698679300,2.75567919921875,-0.013311893679201603,-0.017596429213881493,-0.006046201568096876
1761915497708733400,2.7657333984375,-0.010831942781805992,-0.010273749940097332,-0.0068923113867640495
1761915497718787000,2.775787109375,-0.014629077166318893,0.005432508885860443,-0.0021188613027334213
1761915497728841200,2.78584130859375,-0.010346543043851852,0.014485218562185764,0.012472953647375107
1761915497738896400,2.795896484375,-0.0013466563541442156,0.017053572461009026,0.0260313730686903
1761915497748950300,2.8059501953125,0.000943709455896169,0.011084183119237423,0.03874951973557472
1761915497759004400,2.81600439453125,-0.0036563684698194265,0.006799156777560711,0.0371183343231678
1761915497769058300,2.826058349609375,-0.005054747220128775,0.005672193598002195,0.021189389750361443
1761915497779113200,2.83611328125,-0.011101720854640007,0.005538502708077431,0.0025062505155801773
1761915497789167400,2.84616748046875,-0.007762617897242308,-0.0026023031678050756,-0.020091455429792404
1761915497799221200,2.85622119140625,-0.01164097897708416,-0.015821436420083046,-0.03738069906830788
1761915497809275400,2.866275390625,-0.01240179780870676,-0.026920519769191742,-0.052123770117759705
1761915497819330300,2.876330322265625,-0.007601448800414801,-0.03353607654571533,-0.05772998929023743
1761915497829384400,2.886384521484375,-0.01039203442633152,-0.03384128957986832,-0.05085676535964012
1761915497839438000,2.89643798828125,-0.009217847138643265,-0.035822149366140366,-0.03483119606971741
1761915497849492200,2.9064921875,-0.008094667457044125,-0.025844069197773933,-0.014194496907293797
1761915497859546400,2.91654638671875,-0.005756144877523184,-0.006000057328492403,0.010655992664396763
1761915497869601300,2.926601318359375,-0.004287646617740393,0.009888123720884323,0.028820063918828964
1761915497879655400,2.936655517578125,-0.006894082762300968,0.014267957769334316,0.03976139426231384
1761915497889709300,2.946709228515625,-0.006801467388868332,0.013745304197072983,0.045730408281087875
1761915497899763500,2.956763427734375,-0.008734655566513538,0.006754772737622261,0.048611413687467575
1761915497909818400,2.966818359375,-0.010667672380805016,-0.004164278507232666,0.05443607270717621
1761915497919872300,2.976872314453125,-0.013660799711942673,-0.012010483071208,0.05464566498994827
1761915497929926100,2.986926025390625,-0.0076169599778950214,0.005800074897706509,0.046665433794260025
1761915497939980300,2.996980224609375,-0.006864083930850029,0.0199811402708292,0.030429475009441376
1761915497950035500,3.007035400390625,-0.005824259482324123,0.018352027982473373,0.00893871858716011
1761915497960089000,3.017089111328125,-0.006936395540833473,0.015211893245577812,-0.00587112084031105
1761915497970143200,3.027143310546875,-0.004285061731934547,0.01585535518825054,-0.011257785372436047
1761915497980197000,3.037197021484375,-0.004259762354195118,0.017443398013710976,-0.011089739389717579
1761915497990251300,3.047251220703125,-0.004919019527733326,0.009835799224674702,-0.01533015538007021
1761915498000306400,3.057306396484375,0.0024957535788416862,0.004683115519583225,-0.017609022557735443
1761915498010360300,3.0673603515625,0.004500251729041338,0.015024106949567795,-0.014591619372367859
1761915498020414500,3.07741455078125,-0.0003874480025842786,0.005640725139528513,-0.013289600610733032
1761915498030468400,3.08746826171875,-0.0049034166149795055,-0.01152457483112812,-0.009009563364088535
1761915498040523300,3.097523193359375,-0.0059742736630141735,-0.011704337783157825,-0.0011327313259243965
1761915498050577200,3.1075771484375,-0.003518463112413883,0.00024335997295565903,0.0065194834023714066
1761915498060631300,3.11763134765625,-0.0009708832949399948,0.008967875503003597,0.011752594262361526
1761915498070685200,3.127685302734375,0.004092005081474781,0.02372623048722744,0.013726307079195976
1761915498080740000,3.137739990234375,0.007330675609409809,0.03210160508751869,0.015891723334789276
1761915498090794200,3.147794189453125,0.012534539215266705,0.02459770254790783,0.019971109926700592
1761915498100848000,3.15784814453125,0.009933696128427982,0.015838298946619034,0.028186962008476257
1761915498110902300,3.16790234375,0.0077500599436461926,0.014805907383561134,0.03033674880862236
1761915498120956200,3.1779560546875,0.003109501674771309,0.000821115798316896,0.03393814340233803
1761915498131011300,3.18801123046875,-0.005739993415772915,-0.023640738800168037,0.04372401908040047
1761915498141065500,3.1980654296875,-0.01674577407538891,-0.047022495418787,0.05535457655787468
1761915498151119400,3.208119384765625,-0.016984015703201294,-0.05427991971373558,0.07331828027963638
1761915498161173200,3.21817333984375,-0.010508540086448193,-0.048834286630153656,0.08165504038333893
1761915498171228200,3.228228271484375,-0.003857483621686697,-0.03190338984131813,0.06911095976829529
1761915498181282300,3.2382822265625,-0.003065992146730423,-0.02179616130888462,0.044891372323036194
1761915498191336200,3.248336181640625,-0.0077156685292720795,-0.01666538044810295,0.015335652977228165
1761915498201390300,3.258390380859375,-0.007826189510524273,-0.011573415249586105,-0.0029775742441415787
1761915498211445200,3.2684453125,0.0048345886170864105,-0.005530822090804577,-0.009020636789500713
1761915498221499100,3.2784990234375,0.012173195369541645,-0.00016934613813646138,0.0005528945475816727
1761915498231553300,3.28855322265625,0.01411932148039341,0.0016319566639140248,0.01323715504258871
1761915498241607200,3.298607177734375,0.01597581058740616,0.004185928031802177,0.0217326357960701
1761915498251661300,3.308661376953125,0.012367558665573597,0.0016154204495251179,0.028341159224510193
1761915498261716500,3.318716552734375,0.005691813305020332,-0.016053054481744766,0.027554728090763092
1761915498271770000,3.32877001953125,-0.004823991563171148,-0.026890074834227562,0.011950245127081871
1761915498281824300,3.33882421875,-0.009399835020303726,-0.03180786967277527,-0.00559625867754221
1761915498291878100,3.348878173828125,-0.012574417516589165,-0.03396395593881607,-0.013793611899018288
1761915498301933300,3.358933349609375,-0.008991401642560959,-0.028913002461194992,-0.030021850019693375
1761915498311987200,3.3689873046875,-0.003322814591228962,-0.007048544008284807,-0.04326369985938072
1761915498322041300,3.379041259765625,0.0002871000615414232,0.017158791422843933,-0.04828562214970589
1761915498332095200,3.38909521484375,0.007188430987298489,0.02629508636891842,-0.0467817559838295
1761915498342150100,3.399150146484375,0.010999148711562157,0.03585396707057953,-0.040812283754348755
1761915498352204300,3.409204345703125,0.015670282766222954,0.036422815173864365,-0.032319340854883194
1761915498362258200,3.419258056640625,0.010058737359941006,0.023378917947411537,-0.0166397113353014
1761915498372312300,3.429312255859375,0.00426860386505723,0.013194868341088295,-0.003683091141283512
1761915498382366200,3.4393662109375,0.0000695976777933538,0.0008266147924587131,0.006044636480510235
1761915498392421000,3.449421142578125,0.002426900900900364,-0.004912176635116339,0.012726357206702232
1761915498402475300,3.459475341796875,0.00007426459342241287,-0.01691371202468872,0.019051630049943924
1761915498412529200,3.469529052734375,0.00046291566104628146,-0.02267056331038475,0.022126715630292892
1761915498422583300,3.479583251953125,0.0013758472632616758,-0.021435122936964035,0.0284903384745121
1761915498432638200,3.48963818359375,0.0015208953991532326,-0.018737776204943657,0.03317226469516754
1761915498442692400,3.4996923828125,0.0021704405080527067,-0.010531510226428509,0.035960592329502106
1761915498452746200,3.509746337890625,0.006286215037107468,-0.006064927205443382,0.04432521015405655
1761915498462800400,3.51980029296875,0.0065101864747703075,-0.0018781714607030153,0.04186844453215599
1761915498472855300,3.529855224609375,0.001313795568421483,-0.0100325308740139,0.03445661813020706
1761915498482909200,3.5399091796875,-0.0025975890457630157,-0.0334228090941906,0.029374510049819946
1761915498492963300,3.54996337890625,-0.01606220193207264,-0.059952814131975174,0.02971479296684265
1761915498503017200,3.560017333984375,-0.022153116762638092,-0.07268191874027252,0.040025487542152405
1761915498513072000,3.570072021484375,-0.024178985506296158,-0.06906037777662277,0.06110284850001335
1761915498523126300,3.580126220703125,-0.013060021214187145,-0.04559766873717308,0.07624424248933792
1761915498533180200,3.59018017578125,0.0003004465252161026,-0.008339006453752518,0.07923660427331924
1761915498543234300,3.600234375,0.0035108872689306736,0.012257082387804985,0.06272900104522705
1761915498553288200,3.6102880859375,0.0017321297200396657,0.01970537379384041,0.04359634220600128
1761915498563343400,3.62034326171875,-0.0003480653977021575,0.026776598766446114,0.022152837365865707
1761915498573397200,3.630397216796875,0.0010867377277463675,0.03175508603453636,0.009480052627623081
1761915498583451400,3.640451416015625,-0.002345011569559574,0.0444335974752903,0.007834483869373798
1761915498593505300,3.65050537109375,0.004647477995604277,0.05358092486858368,0.01699620485305786
1761915498603560200,3.660560302734375,0.0014748541871085763,0.06623520702123642,0.03159964829683304
1761915498613614300,3.6706142578125,0.0006932004471309483,0.06657318025827408,0.0537576787173748
1761915498623668200,3.680668212890625,-0.000026385649107396603,0.07391391694545746,0.06923703849315643
1761915498633722400,3.690722412109375,0.010341441258788109,0.07060351222753525,0.07217120379209518
1761915498643777300,3.70077734375,0.01152654830366373,0.05159812420606613,0.06330927461385727
1761915498653831200,3.7108310546875,0.0036546671763062477,0.037084829062223434,0.047339968383312225
1761915498663885300,3.72088525390625,-0.008444339968264103,0.031085258349776268,0.026893548667430878
1761915498673939200,3.730939208984375,-0.013569687493145466,0.03380604088306427,0.017455395311117172
1761915498683994400,3.740994384765625,-0.005743456073105335,0.029315952211618423,0.016215693205595016
1761915498694048300,3.75104833984375,-0.00003177439793944359,0.0314137227833271,0.007013141177594662
1761915498704102400,3.761102294921875,0.003015680704265833,0.03405052050948143,-0.006424902938306332
1761915498714156000,3.771156005859375,0.003729532938450575,0.023155800998210907,-0.01622839830815792
1761915498724210200,3.781210205078125,0.00040617401828058064,-0.003373808925971389,-0.01640097051858902
1761915498734265300,3.791265380859375,-0.006147740408778191,-0.019407525658607483,-0.007366532925516367
1761915498744319200,3.8013193359375,-0.014083161018788815,-0.030416499823331833,0.007008411921560764
1761915498754373400,3.811373291015625,-0.014230151660740376,-0.03220280259847641,0.01888950914144516
1761915498764427300,3.82142724609375,-0.013849586248397827,-0.02346736751496792,0.0204559788107872
1761915498774482200,3.831482177734375,-0.008846008218824863,0.004886078182607889,0.014615889638662338
1761915498784536300,3.841536376953125,-0.008814582601189613,0.030980262905359268,-0.007234547752887011
1761915498794590200,3.851590087890625,0.00032497907523065805,0.043657295405864716,-0.027970794588327408
1761915498804644400,3.861644287109375,0.004600684158504009,0.05052132532000542,-0.036733128130435944
1761915498814699300,3.87169921875,0.008679645135998726,0.05216783657670021,-0.031620725989341736
1761915498824753400,3.88175341796875,0.011116170324385166,0.04116605222225189,-0.016529925167560577
1761915498834807000,3.89180712890625,0.003979573026299477,0.02236899919807911,0.001485130749642849
1761915498844861200,3.901861083984375,-0.0039665005169808865,0.012439936399459839,0.017420686781406403
1761915498854915300,3.911915283203125,-0.013954686932265759,0.0008481701952405274,0.02580275759100914
1761915498864970200,3.92197021484375,-0.014964823611080647,-0.009208458475768566,0.026911698281764984
1761915498875024400,3.9320244140625,-0.01347834151238203,-0.013390584848821163,0.02397591434419155
1761915498885078300,3.942078369140625,-0.01266021840274334,-0.011554335243999958,0.015576304867863655
1761915498895132400,3.95213232421875,-0.014035066589713097,-0.004574648570269346,0.00959467887878418
1761915498905187300,3.962187255859375,-0.010015557520091534,0.003921367693692446,0.007455628365278244
1761915498915241200,3.9722412109375,-0.011695495806634426,0.006136261858046055,0.010655442252755165
1761915498925295400,3.98229541015625,-0.013359172269701958,0.01587757281959057,0.006414623931050301
1761915498935349500,3.992349609375,-0.00984110590070486,0.028203772380948067,-0.0008081495761871338
1761915498945404400,4.002404296875,-0.005148349329829216,0.0374678410589695,-0.010740675032138824
1761915498955458300,4.012458251953125,-0.006800997070968151,0.042025890201330185,-0.019710879772901535
1761915498965512400,4.022512451171875,-0.006489939987659454,0.04473591968417168,-0.018159855157136917
1761915498975566300,4.03256640625,-0.01072135753929615,0.036170244216918945,-0.011969933286309242
1761915498985621500,4.04262158203125,-0.014295586384832859,0.023657115176320076,-0.0024278266355395317
1761915498995675400,4.05267529296875,-0.012012898921966553,0.029478581622242928,0.005291573703289032
1761915499005729500,4.0627294921875,-0.013250470161437988,0.028193339705467224,0.010245852172374725
1761915499015783400,4.072783447265625,-0.01670674979686737,0.02769904024899006,0.011742026545107365
1761915499025837300,4.08283740234375,-0.018471360206604004,0.02596425823867321,0.00325825996696949
1761915499035892500,4.092892578125,-0.019183145835995674,0.026575390249490738,-0.003330499865114689
1761915499045946400,4.1029462890625,-0.02185775712132454,0.015774941071867943,-0.02146822400391102
1761915499056000500,4.11300048828125,-0.024718839675188065,-0.00114012963604182,-0.033516086637973785
1761915499066054400,4.123054443359375,-0.023290054872632027,-0.012015946209430695,-0.030915245413780212
1761915499076109300,4.133109375,-0.01447773166000843,-0.015015747398138046,-0.014005374163389206
1761915499086163500,4.14316357421875,-0.007337264716625214,-0.011570949107408524,0.01707025244832039
1761915499096217300,4.15321728515625,-0.005873809568583965,-0.003914184868335724,0.05311525613069534
1761915499106271500,4.163271484375,0.00518549932166934,-0.001089103752747178,0.09115984290838242
1761915499116326400,4.173326416015625,0.012507013976573944,-0.013757046312093735,0.11712171882390976
1761915499126380500,4.183380615234375,0.008402550593018532,-0.026048600673675537,0.12558764219284058
1761915499136434400,4.193434326171875,-0.004548229277133942,-0.035062238574028015,0.12672117352485657
1761915499146488300,4.20348828125,-0.017688266932964325,-0.04273800179362297,0.11700088530778885
1761915499156543500,4.21354345703125,-0.014642409048974514,-0.046285420656204224,0.11103331297636032
1761915499166597400,4.223597412109375,-0.007162654772400856,-0.04535331204533577,0.09635929763317108
1761915499176651500,4.233651611328125,-0.0005588611820712686,-0.043111011385917664,0.07124973088502884
1761915499186705400,4.243705322265625,0.00177513319067657,-0.016580069437623024,0.05079717934131622
1761915499196759600,4.253759521484375,0.0020146286115050316,0.0032768291421234608,0.03380296379327774
1761915499206814500,4.263814453125,-0.006514943670481443,-0.0007168471347540617,0.024967659264802933
1761915499216868400,4.273868408203125,-0.01313765998929739,-0.010365358553826809,0.0245169959962368
1761915499226922500,4.283922607421875,-0.02015668712556362,-0.011528627015650272,0.02757856622338295
1761915499236976400,4.293976318359375,-0.021183447912335396,0.0005860276869498193,0.026823189109563828
1761915499247031600,4.304031494140625,-0.016049671918153763,0.028227509930729866,0.014307397417724133
1761915499257085400,4.31408544921875,-0.010601282119750977,0.06479591131210327,-0.006522383540868759
1761915499267139300,4.324139404296875,-0.009804196655750275,0.08200312405824661,-0.03699267655611038
1761915499277193500,4.334193359375,-0.013035723939538002,0.06962182372808456,-0.06385038048028946
1761915499287248400,4.344248291015625,-0.01620728150010109,0.032025717198848724,-0.08400651812553406
1761915499297302500,4.354302490234375,-0.01838521845638752,-0.0009561290498822927,-0.08341973274946213
1761915499307356400,4.3643564453125,-0.022699804976582527,-0.014210415072739124,-0.06700268387794495
1761915499317410600,4.37441064453125,-0.023443827405571938,-0.018975624814629555,-0.04325618967413902
1761915499327465500,4.384465576171875,-0.02484172023832798,-0.011315840296447277,-0.02122652158141136
1761915499337519400,4.394519287109375,-0.021770641207695007,-0.013307729735970497,-0.014595190063118935
1761915499347573500,4.404573486328125,-0.012148107402026653,-0.007421876769512892,-0.023147400468587875
1761915499357627400,4.41462744140625,-0.013714266009628773,0.003611950436607003,-0.0436636358499527
1761915499367681500,4.424681640625,-0.016445336863398552,0.010277575813233852,-0.0647023469209671
1761915499377736400,4.434736328125,-0.016904717311263084,-0.0010965520050376654,-0.0799712985754013
1761915499387790300,4.444790283203125,-0.021079489961266518,-0.01367439515888691,-0.07746952772140503
1761915499397844200,4.45484423828125,-0.022613469511270523,-0.02567690797150135,-0.061818964779376984
1761915499407898400,4.4648984375,-0.030133970081806183,-0.031418681144714355,-0.043054066598415375
1761915499417953500,4.47495361328125,-0.03187798336148262,-0.02934054285287857,-0.03656984493136406
1761915499428007400,4.48500732421875,-0.02247622236609459,-0.01305904146283865,-0.03740368410944939
1761915499438061600,4.4950615234375,-0.011338870041072369,0.010684587061405182,-0.041254591196775436
1761915499448115500,4.505115478515625,-0.004960866179317236,0.025166591629385948,-0.04908908158540726
1761915499458170400,4.51517041015625,-0.009262964129447937,0.017587855458259583,-0.057049836963415146
1761915499468224500,4.525224609375,-0.012580996379256248,-0.00187985273078084,-0.05969861522316933
1761915499478278400,4.5352783203125,-0.016418298706412315,-0.021253466606140137,-0.0486832931637764
1761915499488332500,4.54533251953125,-0.017846550792455673,-0.029262125492095947,-0.03135916218161583
1761915499498387500,4.555387451171875,-0.01307534147053957,-0.021754898130893707,-0.021543972194194794
1761915499508441300,4.56544140625,-0.007788168266415596,-0.004321047570556402,-0.012666855938732624
1761915499518495200,4.5754951171875,0.00009799993131309748,0.007869097404181957,-0.01749945431947708
1761915499528549400,4.58554931640625,0.00456145778298378,0.005580909550189972,-0.032449375838041306
1761915499538604500,4.5956044921875,0.0019948880653828382,0.0022250169422477484,-0.051929719746112823
1761915499548658400,4.605658447265625,-0.0013702822616323829,-0.023532809689641,-0.06698723137378693
1761915499558712600,4.615712646484375,-0.0016458698082715273,-0.04227275401353836,-0.07452113926410675
1761915499568766500,4.625766357421875,-0.004510099533945322,-0.0457519069314003,-0.07621331512928009
1761915499578820400,4.6358203125,-0.001646938151679933,-0.0452265739440918,-0.07545799016952515
1761915499588875500,4.64587548828125,0.004318542778491974,-0.04644843190908432,-0.06951221823692322
1761915499598929400,4.655929443359375,0.002811745274811983,-0.042619965970516205,-0.07425325363874435
1761915499608983600,4.665983642578125,0.008902128785848618,-0.025900641456246376,-0.07421304285526276
1761915499619037400,4.676037353515625,0.01637779362499714,-0.0000030892406357452273,-0.07048562169075012
1761915499629092400,4.68609228515625,0.02372971549630165,0.0036475718952715397,-0.06353983283042908
1761915499639146200,4.696146240234375,0.02357739955186844,-0.009767855517566204,-0.05740470811724663
1761915499649200400,4.706200439453125,0.01769554242491722,-0.02915060706436634,-0.05831737071275711
1761915499659254300,4.716254150390625,0.012225047685205936,-0.04529494792222977,-0.05653506517410278
1761915499669309400,4.726309326171875,0.009518743492662907,-0.04897197335958481,-0.05820006877183914
1761915499679363600,4.736363525390625,0.008142907172441483,-0.047170162200927734,-0.050654228776693344
1761915499689417500,4.74641748046875,0.00632396899163723,-0.039524227380752563,-0.05626817047595978
1761915499699471400,4.756471435546875,0.0002222438924945891,-0.0390235111117363,-0.06969970464706421
1761915499709526500,4.766526611328125,0.0029131018090993166,-0.02952614426612854,-0.08171242475509644
1761915499719580400,4.776580322265625,0.010148284025490284,-0.018821818754076958,-0.09142351895570755
1761915499729634600,4.786634521484375,0.010268925689160824,-0.002641783095896244,-0.0862111821770668
1761915499739688400,4.7966884765625,0.010177139192819595,0.013574720360338688,-0.06970023363828659
1761915499749743400,4.806743408203125,0.01165386289358139,0.02113170549273491,-0.05731334164738655
1761915499759797200,4.81679736328125,0.010585559532046318,0.020914701744914055,-0.041232530027627945
1761915499769851400,4.826851318359375,0.01014613825827837,0.011869008652865887,-0.03085898607969284
1761915499779905300,4.8369052734375,0.004010496661067009,0.0009329780004918575,-0.030038990080356598
1761915499789959400,4.84695947265625,0.0007254876545630395,-0.005917471367865801,-0.03159907087683678
1761915499800014600,4.8570146484375,0.0004273542435839772,-0.016030043363571167,-0.036413393914699554
1761915499810068500,4.867068359375,-0.0014017047360539436,-0.025533799082040787,-0.03452334553003311
1761915499820122400,4.877122314453125,0.006243667099624872,-0.014005533419549465,-0.026444368064403534
1761915499830176300,4.88717626953125,0.008062872104346752,0.006502404808998108,-0.01582607813179493
1761915499840229600,4.897229736328125,0.010802230797708035,0.023946134373545647,-0.011226015165448189
1761915499850283300,4.907283203125,0.012619305402040482,0.03089139237999916,-0.0051745143719017506
1761915499860338400,4.91733837890625,0.008661892265081406,0.020428068935871124,0.00527600571513176
1761915499870392300,4.927392333984375,0.0038271895609796047,0.00047433431609533727,0.010967180132865906
1761915499880446500,4.937446533203125,-0.005651596933603287,-0.025614138692617416,0.015510075725615025
1761915499890500600,4.94750048828125,-0.014447752386331558,-0.05043027177453041,0.012357956729829311
1761915499900555300,4.95755517578125,-0.013713154941797256,-0.052600737661123276,0.004638380371034145
1761915499910609400,4.967609375,-0.011610323563218117,-0.03238334879279137,0.005309497006237507
1761915499920663600,4.97766357421875,-0.008968450129032135,-0.0080606359988451,0.007066621445119381
1761915499930717700,4.9877177734375,-0.0034418588038533926,0.011574584059417248,0.012628099881112576
1761915499940772600,4.997772705078125,0.0037777344696223736,0.02099580131471157,0.01680632308125496
1761915499950826800,5.00782666015625,0.0027811797335743904,0.016386935487389565,0.02300562709569931
1761915499960880600,5.017880615234375,-0.0007931257132440805,0.007406921591609716,0.027066200971603394
1761915499970934500,5.0279345703125,-0.0020970094483345747,-0.0026321306359022856,0.031030848622322083
1761915499980988700,5.03798876953125,-0.0065284306183457375,-0.008580099791288376,0.03595014661550522
1761915499991043600,5.048043701171875,-0.005889538209885359,-0.009605683386325836,0.03767800331115723
1761915500001097700,5.05809765625,-0.00892021507024765,-0.007557179778814316,0.030816901475191116
1761915500011151600,5.068151611328125,-0.010273633524775505,-0.0062639485113322735,0.023782696574926376
1761915500021205800,5.078205810546875,-0.014746208675205708,-0.004958075936883688,0.004468454048037529
1761915500031260700,5.0882607421875,-0.01756702922284603,-0.014470887370407581,-0.017916478216648102
1761915500041314600,5.098314453125,-0.019304867833852768,-0.020847313106060028,-0.03632543981075287
1761915500051368700,5.10836865234375,-0.010190465487539768,-0.015901023522019386,-0.03736726939678192
1761915500061422600,5.118422607421875,-0.0078300591558218,-0.016591232270002365,-0.03757423534989357
1761915500071477800,5.128477783203125,-0.010646351613104343,-0.004111393820494413,-0.032256968319416046
1761915500081531600,5.13853173828125,-0.012880854308605194,0.011868678964674473,-0.02683466114103794
1761915500091585500,5.14858544921875,-0.007550271227955818,0.015416808426380157,-0.014367871917784214
1761915500101639700,5.1586396484375,-0.002511663595214486,0.009561951272189617,-0.004001435358077288
1761915500111694600,5.168694580078125,0.004624542780220509,-0.007424222771078348,0.00903154257684946
1761915500121748700,5.178748779296875,0.0007989423465915024,-0.026674862951040268,0.017190657556056976
1761915500131802600,5.188802734375,-0.002255170838907361,-0.03530483692884445,0.017026342451572418
1761915500141856800,5.198856689453125,-0.0027046960312873125,-0.035289064049720764,0.014289912767708302
1761915500151911700,5.20891162109375,-0.008794546127319336,-0.031568095088005066,0.002776535227894783
1761915500161965600,5.218965576171875,-0.010137940756976604,-0.029106806963682175,-0.007402998860925436
1761915500172019700,5.229019775390625,-0.012631990946829319,-0.02925967238843441,-0.014034535735845566
1761915500182073600,5.239073486328125,-0.016378726810216904,-0.02773822285234928,-0.015021623112261295
1761915500192128800,5.249128662109375,-0.014711321331560612,-0.01966431736946106,-0.007872100919485092
1761915500202182700,5.2591826171875,-0.013497796840965748,-0.01838797517120838,-0.004410463850945234
1761915500212236500,5.269236572265625,-0.006681437138468027,-0.0037989122793078423,0.002899380400776863
1761915500222290700,5.279290771484375,0.001810803427360952,0.017817791551351547,0.016050416976213455
1761915500232344600,5.289344482421875,0.00845219474285841,0.025976918637752533,0.02763969451189041
1761915500242399700,5.299399658203125,0.008214341476559639,0.017126841470599174,0.04098059609532356
1761915500252453600,5.30945361328125,0.006846807897090912,0.0005164389731362462,0.057305771857500076
1761915500262507800,5.3195078125,0.002920950762927532,-0.011424971744418144,0.05792099982500076
1761915500272561700,5.329561767578125,-0.0004588670562952757,-0.018521763384342194,0.05100317299365997
1761915500282616600,5.339616455078125,0.0022627089638262987,-0.012435845099389553,0.037385325878858566
1761915500292670700,5.349670654296875,0.008441243320703506,-0.002016493584960699,0.01658763736486435
1761915500302724600,5.359724609375,0.01035998947918415,0.008042844943702221,-0.007850605063140392
1761915500312778800,5.36977880859375,0.011792237870395184,0.017962321639060974,-0.027292747050523758
1761915500322833700,5.379833740234375,0.01410544291138649,0.018510254099965096,-0.03424859419465065
1761915500332887600,5.389887451171875,0.01796702668070793,0.006165970116853714,-0.03152924031019211
1761915500342941400,5.39994140625,0.0160149447619915,-0.007646720390766859,-0.010035429149866104
1761915500352995600,5.40999560546875,0.009838809259235859,-0.025921063497662544,0.0174286849796772
1761915500363050800,5.42005078125,0.004661714192479849,-0.03469773009419441,0.03672778233885765
1761915500373104600,5.430104736328125,0.003969558514654636,-0.02650264836847782,0.044638436287641525
1761915500383158800,5.44015869140625,0.0044351257383823395,-0.010423734784126282,0.04019704461097717
1761915500393212700,5.450212646484375,0.0015687653794884682,0.002367960521951318,0.024333126842975616
1761915500403267600,5.460267578125,0.00438896007835865,0.008556988090276718,0.0024276403710246086
1761915500413321700,5.47032177734375,0.009697705507278442,0.024791352450847626,-0.01739986054599285
1761915500423377700,5.480377685546875,0.010759479366242886,0.02793050743639469,-0.0308360755443573
1761915500433432600,5.4904326171875,0.011685993522405624,0.018734345212578773,-0.03679196909070015
1761915500443486700,5.50048681640625,0.009232141077518463,0.004326851572841406,-0.03141022473573685
1761915500453540600,5.51054052734375,0.006154058966785669,-0.0038354704156517982,-0.017611324787139893
1761915500463594800,5.5205947265625,0.005536532960832119,-0.005388854071497917,-0.004247603472322226
1761915500473649700,5.530649658203125,0.00638315174728632,0.00021683340310119092,0.006129402667284012
1761915500483703600,5.54070361328125,0.004537426866590977,0.00365290604531765,0.015666823834180832
1761915500493757700,5.5507578125,-0.0024586974177509546,-0.000835851882584393,0.017844490706920624
1761915500503811600,5.5608115234375,-0.0019330676877871156,-0.0053228577598929405,0.01965709775686264
1761915500513866800,5.57086669921875,-0.0033264337107539177,-0.013253218494355679,0.01617421582341194
1761915500523920600,5.580920654296875,0.002844140399247408,-0.012501745484769344,0.010828211903572083
1761915500533974500,5.590974609375,0.009628542698919773,-0.008065718226134777,-0.0031725578010082245
1761915500544028400,5.6010283203125,0.005981153808534145,-0.006653616204857826,-0.02034653350710869
1761915500554083600,5.61108349609375,0.0004673454677686095,0.006072564981877804,-0.03924485668540001
1761915500564137700,5.6211376953125,0.008387995883822441,0.014775067567825317,-0.04692265763878822
1761915500574191600,5.631191650390625,0.014768663793802261,0.01473112590610981,-0.04250394180417061
1761915500584245800,5.641245849609375,0.023984892293810844,0.007940759882330894,-0.02383580058813095
1761915500594300700,5.65130078125,0.018516890704631805,-0.006495171692222357,0.0010676858946681023
1761915500604354600,5.6613544921875,0.017058685421943665,-0.01407595444470644,0.027014924213290215
1761915500614408700,5.67140869140625,0.013614153489470482,-0.018345799297094345,0.05075966566801071
1761915500624462600,5.681462646484375,0.013738162815570831,-0.019035546109080315,0.058295466005802155
1761915500634517800,5.691517822265625,0.014535246416926384,-0.024572523310780525,0.05365384370088577
1761915500644571600,5.701571533203125,0.012470448389649391,-0.01893133483827114,0.04236266016960144
1761915500654625500,5.71162548828125,0.013368732295930386,0.00011479412205517292,0.03251935541629791
1761915500664679400,5.721679443359375,0.019889766350388527,0.024539507925510406,0.0221303291618824
1761915500674734600,5.731734619140625,0.022992083802819252,0.04472200572490692,0.011601255275309086
1761915500684788700,5.741788818359375,0.02384885400533676,0.06945198029279709,-0.0064355917274951935
1761915500694842600,5.751842529296875,0.02426084503531456,0.0801943689584732,-0.0358549989759922
1761915500704896800,5.761896728515625,0.021910790354013443,0.07229869067668915,-0.06318345665931702
1761915500714950700,5.77195068359375,0.017933359369635582,0.04746657609939575,-0.0748307928442955
1761915500725005600,5.782005615234375,0.015387408435344696,0.009812429547309875,-0.07073380053043365
1761915500735059700,5.792059814453125,0.009132974781095982,-0.018097765743732452,-0.05356013774871826
1761915500745113600,5.802113525390625,0.012116829864680767,-0.02640797384083271,-0.03151005133986473
1761915500755167700,5.812167724609375,0.01667190156877041,-0.011507321149110794,-0.008977046236395836
1761915500765222700,5.82222265625,0.018736492842435837,0.0033900935668498278,0.008416478522121906
1761915500775276500,5.832276611328125,0.027982190251350403,0.015375650487840176,0.01640995591878891
1761915500785330400,5.842330322265625,0.024324931204319,0.014545584097504616,0.01604214869439602
1761915500795384600,5.852384521484375,0.020155487582087517,0.003646331373602152,0.008365053683519363
1761915500805439700,5.862439697265625,0.025202374905347824,-0.012830919586122036,-0.004867260344326496
1761915500815493600,5.87249365234375,0.032297566533088684,-0.018951131030917168,-0.01496756449341774
1761915500825547800,5.8825478515625,0.02335142157971859,-0.005511930678039789,-0.009449267759919167
1761915500835601700,5.8926015625,0.015611742623150349,0.01462636049836874,0.004823943600058556
1761915500845656600,5.902656494140625,0.015243317931890488,0.022676073014736176,0.017679402604699135
1761915500855710700,5.912710693359375,0.019984809681773186,0.01545437891036272,0.025022270157933235
1761915500865764600,5.9227646484375,0.015950340777635574,0.0139831667765975,0.03280939534306526
1761915500875818800,5.93281884765625,0.016444889828562737,0.015593579970300198,0.035290926694869995
1761915500885873700,5.942873779296875,0.02104313299059868,0.024342352524399757,0.03747310861945152
1761915500895927600,5.952927490234375,0.02598356269299984,0.03073660098016262,0.040445197373628616
1761915500905981400,5.9629814453125,0.02930855192244053,0.032979801297187805,0.04625220596790314
1761915500916035600,5.97303564453125,0.024278638884425163,0.0355827733874321,0.046304136514663696
1761915500926089500,5.98308935546875,0.01698809489607811,0.024249449372291565,0.04520730674266815
1761915500936143400,5.993143310546875,0.009832713752985,0.018277043476700783,0.039197616279125214
1761915500946197500,6.003197509765625,0.00693646352738142,0.012019535526633263,0.030067842453718185
1761915500956251600,6.013251708984375,0.006487454287707806,0.022062847390770912,0.017602916806936264
1761915500966306600,6.023306640625,0.010101300664246082,0.0392475500702858,0.01492065005004406
1761915500976360400,6.0333603515625,0.007444797549396753,0.04140950366854668,0.01914122886955738
1761915500986414300,6.043414306640625,0.006718899123370647,0.030494479462504387,0.023478884249925613
1761915500996468500,6.053468505859375,0.0062629664316773415,0.029179677367210388,0.031189002096652985
1761915501006523600,6.063523681640625,0.012707753106951714,0.02172401361167431,0.03133101761341095
1761915501016577500,6.07357763671875,0.01617678627371788,0.0033053248189389706,0.026137053966522217
1761915501026631700,6.083631591796875,0.010481772944331169,-0.004335243254899979,0.016857918351888657
1761915501036685600,6.093685546875,0.0005753466975875199,0.00492430105805397,0.010271652601659298
1761915501046740500,6.103740478515625,-0.0014091148041188717,0.027143875136971474,0.01257833931595087
1761915501056794400,6.11379443359375,0.004293511621654034,0.04352604225277901,0.016805842518806458
1761915501066848500,6.1238486328125,0.013843623921275139,0.05285622179508209,0.017431125044822693
1761915501076902700,6.133902587890625,0.018326256424188614,0.05176938697695732,0.009445371106266975
1761915501086957600,6.14395751953125,0.019040420651435852,0.0421854667365551,-0.009382783435285091
1761915501097011500,6.154011474609375,0.015521053224802017,0.025984127074480057,-0.034222885966300964
1761915501107065300,6.1640654296875,0.005527260713279247,0.005546005442738533,-0.056473881006240845
1761915501117119500,6.174119384765625,-0.0010044079972431064,-0.007307208608835936,-0.07496660202741623
1761915501127173400,6.18417333984375,-0.009241081774234772,-0.010870970785617828,-0.07325117290019989
1761915501137228500,6.194228515625,-0.016602590680122375,-0.0015562991611659527,-0.06442812085151672
1761915501147282700,6.20428271484375,-0.01450339239090681,0.021303480491042137,-0.04334959387779236
1761915501157336600,6.214336669921875,-0.008657220751047134,0.03034571185708046,-0.019444797188043594
1761915501167390500,6.224390380859375,-0.0075559248216450214,0.032983239740133286,0.004114760085940361
1761915501177445400,6.2344453125,-0.010376478545367718,0.03084658458828926,0.028504256159067154
1761915501187499500,6.24449951171875,-0.015735559165477753,0.004468240775167942,0.04576340317726135
1761915501197553400,6.254553466796875,-0.020074646919965744,-0.03215847909450531,0.05598541349172592
1761915501207607600,6.264607666015625,-0.01972041465342045,-0.04498157650232315,0.06390510499477386
1761915501217662500,6.274662353515625,-0.009381224401295185,-0.028814323246479034,0.06373412907123566
1761915501227716400,6.28471630859375,0.00041895589674822986,-0.0022906132508069277,0.05657344311475754
1761915501237770500,6.2947705078125,0.006435036659240723,0.026600956916809082,0.04900394007563591
1761915501247824400,6.304824462890625,0.010596165433526039,0.045525070279836655,0.03491051495075226
1761915501257879600,6.314879638671875,0.013438290916383266,0.05685815215110779,0.022369157522916794
1761915501267933700,6.32493359375,0.008143769577145576,0.06165872514247894,0.013047714717686176
1761915501277987600,6.334987548828125,0.006892616860568523,0.06616426259279251,0.004433454014360905
1761915501288041500,6.34504150390625,0.006154858041554689,0.06148308143019676,-0.004012158140540123
1761915501298096400,6.355096435546875,0.001477015670388937,0.0413285456597805,-0.01391805149614811
1761915501308150500,6.365150634765625,-0.0040352907963097095,0.021976150572299957,-0.02786542847752571
1761915501318204400,6.375204345703125,-0.008637233637273312,0.0021569060627371073,-0.030521664768457413
1761915501328258600,6.385258544921875,-0.012943129055202007,-0.004498083610087633,-0.033074963837862015
1761915501338313500,6.3953134765625,-0.01307602133601904,-0.005729262717068195,-0.02396722137928009
1761915501348367400,6.405367431640625,-0.008541028015315533,0.0005089191254228354,-0.01101971697062254
1761915501358421500,6.41542138671875,-0.005106349475681782,0.012438282370567322,0.006551019847393036
1761915501368475400,6.425475341796875,-0.005679117050021887,0.020183483138680458,0.021967699751257896
1761915501378530600,6.435530517578125,-0.00860140286386013,0.01928839460015297,0.031106071546673775
1761915501388584700,6.445584716796875,-0.014855854213237762,0.0009454572573304176,0.03418181836605072
1761915501398638600,6.455638671875,-0.020417332649230957,-0.008160422556102276,0.030597738921642303
1761915501408692500,6.4656923828125,-0.025392508134245872,-0.00654460396617651,0.027549315243959427
1761915501418747400,6.475747314453125,-0.024203673005104065,0.0056129926815629005,0.017966197803616524
1761915501428801500,6.485801513671875,-0.01700875535607338,0.019432056695222855,0.009396313689649105
1761915501438855400,6.49585546875,-0.01191812101751566,0.02812701091170311,0.0013144183903932571
1761915501448909600,6.50590966796875,-0.013422667980194092,0.027300074696540833,-0.006870398297905922
1761915501458964500,6.515964599609375,-0.011336347088217735,0.016738245263695717,-0.02207518368959427
1761915501469018400,6.526018310546875,-0.016117768362164497,0.0016909168334677815,-0.03051956743001938
1761915501479072500,6.536072509765625,-0.01626371033489704,-0.012843817472457886,-0.03124181553721428
1761915501489126400,6.54612646484375,-0.01038600504398346,-0.00730102090165019,-0.023835409432649612
1761915501499181600,6.556181640625,-0.007122833281755447,-0.007339636795222759,-0.014773471280932426
1761915501509235700,6.566235595703125,-0.012467265129089355,0.0004445166850928217,-0.01136276125907898
1761915501519289600,6.57628955078125,-0.014676091261208057,0.00782120693475008,-0.011957444250583649
1761915501529343500,6.586343505859375,-0.012401267886161804,0.01812691055238247,-0.008406558074057102
1761915501539398400,6.5963984375,-0.010884065181016922,0.014806747436523438,-0.01660270243883133
1761915501549452500,6.60645263671875,-0.009189383126795292,-0.005804979708045721,-0.029997237026691437
1761915501559506400,6.61650634765625,-0.013344180770218372,-0.03127758204936981,-0.04150049388408661
1761915501569560600,6.626560546875,-0.01951599307358265,-0.04295273870229721,-0.04480288177728653
1761915501579615500,6.636615478515625,-0.02042253315448761,-0.04060329869389534,-0.048255935311317444
1761915501589669400,6.64666943359375,-0.023365844041109085,-0.033516936004161835,-0.043901123106479645
1761915501599723500,6.6567236328125,-0.024563202634453773,-0.03416035324335098,-0.042812153697013855
1761915501609777400,6.66677734375,-0.025533217936754227,-0.030268307775259018,-0.04486962780356407
1761915501619831600,6.67683154296875,-0.026170779019594193,-0.01824040710926056,-0.04667818173766136
1761915501629886700,6.68688671875,-0.0221920944750309,-0.0031366569455713034,-0.04630715027451515
1761915501639940600,6.696940673828125,-0.015376532450318336,0.010075817815959454,-0.0403888076543808
1761915501649994500,6.706994384765625,-0.00892667192965746,0.018472041934728622,-0.03222506493330002
1761915501660048400,6.71704833984375,-0.00818045437335968,0.027349157258868217,-0.015437827445566654
1761915501670103600,6.727103515625,-0.0091811902821064,0.02705482207238674,-0.00021157320588827133
1761915501680157400,6.737157470703125,-0.00274539552628994,0.01212221197783947,0.014445933513343334
1761915501690211600,6.747211669921875,-0.004145296290516853,-0.0021028860937803984,0.020941022783517838
1761915501700265500,6.757265380859375,-0.00653468444943428,-0.010644975118339062,0.012129690498113632
1761915501710320400,6.7673203125,-0.006862923502922058,-0.014731203205883503,-0.0007492788136005402
1761915501720374500,6.77737451171875,-0.00904272124171257,-0.018304899334907532,-0.016950618475675583
1761915501730428400,6.787428466796875,-0.002396073192358017,-0.019939124584197998,-0.029453182592988014
1761915501740482600,6.797482666015625,-0.0056909359991550446,-0.01746984012424946,-0.04225659370422363
1761915501750537500,6.807537353515625,-0.005793167278170586,-0.0037514904979616404,-0.04796728491783142
1761915501760591600,6.817591552734375,-0.0025347894988954067,0.011485518887639046,-0.041298992931842804
1761915501770645500,6.8276455078125,0.0016750919166952372,0.027032554149627686,-0.0367995947599411
1761915501780699400,6.837699462890625,0.00501150032505393,0.028611276298761368,-0.022521324455738068
1761915501790754600,6.847754638671875,0.005326629150658846,0.021941224113106728,-0.016198232769966125
1761915501800808400,6.857808349609375,0.002337230835109949,-0.002577169332653284,-0.013405375182628632
1761915501810862600,6.867862548828125,0.0018905088072642684,-0.0173006821423769,-0.005571840796619654
1761915501820916500,6.87791650390625,0.0016225948929786682,-0.020829103887081146,0.004162013530731201
1761915501830971400,6.887971435546875,0.0033877077512443066,-0.0221622996032238,0.020480278879404068
1761915501841025500,6.898025634765625,0.0039312588050961494,-0.02071194164454937,0.026246555149555206
1761915501851079400,6.908079345703125,0.012052238918840885,-0.006321428809314966,0.021364253014326096
1761915501861133600,6.918133544921875,0.015695709735155106,0.010504422709345818,0.015347105450928211
1761915501871188500,6.9281884765625,0.02255399338901043,0.016964945942163467,0.0011605992913246155
1761915501881242600,6.93824267578125,0.02569146268069744,0.005013742949813604,0.0018090792000293732
1761915501891296500,6.948296630859375,0.019131235778331757,-0.011901735328137875,0.008667856454849243
1761915501901350400,6.958350341796875,0.016936790198087692,-0.011103852652013302,0.016619255766272545
1761915501911405600,6.968405517578125,0.01384558156132698,-0.006476977840065956,0.028291145339608192
1761915501921460700,6.978460693359375,0.014219755306839943,-0.005185078363865614,0.039574429392814636
1761915501931514600,6.9885146484375,0.02519846335053444,0.001429845462553203,0.04274030774831772
1761915501941568500,6.998568603515625,0.029224896803498268,0.009032371453940868,0.03365200385451317
1761915501951623400,7.00862353515625,0.02583152800798416,0.0010037572355940938,0.013161633163690567
1761915501961677600,7.018677490234375,0.020789632573723793,-0.008080018684267998,-0.01004728302359581
1761915501971731500,7.0287314453125,0.02058049663901329,-0.021775957196950912,-0.04019208252429962
1761915501981785600,7.03878564453125,0.013115922920405865,-0.029924696311354637,-0.06014395132660866
1761915501991839500,7.048839599609375,0.008721892721951008,-0.024215085431933403,-0.07138079404830933
1761915502001894400,7.058894287109375,0.0025494848378002644,-0.011280380189418793,-0.07248333841562271
1761915502011948500,7.068948486328125,0.010179850272834301,-0.009222738444805145,-0.06840434670448303
1761915502022002400,7.07900244140625,0.019620755687355995,-0.010944738052785397,-0.05478520691394806
1761915502032056600,7.089056640625,0.021903082728385925,-0.01430708821862936,-0.03938569873571396
1761915502042111500,7.099111572265625,0.018399162217974663,-0.024284355342388153,-0.022712180390954018
1761915502052165600,7.10916552734375,0.011848021298646927,-0.040406614542007446,-0.0008857017382979393
1761915502062219500,7.119219482421875,0.0011876540957018733,-0.05643991008400917,0.009444434195756912
1761915502072273400,7.1292734375,-0.007816210389137268,-0.06229666993021965,0.013138209469616413
1761915502082328600,7.13932861328125,-0.010033558122813702,-0.059017255902290344,0.005785222165286541
1761915502092382500,7.149382568359375,-0.010073726065456867,-0.04832138493657112,-0.011182086542248726
1761915502102436600,7.1594365234375,-0.009076904505491257,-0.03310967609286308,-0.027908068150281906
1761915502112490500,7.169490478515625,-0.00048332312144339085,-0.01147452462464571,-0.04199627414345741
1761915502122545400,7.17954541015625,0.005640349816530943,0.012722690589725971,-0.04858147352933884
1761915502132599600,7.189599609375,0.004030515439808369,0.01631164737045765,-0.046804118901491165
1761915502142653400,7.1996533203125,0.007374646607786417,0.017489297315478325,-0.03334929794073105
1761915502152707600,7.20970751953125,0.008370122872292995,0.012922373600304127,-0.016200192272663116
1761915502162762500,7.219762451171875,0.006032399833202362,0.0000382668076781556,0.006399925798177719
1761915502172816600,7.229816650390625,0.0005337974871508777,-0.011624968610703945,0.022806141525506973
1761915502182870500,7.23987060546875,-0.003713145386427641,-0.013865486718714237,0.035870280116796494
1761915502192924400,7.24992431640625,-0.003618852701038122,-0.015813518315553665,0.03449765220284462
1761915502202979600,7.2599794921875,0.0006033231038600206,-0.022853052243590355,0.025680992752313614
1761915502213033500,7.270033447265625,0.00022182113025337458,-0.01055124681442976,0.00754893384873867
1761915502223087600,7.280087646484375,-0.0005883125122636557,-0.006382600869983435,-0.010013282299041748
1761915502233141500,7.2901416015625,0.0014183323364704847,-0.000874467717949301,-0.030030090361833572
1761915502243196400,7.300196533203125,0.0000380160054191947,0.004770102445036173,-0.0448220856487751
1761915502253250600,7.31025048828125,-0.0020693433471024036,0.006907022558152676,-0.05258892849087715
1761915502263304400,7.320304443359375,-0.001615274464711547,0.012782755307853222,-0.04269795119762421
1761915502273358600,7.330358642578125,-0.004079342819750309,0.014008811675012112,-0.031208913773298264
1761915502283413500,7.34041357421875,-0.008549991995096207,0.003050703089684248,-0.012797947973012924
1761915502293467600,7.350467529296875,-0.01450911071151495,-0.004625609610229731,0.0011309264227747917
1761915502303521300,7.360521240234375,-0.013747712597250938,0.0011896691285073757,0.012887983582913876
1761915502313575400,7.370575439453125,-0.008625655435025692,0.010267586447298527,0.01600920781493187
1761915502323630600,7.380630615234375,-0.011990292929112911,0.013814916834235191,0.004387172870337963
1761915502333684500,7.3906845703125,-0.013759681023657322,0.020007094368338585,-0.017008692026138306
1761915502343738600,7.400738525390625,-0.016052663326263428,0.019166599959135056,-0.03598957508802414
1761915502353792500,7.41079248046875,-0.015783606097102165,0.009318065829575062,-0.0430334210395813
1761915502363847400,7.420847412109375,-0.022397033870220184,-0.007094197440892458,-0.03733665496110916
1761915502373901600,7.430901611328125,-0.02225024439394474,-0.022175496444106102,-0.01701442338526249
1761915502383955500,7.44095556640625,-0.018980681896209717,-0.027921533212065697,0.007862430065870285
1761915502394009600,7.451009521484375,-0.021632548421621323,-0.0271292831748724,0.023304924368858337
1761915502404064500,7.461064453125,-0.02178727649152279,-0.02093716710805893,0.029472537338733673
1761915502414118700,7.47111865234375,-0.022024063393473625,-0.01237806212157011,0.025077275931835175
1761915502424172300,7.48117236328125,-0.020038943737745285,-0.005601381883025169,0.015886705368757248
1761915502434226400,7.491226318359375,-0.013646027073264122,-0.006080043036490679,0.008340678177773952
1761915502444281600,7.501281494140625,-0.009469124488532543,-0.011446313001215458,0.001891033723950386
1761915502454335500,7.51133544921875,-0.009935020469129086,-0.02396490052342415,0.0014514196664094925
1761915502464389600,7.5213896484375,-0.015857091173529625,-0.02986673079431057,0.002623477019369602
1761915502474443500,7.531443603515625,-0.016369720920920372,-0.02084801346063614,0.010198067873716354
1761915502484497700,7.54149755859375,-0.0056417095474898815,0.0004064102249685675,0.019645897671580315
1761915502494552600,7.551552490234375,-0.0017909654416143894,0.009578011929988861,0.026798248291015625
1761915502504606500,7.5616064453125,-0.001518790377303958,-0.004721831064671278,0.0316619798541069
1761915502514660600,7.57166064453125,-0.010105901397764683,-0.03034912794828415,0.03688495606184006
1761915502524714500,7.581714599609375,-0.015672175213694572,-0.04088618978857994,0.04707660898566246
1761915502534769400,7.591769287109375,-0.01753643900156021,-0.03394336253404617,0.06216968223452568
1761915502544823300,7.6018232421875,-0.015476218424737453,-0.011130192317068577,0.06264079362154007
1761915502554877400,7.61187744140625,-0.011377999559044838,0.019595429301261902,0.055799439549446106
1761915502564931600,7.621931640625,-0.007175531703978777,0.040201637893915176,0.03055320680141449
1761915502574986500,7.631986572265625,-0.005251460708677769,0.053162831813097,-0.006659340113401413
1761915502585040600,7.64204052734375,-0.005388879682868719,0.055669400840997696,-0.04603204503655434
1761915502595094500,7.652094482421875,-0.00407918356359005,0.049511026591062546,-0.07320050895214081
1761915502605148700,7.662148681640625,-0.002775833010673523,0.03482795134186745,-0.09211400896310806
1761915502615203600,7.67220361328125,-0.00801153015345335,0.01067531667649746,-0.08265797793865204
1761915502625257500,7.682257568359375,-0.012013196013867855,-0.006077564787119627,-0.06679219752550125
1761915502635311600,7.6923115234375,-0.014273248612880707,-0.026088453829288483,-0.0384153351187706
1761915502645365500,7.702365478515625,-0.01628713123500347,-0.029831526800990105,-0.007319467607885599
1761915502655420400,7.71242041015625,-0.007944638840854168,-0.023370984941720963,0.023929409682750702
1761915502665474300,7.722474365234375,-0.003607147606089711,-0.009985405951738358,0.04373161122202873
1761915502675528400,7.732528564453125,0.0007937259506434202,0.003729074727743864,0.04945367947220802
1761915502685582300,7.742582275390625,-0.001973831094801426,0.012548399157822132,0.044172096997499466
1761915502695637500,7.752637451171875,-0.0038470032159239054,0.010039965622127056,0.034228790551424026
1761915502705691600,7.762691650390625,-0.006541323848068714,0.00419619120657444,0.021943096071481705
1761915502715745500,7.77274560546875,-0.00916458573192358,-0.0026126299053430557,0.00811072252690792
1761915502725799700,7.782799560546875,-0.009653275832533836,0.0004918170743621886,-0.0003325631842017174
1761915502735854600,7.7928544921875,-0.0031188642606139183,0.005596504546701908,-0.0008714227005839348
1761915502745908500,7.802908447265625,0.0035422341898083687,0.01300888042896986,0.005443732254207134
1761915502755962600,7.812962646484375,0.006130184046924114,0.019608501344919205,0.015168377198278904
1761915502766016500,7.8230166015625,0.005519787780940533,0.015346644446253777,0.021641191095113754
1761915502776071400,7.833071533203125,0.002643743995577097,0.009359852410852909,0.023906607180833817
1761915502786125300,7.843125244140625,0.0038482919335365295,0.012144452892243862,0.023045077919960022
1761915502796179500,7.853179443359375,-0.0015604455256834626,0.013619666919112206,0.02060278132557869
1761915502806233300,7.8632333984375,0.0004875254235230386,0.014961101114749908,0.01438163872808218
1761915502816288500,7.87328857421875,0.0027575893327593803,0.026598352938890457,0.013141389936208725
1761915502826342700,7.8833427734375,0.0064926729537546635,0.03429515287280083,0.017361169680953026
1761915502836396500,7.893396484375,0.01375066302716732,0.03622019290924072,0.022081561386585236
1761915502846450700,7.90345068359375,0.01820213720202446,0.044360410422086716,0.02536364272236824
1761915502856504300,7.91350439453125,0.020996086299419403,0.03883398324251175,0.024368200451135635
1761915502866559500,7.9235595703125,0.01586577296257019,0.027189046144485474,0.016897235065698624
1761915502876613600,7.933613525390625,0.015081461519002914,0.017320597544312477,0.00221968162804842
1761915502886667500,7.94366748046875,0.00912929605692625,0.002736595692113042,-0.00857490859925747
1761915502896721700,7.9537216796875,0.005927094724029303,-0.014977746643126011,-0.010015119798481464
1761915502906776300,7.9637763671875,0.0022822925820946693,-0.026993928477168083,-0.00006208755075931549
1761915502916830500,7.97383056640625,0.006108691915869713,-0.028438718989491463,0.013450274243950844
1761915502926883600,7.983883544921875,0.01848892867565155,-0.021162429824471474,0.027314957231283188
1761915502936937500,7.9939375,0.026296157389879227,-0.0010102868545800447,0.024076949805021286
1761915502946992600,8.00399267578125,0.024597059935331345,0.02753506973385811,0.012111631222069263
1761915502957046500,8.014046630859376,0.024173898622393608,0.04350797459483147,-0.0008332254365086555
1761915502967100700,8.0241005859375,0.028561456128954887,0.04634290933609009,-0.0034271441400051117
1761915502977154600,8.034154541015624,0.03082326054573059,0.04410567134618759,-0.0040915170684456825
1761915502987209500,8.04420947265625,0.03160809352993965,0.028543490916490555,-0.0059349569492042065
1761915502997263600,8.054263671875,0.03258170187473297,0.005388941615819931,-0.007469751872122288
1761915503007317500,8.0643173828125,0.02349686250090599,-0.021714847534894943,-0.005851082503795624
1761915503017371600,8.07437158203125,0.019345806911587715,-0.0519493892788887,0.002085108309984207
1761915503027426600,8.084426513671875,0.01416835654526949,-0.07970671355724335,0.011100441217422485
1761915503037480700,8.094480712890626,0.00988906342536211,-0.08518698811531067,0.023646999150514603
1761915503047534600,8.10453466796875,0.017362693324685097,-0.0652518942952156,0.027430817484855652
1761915503057588500,8.11458837890625,0.028648290783166885,-0.02920489013195038,0.023692376911640167
1761915503067643600,8.1246435546875,0.0369163416326046,0.016261393204331398,0.01386611070483923
1761915503077697500,8.134697509765624,0.03886743262410164,0.05605076625943184,0.013174150139093399
1761915503087751700,8.144751708984375,0.038336131721735,0.06947309523820877,0.01197333075106144
1761915503097805600,8.1548056640625,0.03199705854058266,0.0639171302318573,0.015085678547620773
1761915503107860500,8.164860595703125,0.029300078749656677,0.049562424421310425,0.01844365894794464
1761915503117914400,8.174914306640625,0.01830303855240345,0.02976270020008087,0.019841106608510017
1761915503127968500,8.184968505859375,0.012261390686035156,0.00923585519194603,0.014026094228029251
1761915503138022700,8.195022705078125,0.004361548461019993,-0.010757416486740112,0.004178057424724102
1761915503148077600,8.20507763671875,0.0022991965524852276,-0.014659746550023556,-0.015208423137664795
1761915503158131700,8.215131591796874,0.005116129759699106,-0.00785631313920021,-0.03611030802130699
1761915503168185600,8.225185546875,0.00866745412349701,-0.0008226386271417141,-0.054792918264865875
1761915503178239500,8.235239501953124,0.008466623723506927,0.0115544768050313,-0.059922993183135986
1761915503188294700,8.245294677734375,0.004766693338751793,0.016974544152617455,-0.05229543149471283
1761915503198348500,8.2553486328125,0.004016353748738766,0.018692700192332268,-0.03982846066355705
1761915503208402700,8.265402587890625,0.0075413137674331665,0.02314870059490204,-0.02741653099656105
1761915503218456600,8.27545654296875,0.006718646734952927,0.025842953473329544,-0.01373344473540783
1761915503228511500,8.285511474609375,0.00917354878038168,0.03219512850046158,-0.0015132632106542587
1761915503238565400,8.2955654296875,0.006241880357265472,0.031719449907541275,0.01857045292854309
1761915503248619500,8.30561962890625,0.00016907439567148685,0.020601287484169006,0.035326793789863586
1761915503258673700,8.315673583984376,0.0002718573668971658,0.018515532836318016,0.04884392395615578
1761915503268728600,8.325728515625,0.0022375364787876606,0.016266226768493652,0.05456439405679703
1761915503278782700,8.33578271484375,0.014438196085393429,0.007921971380710602,0.04405064508318901
1761915503288836400,8.34583642578125,0.009136907756328583,0.013010206632316113,0.026198409497737885
1761915503298890500,8.355890380859375,0.01022324338555336,0.016500940546393394,0.007859024219214916
1761915503308944400,8.3659443359375,0.015853963792324066,0.029934192076325417,-0.009144192561507225
1761915503318999600,8.37599951171875,0.011611329391598701,0.03414073586463928,-0.014601319096982479
1761915503329053700,8.3860537109375,0.0008990305941551924,0.028185108676552773,-0.01739897020161152
1761915503339107600,8.396107666015626,-0.004858174826949835,0.023613322526216507,-0.014911606907844543
1761915503349161700,8.40616162109375,-0.005649399943649769,0.012709008529782295,-0.01610124111175537
1761915503359216400,8.41621630859375,-0.013442294672131538,0.005429606419056654,-0.01776682399213314
1761915503369270500,8.4262705078125,-0.016494810581207275,-0.000777423323597759,-0.021833470091223717
1761915503379324400,8.436324462890624,-0.022248318418860435,-0.010690303519368172,-0.026638049632310867
1761915503389378600,8.446378662109375,-0.021297037601470947,-0.015486123971641064,-0.03099977597594261
1761915503399433700,8.456433837890625,-0.020965881645679474,-0.014964922331273556,-0.034006357192993164
1761915503409487400,8.4664873046875,-0.01817835122346878,-0.01357874646782875,-0.03652038425207138
1761915503419541500,8.47654150390625,-0.020124400034546852,-0.010431795381009579,-0.04297396540641785
1761915503429595400,8.486595458984375,-0.027188168838620186,0.004110395442694426,-0.04733196273446083
1761915503439650600,8.496650634765626,-0.027713095769286156,0.01913258619606495,-0.05321161076426506
1761915503449704700,8.50670458984375,-0.023737262934446335,0.03219939023256302,-0.053651563823223114
1761915503459758600,8.516758544921874,-0.016725394874811172,0.027138179168105125,-0.04946247488260269
1761915503469812700,8.526812744140624,-0.01736721396446228,0.008202571421861649,-0.04560621827840805
1761915503479867400,8.536867431640625,-0.02214164100587368,-0.009033102542161942,-0.04588720574975014
1761915503489921500,8.546921630859375,-0.03033272549510002,-0.02292974479496479,-0.050386350601911545
1761915503499975400,8.556975341796875,-0.03917127102613449,-0.03372681140899658,-0.05837339907884598
1761915503510029600,8.567029541015625,-0.04319477453827858,-0.04323615878820419,-0.0713517814874649
1761915503520084700,8.577084716796875,-0.046634919941425323,-0.047749120742082596,-0.08116593956947327
1761915503530138400,8.587138427734375,-0.04584316164255142,-0.03832872211933136,-0.09186358749866486
1761915503540192500,8.597192626953126,-0.043848566710948944,-0.027129556983709335,-0.09492185711860657
1761915503550246400,8.607246337890626,-0.031338099390268326,-0.014962638728320599,-0.08753398060798645
1761915503560301600,8.617301513671874,-0.02043220028281212,0.003199105616658926,-0.0793066993355751
1761915503570355700,8.627355712890624,-0.023526260629296303,0.026969682425260544,-0.05624612048268318
1761915503580409600,8.63740966796875,-0.023281686007976532,0.03586623817682266,-0.03574496880173683
1761915503590463700,8.647463623046875,-0.01869705505669117,0.02760430984199047,-0.01358853280544281
1761915503600518400,8.657518310546875,-0.021320849657058716,0.0016181676182895899,-0.0007709627971053123
1761915503610572500,8.667572509765625,-0.02640269324183464,-0.02109433524310589,0.0060041192919015884
1761915503620626400,8.67762646484375,-0.03504342958331108,-0.03483843430876732,0.011513556353747845
1761915503630680600,8.6876806640625,-0.04292185977101326,-0.04584581404924393,0.01449656393378973
1761915503640735700,8.69773583984375,-0.04056107997894287,-0.046083591878414154,0.021435542032122612
1761915503650789400,8.707789306640626,-0.03171459212899208,-0.026425471529364586,0.026198873296380043
1761915503660843500,8.717843505859374,-0.022670511156320572,-0.004529025871306658,0.029481783509254456
1761915503670897400,8.7278974609375,-0.018397735431790352,0.017479071393609047,0.023326683789491653
1761915503680952600,8.73795263671875,-0.01862272620201111,0.019367597997188568,0.0164751298725605
1761915503691006700,8.7480068359375,-0.020950062200427055,0.015809882432222366,0.017991002649068832
1761915503701060600,8.758060546875,-0.02300797775387764,0.002848756266757846,0.024595674127340317
1761915503711114800,8.76811474609375,-0.02216215804219246,-0.008949846029281616,0.0402449406683445
1761915503721169400,8.77816943359375,-0.021717581897974014,-0.012812330387532711,0.052770763635635376
1761915503731223600,8.7882236328125,-0.01730365864932537,-0.010918023996055126,0.06218930333852768
1761915503741277400,8.79827734375,-0.017201755195856094,-0.00824608001857996,0.054181840270757675
1761915503751331600,8.80833154296875,-0.019782625138759613,-0.007717974949628115,0.02888394147157669
1761915503761386800,8.81838671875,-0.02080368623137474,-0.0029206874314695597,0.0017445310950279236
1761915503771440400,8.8284404296875,-0.016684841364622116,0.00983771774917841,-0.01820414327085018
1761915503781494500,8.83849462890625,-0.011887853965163231,0.02356485277414322,-0.02259695902466774
1761915503791548400,8.84854833984375,-0.008591394871473312,0.032970868051052094,-0.014329440891742706
1761915503801603600,8.858603515625,-0.008194864727556705,0.027711693197488785,-0.0013936785981059074
1761915503811657700,8.86865771484375,-0.011584802530705929,0.0073393103666603565,0.005051970481872559
1761915503821711600,8.878711669921875,-0.019921233877539635,-0.020248061046004295,-0.00037025660276412964
1761915503831765800,8.888765869140625,-0.022757234051823616,-0.03520916774868965,-0.00705212727189064
1761915503841817600,8.898817626953125,-0.027571773156523705,-0.045950066298246384,-0.013570424169301987
1761915503851871500,8.90887158203125,-0.03223789855837822,-0.059369467198848724,-0.018748141825199127
1761915503861926700,8.9189267578125,-0.02794555574655533,-0.05378862842917442,-0.015855247154831886
1761915503871980500,8.92898046875,-0.022810183465480804,-0.033702269196510315,-0.012424829415977001
1761915503882034400,8.939034423828126,-0.008908027783036232,-0.021260881796479225,-0.01724642887711525
1761915503892088600,8.949088623046874,-0.008541842922568321,-0.011637816205620766,-0.03208556026220322
1761915503902143500,8.9591435546875,-0.0153090450912714,-0.015184572897851467,-0.045453719794750214
1761915503912197600,8.96919775390625,-0.01868300326168537,-0.027604490518569946,-0.054541755467653275
1761915503922251500,8.97925146484375,-0.02159099094569683,-0.0426439493894577,-0.055548809468746185
1761915503932306200,8.98930615234375,-0.013475274667143822,-0.05570382624864578,-0.0434412807226181
1761915503942361300,8.999361328125,-0.011670214124023914,-0.05338635295629501,-0.02572033181786537
1761915503952415200,9.009415283203126,-0.006742833647876978,-0.04396941512823105,-0.006533321924507618
1761915503962469400,9.019469482421876,0.00042622286127880216,-0.02998659573495388,0.002472873777151108
1761915503972523300,9.029523193359376,0.004650262650102377,-0.014815099537372589,0.006066011264920235
1761915503982578200,9.039578125,0.0015387542080134153,-0.002467753831297159,-0.008166912943124771
1761915503992632000,9.049632080078124,-0.00402299128472805,-0.02153518795967102,-0.028906280174851418
1761915504002686200,9.059686279296875,-0.005823477171361446,-0.04019265994429588,-0.04966035112738609
1761915504012740400,9.069740234375,-0.00599285401403904,-0.04233463853597641,-0.06047331541776657
1761915504022795300,9.079795166015625,-0.0010755454422906041,-0.03125251457095146,-0.0613304041326046
1761915504032849400,9.089849365234375,0.0018121200846508145,-0.014925207011401653,-0.049636196345090866
1761915504042903300,9.0999033203125,0.0010917498730123043,-0.000034708617022261024,-0.0361400842666626
1761915504052957200,9.109957275390625,0.006940584164112806,0.0034524344373494387,-0.024093274027109146
1761915504063012400,9.120012451171876,0.009547943249344826,0.0052118985913693905,-0.011959472671151161
1761915504073066200,9.130066162109374,0.009319444186985493,-0.005151260178536177,-0.005860034842044115
1761915504083120400,9.140120361328124,0.010623093694448471,-0.021860338747501373,0.004127024672925472
1761915504093174300,9.15017431640625,0.012925396673381329,-0.039035864174366,0.014597241766750813
1761915504103229200,9.160229248046875,0.011713169515132904,-0.04830210283398628,0.023940956220030785
1761915504113283000,9.170282958984375,0.013108931481838226,-0.04257284477353096,0.025272803381085396
1761915504123337200,9.180337158203125,0.017128366976976395,-0.018196916207671165,0.013316808268427849
1761915504133391400,9.190391357421875,0.01715872623026371,-0.00018089737568516284,-0.0031572403386235237
1761915504143446300,9.2004462890625,0.014175023883581161,0.009472521021962166,-0.026671092957258224
1761915504153500400,9.21050048828125,0.013612831011414528,0.011019285768270493,-0.04463624209165573
1761915504163554300,9.22055419921875,0.009345508180558681,0.006755330599844456,-0.05138377845287323
1761915504173608200,9.230608154296876,0.004402415361255407,-0.0016493393341079354,-0.045332275331020355
1761915504183663400,9.240663330078124,0.0015404130099341273,-0.010039080865681171,-0.0241704061627388
1761915504193717200,9.25071728515625,0.0030067493207752705,-0.013234075158834457,0.005144872702658176
1761915504203771400,9.260771484375,0.006359732709825039,-0.011804078705608845,0.027426138520240784
1761915504213825300,9.2708251953125,0.01741211861371994,0.00024193149874918163,0.04605548456311226
1761915504223880200,9.280880126953125,0.022162944078445435,0.015269032679498196,0.04604751616716385
1761915504233934000,9.29093408203125,0.02604982815682888,0.0217698086053133,0.03704576566815376
1761915504243988200,9.30098828125,0.02686282806098461,0.013887769542634487,0.025190243497490883
1761915504254042000,9.3110419921875,0.026397306472063065,0.010800100862979889,0.019139276817440987
1761915504264097300,9.32109716796875,0.027505435049533844,0.0010386044159531593,0.03420581668615341
1761915504274151400,9.3311513671875,0.023943457752466202,0.007540712133049965,0.047280341386795044
1761915504284205300,9.341205322265624,0.022048601880669594,0.012227277271449566,0.06772866100072861
1761915504294259200,9.35125927734375,0.022045938298106194,0.020975228399038315,0.07677381485700607
1761915504304314400,9.361314453125,0.023059427738189697,0.03194429352879524,0.06738335639238358
1761915504314368300,9.3713681640625,0.02308552712202072,0.03632519394159317,0.04345778375864029
1761915504324422400,9.38142236328125,0.01914863847196102,0.03739752992987633,0.01106808241456747
1761915504334476300,9.391476318359375,0.01290805358439684,0.032443251460790634,-0.012326190248131752
1761915504344531200,9.40153125,0.011113552376627922,0.020435979589819908,-0.02013956755399704
1761915504354585000,9.411585205078126,0.0073350584134459496,0.010899199172854424,-0.021908970549702644
1761915504364639200,9.42163916015625,0.00334053672850132,-0.0072202300652861595,-0.019301695749163628
1761915504374693000,9.431693115234374,-0.0031466572545468807,-0.02180556394159794,-0.019213810563087463
1761915504384748300,9.441748291015625,-0.005402980372309685,-0.01830100454390049,-0.026670580729842186
1761915504394802400,9.451802490234375,-0.004431459121406078,-0.0028924874495714903,-0.026132620871067047
1761915504404856300,9.461856201171875,-0.0026024803519248962,0.012235386297106743,-0.027780214324593544
1761915504414910200,9.47191015625,-0.001794743468053639,0.010907799936830997,-0.01794622652232647
1761915504424966400,9.48196630859375,0.00019664131104946136,0.00647014519199729,-0.0019386177882552147
1761915504435021000,9.49202099609375,-0.004954178351908922,-0.0023220146540552378,0.01700684428215027
1761915504445075200,9.5020751953125,-0.013874951750040054,-0.016157599166035652,0.03394052013754845
1761915504455129000,9.512129150390624,-0.02424956113100052,-0.029370339587330818,0.03751847520470619
1761915504465183200,9.522183349609374,-0.028287991881370544,-0.035061199218034744,0.029768388718366623
1761915504475238400,9.53223828125,-0.02952316589653492,-0.03748574107885361,0.00781888235360384
1761915504485292300,9.542292236328125,-0.026187574490904808,-0.025902917608618736,-0.018226269632577896
1761915504495346400,9.552346435546875,-0.019124072045087814,-0.01433840673416853,-0.037590645253658295
1761915504505400000,9.562400146484375,-0.0073558432050049305,-0.0010566457640379667,-0.04096542298793793
1761915504515455200,9.572455322265625,0.000678913202136755,0.01786271668970585,-0.03093595802783966
1761915504525509400,9.58250927734375,0.003018353134393692,0.026021098718047142,-0.01185284461826086
1761915504535563300,9.592563232421876,-0.0007617375813424587,0.02457473613321781,0.014427762478590012
1761915504545617400,9.602617431640626,-0.001360395341180265,0.014325485564768314,0.03162023797631264
1761915504555672000,9.612672119140624,0.00012192019494250417,0.0030419384129345417,0.03807627037167549
1761915504565726200,9.622726318359375,-0.0021294397301971912,-0.0076196640729904175,0.03415631875395775
1761915504575780000,9.632780029296875,-0.0033973706886172295,-0.016193978488445282,0.024432316422462463
1761915504585834200,9.642834228515625,-0.004080987069755793,-0.015224521979689598,0.01884843409061432
1761915504595889400,9.652889404296875,0.0004301411972846836,-0.011178647167980671,0.014151684008538723
1761915504605943300,9.662943359375,0.0028053466230630875,-0.0067186602391302586,0.014028513804078102
1761915504615997400,9.67299755859375,0.0011683015618473291,0.000590918178204447,0.016523895785212517
1761915504626051000,9.683051025390625,0.001798439770936966,0.01048550195991993,0.003052225336432457
1761915504636106200,9.693106201171876,0.0038168495520949364,0.015401964075863361,-0.006860592868179083
1761915504646160400,9.703160400390624,0.007676505483686924,0.01648598723113537,-0.016991449519991875
1761915504656214300,9.71321435546875,0.00238613598048687,0.019545160233974457,-0.024207284674048424
1761915504666268400,9.723268310546874,0.001633577048778534,0.013519428670406342,-0.025009792298078537
1761915504676323000,9.733322998046875,-0.005395304411649704,0.0019455961883068085,-0.01660778559744358
1761915504686377200,9.743377197265625,-0.007096408400684595,-0.014017749577760696,-0.009937455877661705
1761915504696431000,9.75343115234375,-0.0036846324801445007,-0.026146583259105682,-0.0010582106187939644
1761915504706485200,9.7634853515625,0.0003877926792483777,-0.010485018603503704,0.012429476715624332
1761915504716540400,9.77354052734375,0.0068419636227190495,0.0126115120947361,0.019261017441749573
1761915504726594300,9.78359423828125,0.013250349089503288,0.024710174649953842,0.019292086362838745
1761915504736648400,9.7936484375,0.014939325861632824,0.023993251845240593,0.01424166839569807
1761915504746702000,9.8037021484375,0.012986179441213608,0.01721317134797573,0.012915385887026787
1761915504756757200,9.81375732421875,0.009272933937609196,0.012890062294900417,0.00541166216135025
1761915504766811400,9.823811279296875,0.005289374850690365,0.007286927197128534,-0.0009982502087950706
1761915504776865300,9.833865234375,-0.0007056670729070902,0.00018187948444392532,-0.0019995979964733124
1761915504786919400,9.84391943359375,-0.003715385915711522,-0.005038399714976549,-0.003714832477271557
1761915504796974000,9.85397412109375,-0.0023579727858304977,-0.0017557874089106917,-0.004666379652917385
1761915504807028200,9.8640283203125,0.0008706237422302365,0.007512357551604509,-0.006232890300452709
1761915504817082000,9.87408203125,-0.0009035741677507758,0.01677483133971691,-0.011080908589065075
1761915504827136300,9.88413623046875,-0.001730607938952744,0.02495829202234745,-0.009037647396326065
1761915504837191400,9.89419140625,-0.0030310293659567833,0.020647434517741203,-0.01454346626996994
1761915504847245300,9.904245361328124,-0.0044975560158491135,0.0008759483462199569,-0.02940235286951065
1761915504857299200,9.91429931640625,-0.008847829885780811,-0.021192334592342377,-0.03938760980963707
1761915504867354000,9.92435400390625,-0.01360325887799263,-0.030959326773881912,-0.043092671781778336
1761915504877408300,9.934408203125,-0.011749965138733387,-0.013135855086147785,-0.021665144711732864
1761915504887462400,9.94446240234375,-0.004361642524600029,0.012888558208942413,0.008142814971506596
1761915504897516300,9.954516357421875,0.0056185536086559296,0.03068513236939907,0.03293710947036743
1761915504907571200,9.9645712890625,0.007439065724611282,0.031637243926525116,0.03666751831769943
1761915504917625000,9.974625,0.009428978897631168,0.02311299927532673,0.02660130336880684
1761915504927679200,9.98467919921875,0.007819457910954952,0.01654987968504429,0.010533932596445084
1761915504937733000,9.994733154296876,-0.0023423656821250916,-0.013350761495530605,0.004320777952671051
1761915504947788300,10.004788330078124,-0.012448644265532494,-0.052151236683130264,0.005743344314396381
1761915504957842400,10.014842529296875,-0.01747109740972519,-0.07370180636644363,0.017652735114097595
1761915504967896300,10.024896240234375,-0.015089164488017559,-0.06845445930957794,0.03396107256412506
1761915504977950200,10.0349501953125,-0.006072232965379953,-0.03309433162212372,0.045359935611486435
1761915504988005000,10.045005126953125,0.004273881670087576,0.009675501845777035,0.047953855246305466
1761915504998059300,10.055059326171875,0.0115903839468956,0.05259367451071739,0.04416337609291077
1761915505008113200,10.065113037109375,0.01787697896361351,0.07797718793153763,0.029047615826129913
1761915505018167300,10.075167236328125,0.015034320764243603,0.07568366825580597,0.006268267519772053
1761915505028222200,10.08522216796875,0.009843125939369202,0.0473695732653141,-0.00868117343634367
1761915505038276000,10.095276123046874,0.003826512722298503,0.01616637594997883,-0.014145446941256523
1761915505048330200,10.105330322265624,0.0017610625363886356,-0.0011880904203280807,-0.01222997810691595
1761915505058384100,10.115384033203124,0.003794119693338871,0.0008817183552309871,-0.005758230574429035
1761915505068439300,10.125439208984375,0.003941341303288937,0.005356949754059315,-0.007431389763951302
1761915505078493400,10.135493408203125,0.004488887265324593,0.012331502512097359,-0.02277199551463127
1761915505088547300,10.14554736328125,0.00019294198136776686,0.01405137125402689,-0.03715972602367401
1761915505098601200,10.155601318359375,-0.0024387938901782036,0.008736767806112766,-0.04441417381167412
1761915505108656000,10.16565625,-0.008022927679121494,-0.007876105606555939,-0.04194698482751846
1761915505118710300,10.175710205078126,-0.01662866584956646,-0.025187185034155846,-0.02375972643494606
1761915505128764200,10.18576416015625,-0.024722151458263397,-0.028330478817224503,0.0013484060764312744
1761915505138819300,10.1958193359375,-0.017561711370944977,-0.021166840568184853,0.020656591281294823
1761915505148873200,10.205873291015624,-0.017785944044589996,-0.016532013192772865,0.037292495369911194
1761915505158927000,10.215927001953125,-0.01302128192037344,0.004312016535550356,0.03695959970355034
1761915505168981200,10.225981201171875,-0.0040499549359083176,0.023119913414120674,0.027184274047613144
1761915505179035100,10.23603515625,-0.000921006896533072,0.043402280658483505,0.011923294514417648
1761915505189090300,10.24609033203125,-0.002460458315908909,0.04292920604348183,-0.0013742195442318916
1761915505199144400,10.25614453125,-0.0009632289875298738,0.03373011574149132,-0.011480116285383701
1761915505209198300,10.2661982421875,-0.003024417906999588,0.01428879052400589,-0.006175507791340351
1761915505219253200,10.276253173828126,-0.006702776066958904,-0.008968595415353775,0.004923216067254543
1761915505229307100,10.28630712890625,-0.008893248625099659,-0.02400740422308445,0.01825323887169361
1761915505239361300,10.296361328125,-0.007658340968191624,-0.027211187407374382,0.03137356787919998
1761915505249415200,10.306415283203124,-0.005370379891246557,-0.012276442721486092,0.04305645450949669
1761915505259470300,10.31647021484375,-0.0003708277363330126,0.008395279757678509,0.0439683236181736
1761915505269524200,10.326524169921875,-0.00023739621974527836,0.02034948393702507,0.040653046220541
1761915505279578000,10.336578125,0.0013644951395690441,0.015852736309170723,0.036465760320425034
1761915505289632300,10.34663232421875,-0.00017068954184651375,0.0024056732654571533,0.028746433556079865
1761915505299687200,10.356687255859375,-0.00669410265982151,-0.016003428027033806,0.023822516202926636
1761915505309741300,10.3667412109375,-0.01350459922105074,-0.02309689112007618,0.022021356970071793
1761915505319795500,10.37679541015625,-0.010274717584252357,-0.01967659406363964,0.02140696719288826
1761915505329849300,10.386849365234376,-0.004174654372036457,-0.016643892973661423,0.01771680824458599
1761915505339904300,10.396904296875,0.006811683997511864,0.0010916946921497583,0.012200869619846344
1761915505349958100,10.406958251953125,0.00277089886367321,0.016016589477658272,0.0018520867452025414
1761915505360012300,10.41701220703125,-0.0033631599508225918,0.02449955604970455,-0.0005631335079669952
1761915505370066200,10.427066162109375,-0.006282534450292587,0.02167387120425701,-0.002776716835796833
1761915505380121300,10.437121337890625,0.0020156092941761017,0.01100950874388218,-0.0022246437147259712
1761915505390175200,10.44717529296875,0.007854873314499855,0.0028563139494508505,0.006842584349215031
1761915505400229000,10.45722900390625,0.009557166136801243,-0.0032391289714723825,0.010138246230781078
1761915505410284300,10.4672841796875,0.011119202710688114,-0.004733007401227951,0.019389191642403603
1761915505420338200,10.477338134765626,0.016692932695150375,-0.0020674492698162794,0.022884855046868324
1761915505430392300,10.487392333984374,0.015585114248096943,0.006498076021671295,0.025666791945695877
1761915505440446500,10.497446533203124,0.011063599959015846,0.007171856239438057,0.0175020731985569
1761915505450501000,10.507501220703125,0.00818242970854044,-0.004499278496950865,0.003537307493388653
1761915505460555300,10.51755517578125,0.005125919822603464,-0.011387278325855732,-0.017167437821626663
1761915505470609200,10.527609130859375,0.0023860721848905087,-0.016538424417376518,-0.03934701532125473
1761915505480663300,10.537663330078125,0.004521660972386599,-0.010838192887604237,-0.04630798473954201
1761915505490718500,10.547718505859375,0.00683697871863842,0.006320939399302006,-0.034314099699258804
1761915505500772400,10.5577724609375,0.009382161311805248,0.02792210690677166,-0.0034155715256929398
1761915505510826200,10.567826171875,0.01057882234454155,0.031678374856710434,0.030331000685691833
1761915505520880000,10.577880126953126,0.015263322740793228,0.012188564985990524,0.05246612802147865
1761915505530935300,10.587935302734374,0.013743648305535316,-0.007436685264110565,0.056429918855428696
1761915505540989200,10.5979892578125,0.011403262615203857,-0.01582697406411171,0.04898292198777199
1761915505551043300,10.608043212890625,0.005700359120965004,-0.020238956436514854,0.04192790389060974
1761915505561097200,10.61809716796875,0.010625875554978848,-0.004639758262783289,0.030339423567056656
1761915505571152100,10.628152099609375,0.018896859139204025,0.026596056297421455,0.022473447024822235
1761915505581206300,10.638206298828125,0.021952571347355843,0.0568210706114769,0.016916494816541672
1761915505591260200,10.64826025390625,0.008845754899084568,0.0518108494579792,0.019527064636349678
1761915505601315300,10.6583154296875,-0.009310612455010414,0.028298068791627884,0.03129104524850845
1761915505611369500,10.668369384765626,-0.029910972341895103,-0.008982924744486809,0.05932743847370148
1761915505621423400,10.67842333984375,-0.06268543004989624,-0.06410849094390869,0.08641977608203888
1761915505631477200,10.688477294921874,-0.07098216563463211,-0.10767266154289246,0.10290870070457458
1761915505641532200,10.6985322265625,-0.07317448407411575,-0.1318429857492447,0.1310971975326538
1761915505651586300,10.70858642578125,-0.05611085891723633,-0.1241220235824585,0.1562768816947937
1761915505661640200,10.71864013671875,-0.03597283363342285,-0.09950296580791473,0.16755937039852142
1761915505671694300,10.7286943359375,-0.014591071754693985,-0.05379867181181908,0.14618194103240967
1761915505681749200,10.738749267578125,0.02426151931285858,0.02688072808086872,0.09673157334327698
1761915505691803100,10.74880322265625,0.06724312901496887,0.09503471851348877,0.019634809345006943
1761915505701857300,10.758857177734376,0.10075847804546356,0.18664319813251495,-0.0719987004995346
1761915505711911200,10.7689111328125,0.12429489940404892,0.31594961881637573,-0.15452945232391357
1761915505721966300,10.77896630859375,0.14416633546352386,0.4583432376384735,-0.2125842422246933
1761915505732020500,10.7890205078125,0.10762874037027359,0.5506210923194885,-0.14692632853984833
1761915505742074400,10.799074462890625,0.04883839935064316,0.36250925064086914,-0.12883201241493225
1761915505752128300,10.809128173828125,0.016497502103447914,0.13561059534549713,-0.1412292867898941
1761915505762183200,10.81918310546875,-0.014654290862381458,-0.004364614840596914,-0.1371021866798401
1761915505772237300,10.8292373046875,-0.06434755027294159,-0.03929143771529198,-0.11475959420204163
1761915505782291200,10.839291259765625,-0.0673862174153328,0.02122490108013153,-0.05370663106441498
