time,seconds_elapsed,z,y,x
1761916235697481200,0.073481201171875,-0.982177734375,0.01416015625,-0.017120361328125
1761916235707536100,0.0835361328125,-0.97247314453125,0.0146331787109375,-0.0172882080078125
1761916235717591000,0.093591064453125,-0.9922943115234375,0.0130615234375,-0.010528564453125
1761916235727646200,0.103646240234375,-1.0098876953125,0.013580322265625,-0.0060577392578125
1761916235737702100,0.1137021484375,-0.993682861328125,0.0139007568359375,-0.0105438232421875
1761916235747757300,0.12375732421875,-0.97479248046875,0.013153076171875,-0.017547607421875
1761916235757812200,0.133812255859375,-0.98345947265625,0.014129638671875,-0.01470947265625
1761916235767867100,0.1438671875,-0.999359130859375,0.0128936767578125,-0.0087890625
1761916235777923000,0.153923095703125,-0.9987030029296875,0.0132293701171875,-0.00860595703125
1761916235787978200,0.163978271484375,-0.9864349365234375,0.01416015625,-0.013336181640625
1761916235798033200,0.174033203125,-0.982574462890625,0.0132293701171875,-0.0154571533203125
1761916235808088000,0.184088134765625,-0.9885101318359375,0.0135498046875,-0.0135498046875
1761916235818144000,0.19414404296875,-0.9962615966796875,0.0138092041015625,-0.009490966796875
1761916235828199200,0.20419921875,-0.9951324462890625,0.013916015625,-0.010040283203125
1761916235838254300,0.21425439453125,-0.987091064453125,0.0149383544921875,-0.013214111328125
1761916235848309000,0.22430908203125,-0.9857940673828125,0.0137176513671875,-0.014007568359375
1761916235858365200,0.234365234375,-0.989593505859375,0.013763427734375,-0.011993408203125
1761916235868420000,0.244420166015625,-0.994293212890625,0.0128936767578125,-0.0105133056640625
1761916235878475300,0.254475341796875,-0.992706298828125,0.013214111328125,-0.01129150390625
1761916235888530200,0.2645302734375,-0.9864349365234375,0.0145111083984375,-0.013031005859375
1761916235898586000,0.274586181640625,-0.986541748046875,0.0146331787109375,-0.0134124755859375
1761916235908641000,0.28464111328125,-0.993255615234375,0.0148468017578125,-0.0113983154296875
1761916235918696200,0.2946962890625,-0.994354248046875,0.0136260986328125,-0.0106201171875
1761916235928751000,0.304751220703125,-0.9903411865234375,0.01434326171875,-0.011932373046875
1761916235938807300,0.314807373046875,-0.986297607421875,0.0135498046875,-0.0131378173828125
1761916235948862000,0.324862060546875,-0.9885406494140625,0.0132904052734375,-0.012847900390625
1761916235958917000,0.334917236328125,-0.9940185546875,0.01336669921875,-0.0111236572265625
1761916235968972300,0.34497216796875,-0.9924468994140625,0.014068603515625,-0.0110626220703125
1761916235979028200,0.3550283203125,-0.989013671875,0.0140533447265625,-0.012847900390625
1761916235989083100,0.365083251953125,-0.9876861572265625,0.0146026611328125,-0.0135650634765625
1761916235999138000,0.375137939453125,-0.9896697998046875,0.014373779296875,-0.0117645263671875
1761916236009193200,0.385193115234375,-0.9923553466796875,0.0145263671875,-0.011077880859375
1761916236019249200,0.395249267578125,-0.9914093017578125,0.0145263671875,-0.0114593505859375
1761916236029304000,0.405303955078125,-0.98919677734375,0.0137786865234375,-0.01318359375
1761916236039359000,0.41535888671875,-0.9893035888671875,0.0128326416015625,-0.0123138427734375
1761916236049414100,0.4254140625,-0.9906768798828125,0.013641357421875,-0.011749267578125
1761916236059470000,0.435469970703125,-0.9928131103515625,0.0137786865234375,-0.0115203857421875
1761916236069525200,0.445525146484375,-0.9911041259765625,0.01263427734375,-0.0124664306640625
1761916236079580200,0.455580078125,-0.9891357421875,0.0126800537109375,-0.013031005859375
1761916236089635000,0.465635009765625,-0.99029541015625,0.0139923095703125,-0.0123138427734375
1761916236099691300,0.475691162109375,-0.9918365478515625,0.01409912109375,-0.011962890625
1761916236109746200,0.48574609375,-0.99029541015625,0.01446533203125,-0.0115814208984375
1761916236119801000,0.495801025390625,-0.9897918701171875,0.01434326171875,-0.0121002197265625
1761916236129856000,0.50585595703125,-0.9885406494140625,0.01409912109375,-0.0123443603515625
1761916236139912200,0.515912109375,-0.98992919921875,0.01348876953125,-0.011749267578125
1761916236149967000,0.525967041015625,-0.99176025390625,0.0142669677734375,-0.010833740234375
1761916236160022300,0.536022216796875,-0.9910430908203125,0.0144805908203125,-0.011993408203125
1761916236170077200,0.5460771484375,-0.9890289306640625,0.0148468017578125,-0.0129241943359375
1761916236180133000,0.556133056640625,-0.9901123046875,0.01544189453125,-0.01214599609375
1761916236190188300,0.566188232421875,-0.9898834228515625,0.0142059326171875,-0.0116119384765625
1761916236200243200,0.5762431640625,-0.9906005859375,0.013824462890625,-0.011444091796875
1761916236210298000,0.586298095703125,-0.991180419921875,0.0145721435546875,-0.0111541748046875
1761916236220354000,0.59635400390625,-0.9893951416015625,0.013916015625,-0.0115814208984375
1761916236230409200,0.6064091796875,-0.990447998046875,0.01312255859375,-0.0122528076171875
1761916236240464100,0.616464111328125,-0.9898834228515625,0.0133209228515625,-0.0116424560546875
1761916236250519000,0.62651904296875,-0.990234375,0.014190673828125,-0.0113525390625
1761916236260575000,0.636574951171875,-0.9898681640625,0.0143280029296875,-0.0122222900390625
1761916236270630100,0.646630126953125,-0.99102783203125,0.0141143798828125,-0.0131683349609375
1761916236280685300,0.656685302734375,-0.989288330078125,0.0130767822265625,-0.011871337890625
1761916236290740200,0.666740234375,-0.9893951416015625,0.01336669921875,-0.0120697021484375
1761916236300796000,0.6767958984375,-0.9907989501953125,0.013824462890625,-0.0118255615234375
1761916236310851000,0.68685107421875,-0.9907073974609375,0.014373779296875,-0.0120849609375
1761916236320906200,0.69690625,-0.9893951416015625,0.014007568359375,-0.0116119384765625
1761916236330961200,0.706961181640625,-0.990142822265625,0.0142059326171875,-0.0121917724609375
1761916236341017300,0.717017333984375,-0.9907989501953125,0.0146942138671875,-0.0126190185546875
1761916236351072000,0.727072021484375,-0.989776611328125,0.0145111083984375,-0.0120697021484375
1761916236361127200,0.737127197265625,-0.98980712890625,0.0144500732421875,-0.0118408203125
1761916236371182000,0.74718212890625,-0.9885101318359375,0.013641357421875,-0.0118560791015625
1761916236381238300,0.75723828125,-0.9895172119140625,0.013824462890625,-0.011688232421875
1761916236391293000,0.76729296875,-0.9901580810546875,0.0138397216796875,-0.011932373046875
1761916236401348000,0.77734814453125,-0.9893035888671875,0.01336669921875,-0.01202392578125
1761916236411403300,0.7874033203125,-0.9884185791015625,0.01336669921875,-0.0121002197265625
1761916236421459200,0.797459228515625,-0.98974609375,0.0135650634765625,-0.0123748779296875
1761916236431514400,0.807514404296875,-0.989776611328125,0.0152130126953125,-0.0120849609375
1761916236441569000,0.817569091796875,-0.989837646484375,0.0151824951171875,-0.01141357421875
1761916236451624200,0.827624267578125,-0.9899444580078125,0.013427734375,-0.0123748779296875
1761916236461680000,0.83768017578125,-0.9902801513671875,0.0135498046875,-0.0118408203125
1761916236471735300,0.8477353515625,-0.9907989501953125,0.0142059326171875,-0.0113983154296875
1761916236481790000,0.8577900390625,-0.98980712890625,0.0148468017578125,-0.0124359130859375
1761916236491845000,0.86784521484375,-0.988922119140625,0.0131988525390625,-0.012481689453125
1761916236501901000,0.877901123046875,-0.9898223876953125,0.013519287109375,-0.0118255615234375
1761916236511956200,0.887956298828125,-0.9893951416015625,0.013397216796875,-0.0127410888671875
1761916236522011100,0.89801123046875,-0.9900360107421875,0.0125885009765625,-0.011932373046875
1761916236532066000,0.908066162109375,-0.98968505859375,0.0141143798828125,-0.012054443359375
1761916236542122200,0.918122314453125,-0.990509033203125,0.0139923095703125,-0.0122528076171875
1761916236552177200,0.92817724609375,-0.989349365234375,0.0139617919921875,-0.0121002197265625
1761916236562232300,0.938232421875,-0.990142822265625,0.014923095703125,-0.0118560791015625
1761916236572287000,0.948286865234375,-0.9904327392578125,0.014312744140625,-0.0118865966796875
1761916236582343200,0.95834326171875,-0.9902801513671875,0.0142364501953125,-0.0124359130859375
1761916236592398000,0.968398193359375,-0.9897918701171875,0.01416015625,-0.011138916015625
1761916236602453200,0.978453369140625,-0.9894866943359375,0.0139007568359375,-0.0119476318359375
1761916236612508200,0.988508056640625,-0.989166259765625,0.01385498046875,-0.012725830078125
1761916236622564000,0.998564208984375,-0.9901885986328125,0.0142669677734375,-0.0126953125
1761916236632619300,1.008619384765625,-0.9898834228515625,0.0145721435546875,-0.0128021240234375
1761916236642674200,1.018674072265625,-0.9900970458984375,0.013458251953125,-0.0125579833984375
1761916236652729000,1.02872900390625,-0.9904327392578125,0.0132293701171875,-0.0120849609375
1761916236662785000,1.038784912109375,-0.9899139404296875,0.013580322265625,-0.01141357421875
1761916236672842500,1.048842529296875,-0.9891510009765625,0.0141448974609375,-0.0119781494140625
1761916236682897400,1.0588974609375,-0.991180419921875,0.0137939453125,-0.0114288330078125
1761916236692952300,1.068952392578125,-0.9903564453125,0.0135650634765625,-0.01104736328125
1761916236703008500,1.079008544921875,-0.990325927734375,0.014190673828125,-0.011810302734375
1761916236713063400,1.0890634765625,-0.9892425537109375,0.01373291015625,-0.0116729736328125
1761916236723118300,1.099118408203125,-0.9897918701171875,0.014190673828125,-0.011932373046875
1761916236733173200,1.10917333984375,-0.99017333984375,0.0135650634765625,-0.0122222900390625
1761916236743229400,1.1192294921875,-0.9897918701171875,0.013397216796875,-0.0115814208984375
1761916236753284400,1.129284423828125,-0.98968505859375,0.01397705078125,-0.0116729736328125
1761916236763339300,1.13933935546875,-0.9911956787109375,0.0139312744140625,-0.0117034912109375
1761916236773394400,1.14939453125,-0.9898834228515625,0.012786865234375,-0.01104736328125
1761916236783450400,1.159450439453125,-0.99041748046875,0.0132598876953125,-0.011932373046875
1761916236793505500,1.169505615234375,-0.9893798828125,0.01373291015625,-0.012664794921875
1761916236803560400,1.179560546875,-0.9902801513671875,0.0148162841796875,-0.0120697021484375
1761916236813615400,1.189615478515625,-0.990234375,0.01483154296875,-0.0123291015625
1761916236823671300,1.19967138671875,-0.9902496337890625,0.013580322265625,-0.0117645263671875
1761916236833726500,1.2097265625,-0.9894866943359375,0.0135650634765625,-0.0118865966796875
1761916236843781400,1.219781494140625,-0.9891204833984375,0.0136566162109375,-0.012359619140625
1761916236853836300,1.229836181640625,-0.9897308349609375,0.01422119140625,-0.0113983154296875
1761916236863892200,1.239892333984375,-0.9908447265625,0.01446533203125,-0.011627197265625
1761916236873947400,1.249947509765625,-0.990142822265625,0.0144195556640625,-0.0123748779296875
1761916236884002600,1.26000244140625,-0.9898681640625,0.0143585205078125,-0.0116119384765625
1761916236894058500,1.27005859375,-0.9902191162109375,0.014801025390625,-0.01177978515625
1761916236904113400,1.280113525390625,-0.9900665283203125,0.0134735107421875,-0.011810302734375
1761916236914168300,1.290168212890625,-0.989410400390625,0.0136566162109375,-0.0120391845703125
1761916236924223500,1.300223388671875,-0.9896697998046875,0.01318359375,-0.0121612548828125
1761916236934279400,1.310279541015625,-0.98956298828125,0.014984130859375,-0.0117340087890625
1761916236944334600,1.32033447265625,-0.9893646240234375,0.014434814453125,-0.0115814208984375
1761916236954389200,1.33038916015625,-0.9901885986328125,0.013824462890625,-0.011871337890625
1761916236964444400,1.3404443359375,-0.9906463623046875,0.0134124755859375,-0.0129547119140625
1761916236974500400,1.350500244140625,-0.9901275634765625,0.0142059326171875,-0.0115203857421875
1761916236984555500,1.360555419921875,-0.989959716796875,0.013885498046875,-0.01171875
1761916236994610400,1.3706103515625,-0.9912109375,0.014373779296875,-0.0118408203125
1761916237004665300,1.380665283203125,-0.990447998046875,0.0132293701171875,-0.0114593505859375
1761916237014721300,1.39072119140625,-0.9902191162109375,0.013946533203125,-0.011688232421875
1761916237024776400,1.4007763671875,-0.9893035888671875,0.01422119140625,-0.0110931396484375
1761916237034831400,1.410831298828125,-0.990142822265625,0.0137176513671875,-0.0114593505859375
1761916237044886300,1.42088623046875,-0.9900970458984375,0.014434814453125,-0.0120849609375
1761916237054942500,1.4309423828125,-0.9911346435546875,0.0127105712890625,-0.0126800537109375
1761916237064997400,1.440997314453125,-0.9899139404296875,0.013153076171875,-0.012542724609375
1761916237075052500,1.451052490234375,-0.98992919921875,0.013916015625,-0.0115814208984375
1761916237085107200,1.461107177734375,-0.990631103515625,0.0137481689453125,-0.0113677978515625
1761916237095163400,1.471163330078125,-0.99017333984375,0.0140838623046875,-0.0121002197265625
1761916237105218300,1.48121826171875,-0.9910125732421875,0.014312744140625,-0.011444091796875
1761916237115273500,1.4912734375,-0.9905242919921875,0.0136566162109375,-0.0117645263671875
1761916237125328400,1.501328369140625,-0.9898834228515625,0.0140228271484375,-0.0108795166015625
1761916237135384300,1.51138427734375,-0.990020751953125,0.01324462890625,-0.0106658935546875
1761916237145439500,1.521439453125,-0.989166259765625,0.01409912109375,-0.01190185546875
1761916237155494400,1.531494384765625,-0.990509033203125,0.0137176513671875,-0.012054443359375
1761916237165549300,1.54154931640625,-0.99102783203125,0.014251708984375,-0.01202392578125
1761916237175605200,1.551605224609375,-0.9901123046875,0.0146484375,-0.0118560791015625
1761916237185660400,1.561660400390625,-0.9893951416015625,0.0143890380859375,-0.011566162109375
1761916237195715300,1.57171533203125,-0.9893035888671875,0.014404296875,-0.012664794921875
1761916237205770500,1.5817705078125,-0.9901275634765625,0.0147705078125,-0.01214599609375
1761916237215826400,1.591826416015625,-0.990234375,0.0149688720703125,-0.0118865966796875
1761916237225881300,1.60188134765625,-0.9900665283203125,0.0137481689453125,-0.0120697021484375
1761916237235936500,1.6119365234375,-0.989959716796875,0.013946533203125,-0.0116424560546875
1761916237245991400,1.621991455078125,-0.98992919921875,0.0142822265625,-0.01177978515625
1761916237256047400,1.63204736328125,-0.9899139404296875,0.01458740234375,-0.0126953125
1761916237266102300,1.642102294921875,-0.98992919921875,0.0140533447265625,-0.012481689453125
1761916237276157400,1.652157470703125,-0.9914703369140625,0.01416015625,-0.011810302734375
1761916237286213400,1.66221337890625,-0.9906158447265625,0.014190673828125,-0.0119476318359375
1761916237296268500,1.6722685546875,-0.9904327392578125,0.0136566162109375,-0.0118865966796875
1761916237306323200,1.6823232421875,-0.990142822265625,0.01361083984375,-0.0113983154296875
1761916237316378400,1.69237841796875,-0.9901580810546875,0.0144500732421875,-0.0125579833984375
1761916237326434300,1.702434326171875,-0.99127197265625,0.0149078369140625,-0.0120086669921875
1761916237336489500,1.712489501953125,-0.991790771484375,0.013946533203125,-0.011810302734375
1761916237346544400,1.72254443359375,-0.9901275634765625,0.0126495361328125,-0.011871337890625
1761916237356599300,1.732599365234375,-0.9898529052734375,0.014617919921875,-0.0117950439453125
1761916237366655200,1.7426552734375,-0.990325927734375,0.013702392578125,-0.0117950439453125
1761916237376710400,1.75271044921875,-0.9906005859375,0.0129547119140625,-0.0124664306640625
1761916237386765600,1.762765625,-0.99053955078125,0.0135040283203125,-0.0124053955078125
1761916237396820200,1.7728203125,-0.9886016845703125,0.014984130859375,-0.0128631591796875
1761916237406876400,1.78287646484375,-0.9897308349609375,0.014312744140625,-0.011688232421875
1761916237416931300,1.792931396484375,-0.9903411865234375,0.014129638671875,-0.0114288330078125
1761916237426986500,1.802986572265625,-0.9912261962890625,0.014190673828125,-0.0113525390625
1761916237437041400,1.81304150390625,-0.9894866943359375,0.013946533203125,-0.011749267578125
1761916237447097300,1.823097412109375,-0.9889068603515625,0.014373779296875,-0.01226806640625
1761916237457152300,1.83315234375,-0.9907684326171875,0.0135040283203125,-0.01153564453125
1761916237467207400,1.84320751953125,-0.990814208984375,0.013397216796875,-0.0115509033203125
1761916237477262600,1.8532626953125,-0.9908447265625,0.0137939453125,-0.012115478515625
1761916237487318300,1.863318359375,-0.9895477294921875,0.013763427734375,-0.0118865966796875
1761916237497373400,1.87337353515625,-0.9893646240234375,0.0133514404296875,-0.0124664306640625
1761916237507428400,1.883428466796875,-0.989105224609375,0.01446533203125,-0.011993408203125
1761916237517483500,1.8934833984375,-0.99066162109375,0.014007568359375,-0.011322021484375
1761916237527539500,1.90353955078125,-0.9903411865234375,0.0132293701171875,-0.0119171142578125
1761916237537594400,1.913594482421875,-0.989532470703125,0.014617919921875,-0.0115966796875
1761916237547649300,1.923649169921875,-0.9891815185546875,0.0142364501953125,-0.0118865966796875
1761916237557704400,1.933704345703125,-0.9902191162109375,0.0140380859375,-0.0119476318359375
1761916237567760400,1.943760498046875,-0.99041748046875,0.0132293701171875,-0.0115509033203125
1761916237577815300,1.953815185546875,-0.9898223876953125,0.0145416259765625,-0.0121002197265625
1761916237587870500,1.963870361328125,-0.98919677734375,0.013916015625,-0.0110931396484375
1761916237597925400,1.97392529296875,-0.9900665283203125,0.0146942138671875,-0.0122528076171875
1761916237607981600,1.983981689453125,-0.990814208984375,0.0139923095703125,-0.0125274658203125
1761916237618036500,1.994036376953125,-0.9902191162109375,0.013458251953125,-0.012176513671875
1761916237628091400,2.00409130859375,-0.990478515625,0.0145263671875,-0.012054443359375
1761916237638146300,2.014146240234375,-0.9892578125,0.0147857666015625,-0.0125732421875
1761916237648202500,2.024202392578125,-0.989959716796875,0.0135345458984375,-0.011688232421875
1761916237658257400,2.03425732421875,-0.9905242919921875,0.014007568359375,-0.01171875
1761916237668312300,2.044312255859375,-0.990203857421875,0.014129638671875,-0.011322021484375
1761916237678365700,2.05436572265625,-0.990478515625,0.01385498046875,-0.0120391845703125
1761916237688421600,2.064421630859375,-0.9898223876953125,0.0133514404296875,-0.01129150390625
1761916237698476800,2.074476806640625,-0.9897308349609375,0.0142364501953125,-0.0111846923828125
1761916237708531700,2.08453173828125,-0.9906768798828125,0.0142364501953125,-0.01214599609375
1761916237718586600,2.094586669921875,-0.989990234375,0.0142364501953125,-0.0112457275390625
1761916237728642800,2.104642822265625,-0.98931884765625,0.0141754150390625,-0.0112762451171875
1761916237738697700,2.11469775390625,-0.98944091796875,0.013885498046875,-0.0113067626953125
1761916237748752600,2.124752685546875,-0.99053955078125,0.0144805908203125,-0.0111541748046875
1761916237758807600,2.1348076171875,-0.989898681640625,0.01434326171875,-0.0121612548828125
1761916237768863700,2.14486376953125,-0.9898681640625,0.0133819580078125,-0.01171875
1761916237778918700,2.154918701171875,-0.9897613525390625,0.0135040283203125,-0.0117034912109375
1761916237788973600,2.1649736328125,-0.988037109375,0.0139312744140625,-0.01123046875
1761916237799029500,2.175029541015625,-0.9903564453125,0.0140228271484375,-0.0117034912109375
1761916237809084700,2.185084716796875,-0.9908294677734375,0.0142974853515625,-0.01190185546875
1761916237819139800,2.195139892578125,-0.9898223876953125,0.0132598876953125,-0.011962890625
1761916237829194800,2.20519482421875,-0.9896240234375,0.0136566162109375,-0.0119781494140625
1761916237839250700,2.215250732421875,-0.98980712890625,0.0133056640625,-0.0127105712890625
1761916237849305600,2.2253056640625,-0.9901580810546875,0.014068603515625,-0.0123748779296875
1761916237859360800,2.23536083984375,-0.991058349609375,0.0145263671875,-0.0119476318359375
1761916237869415700,2.245415771484375,-0.989105224609375,0.0136871337890625,-0.0120849609375
1761916237879471900,2.255471923828125,-0.989044189453125,0.0135498046875,-0.011749267578125
1761916237889526500,2.265526611328125,-0.9907073974609375,0.013519287109375,-0.0110321044921875
1761916237899581700,2.275581787109375,-0.990264892578125,0.0132904052734375,-0.01165771484375
1761916237909636600,2.28563671875,-0.989776611328125,0.0132293701171875,-0.01165771484375
1761916237919692800,2.29569287109375,-0.9901275634765625,0.0155181884765625,-0.0124053955078125
1761916237929747500,2.30574755859375,-0.9903717041015625,0.0143585205078125,-0.0122833251953125
1761916237939802600,2.315802734375,-0.9913482666015625,0.014434814453125,-0.01171875
1761916237949857800,2.32585791015625,-0.9888763427734375,0.0142364501953125,-0.0118560791015625
1761916237959913700,2.335913818359375,-0.9893341064453125,0.0140228271484375,-0.0117340087890625
1761916237969969000,2.345968994140625,-0.989349365234375,0.01409912109375,-0.0115509033203125
1761916237980023600,2.3560234375,-0.9907989501953125,0.013153076171875,-0.0117034912109375
1761916237990078700,2.36607861328125,-0.989990234375,0.013519287109375,-0.0115509033203125
1761916238000134700,2.376134765625,-0.9905242919921875,0.01422119140625,-0.011993408203125
1761916238010189800,2.38618994140625,-0.9896697998046875,0.0140228271484375,-0.01165771484375
1761916238020244500,2.396244384765625,-0.9910888671875,0.01287841796875,-0.011962890625
1761916238030299600,2.406299560546875,-0.99029541015625,0.013641357421875,-0.012542724609375
1761916238040355600,2.41635546875,-0.98944091796875,0.0137939453125,-0.0119171142578125
1761916238050410800,2.42641064453125,-0.9907379150390625,0.0140838623046875,-0.0116424560546875
1761916238060465700,2.436465576171875,-0.9901275634765625,0.01422119140625,-0.011322021484375
1761916238070520600,2.4465205078125,-0.989837646484375,0.0142822265625,-0.0118408203125
1761916238080576800,2.45657666015625,-0.9898223876953125,0.0146026611328125,-0.01153564453125
1761916238090631700,2.466631591796875,-0.9900054931640625,0.013214111328125,-0.0119476318359375
1761916238100686800,2.476686767578125,-0.9913330078125,0.013916015625,-0.0123748779296875
1761916238110742500,2.486742431640625,-0.9912109375,0.0142822265625,-0.0121307373046875
1761916238120797700,2.496797607421875,-0.9903411865234375,0.0135955810546875,-0.011077880859375
1761916238130852600,2.5068525390625,-0.990081787109375,0.0136871337890625,-0.0120697021484375
1761916238140907800,2.51690771484375,-0.9899749755859375,0.0132293701171875,-0.0117340087890625
1761916238150963700,2.526963623046875,-0.9914703369140625,0.0149383544921875,-0.01239013671875
1761916238161018600,2.5370185546875,-0.9901123046875,0.0161895751953125,-0.0112457275390625
1761916238171073800,2.54707373046875,-0.989501953125,0.013031005859375,-0.011505126953125
1761916238181128700,2.557128662109375,-0.9910736083984375,0.012847900390625,-0.0120849609375
1761916238191184600,2.5671845703125,-0.9903106689453125,0.01275634765625,-0.01171875
1761916238201239600,2.577239501953125,-0.990264892578125,0.014892578125,-0.0124969482421875
1761916238211294700,2.587294677734375,-0.9896087646484375,0.0147857666015625,-0.0113677978515625
1761916238221349600,2.597349609375,-0.991058349609375,0.01312255859375,-0.01190185546875
1761916238231405800,2.60740576171875,-0.9910888671875,0.0128631591796875,-0.0117950439453125
1761916238241460700,2.617460693359375,-0.9894256591796875,0.014434814453125,-0.0113525390625
1761916238251515600,2.627515625,-0.989471435546875,0.014373779296875,-0.01068115234375
1761916238261570800,2.63757080078125,-0.9902191162109375,0.0144500732421875,-0.010955810546875
1761916238271626800,2.647626708984375,-0.9900665283203125,0.0137786865234375,-0.0119171142578125
1761916238281681700,2.657681640625,-0.990081787109375,0.013458251953125,-0.011474609375
1761916238291736600,2.667736572265625,-0.9899444580078125,0.0125885009765625,-0.0111083984375
1761916238301791700,2.677791748046875,-0.9906005859375,0.0143280029296875,-0.0125885009765625
1761916238311847700,2.68784765625,-0.9917755126953125,0.0145111083984375,-0.0129852294921875
1761916238321902800,2.69790283203125,-0.9895477294921875,0.013824462890625,-0.01141357421875
1761916238331957500,2.70795751953125,-0.9895172119140625,0.015045166015625,-0.011688232421875
1761916238342012700,2.7180126953125,-0.989837646484375,0.015716552734375,-0.012481689453125
1761916238352068600,2.728068603515625,-0.9897613525390625,0.015106201171875,-0.0115966796875
1761916238362123800,2.738123779296875,-0.98931884765625,0.0138702392578125,-0.01171875
1761916238372178700,2.7481787109375,-0.990081787109375,0.01287841796875,-0.011962890625
1761916238382233600,2.758233642578125,-0.991485595703125,0.012420654296875,-0.012603759765625
1761916238392289500,2.76828955078125,-0.989166259765625,0.01287841796875,-0.0118560791015625
1761916238402344700,2.7783447265625,-0.9913482666015625,0.0142364501953125,-0.012725830078125
1761916238412399900,2.78839990234375,-0.9906005859375,0.0151519775390625,-0.0115509033203125
1761916238422454500,2.79845458984375,-0.9915924072265625,0.0139312744140625,-0.0130157470703125
1761916238432510700,2.8085107421875,-0.989898681640625,0.0137481689453125,-0.012359619140625
1761916238442565600,2.818565673828125,-0.9895782470703125,0.012939453125,-0.0112457275390625
1761916238452620800,2.828620849609375,-0.9915924072265625,0.01275634765625,-0.011474609375
1761916238462676700,2.8386767578125,-0.990203857421875,0.012115478515625,-0.0117034912109375
1761916238472731600,2.848731689453125,-0.989715576171875,0.013946533203125,-0.0116119384765625
1761916238482786600,2.85878662109375,-0.9905853271484375,0.015106201171875,-0.0120849609375
1761916238492841700,2.868841796875,-0.9896697998046875,0.0151824951171875,-0.011749267578125
1761916238502897700,2.878897705078125,-0.9894866943359375,0.0141754150390625,-0.01104736328125
1761916238512952800,2.888952880859375,-0.9896240234375,0.0131378173828125,-0.01165771484375
1761916238523007700,2.8990078125,-0.989166259765625,0.0132293701171875,-0.0109710693359375
1761916238533062700,2.909062744140625,-0.9904937744140625,0.014312744140625,-0.01092529296875
1761916238543118600,2.91911865234375,-0.9915313720703125,0.016082763671875,-0.010955810546875
1761916238553173800,2.929173828125,-0.989898681640625,0.01470947265625,-0.01177978515625
1761916238563228700,2.939228759765625,-0.989715576171875,0.01318359375,-0.0126190185546875
1761916238573283600,2.94928369140625,-0.988922119140625,0.0129547119140625,-0.0138397216796875
1761916238583339800,2.95933984375,-0.9893951416015625,0.0133819580078125,-0.011749267578125
1761916238593394700,2.969394775390625,-0.99102783203125,0.0138702392578125,-0.0110931396484375
1761916238603449600,2.97944970703125,-0.990509033203125,0.01416015625,-0.0116119384765625
1761916238613504800,2.9895048828125,-0.988677978515625,0.0134429931640625,-0.0109710693359375
1761916238623560700,2.999560791015625,-0.990325927734375,0.0140380859375,-0.012603759765625
1761916238633615600,3.00961572265625,-0.990997314453125,0.0133819580078125,-0.0128326416015625
1761916238643670800,3.0196708984375,-0.9896087646484375,0.0131683349609375,-0.011962890625
1761916238653725700,3.0297255859375,-0.9906005859375,0.01318359375,-0.0124053955078125
1761916238663781600,3.03978173828125,-0.9915008544921875,0.01318359375,-0.0120849609375
1761916238673837300,3.04983740234375,-0.9906768798828125,0.0142974853515625,-0.011566162109375
1761916238683892200,3.059892333984375,-0.990081787109375,0.0141448974609375,-0.01287841796875
1761916238693947100,3.069947021484375,-0.989898681640625,0.0129547119140625,-0.01214599609375
1761916238704003000,3.080003173828125,-0.990936279296875,0.0126190185546875,-0.013153076171875
1761916238714058200,3.090058349609375,-0.99072265625,0.011810302734375,-0.0129547119140625
1761916238724113200,3.100113037109375,-0.9893035888671875,0.0131378173828125,-0.0128326416015625
1761916238734168000,3.11016796875,-0.9894561767578125,0.0135650634765625,-0.012542724609375
1761916238744224000,3.12022412109375,-0.9912567138671875,0.0145721435546875,-0.01220703125
1761916238754279200,3.130279052734375,-0.9906768798828125,0.013885498046875,-0.0123443603515625
1761916238764334000,3.140333984375,-0.990631103515625,0.0126190185546875,-0.011993408203125
1761916238774389000,3.150388916015625,-0.9907684326171875,0.01318359375,-0.012451171875
1761916238784445000,3.16044482421875,-0.9894561767578125,0.0133209228515625,-0.012115478515625
1761916238794500000,3.1705,-0.9905853271484375,0.0129852294921875,-0.01171875
1761916238804555300,3.18055517578125,-0.9915618896484375,0.0130157470703125,-0.011566162109375
1761916238814610200,3.190610107421875,-0.9901275634765625,0.0132904052734375,-0.01202392578125
1761916238824666400,3.200666259765625,-0.990264892578125,0.0140838623046875,-0.011962890625
1761916238834721000,3.210720947265625,-0.9903564453125,0.014373779296875,-0.011138916015625
1761916238844776200,3.220776123046875,-0.990264892578125,0.0135040283203125,-0.0116729736328125
1761916238854832000,3.23083203125,-0.990631103515625,0.013916015625,-0.0115203857421875
1761916238864887300,3.24088720703125,-0.9904937744140625,0.0143890380859375,-0.0116119384765625
1761916238874942000,3.25094189453125,-0.990142822265625,0.01385498046875,-0.011627197265625
1761916238884997000,3.2609970703125,-0.9896087646484375,0.0144805908203125,-0.0121612548828125
1761916238895053000,3.271052978515625,-0.988739013671875,0.013702392578125,-0.0124053955078125
1761916238905108200,3.281108154296875,-0.9897613525390625,0.0150299072265625,-0.011474609375
1761916238915163100,3.2911630859375,-0.9912109375,0.014373779296875,-0.0115814208984375
1761916238925218000,3.301218017578125,-0.990234375,0.0139617919921875,-0.011474609375
1761916238935274200,3.311274169921875,-0.99041748046875,0.0129241943359375,-0.0115966796875
1761916238945329200,3.3213291015625,-0.990447998046875,0.0127105712890625,-0.01177978515625
1761916238955384300,3.33138427734375,-0.98992919921875,0.014434814453125,-0.0123748779296875
1761916238965439000,3.34143896484375,-0.990631103515625,0.0142669677734375,-0.01171875
1761916238975495200,3.3514951171875,-0.989990234375,0.013397216796875,-0.0123138427734375
1761916238985550000,3.361550048828125,-0.989501953125,0.0136871337890625,-0.0117034912109375
1761916238995605200,3.371605224609375,-0.9905853271484375,0.0128021240234375,-0.0119171142578125
1761916239005660200,3.38166015625,-0.99041748046875,0.0128326416015625,-0.012054443359375
1761916239015716000,3.391716064453125,-0.99029541015625,0.0139923095703125,-0.0122833251953125
1761916239025771300,3.401771240234375,-0.988739013671875,0.0131072998046875,-0.0124359130859375
1761916239035826200,3.411826171875,-0.990447998046875,0.0135650634765625,-0.01239013671875
1761916239045881000,3.421881103515625,-0.9908905029296875,0.0138397216796875,-0.0124664306640625
1761916239055937000,3.43193701171875,-0.98992919921875,0.0136566162109375,-0.01177978515625
1761916239065992200,3.4419921875,-0.98858642578125,0.0140228271484375,-0.0120849609375
1761916239076047000,3.452047119140625,-0.9909820556640625,0.0133819580078125,-0.011749267578125
1761916239086102300,3.462102294921875,-0.9908294677734375,0.013458251953125,-0.0115203857421875
1761916239096158000,3.472157958984375,-0.9904327392578125,0.0140533447265625,-0.0117645263671875
1761916239106213000,3.482213134765625,-0.9908599853515625,0.012908935546875,-0.011566162109375
1761916239116268000,3.49226806640625,-0.990570068359375,0.01336669921875,-0.01263427734375
1761916239126323200,3.5023232421875,-0.9902801513671875,0.01385498046875,-0.011383056640625
1761916239136379100,3.512379150390625,-0.9898529052734375,0.013946533203125,-0.011383056640625
1761916239146434000,3.52243408203125,-0.9900970458984375,0.01434326171875,-0.011474609375
1761916239156489200,3.5324892578125,-0.9904632568359375,0.014801025390625,-0.0115814208984375
1761916239166545200,3.542545166015625,-0.990234375,0.0135955810546875,-0.0118560791015625
1761916239176600300,3.552600341796875,-0.990142822265625,0.0133056640625,-0.0118865966796875
1761916239186655000,3.562655029296875,-0.9898529052734375,0.01397705078125,-0.012725830078125
1761916239196710100,3.572710205078125,-0.9906158447265625,0.0137176513671875,-0.0119171142578125
1761916239206766000,3.58276611328125,-0.9901580810546875,0.0140228271484375,-0.0118560791015625
1761916239216821200,3.5928212890625,-0.99041748046875,0.0150604248046875,-0.0119171142578125
1761916239226876200,3.602876220703125,-0.9896697998046875,0.0143585205078125,-0.0121917724609375
1761916239236931000,3.61293115234375,-0.9903106689453125,0.0148773193359375,-0.0117950439453125
1761916239246987000,3.622987060546875,-0.990234375,0.0146636962890625,-0.01220703125
1761916239257042200,3.633042236328125,-0.9903564453125,0.014801025390625,-0.012176513671875
1761916239267097300,3.643097412109375,-0.9901123046875,0.014984130859375,-0.01165771484375
1761916239277152000,3.653152099609375,-0.9890289306640625,0.0142974853515625,-0.0102996826171875
1761916239287208200,3.663208251953125,-0.99090576171875,0.0135955810546875,-0.0117340087890625
1761916239297263000,3.67326318359375,-0.990936279296875,0.01324462890625,-0.011383056640625
1761916239307318300,3.683318359375,-0.98944091796875,0.0134735107421875,-0.01141357421875
1761916239317373000,3.693373046875,-0.98931884765625,0.013031005859375,-0.011383056640625
1761916239327429000,3.70342919921875,-0.9911346435546875,0.0134124755859375,-0.0117950439453125
1761916239337484000,3.713484130859375,-0.9907073974609375,0.0130767822265625,-0.0119476318359375
1761916239347539200,3.723539306640625,-0.9898529052734375,0.0135498046875,-0.0125274658203125
1761916239357594400,3.733594482421875,-0.9895782470703125,0.013641357421875,-0.0118408203125
1761916239367650000,3.743650146484375,-0.9911041259765625,0.0133819580078125,-0.0113677978515625
1761916239377705200,3.753705322265625,-0.9911346435546875,0.0131378173828125,-0.0118408203125
1761916239387760000,3.763760009765625,-0.9905242919921875,0.0139007568359375,-0.011810302734375
1761916239397815300,3.773815185546875,-0.9893798828125,0.012908935546875,-0.011627197265625
1761916239407871200,3.783871337890625,-0.9904632568359375,0.0139923095703125,-0.01153564453125
1761916239417926100,3.793926025390625,-0.9907379150390625,0.0140838623046875,-0.011932373046875
1761916239427981000,3.80398095703125,-0.9907989501953125,0.0142822265625,-0.01092529296875
1761916239438037200,3.814037353515625,-0.98992919921875,0.012969970703125,-0.01171875
1761916239448092200,3.824092041015625,-0.9905853271484375,0.0136260986328125,-0.0128936767578125
1761916239458147000,3.83414697265625,-0.9902191162109375,0.014068603515625,-0.0126190185546875
1761916239468202200,3.8442021484375,-0.9895172119140625,0.0135650634765625,-0.011138916015625
1761916239478258200,3.854258056640625,-0.9904937744140625,0.0137176513671875,-0.011077880859375
1761916239488313000,3.86431298828125,-0.9906768798828125,0.0141754150390625,-0.0119171142578125
1761916239498368300,3.8743681640625,-0.99005126953125,0.0140228271484375,-0.0121612548828125
1761916239508423200,3.884423095703125,-0.9898681640625,0.0137481689453125,-0.01220703125
1761916239518479000,3.89447900390625,-0.9903564453125,0.013397216796875,-0.0126495361328125
1761916239528534300,3.9045341796875,-0.9898223876953125,0.013671875,-0.012451171875
1761916239538589200,3.914589111328125,-0.989990234375,0.0137481689453125,-0.0118408203125
1761916239548644000,3.92464404296875,-0.9903106689453125,0.0140838623046875,-0.01214599609375
1761916239558700000,3.934699951171875,-0.98992919921875,0.0149688720703125,-0.0116729736328125
1761916239568755200,3.944755126953125,-0.9909515380859375,0.0153656005859375,-0.012176513671875
1761916239578810000,3.95481005859375,-0.9907684326171875,0.0136566162109375,-0.011810302734375
1761916239588865000,3.964864990234375,-0.99041748046875,0.0128631591796875,-0.0115814208984375
1761916239598921000,3.9749208984375,-0.9904632568359375,0.013885498046875,-0.0123748779296875
1761916239608976100,3.98497607421875,-0.9901123046875,0.0145263671875,-0.01171875
1761916239619031300,3.99503125,-0.98992919921875,0.01409912109375,-0.0117340087890625
1761916239629084200,4.005084228515625,-0.9908294677734375,0.0128631591796875,-0.010955810546875
1761916239639139000,4.01513916015625,-0.9898834228515625,0.0133056640625,-0.01263427734375
1761916239649194200,4.0251943359375,-0.990234375,0.01416015625,-0.0112152099609375
1761916239659249200,4.035249267578125,-0.9904327392578125,0.01348876953125,-0.012542724609375
1761916239669305000,4.04530517578125,-0.9900970458984375,0.0127410888671875,-0.0114898681640625
1761916239679363800,4.05536376953125,-0.9913787841796875,0.0131378173828125,-0.011383056640625
1761916239689418800,4.065418701171875,-0.991668701171875,0.0139923095703125,-0.01202392578125
1761916239699474700,4.075474609375,-0.98931884765625,0.0144195556640625,-0.0109710693359375
1761916239709529900,4.08552978515625,-0.9907684326171875,0.0145111083984375,-0.0115203857421875
1761916239719584800,4.095584716796875,-0.99029541015625,0.013153076171875,-0.0111846923828125
1761916239729639700,4.1056396484375,-0.99041748046875,0.013641357421875,-0.01220703125
1761916239739695900,4.11569580078125,-0.9903717041015625,0.014068603515625,-0.0118865966796875
1761916239749750800,4.125750732421875,-0.9908294677734375,0.0145263671875,-0.01226806640625
1761916239759805700,4.1358056640625,-0.9911346435546875,0.0140838623046875,-0.0119171142578125
1761916239769860900,4.14586083984375,-0.9902801513671875,0.014190673828125,-0.011749267578125
1761916239779916800,4.155916748046875,-0.99017333984375,0.0145416259765625,-0.0108489990234375
1761916239789971700,4.1659716796875,-0.989501953125,0.0139007568359375,-0.0121307373046875
1761916239800026600,4.176026611328125,-0.9893646240234375,0.013916015625,-0.0117645263671875
1761916239810081800,4.186081787109375,-0.9901123046875,0.0142059326171875,-0.011627197265625
1761916239820137700,4.1961376953125,-0.9896240234375,0.013427734375,-0.0118408203125
1761916239830193000,4.20619287109375,-0.9901885986328125,0.0142364501953125,-0.0115814208984375
1761916239840247800,4.216247802734375,-0.9904022216796875,0.0137786865234375,-0.011962890625
1761916239850302700,4.226302734375,-0.989776611328125,0.0139312744140625,-0.011993408203125
1761916239860358700,4.236358642578125,-0.990570068359375,0.0129852294921875,-0.0111236572265625
1761916239870413800,4.246413818359375,-0.98974609375,0.014190673828125,-0.0113067626953125
1761916239880468700,4.25646875,-0.991119384765625,0.0131072998046875,-0.0118865966796875
1761916239890523600,4.266523681640625,-0.9902801513671875,0.013916015625,-0.0121307373046875
1761916239900579600,4.27657958984375,-0.9900970458984375,0.012908935546875,-0.0115814208984375
1761916239910634800,4.286634765625,-0.9909515380859375,0.0138702392578125,-0.01177978515625
1761916239920690000,4.29668994140625,-0.991302490234375,0.0142059326171875,-0.011627197265625
1761916239930745900,4.306745849609375,-0.9903106689453125,0.0155792236328125,-0.01153564453125
1761916239940800800,4.31680078125,-0.99066162109375,0.0136871337890625,-0.0119476318359375
1761916239950855700,4.326855712890625,-0.99029541015625,0.012847900390625,-0.011505126953125
1761916239960910800,4.336910888671875,-0.9897918701171875,0.0135955810546875,-0.0111083984375
1761916239970966800,4.346966796875,-0.9911651611328125,0.013824462890625,-0.011474609375
1761916239981022000,4.35702197265625,-0.990264892578125,0.0143280029296875,-0.01190185546875
1761916239991076600,4.36707666015625,-0.9901123046875,0.014129638671875,-0.012481689453125
1761916240001131800,4.3771318359375,-0.99151611328125,0.0133514404296875,-0.0124359130859375
1761916240011187700,4.387187744140625,-0.991912841796875,0.014862060546875,-0.011993408203125
1761916240021243000,4.397242919921875,-0.9911041259765625,0.0136260986328125,-0.011260986328125
1761916240031297800,4.4072978515625,-0.99053955078125,0.0133819580078125,-0.0115509033203125
1761916240041352700,4.417352783203125,-0.9901885986328125,0.0134735107421875,-0.0121612548828125
1761916240051408600,4.42740869140625,-0.9913482666015625,0.013427734375,-0.011993408203125
1761916240061463800,4.4374638671875,-0.9901885986328125,0.0141448974609375,-0.0119781494140625
1761916240071518700,4.447518798828125,-0.990081787109375,0.0142974853515625,-0.0123291015625
1761916240081573600,4.45757373046875,-0.9910888671875,0.0137786865234375,-0.0120697021484375
1761916240091629800,4.4676298828125,-0.9912567138671875,0.01422119140625,-0.011260986328125
1761916240101684700,4.477684814453125,-0.990447998046875,0.0141143798828125,-0.0117340087890625
1761916240111740000,4.487739990234375,-0.9899139404296875,0.014617919921875,-0.0125579833984375
1761916240121794800,4.497794921875,-0.9908447265625,0.0142822265625,-0.0112762451171875
1761916240131850800,4.507850830078125,-0.9914703369140625,0.013916015625,-0.011566162109375
1761916240141905700,4.51790576171875,-0.9898681640625,0.013031005859375,-0.0115509033203125
1761916240151960800,4.5279609375,-0.99005126953125,0.013397216796875,-0.0118560791015625
1761916240162015700,4.538015625,-0.9900054931640625,0.014495849609375,-0.0113525390625
1761916240172071700,4.54807177734375,-0.9903564453125,0.013824462890625,-0.0112152099609375
1761916240182126800,4.558126953125,-0.9893951416015625,0.0135498046875,-0.0111846923828125
1761916240192181800,4.568181640625,-0.98974609375,0.013671875,-0.0115203857421875
1761916240202238000,4.578238037109375,-0.991180419921875,0.0125274658203125,-0.0117645263671875
1761916240212292600,4.588292724609375,-0.989410400390625,0.012237548828125,-0.012908935546875
1761916240222347800,4.59834765625,-0.990234375,0.0135345458984375,-0.0121917724609375
1761916240232402700,4.608402587890625,-0.9909820556640625,0.013946533203125,-0.011871337890625
1761916240242459000,4.618458984375,-0.9906158447265625,0.0139617919921875,-0.0117950439453125
1761916240252513800,4.628513671875,-0.99102783203125,0.013763427734375,-0.0113983154296875
1761916240262568700,4.638568603515625,-0.9907073974609375,0.0135650634765625,-0.0109405517578125
1761916240272623900,4.648623779296875,-0.990081787109375,0.01373291015625,-0.01171875
1761916240282679800,4.6586796875,-0.99017333984375,0.014007568359375,-0.011505126953125
1761916240292735000,4.66873486328125,-0.990325927734375,0.014434814453125,-0.0116424560546875
1761916240302789600,4.67878955078125,-0.99053955078125,0.01446533203125,-0.0117340087890625
1761916240312844800,4.6888447265625,-0.9901123046875,0.0147247314453125,-0.0119171142578125
1761916240322900700,4.698900634765625,-0.990020751953125,0.0137481689453125,-0.0114288330078125
1761916240332956000,4.708955810546875,-0.9900665283203125,0.0135040283203125,-0.0119781494140625
1761916240343010600,4.719010498046875,-0.9904022216796875,0.0133209228515625,-0.0116119384765625
1761916240353065700,4.729065673828125,-0.99151611328125,0.013427734375,-0.010986328125
1761916240363121700,4.73912158203125,-0.98968505859375,0.012603759765625,-0.0117950439453125
1761916240373176800,4.7491767578125,-0.990142822265625,0.0140228271484375,-0.0120391845703125
1761916240383232000,4.75923193359375,-0.990447998046875,0.014923095703125,-0.0107574462890625
1761916240393286700,4.76928662109375,-0.99066162109375,0.0138702392578125,-0.01123046875
1761916240403342800,4.7793427734375,-0.99005126953125,0.0135345458984375,-0.0115814208984375
1761916240413397800,4.789397705078125,-0.9896240234375,0.0135498046875,-0.0116729736328125
1761916240423453000,4.799452880859375,-0.9896087646484375,0.0142364501953125,-0.0113983154296875
1761916240433507600,4.809507568359375,-0.990478515625,0.0138092041015625,-0.011322021484375
1761916240443563800,4.819563720703125,-0.989410400390625,0.0131988525390625,-0.0117034912109375
1761916240453618700,4.82961865234375,-0.991546630859375,0.0136566162109375,-0.0117034912109375
1761916240463673900,4.839673828125,-0.9897308349609375,0.0139007568359375,-0.01171875
1761916240473729800,4.849729736328125,-0.9905548095703125,0.0129852294921875,-0.011993408203125
1761916240483784700,4.85978466796875,-0.9898834228515625,0.0142669677734375,-0.01190185546875
1761916240493839600,4.869839599609375,-0.9896087646484375,0.0137786865234375,-0.0121002197265625
1761916240503894800,4.879894775390625,-0.990234375,0.0138702392578125,-0.011474609375
1761916240513950700,4.88995068359375,-0.9897918701171875,0.0148468017578125,-0.0121917724609375
1761916240524006000,4.900005859375,-0.9896240234375,0.013092041015625,-0.011749267578125
1761916240534060800,4.910060791015625,-0.990386962890625,0.01318359375,-0.011260986328125
1761916240544115700,4.92011572265625,-0.991180419921875,0.0140838623046875,-0.0117950439453125
1761916240554172000,4.930171875,-0.991455078125,0.013763427734375,-0.0107269287109375
1761916240564226800,4.940226806640625,-0.99127197265625,0.014801025390625,-0.0112152099609375
1761916240574281700,4.95028173828125,-0.9909515380859375,0.0141448974609375,-0.0121002197265625
1761916240584336600,4.960336669921875,-0.9904022216796875,0.0137786865234375,-0.0123138427734375
1761916240594392800,4.970392822265625,-0.98956298828125,0.014251708984375,-0.0121307373046875
1761916240604447700,4.98044775390625,-0.99139404296875,0.0139923095703125,-0.0106658935546875
1761916240614502700,4.990502685546875,-0.9910125732421875,0.013031005859375,-0.01123046875
1761916240624557800,5.000557861328125,-0.9906463623046875,0.013641357421875,-0.011138916015625
1761916240634613800,5.01061376953125,-0.99041748046875,0.0135498046875,-0.0119781494140625
1761916240644669000,5.0206689453125,-0.9901885986328125,0.0131072998046875,-0.0122528076171875
1761916240654723800,5.030723876953125,-0.989776611328125,0.0134735107421875,-0.0123748779296875
1761916240664778800,5.04077880859375,-0.9907379150390625,0.013671875,-0.0118255615234375
1761916240674834700,5.050834716796875,-0.989898681640625,0.0136260986328125,-0.01202392578125
1761916240684886000,5.060885986328125,-0.9899749755859375,0.0141754150390625,-0.0121002197265625
1761916240694941000,5.07094091796875,-0.9900665283203125,0.013214111328125,-0.0120697021484375
1761916240704996000,5.08099609375,-0.9914398193359375,0.0136871337890625,-0.011993408203125
1761916240715052000,5.091052001953125,-0.991363525390625,0.013580322265625,-0.012542724609375
1761916240725107000,5.10110693359375,-0.9900360107421875,0.01409912109375,-0.011627197265625
1761916240735162000,5.111162109375,-0.990081787109375,0.0146636962890625,-0.0116119384765625
1761916240745218000,5.121218017578125,-0.99078369140625,0.0142669677734375,-0.0112457275390625
1761916240755273200,5.131273193359375,-0.99041748046875,0.013824462890625,-0.01165771484375
1761916240765328000,5.141327880859375,-0.9907684326171875,0.0146331787109375,-0.0112762451171875
1761916240775383000,5.151383056640625,-0.9917144775390625,0.0135650634765625,-0.01177978515625
1761916240785439000,5.16143896484375,-0.991363525390625,0.013763427734375,-0.0117034912109375
1761916240795494100,5.171494140625,-0.9902496337890625,0.014404296875,-0.0116729736328125
1761916240805548800,5.181548828125,-0.990142822265625,0.01409912109375,-0.012359619140625
1761916240815604000,5.19160400390625,-0.9897308349609375,0.0145721435546875,-0.01263427734375
1761916240825660000,5.201659912109375,-0.99017333984375,0.0136260986328125,-0.0120086669921875
1761916240835715000,5.211715087890625,-0.9907073974609375,0.0130767822265625,-0.0113372802734375
1761916240845770200,5.221770263671875,-0.9910888671875,0.0128326416015625,-0.0115509033203125
1761916240855825000,5.231824951171875,-0.989654541015625,0.012847900390625,-0.0111083984375
1761916240865881000,5.241881103515625,-0.9916839599609375,0.01470947265625,-0.0120849609375
1761916240875936000,5.25193603515625,-0.9902801513671875,0.0146636962890625,-0.0117645263671875
1761916240885991200,5.2619912109375,-0.9910430908203125,0.013763427734375,-0.01123046875
1761916240896045800,5.2720458984375,-0.989776611328125,0.0140533447265625,-0.0115814208984375
1761916240906102000,5.28210205078125,-0.9893798828125,0.014007568359375,-0.0110931396484375
1761916240916157000,5.292156982421875,-0.9907073974609375,0.0137939453125,-0.0115509033203125
1761916240926212000,5.302212158203125,-0.99066162109375,0.0126495361328125,-0.0120086669921875
1761916240936267300,5.312267333984375,-0.99029541015625,0.013458251953125,-0.011871337890625
1761916240946323000,5.322322998046875,-0.990234375,0.01470947265625,-0.0120391845703125
1761916240956377900,5.3323779296875,-0.98974609375,0.013916015625,-0.01129150390625
1761916240966433000,5.34243310546875,-0.9907684326171875,0.0135040283203125,-0.011260986328125
1761916240976488200,5.35248828125,-0.9895172119140625,0.0138397216796875,-0.0113525390625
1761916240986544000,5.362544189453125,-0.9897613525390625,0.0142364501953125,-0.0116729736328125
1761916240996599000,5.37259912109375,-0.9889373779296875,0.0136566162109375,-0.0119171142578125
1761916241006654000,5.382654052734375,-0.9903106689453125,0.01318359375,-0.0117645263671875
1761916241016709000,5.392709228515625,-0.9904327392578125,0.013214111328125,-0.01116943359375
1761916241026765000,5.40276513671875,-0.9905853271484375,0.0135955810546875,-0.0117645263671875
1761916241036820000,5.412820068359375,-0.990509033203125,0.0133514404296875,-0.0115814208984375
1761916241046875000,5.422875,-0.989959716796875,0.013580322265625,-0.0120391845703125
1761916241056931000,5.43293115234375,-0.9905853271484375,0.0136566162109375,-0.011077880859375
1761916241066986000,5.442986083984375,-0.9914703369140625,0.013671875,-0.0117034912109375
1761916241077041000,5.453041015625,-0.99102783203125,0.0146636962890625,-0.0117340087890625
1761916241087096000,5.463095947265625,-0.9896240234375,0.014251708984375,-0.010986328125
1761916241097152000,5.473152099609375,-0.9898223876953125,0.013702392578125,-0.0118408203125
1761916241107207200,5.483207275390625,-0.9899444580078125,0.01397705078125,-0.011932373046875
1761916241117262000,5.493261962890625,-0.9900665283203125,0.01361083984375,-0.012420654296875
1761916241127317000,5.50331689453125,-0.9898834228515625,0.0130615234375,-0.011871337890625
1761916241137373000,5.513373046875,-0.9898834228515625,0.0133514404296875,-0.0121917724609375
1761916241147428000,5.523427978515625,-0.990814208984375,0.0144805908203125,-0.010833740234375
1761916241157483000,5.53348291015625,-0.9913787841796875,0.0141448974609375,-0.0114288330078125
1761916241167538000,5.543537841796875,-0.991943359375,0.0134124755859375,-0.011962890625
1761916241177593900,5.55359375,-0.9898834228515625,0.0142364501953125,-0.01202392578125
1761916241187649000,5.56364892578125,-0.9904937744140625,0.0137786865234375,-0.0118865966796875
1761916241197704200,5.5737041015625,-0.990020751953125,0.0140228271484375,-0.0113677978515625
1761916241207758800,5.5837587890625,-0.990875244140625,0.014801025390625,-0.0127410888671875
1761916241217815000,5.59381494140625,-0.9897918701171875,0.0142059326171875,-0.0117645263671875
1761916241227870000,5.603869873046875,-0.9898834228515625,0.0138397216796875,-0.0117645263671875
1761916241237925000,5.613925048828125,-0.9906768798828125,0.0135040283203125,-0.0114593505859375
1761916241247980000,5.62397998046875,-0.991607666015625,0.0121917724609375,-0.0116119384765625
1761916241258036200,5.6340361328125,-0.99090576171875,0.0137481689453125,-0.0118408203125
1761916241268091000,5.6440908203125,-0.990386962890625,0.01300048828125,-0.012359619140625
1761916241278146000,5.65414599609375,-0.990081787109375,0.014068603515625,-0.0121002197265625
1761916241288201200,5.664201171875,-0.989410400390625,0.014373779296875,-0.01177978515625
1761916241298257200,5.674257080078125,-0.9895477294921875,0.0140838623046875,-0.0113983154296875
1761916241308312000,5.68431201171875,-0.9898834228515625,0.0139617919921875,-0.011505126953125
1761916241318367000,5.694366943359375,-0.989349365234375,0.0135650634765625,-0.01153564453125
1761916241328422100,5.704422119140625,-0.98992919921875,0.0145416259765625,-0.011077880859375
1761916241338478000,5.71447802734375,-0.9907989501953125,0.0141448974609375,-0.011566162109375
1761916241348533000,5.724532958984375,-0.9900360107421875,0.0131072998046875,-0.012237548828125
1761916241358588000,5.734587890625,-0.9887847900390625,0.0131988525390625,-0.011871337890625
1761916241368643000,5.74464306640625,-0.9898223876953125,0.0141754150390625,-0.011962890625
1761916241378699000,5.754698974609375,-0.990692138671875,0.0130157470703125,-0.012420654296875
1761916241388754200,5.764754150390625,-0.990447998046875,0.0135498046875,-0.0106048583984375
1761916241398808800,5.774808837890625,-0.9898529052734375,0.0141143798828125,-0.0110015869140625
1761916241408864000,5.784864013671875,-0.990020751953125,0.0143280029296875,-0.011810302734375
1761916241418920000,5.794919921875,-0.9901580810546875,0.013702392578125,-0.0108489990234375
1761916241428975000,5.80497509765625,-0.99029541015625,0.0136260986328125,-0.010833740234375
1761916241439030000,5.815030029296875,-0.9901580810546875,0.01348876953125,-0.012237548828125
1761916241449085000,5.8250849609375,-0.9899139404296875,0.0139312744140625,-0.012359619140625
1761916241459141000,5.83514111328125,-0.9901123046875,0.01324462890625,-0.0112152099609375
1761916241469196000,5.845196044921875,-0.991119384765625,0.0125274658203125,-0.0124359130859375
1761916241479251000,5.8552509765625,-0.98974609375,0.0144195556640625,-0.0120391845703125
1761916241489307000,5.865306884765625,-0.9889984130859375,0.014251708984375,-0.0120849609375
1761916241499362000,5.875362060546875,-0.98956298828125,0.0138397216796875,-0.0112152099609375
1761916241509417000,5.8854169921875,-0.98980712890625,0.0135345458984375,-0.0105438232421875
1761916241519472000,5.89547216796875,-0.991455078125,0.0134429931640625,-0.0113067626953125
1761916241529527800,5.90552783203125,-0.990386962890625,0.0138092041015625,-0.0115509033203125
1761916241539583000,5.9155830078125,-0.9900054931640625,0.013641357421875,-0.011627197265625
1761916241549638100,5.92563818359375,-0.990631103515625,0.013763427734375,-0.0120086669921875
1761916241559693000,5.935693115234375,-0.990386962890625,0.0140380859375,-0.0124359130859375
1761916241569749000,5.9457490234375,-0.9899444580078125,0.014251708984375,-0.0107421875
1761916241579804000,5.955803955078125,-0.9900360107421875,0.01385498046875,-0.0117034912109375
1761916241589859000,5.965859130859375,-0.98944091796875,0.01324462890625,-0.0116424560546875
1761916241599914000,5.9759140625,-0.9907989501953125,0.0140380859375,-0.0120697021484375
1761916241609970200,5.98597021484375,-0.990264892578125,0.01373291015625,-0.01190185546875
1761916241620024800,5.99602490234375,-0.9898529052734375,0.0132598876953125,-0.0118560791015625
1761916241630080000,6.006080078125,-0.9912872314453125,0.0143890380859375,-0.0117645263671875
1761916241640135200,6.01613525390625,-0.9907379150390625,0.0142669677734375,-0.0115814208984375
1761916241650191000,6.026191162109375,-0.9902191162109375,0.01470947265625,-0.0118560791015625
1761916241660246000,6.03624609375,-0.9902191162109375,0.0149078369140625,-0.011505126953125
1761916241670301000,6.046301025390625,-0.98974609375,0.0132598876953125,-0.010772705078125
1761916241680359400,6.056359375,-0.9905242919921875,0.0137939453125,-0.01171875
1761916241690415400,6.066415283203125,-0.991424560546875,0.0135345458984375,-0.0111846923828125
1761916241700470500,6.076470458984375,-0.9897613525390625,0.0136566162109375,-0.011810302734375
1761916241710525400,6.086525390625,-0.9900665283203125,0.0127716064453125,-0.0117340087890625
1761916241720580400,6.096580322265625,-0.9894866943359375,0.01373291015625,-0.012115478515625
1761916241730636300,6.10663623046875,-0.98907470703125,0.0144500732421875,-0.012359619140625
1761916241740691500,6.11669140625,-0.9901275634765625,0.0143890380859375,-0.0113983154296875
1761916241750746400,6.126746337890625,-0.991058349609375,0.0138397216796875,-0.011932373046875
1761916241760801300,6.13680126953125,-0.990447998046875,0.014190673828125,-0.0112457275390625
1761916241770857200,6.146857177734375,-0.990631103515625,0.0135040283203125,-0.0109405517578125
1761916241780912400,6.156912353515625,-0.99102783203125,0.014129638671875,-0.01177978515625
1761916241790967600,6.166967529296875,-0.9903564453125,0.0141448974609375,-0.0113525390625
1761916241801022200,6.177022216796875,-0.9894866943359375,0.01397705078125,-0.011474609375
1761916241811078400,6.187078369140625,-0.990875244140625,0.013641357421875,-0.010589599609375
1761916241821133300,6.19713330078125,-0.9908447265625,0.012847900390625,-0.0114593505859375
1761916241831188500,6.2071884765625,-0.99017333984375,0.0136871337890625,-0.01129150390625
1761916241841243400,6.217243408203125,-0.990875244140625,0.01336669921875,-0.0117340087890625
1761916241851299300,6.22729931640625,-0.9901885986328125,0.013580322265625,-0.012115478515625
1761916241861354200,6.237354248046875,-0.9900970458984375,0.01416015625,-0.011932373046875
1761916241871409400,6.247409423828125,-0.99005126953125,0.0132598876953125,-0.0114898681640625
1761916241881464600,6.257464599609375,-0.9893798828125,0.0141143798828125,-0.0121002197265625
1761916241891520500,6.2675205078125,-0.9898681640625,0.0144500732421875,-0.010986328125
1761916241901575400,6.277575439453125,-0.9899444580078125,0.0138397216796875,-0.0110015869140625
1761916241911630300,6.28763037109375,-0.991180419921875,0.0137939453125,-0.011444091796875
1761916241921685500,6.297685546875,-0.990692138671875,0.014068603515625,-0.01165771484375
1761916241931741400,6.307741455078125,-0.992156982421875,0.01470947265625,-0.011962890625
1761916241941796400,6.31779638671875,-0.9899444580078125,0.0135498046875,-0.01153564453125
1761916241951851300,6.327851318359375,-0.990570068359375,0.0139007568359375,-0.012451171875
1761916241961907500,6.337907470703125,-0.9910888671875,0.01336669921875,-0.0122222900390625
1761916241971962400,6.34796240234375,-0.9904327392578125,0.0133514404296875,-0.011871337890625
1761916241982017300,6.358017333984375,-0.989990234375,0.013946533203125,-0.0121917724609375
1761916241992072400,6.368072509765625,-0.9906158447265625,0.0133209228515625,-0.0116729736328125
1761916242002128400,6.37812841796875,-0.9912872314453125,0.0137939453125,-0.0113677978515625
1761916242012183600,6.38818359375,-0.99053955078125,0.013824462890625,-0.01190185546875
1761916242022238500,6.398238525390625,-0.9904022216796875,0.013671875,-0.0117340087890625
1761916242032293400,6.40829345703125,-0.9900360107421875,0.0134124755859375,-0.0121612548828125
1761916242042349300,6.418349365234375,-0.9904327392578125,0.0130767822265625,-0.011505126953125
1761916242052404500,6.428404541015625,-0.9915008544921875,0.0134429931640625,-0.011383056640625
1761916242062459400,6.43845947265625,-0.9904937744140625,0.0142059326171875,-0.0114898681640625
1761916242072514300,6.448514404296875,-0.9893341064453125,0.01373291015625,-0.0114593505859375
1761916242082570200,6.4585703125,-0.9900360107421875,0.0143585205078125,-0.0116424560546875
1761916242092625400,6.46862548828125,-0.9905242919921875,0.0140533447265625,-0.0109710693359375
1761916242102680300,6.478680419921875,-0.989654541015625,0.0140380859375,-0.011016845703125
1761916242112735500,6.488735595703125,-0.9903106689453125,0.0132293701171875,-0.01226806640625
1761916242122791200,6.498791259765625,-0.9913177490234375,0.0134735107421875,-0.0114898681640625
1761916242132846300,6.508846435546875,-0.9905853271484375,0.0133514404296875,-0.011199951171875
1761916242142901500,6.518901611328125,-0.98974609375,0.013824462890625,-0.0110321044921875
1761916242152956400,6.528956298828125,-0.990631103515625,0.013916015625,-0.01171875
1761916242163012600,6.5390126953125,-0.99102783203125,0.0142059326171875,-0.011566162109375
1761916242173067300,6.5490673828125,-0.991302490234375,0.0137481689453125,-0.0113677978515625
1761916242183122400,6.559122314453125,-0.989837646484375,0.0145721435546875,-0.0113525390625
1761916242193177300,6.56917724609375,-0.9903411865234375,0.0137176513671875,-0.0117034912109375
1761916242203233500,6.579233642578125,-0.990753173828125,0.0137176513671875,-0.01177978515625
1761916242213288200,6.5892880859375,-0.99066162109375,0.014190673828125,-0.01220703125
1761916242223343400,6.59934326171875,-0.9898529052734375,0.0137176513671875,-0.0113067626953125
1761916242233398500,6.6093984375,-0.99090576171875,0.013885498046875,-0.0110015869140625
1761916242243454500,6.619454345703125,-0.991424560546875,0.012969970703125,-0.01171875
1761916242253509400,6.62950927734375,-0.9897918701171875,0.0138702392578125,-0.01239013671875
1761916242263564300,6.639564208984375,-0.9892425537109375,0.013458251953125,-0.0123748779296875
1761916242273619500,6.649619384765625,-0.990936279296875,0.013458251953125,-0.0104827880859375
1761916242283675400,6.65967529296875,-0.9903564453125,0.013824462890625,-0.0107574462890625
1761916242293730600,6.66973046875,-0.99029541015625,0.01416015625,-0.0112762451171875
1761916242303785200,6.67978515625,-0.98968505859375,0.0139923095703125,-0.010986328125
1761916242313840400,6.68984033203125,-0.99041748046875,0.0143280029296875,-0.0112762451171875
1761916242323896300,6.699896240234375,-0.99072265625,0.0128936767578125,-0.0109100341796875
1761916242333951500,6.709951416015625,-0.989959716796875,0.013702392578125,-0.011260986328125
1761916242344006400,6.72000634765625,-0.9904327392578125,0.0146331787109375,-0.01202392578125
1761916242354061300,6.730061279296875,-0.9906768798828125,0.012725830078125,-0.0117950439453125
1761916242364117500,6.740117431640625,-0.9905242919921875,0.0135040283203125,-0.0115814208984375
1761916242374172400,6.75017236328125,-0.99041748046875,0.0141754150390625,-0.0121307373046875
1761916242384227600,6.7602275390625,-0.9906005859375,0.01397705078125,-0.0116119384765625
1761916242394282200,6.7702822265625,-0.99078369140625,0.014068603515625,-0.0121612548828125
1761916242404338400,6.78033837890625,-0.9902496337890625,0.0152130126953125,-0.012298583984375
1761916242414393300,6.790393310546875,-0.990234375,0.014129638671875,-0.0115509033203125
1761916242424448500,6.800448486328125,-0.989654541015625,0.0142974853515625,-0.0121002197265625
1761916242434504400,6.81050439453125,-0.990325927734375,0.014984130859375,-0.011932373046875
1761916242444559400,6.820559326171875,-0.989532470703125,0.0140533447265625,-0.0114898681640625
1761916242454614500,6.830614501953125,-0.9902496337890625,0.0143585205078125,-0.012176513671875
1761916242464669400,6.84066943359375,-0.9911346435546875,0.013153076171875,-0.0119781494140625
1761916242474725400,6.850725341796875,-0.9903564453125,0.013427734375,-0.01165771484375
1761916242484780300,6.8607802734375,-0.9904937744140625,0.01385498046875,-0.011749267578125
1761916242494835500,6.87083544921875,-0.9895477294921875,0.0128631591796875,-0.011810302734375
1761916242504890400,6.880890380859375,-0.990142822265625,0.0134429931640625,-0.0117950439453125
1761916242514946600,6.890946533203125,-0.990081787109375,0.0137481689453125,-0.0115203857421875
1761916242525001200,6.901001220703125,-0.9905242919921875,0.0140533447265625,-0.0110931396484375
1761916242535056400,6.911056396484375,-0.9911041259765625,0.0140533447265625,-0.011566162109375
1761916242545111300,6.921111328125,-0.9893951416015625,0.014617919921875,-0.011383056640625
1761916242555167500,6.93116748046875,-0.9898681640625,0.0129852294921875,-0.01129150390625
1761916242565222400,6.941222412109375,-0.989410400390625,0.0135345458984375,-0.0118408203125
1761916242575277300,6.95127734375,-0.9891357421875,0.0142364501953125,-0.0120391845703125
1761916242585332500,6.96133251953125,-0.98968505859375,0.0138397216796875,-0.0115509033203125
1761916242595388400,6.971388427734375,-0.99005126953125,0.014007568359375,-0.0122222900390625
1761916242605443600,6.981443603515625,-0.9899139404296875,0.014007568359375,-0.010711669921875
1761916242615498200,6.991498291015625,-0.98974609375,0.013916015625,-0.0112457275390625
1761916242625553400,7.001553466796875,-0.9904327392578125,0.0139923095703125,-0.01129150390625
1761916242635609300,7.011609375,-0.9904937744140625,0.0135498046875,-0.012054443359375
1761916242645664500,7.02166455078125,-0.989898681640625,0.013824462890625,-0.0117340087890625
1761916242655719200,7.03171923828125,-0.9903564453125,0.0139923095703125,-0.01239013671875
1761916242665774300,7.0417744140625,-0.9902191162109375,0.0145263671875,-0.01171875
1761916242675830300,7.051830322265625,-0.9908294677734375,0.0145263671875,-0.0110321044921875
1761916242685882000,7.061882080078125,-0.9898529052734375,0.0139312744140625,-0.012054443359375
1761916242695937000,7.07193701171875,-0.9902191162109375,0.013763427734375,-0.0116729736328125
1761916242705992000,7.081991943359375,-0.9910888671875,0.0139007568359375,-0.0117034912109375
1761916242716048100,7.092048095703125,-0.99102783203125,0.0138092041015625,-0.011505126953125
1761916242726103000,7.10210302734375,-0.9910125732421875,0.014312744140625,-0.012603759765625
1761916242736158200,7.112158203125,-0.988983154296875,0.0138702392578125,-0.0121307373046875
1761916242746212900,7.122212890625,-0.9901580810546875,0.01416015625,-0.0110626220703125
1761916242756269000,7.13226904296875,-0.9898223876953125,0.0146026611328125,-0.01202392578125
1761916242766324000,7.142323974609375,-0.9904327392578125,0.013763427734375,-0.011688232421875
1761916242776379100,7.152379150390625,-0.9902496337890625,0.013214111328125,-0.011322021484375
1761916242786434000,7.16243408203125,-0.9912261962890625,0.0132293701171875,-0.0118255615234375
1761916242796490000,7.172489990234375,-0.9901580810546875,0.013946533203125,-0.0113067626953125
1761916242806545000,7.182544921875,-0.989288330078125,0.0145263671875,-0.0123138427734375
1761916242816600000,7.19260009765625,-0.9904022216796875,0.01409912109375,-0.0126800537109375
1761916242826655000,7.202655029296875,-0.9912567138671875,0.0138702392578125,-0.011932373046875
1761916242836711000,7.2127109375,-0.9906768798828125,0.013916015625,-0.011962890625
1761916242846766000,7.22276611328125,-0.9904937744140625,0.013824462890625,-0.0113983154296875
1761916242856821000,7.232821044921875,-0.9901580810546875,0.0128631591796875,-0.0111236572265625
1761916242866876200,7.242876220703125,-0.9905853271484375,0.0140838623046875,-0.0113067626953125
1761916242876931800,7.252931884765625,-0.98992919921875,0.014251708984375,-0.0112457275390625
1761916242886987000,7.262987060546875,-0.9903564453125,0.01434326171875,-0.0121307373046875
1761916242897042000,7.2730419921875,-0.990753173828125,0.013641357421875,-0.0119476318359375
1761916242907097000,7.28309716796875,-0.9906005859375,0.01312255859375,-0.0106658935546875
1761916242917153000,7.293153076171875,-0.99041748046875,0.013458251953125,-0.01226806640625
1761916242927208000,7.3032080078125,-0.990936279296875,0.013336181640625,-0.0116119384765625
1761916242937263000,7.31326318359375,-0.989990234375,0.0134735107421875,-0.0113525390625
1761916242947319000,7.323319091796875,-0.9896697998046875,0.013427734375,-0.012451171875
1761916242957374200,7.333374267578125,-0.9898529052734375,0.01434326171875,-0.01141357421875
1761916242967428900,7.343428955078125,-0.9900665283203125,0.015380859375,-0.0121002197265625
1761916242977484000,7.353484130859375,-0.9900970458984375,0.014190673828125,-0.01177978515625
1761916242987540000,7.3635400390625,-0.990570068359375,0.0133819580078125,-0.0115966796875
1761916242997595100,7.37359521484375,-0.9905853271484375,0.013763427734375,-0.01153564453125
1761916243007650000,7.383650146484375,-0.98980712890625,0.0139312744140625,-0.0115966796875
1761916243017705000,7.393705078125,-0.9897003173828125,0.0142974853515625,-0.012115478515625
1761916243027761000,7.403760986328125,-0.9895782470703125,0.0140838623046875,-0.011474609375
1761916243037816000,7.413816162109375,-0.99029541015625,0.0129547119140625,-0.01153564453125
1761916243047871200,7.423871337890625,-0.99114990234375,0.01300048828125,-0.0111083984375
1761916243057926000,7.43392578125,-0.991607666015625,0.0133056640625,-0.010986328125
1761916243067982000,7.443982177734375,-0.9896087646484375,0.0138092041015625,-0.01165771484375
1761916243078037000,7.454037109375,-0.9899444580078125,0.01422119140625,-0.011199951171875
1761916243088092200,7.464092041015625,-0.9903106689453125,0.0135345458984375,-0.0119171142578125
1761916243098146800,7.474146728515625,-0.9905242919921875,0.0136871337890625,-0.01214599609375
1761916243108203000,7.484203125,-0.9890289306640625,0.0140380859375,-0.0111083984375
1761916243118258000,7.4942578125,-0.9903564453125,0.0137939453125,-0.0112457275390625
1761916243128313000,7.50431298828125,-0.9911041259765625,0.01385498046875,-0.011383056640625
1761916243138368300,7.5143681640625,-0.990753173828125,0.0139007568359375,-0.0119476318359375
1761916243148424000,7.524423828125,-0.991180419921875,0.013397216796875,-0.01171875
1761916243158478800,7.534478759765625,-0.98992919921875,0.0124359130859375,-0.0116119384765625
1761916243168534000,7.544533935546875,-0.9896240234375,0.0144500732421875,-0.01165771484375
1761916243178589200,7.554589111328125,-0.9908905029296875,0.0138092041015625,-0.0118560791015625
1761916243188645000,7.56464501953125,-0.9905548095703125,0.0138702392578125,-0.0117645263671875
1761916243198700000,7.574699951171875,-0.99029541015625,0.013946533203125,-0.0109710693359375
1761916243208755000,7.5847548828125,-0.9902801513671875,0.0144500732421875,-0.011077880859375
1761916243218810000,7.59481005859375,-0.9902801513671875,0.014068603515625,-0.01220703125
1761916243228866000,7.604865966796875,-0.990570068359375,0.0129241943359375,-0.0115509033203125
1761916243238921000,7.6149208984375,-0.99090576171875,0.0135345458984375,-0.0116424560546875
1761916243248976000,7.624975830078125,-0.9893798828125,0.0142822265625,-0.0117340087890625
1761916243259031000,7.635031005859375,-0.9902191162109375,0.014373779296875,-0.012115478515625
1761916243269087000,7.6450869140625,-0.991058349609375,0.0146026611328125,-0.011871337890625
1761916243279142000,7.655141845703125,-0.9896392822265625,0.014495849609375,-0.0116729736328125
1761916243289197000,7.665197021484375,-0.990447998046875,0.0136260986328125,-0.0110626220703125
1761916243299252000,7.675251953125,-0.9906005859375,0.014251708984375,-0.0117645263671875
1761916243309308200,7.68530810546875,-0.99090576171875,0.0133056640625,-0.0118408203125
1761916243319363000,7.695363037109375,-0.9911651611328125,0.0133056640625,-0.01123046875
1761916243329418000,7.70541796875,-0.990386962890625,0.013214111328125,-0.011474609375
1761916243339473000,7.715472900390625,-0.9912261962890625,0.0139007568359375,-0.011688232421875
1761916243349529000,7.725529052734375,-0.9893951416015625,0.0139617919921875,-0.012298583984375
1761916243359584000,7.735583984375,-0.989715576171875,0.0137786865234375,-0.0119781494140625
1761916243369639000,7.745638916015625,-0.99127197265625,0.0135498046875,-0.011993408203125
1761916243379694800,7.75569482421875,-0.9903564453125,0.0140228271484375,-0.01190185546875
1761916243389750000,7.76575,-0.9888458251953125,0.013763427734375,-0.011383056640625
1761916243399805200,7.77580517578125,-0.990142822265625,0.0146942138671875,-0.0109405517578125
1761916243409860000,7.785860107421875,-0.990386962890625,0.013824462890625,-0.0116119384765625
1761916243419916000,7.795916015625,-0.9901123046875,0.013885498046875,-0.01171875
1761916243429971000,7.805970947265625,-0.98974609375,0.0142059326171875,-0.01129150390625
1761916243440026000,7.816026123046875,-0.990509033203125,0.0141143798828125,-0.0119476318359375
1761916243450081000,7.8260810546875,-0.9901885986328125,0.01434326171875,-0.010955810546875
1761916243460137200,7.83613720703125,-0.9898834228515625,0.0143280029296875,-0.0118560791015625
1761916243470191900,7.84619189453125,-0.9904937744140625,0.0133819580078125,-0.01177978515625
1761916243480247000,7.8562470703125,-0.9903106689453125,0.0125885009765625,-0.012603759765625
1761916243490302200,7.86630224609375,-0.99041748046875,0.0140228271484375,-0.0121917724609375
1761916243500358100,7.876358154296875,-0.990325927734375,0.013519287109375,-0.0112152099609375
1761916243510413000,7.8864130859375,-0.9907379150390625,0.01373291015625,-0.0116119384765625
1761916243520468000,7.896468017578125,-0.9908294677734375,0.01348876953125,-0.011474609375
1761916243530523100,7.906523193359375,-0.9904022216796875,0.0141448974609375,-0.0119171142578125
1761916243540579000,7.9165791015625,-0.990081787109375,0.01348876953125,-0.0114288330078125
1761916243550634000,7.926634033203125,-0.990234375,0.013397216796875,-0.0117034912109375
1761916243560689000,7.93668896484375,-0.9921417236328125,0.0130767822265625,-0.0122833251953125
1761916243570744000,7.946744140625,-0.989410400390625,0.0139007568359375,-0.012542724609375
1761916243580800000,7.956800048828125,-0.9886474609375,0.013824462890625,-0.011932373046875
1761916243590855200,7.966855224609375,-0.990447998046875,0.0133514404296875,-0.0122833251953125
1761916243600909800,7.976909912109375,-0.9908905029296875,0.0136566162109375,-0.0122222900390625
1761916243610965000,7.986965087890625,-0.9901885986328125,0.0137786865234375,-0.01239013671875
1761916243621021000,7.99702099609375,-0.989959716796875,0.01373291015625,-0.0113067626953125
1761916243631076000,8.007076171875,-0.9912109375,0.013916015625,-0.0123291015625
1761916243641131000,8.017131103515625,-0.990203857421875,0.014251708984375,-0.011505126953125
1761916243651186000,8.02718603515625,-0.9897613525390625,0.0136566162109375,-0.0121002197265625
1761916243661242000,8.0372421875,-0.9898529052734375,0.0136871337890625,-0.0123443603515625
1761916243671297000,8.047297119140625,-0.9893341064453125,0.0135498046875,-0.0110626220703125
1761916243681352200,8.057352294921875,-0.9908905029296875,0.0137786865234375,-0.011566162109375
1761916243691410000,8.067409912109374,-0.990142822265625,0.01385498046875,-0.0110321044921875
1761916243701465900,8.0774658203125,-0.9900360107421875,0.012939453125,-0.011627197265625
1761916243711521000,8.08752099609375,-0.9902191162109375,0.0131072998046875,-0.01104736328125
1761916243721576000,8.097575927734376,-0.989990234375,0.013519287109375,-0.0119476318359375
1761916243731630800,8.107630859375,-0.990447998046875,0.0139007568359375,-0.0117645263671875
1761916243741686800,8.117686767578125,-0.9904632568359375,0.013214111328125,-0.0116424560546875
1761916243751742000,8.127741943359375,-0.9897003173828125,0.0137176513671875,-0.012054443359375
1761916243761796900,8.137796875,-0.990203857421875,0.0145721435546875,-0.01220703125
1761916243771851800,8.147851806640626,-0.9915618896484375,0.013458251953125,-0.0121307373046875
1761916243781907700,8.15790771484375,-0.9903411865234375,0.0130615234375,-0.0122833251953125
1761916243791963000,8.167962890625,-0.9904327392578125,0.0139617919921875,-0.012359619140625
1761916243802018000,8.17801806640625,-0.9900970458984375,0.0142822265625,-0.0117950439453125
1761916243812073000,8.188072998046875,-0.9902801513671875,0.0140533447265625,-0.0114898681640625
1761916243822129000,8.19812890625,-0.990570068359375,0.0146484375,-0.0119476318359375
1761916243832183800,8.208183837890624,-0.9904327392578125,0.01495361328125,-0.01129150390625
1761916243842239000,8.218239013671875,-0.9897613525390625,0.01458740234375,-0.011444091796875
1761916243852294000,8.2282939453125,-0.9900665283203125,0.0134124755859375,-0.0118255615234375
1761916243862350000,8.23835009765625,-0.9897613525390625,0.01397705078125,-0.0111846923828125
1761916243872404700,8.24840478515625,-0.9907073974609375,0.0133056640625,-0.011505126953125
1761916243882460000,8.2584599609375,-0.9909210205078125,0.0128326416015625,-0.0115966796875
1761916243892515000,8.26851513671875,-0.9895477294921875,0.013641357421875,-0.0113372802734375
1761916243902571000,8.278571044921875,-0.989593505859375,0.013824462890625,-0.01251220703125
1761916243912625700,8.288625732421876,-0.9915618896484375,0.01409912109375,-0.0122528076171875
1761916243922680800,8.298680908203124,-0.9913330078125,0.014251708984375,-0.0118865966796875
1761916243932736000,8.308736083984375,-0.9899749755859375,0.0141448974609375,-0.01104736328125
1761916243942792000,8.3187919921875,-0.98931884765625,0.014251708984375,-0.012420654296875
1761916243952847000,8.32884716796875,-0.9906158447265625,0.0149993896484375,-0.01129150390625
1761916243962901800,8.33890185546875,-0.991302490234375,0.014434814453125,-0.011077880859375
1761916243972957000,8.34895703125,-0.991424560546875,0.0139617919921875,-0.0115966796875
1761916243983012900,8.359012939453125,-0.9913177490234375,0.014892578125,-0.011993408203125
1761916243993068000,8.369068115234375,-0.990234375,0.01409912109375,-0.01190185546875
1761916244003122700,8.379122802734376,-0.9904327392578125,0.013641357421875,-0.01165771484375
1761916244013177900,8.389177734375,-0.9904327392578125,0.013275146484375,-0.01123046875
1761916244023233800,8.39923388671875,-0.989501953125,0.0135955810546875,-0.011077880859375
1761916244033289000,8.4092890625,-0.9905548095703125,0.013885498046875,-0.01165771484375
1761916244043344000,8.41934375,-0.99114990234375,0.0142974853515625,-0.011444091796875
1761916244053398800,8.429398681640626,-0.9911346435546875,0.0145263671875,-0.011016845703125
1761916244063455000,8.439455078125,-0.98974609375,0.014312744140625,-0.0113677978515625
1761916244073510000,8.449510009765625,-0.9901580810546875,0.0142364501953125,-0.01080322265625
1761916244083565000,8.45956494140625,-0.9901580810546875,0.013641357421875,-0.01141357421875
1761916244093619700,8.46961962890625,-0.9903106689453125,0.0144805908203125,-0.0114898681640625
1761916244103676000,8.479676025390624,-0.9904022216796875,0.013214111328125,-0.0116119384765625
1761916244113730800,8.489730712890625,-0.990875244140625,0.01336669921875,-0.0112762451171875
1761916244123786000,8.499785888671875,-0.990264892578125,0.0137939453125,-0.0115509033203125
1761916244133841000,8.5098408203125,-0.9900360107421875,0.0139007568359375,-0.0125579833984375
1761916244143896800,8.519896728515626,-0.9905242919921875,0.013519287109375,-0.012054443359375
1761916244153952000,8.529951904296874,-0.9906463623046875,0.01422119140625,-0.0118255615234375
1761916244164007000,8.5400068359375,-0.9904937744140625,0.012969970703125,-0.0116729736328125
1761916244174062000,8.55006201171875,-0.9904632568359375,0.014007568359375,-0.0110015869140625
1761916244184117800,8.56011767578125,-0.9908294677734375,0.0150146484375,-0.011627197265625
1761916244194173000,8.5701728515625,-0.990631103515625,0.01422119140625,-0.01068115234375
1761916244204230000,8.58022998046875,-0.990509033203125,0.0142974853515625,-0.0108642578125
1761916244214284800,8.590284912109375,-0.990509033203125,0.014617919921875,-0.0122528076171875
1761916244224341000,8.600341064453126,-0.990203857421875,0.013519287109375,-0.0114288330078125
1761916244234396000,8.61039599609375,-0.990936279296875,0.01373291015625,-0.011444091796875
1761916244244450800,8.620450927734375,-0.9918212890625,0.0136260986328125,-0.011077880859375
1761916244254506000,8.630506103515625,-0.9912567138671875,0.0142364501953125,-0.010650634765625
1761916244264562000,8.64056201171875,-0.9912109375,0.014678955078125,-0.01092529296875
1761916244274616800,8.650616943359376,-0.990753173828125,0.0138397216796875,-0.0114288330078125
1761916244284671700,8.660671630859374,-0.9907684326171875,0.01318359375,-0.0117034912109375
1761916244294727000,8.670726806640625,-0.99017333984375,0.0142669677734375,-0.011505126953125
1761916244304782800,8.680782958984375,-0.9904632568359375,0.0140533447265625,-0.01177978515625
1761916244314838000,8.690838134765626,-0.98992919921875,0.013916015625,-0.01177978515625
1761916244324893000,8.700892822265626,-0.9898834228515625,0.013946533203125,-0.011627197265625
1761916244334947800,8.71094775390625,-0.9906158447265625,0.01318359375,-0.0113983154296875
1761916244345003800,8.721003662109375,-0.9901275634765625,0.014556884765625,-0.0119171142578125
1761916244355059000,8.731058837890625,-0.9901275634765625,0.013702392578125,-0.011383056640625
1761916244365113900,8.74111376953125,-0.9908447265625,0.0134124755859375,-0.0120849609375
1761916244375168800,8.751168701171874,-0.9897003173828125,0.013519287109375,-0.011383056640625
1761916244385224700,8.761224609375,-0.99090576171875,0.01348876953125,-0.01214599609375
1761916244395280000,8.77127978515625,-0.9911041259765625,0.01446533203125,-0.0115814208984375
1761916244405335000,8.7813349609375,-0.9899444580078125,0.0139007568359375,-0.0122222900390625
1761916244415390000,8.791389892578126,-0.990203857421875,0.01422119140625,-0.0117034912109375
1761916244425446000,8.80144580078125,-0.990753173828125,0.0139312744140625,-0.011260986328125
1761916244435500800,8.811500732421875,-0.9907684326171875,0.012847900390625,-0.01104736328125
1761916244445556000,8.821555908203125,-0.99072265625,0.0131378173828125,-0.0113067626953125
1761916244455611000,8.83161083984375,-0.990234375,0.014190673828125,-0.01220703125
1761916244465667000,8.8416669921875,-0.9907379150390625,0.0143890380859375,-0.011871337890625
1761916244475721700,8.8517216796875,-0.990234375,0.0142364501953125,-0.0123748779296875
1761916244485777000,8.86177685546875,-0.9893035888671875,0.014312744140625,-0.011505126953125
1761916244495832000,8.87183203125,-0.9890289306640625,0.0131988525390625,-0.01177978515625
1761916244505888000,8.881887939453126,-0.9900665283203125,0.0140380859375,-0.011871337890625
1761916244515943000,8.89194287109375,-0.9892730712890625,0.0143585205078125,-0.0113677978515625
1761916244525997800,8.901997802734375,-0.9902801513671875,0.01336669921875,-0.0110626220703125
1761916244536053000,8.912052978515625,-0.989990234375,0.0130615234375,-0.011199951171875
1761916244546109000,8.92210888671875,-0.990142822265625,0.0133514404296875,-0.0116729736328125
1761916244556163800,8.932163818359374,-0.9903564453125,0.0126800537109375,-0.0117950439453125
1761916244566218800,8.94221875,-0.9906005859375,0.013671875,-0.0117034912109375
1761916244576274000,8.95227392578125,-0.9907379150390625,0.013885498046875,-0.01177978515625
1761916244586329900,8.962329833984375,-0.9900360107421875,0.01300048828125,-0.01129150390625
1761916244596385000,8.972385009765626,-0.9899444580078125,0.0143890380859375,-0.0106353759765625
1761916244606440000,8.98243994140625,-0.990631103515625,0.01336669921875,-0.011474609375
1761916244616494800,8.992494873046875,-0.9907684326171875,0.014129638671875,-0.0124053955078125
1761916244626551000,9.002551025390625,-0.9907073974609375,0.0146484375,-0.0115814208984375
1761916244636606000,9.01260595703125,-0.989501953125,0.0145263671875,-0.012176513671875
1761916244646660900,9.022660888671876,-0.9891510009765625,0.013824462890625,-0.011627197265625
1761916244656715800,9.0327158203125,-0.9904632568359375,0.0134735107421875,-0.010894775390625
1761916244666772000,9.04277197265625,-0.9895477294921875,0.0137786865234375,-0.01092529296875
1761916244676827000,9.052826904296875,-0.9902191162109375,0.013671875,-0.0115509033203125
1761916244686878200,9.062878173828125,-0.9911651611328125,0.013580322265625,-0.011474609375
1761916244696933000,9.07293310546875,-0.990692138671875,0.0136871337890625,-0.012451171875
1761916244706989000,9.082989013671876,-0.990447998046875,0.013671875,-0.0110321044921875
1761916244717044200,9.093044189453124,-0.99066162109375,0.0140533447265625,-0.0113372802734375
1761916244727099100,9.10309912109375,-0.9900360107421875,0.01373291015625,-0.0112152099609375
1761916244737154300,9.113154296875,-0.9907684326171875,0.01361083984375,-0.0117340087890625
1761916244747210200,9.123210205078125,-0.9907073974609375,0.01385498046875,-0.0106658935546875
1761916244757265200,9.13326513671875,-0.9897613525390625,0.0138092041015625,-0.0112762451171875
1761916244767320000,9.143320068359374,-0.9899749755859375,0.013519287109375,-0.012237548828125
1761916244777375200,9.153375244140625,-0.9898223876953125,0.0140228271484375,-0.0118255615234375
1761916244787431200,9.16343115234375,-0.9893341064453125,0.01397705078125,-0.011138916015625
1761916244797486000,9.173486083984375,-0.9902496337890625,0.013580322265625,-0.0113067626953125
1761916244807541200,9.183541259765626,-0.990570068359375,0.0139007568359375,-0.011474609375
1761916244817596200,9.19359619140625,-0.9907379150390625,0.012939453125,-0.0119476318359375
1761916244827652000,9.203652099609375,-0.9910736083984375,0.0136871337890625,-0.01141357421875
1761916244837707000,9.21370703125,-0.989990234375,0.0139007568359375,-0.011383056640625
1761916244847762200,9.22376220703125,-0.9904327392578125,0.01324462890625,-0.012451171875
1761916244857817000,9.233817138671874,-0.9901580810546875,0.014129638671875,-0.011260986328125
1761916244867873300,9.243873291015625,-0.9901885986328125,0.0139923095703125,-0.011688232421875
1761916244877928200,9.25392822265625,-0.9906463623046875,0.013824462890625,-0.0116729736328125
1761916244887983000,9.263983154296875,-0.9902496337890625,0.012939453125,-0.01177978515625
1761916244898038300,9.274038330078126,-0.990814208984375,0.0134124755859375,-0.011505126953125
1761916244908094200,9.28409423828125,-0.9903411865234375,0.0141448974609375,-0.0108489990234375
1761916244918149000,9.294149169921875,-0.9901580810546875,0.0144195556640625,-0.0116729736328125
1761916244928204000,9.3042041015625,-0.9910430908203125,0.013458251953125,-0.010894775390625
1761916244938259200,9.31425927734375,-0.9903411865234375,0.0142669677734375,-0.0115509033203125
1761916244948315100,9.324315185546874,-0.989593505859375,0.014312744140625,-0.01165771484375
1761916244958370300,9.334370361328125,-0.990447998046875,0.013580322265625,-0.0110931396484375
1761916244968425000,9.344425048828125,-0.9908447265625,0.0135040283203125,-0.01104736328125
1761916244978480000,9.354480224609375,-0.991180419921875,0.0140380859375,-0.010955810546875
1761916244988536000,9.3645361328125,-0.9906005859375,0.0129547119140625,-0.0113067626953125
1761916244998591200,9.37459130859375,-0.9908447265625,0.013519287109375,-0.0108642578125
1761916245008646100,9.384646240234375,-0.991302490234375,0.0134124755859375,-0.0117645263671875
1761916245018701000,9.394701171875,-0.99072265625,0.0139617919921875,-0.0119171142578125
1761916245028757000,9.404757080078125,-0.990753173828125,0.013336181640625,-0.0118865966796875
1761916245038812200,9.414812255859376,-0.9903564453125,0.013702392578125,-0.0124053955078125
1761916245048867300,9.424867431640624,-0.9915924072265625,0.0133056640625,-0.0124664306640625
1761916245058922000,9.434921875,-0.989837646484375,0.013671875,-0.01123046875
1761916245068978200,9.444978271484375,-0.9898681640625,0.0133514404296875,-0.0118255615234375
1761916245079033000,9.455033203125,-0.9910736083984375,0.0134429931640625,-0.011566162109375
1761916245089088300,9.465088134765624,-0.9902801513671875,0.014251708984375,-0.0111541748046875
1761916245099143000,9.475142822265624,-0.990478515625,0.0146942138671875,-0.010833740234375
1761916245109199000,9.48519921875,-0.9900054931640625,0.0149383544921875,-0.0115203857421875
1761916245119254000,9.49525390625,-0.9905853271484375,0.01348876953125,-0.011199951171875
1761916245129309200,9.50530908203125,-0.9907379150390625,0.0141754150390625,-0.0111846923828125
1761916245139364400,9.5153642578125,-0.9899139404296875,0.0140380859375,-0.0113983154296875
1761916245149420300,9.525420166015625,-0.990631103515625,0.0143890380859375,-0.0115203857421875
1761916245159475200,9.53547509765625,-0.99066162109375,0.0139007568359375,-0.01129150390625
1761916245169530000,9.545530029296875,-0.9894866943359375,0.0142669677734375,-0.01129150390625
1761916245179585300,9.555585205078126,-0.9914703369140625,0.0140228271484375,-0.011444091796875
1761916245189641200,9.56564111328125,-0.98956298828125,0.0145416259765625,-0.0121307373046875
1761916245199696100,9.575696044921875,-0.9894866943359375,0.013153076171875,-0.01177978515625
1761916245209751000,9.5857509765625,-0.9907684326171875,0.0139923095703125,-0.0114593505859375
1761916245219806200,9.59580615234375,-0.989715576171875,0.0131072998046875,-0.011383056640625
1761916245229862100,9.605862060546874,-0.991241455078125,0.014495849609375,-0.0113372802734375
1761916245239917000,9.6159169921875,-0.9897308349609375,0.0138092041015625,-0.0117645263671875
1761916245249972200,9.62597216796875,-0.990142822265625,0.01397705078125,-0.0111083984375
1761916245260027100,9.636027099609375,-0.9900665283203125,0.0128326416015625,-0.0118255615234375
1761916245270083000,9.6460830078125,-0.99127197265625,0.0136871337890625,-0.0113525390625
1761916245280138200,9.65613818359375,-0.98944091796875,0.0141143798828125,-0.0121917724609375
1761916245290193200,9.666193115234375,-0.9903411865234375,0.0132904052734375,-0.0115203857421875
1761916245300248000,9.676248046875,-0.990631103515625,0.0139312744140625,-0.012298583984375
1761916245310304300,9.68630419921875,-0.9902801513671875,0.01385498046875,-0.011688232421875
1761916245320359200,9.696359130859374,-0.9904022216796875,0.0138397216796875,-0.010955810546875
1761916245330414000,9.7064140625,-0.9915008544921875,0.0137481689453125,-0.01123046875
1761916245340469200,9.71646923828125,-0.990234375,0.013397216796875,-0.01220703125
1761916245350525200,9.726525146484375,-0.990478515625,0.01397705078125,-0.01214599609375
1761916245360580000,9.736580078125,-0.99078369140625,0.013458251953125,-0.0114898681640625
1761916245370635000,9.746635009765624,-0.9912872314453125,0.0133209228515625,-0.0113525390625
1761916245380690200,9.756690185546875,-0.9907379150390625,0.014251708984375,-0.01141357421875
1761916245390746000,9.76674609375,-0.9899749755859375,0.01300048828125,-0.01153564453125
1761916245400801300,9.77680126953125,-0.9910888671875,0.013519287109375,-0.011749267578125
1761916245410856200,9.786856201171876,-0.9906768798828125,0.01409912109375,-0.0119171142578125
1761916245420911000,9.7969111328125,-0.988739013671875,0.0141754150390625,-0.0115203857421875
1761916245430967000,9.806967041015625,-0.9898529052734375,0.014373779296875,-0.0110015869140625
1761916245441022200,9.817022216796875,-0.9907073974609375,0.013641357421875,-0.0119781494140625
1761916245451077000,9.8270771484375,-0.9904632568359375,0.0138092041015625,-0.0115966796875
1761916245461132000,9.837132080078124,-0.9898834228515625,0.014434814453125,-0.011444091796875
1761916245471188000,9.84718798828125,-0.9889984130859375,0.0130767822265625,-0.011138916015625
1761916245481243100,9.8572431640625,-0.9905548095703125,0.0130157470703125,-0.0118865966796875
1761916245491298300,9.86729833984375,-0.989349365234375,0.0140838623046875,-0.011962890625
1761916245501353200,9.877353271484376,-0.9904632568359375,0.013092041015625,-0.0115509033203125
1761916245511409200,9.8874091796875,-0.9902801513671875,0.0134124755859375,-0.011749267578125
1761916245521464000,9.897464111328125,-0.98431396484375,0.0145263671875,-0.0136260986328125
1761916245531519200,9.907519287109375,-0.9659576416015625,0.01470947265625,-0.01690673828125
1761916245541574100,9.91757421875,-0.985260009765625,0.011962890625,-0.0116424560546875
1761916245551630300,9.92763037109375,-1.006378173828125,0.011566162109375,-0.0055999755859375
1761916245561685000,9.93768505859375,-1.002044677734375,0.01300048828125,-0.005035400390625
1761916245571740200,9.947740234375,-0.9864959716796875,0.0118865966796875,-0.009735107421875
1761916245581795300,9.95779541015625,-0.9789581298828125,0.0130767822265625,-0.013580322265625
1761916245591851300,9.967851318359376,-1.0067291259765625,0.0116729736328125,-0.0065155029296875
1761916245601906200,9.97790625,-1.0083770751953125,0.0125274658203125,-0.002197265625
1761916245611961000,9.987961181640625,-1.0045318603515625,0.0117340087890625,-0.0032196044921875
1761916245622016300,9.998016357421875,-1.00115966796875,0.012176513671875,-0.007232666015625
1761916245632072200,10.008072265625,-0.9927825927734375,0.013519287109375,-0.010833740234375
1761916245642127000,10.018127197265626,-0.9765167236328125,0.0139923095703125,-0.0143890380859375
1761916245652182000,10.02818212890625,-0.949859619140625,0.015899658203125,-0.019775390625
1761916245662237200,10.0382373046875,-0.9834442138671875,0.0132904052734375,-0.01446533203125
