time,seconds_elapsed,z,y,x
1761916235742729200,0.118729248046875,0.0027552011888474226,0.005984656047075987,0.0003022821620106697
1761916235752785200,0.12878515625,-0.00003978639142587781,0.03381974995136261,0.002091926522552967
1761916235762840000,0.138840087890625,-0.0009549739770591259,0.00754129234701395,0.00016077421605587006
1761916235772895000,0.14889501953125,0.0003515728749334812,-0.021988902240991592,0.0000401325523853302
1761916235782950100,0.1589501953125,0.00004361971514299512,-0.01842699758708477,0.0007588248699903488
1761916235793006000,0.169006103515625,0.0016668164171278477,0.011798016726970673,0.003997760824859142
1761916235803061200,0.179061279296875,0.0009475103579461575,0.020545009523630142,-0.0005718432366847992
1761916235813116200,0.1891162109375,-0.000012825505109503865,-0.001406892784871161,-0.0015604086220264435
1761916235823171000,0.199171142578125,-0.0019845739006996155,-0.018638646230101585,-0.00047172699123620987
1761916235833227300,0.209227294921875,-0.0014138584956526756,-0.006733251269906759,-0.0013782670721411705
1761916235843282200,0.2192822265625,0.00045491050696000457,0.01522886473685503,-0.0012478316202759743
1761916235853337000,0.229337158203125,-0.001275877933949232,0.01087033562362194,-0.0006342390552163124
1761916235863392000,0.23939208984375,-0.003143224399536848,-0.0066930013708770275,-0.00006344635039567947
1761916235873448200,0.2494482421875,-0.00033358950167894363,-0.015261189080774784,0.0007799770683050156
1761916235883503000,0.259503173828125,-0.0001190997427329421,0.0005866576684638858,0.001432511955499649
1761916235893558300,0.269558349609375,-0.002445370890200138,0.009619833901524544,0.0005142539739608765
1761916235903613200,0.27961328125,-0.002682020654901862,0.00433152262121439,-0.0007369350641965866
1761916235913669000,0.289669189453125,0.00364857935346663,-0.008401849307119846,-0.0025465525686740875
1761916235923724300,0.299724365234375,-0.0020083605777472258,-0.007676311768591404,-0.002935967408120632
1761916235933779200,0.309779296875,-0.0010658679530024529,0.0020492859184741974,0.000976748764514923
1761916235943834000,0.319834228515625,-0.0009757625521160662,0.009018235839903355,-0.0011274991557002068
1761916235953890000,0.32989013671875,0.0008815259789116681,0.0016673781210556626,-0.0005570501089096069
1761916235963945200,0.3399453125,0.0014478660887107253,-0.00678292429074645,0.0009745946153998375
1761916235974000000,0.350000244140625,0.001166902482509613,-0.0022275869268924,-0.001827050931751728
1761916235984055000,0.360054931640625,-0.0009321589022874832,0.0045995754189789295,0.0007454231381416321
1761916235994111000,0.370111083984375,-0.0005103141884319484,0.005747663788497448,-0.001041557639837265
1761916236004166100,0.380166259765625,0.00017356296302750707,-0.0008860244415700436,-0.0016939369961619377
1761916236014221300,0.39022119140625,-0.0008885057177394629,-0.006323666777461767,-0.0004116250202059746
1761916236024276200,0.400276123046875,-0.0006614365265704691,0.0020749098621308804,0.000013138167560100555
1761916236034332200,0.410332275390625,0.00033431939664296806,0.007465946953743696,-0.001754934899508953
1761916236044387000,0.420386962890625,0.0003637070767581463,-0.0008511829655617476,0.0007512755692005157
1761916236054442200,0.430442138671875,0.0008747676620259881,-0.004284796305000782,-0.00009800679981708527
1761916236064497200,0.4404970703125,0.0011565908789634705,-0.0030479689594358206,0.0002649035304784775
1761916236074553300,0.45055322265625,-0.0024999291636049747,0.002151320455595851,-0.0000027436763048171997
1761916236084608000,0.46060791015625,-0.0007492098957300186,0.002926593879237771,-0.002797267399728298
1761916236094663200,0.4706630859375,0.0009773173369467258,-0.0012537699658423662,-0.0014553004875779152
1761916236104718300,0.48071826171875,0.00007225356239359826,-0.001048128237016499,0.00008038245141506195
1761916236114774300,0.490774169921875,0.0003532170376274735,0.0005969064077362418,-0.0012815585359930992
1761916236124829000,0.500828857421875,-0.00043943634955212474,0.002571879653260112,0.0004165414720773697
1761916236134884000,0.510884033203125,0.001487360568717122,0.00038728874642401934,0.0006820587441325188
1761916236144939300,0.520939208984375,-0.0010902531212195754,0.0016202969709411263,-0.0007800348103046417
1761916236154994200,0.530994140625,0.0016376228304579854,-0.0018506009364500642,0.0008104043081402779
1761916236165050000,0.541050048828125,0.0005017895600758493,-0.00005650440289173275,0.0007224269211292267
1761916236175105000,0.55110498046875,0.0028728018514811993,0.001982944319024682,0.001836426556110382
1761916236185160200,0.56116015625,-0.0032098586671054363,0.0041534495539963245,0.0001306626945734024
1761916236195215000,0.571215087890625,-0.0014577647671103477,-0.0010378503939136863,-0.0016912063583731651
1761916236205271300,0.581271240234375,-0.0007085582474246621,-0.0021482035517692566,-0.00018264632672071457
1761916236215326000,0.591325927734375,-0.0007892519934102893,-0.00046268891310319304,-0.0004907744005322456
1761916236225381000,0.601381103515625,0.0001395672297803685,0.0012599144829437137,0.0006277905777096748
1761916236235436300,0.611436279296875,0.0009342544944956899,-0.0023047267459332943,-0.0007442701607942581
1761916236245492200,0.6214921875,-0.0016444310313090682,-0.0006068506627343595,0.0007410254329442978
1761916236255547100,0.631547119140625,-0.0007528046844527125,0.0003252557071391493,0.00005153287202119827
1761916236265602000,0.64160205078125,-0.0003536334552336484,0.0015539012383669615,0.000903167761862278
1761916236275657200,0.6516572265625,-0.0007057033944875002,0.002190396888181567,0.0015271464362740517
1761916236285713200,0.661713134765625,-0.000568799558095634,-0.002147358376532793,-0.001462811604142189
1761916236295768300,0.671768310546875,-0.0004931658040732145,0.00010807283251779154,-0.0027770819142460823
1761916236305823000,0.681822998046875,-0.003958915825933218,0.000232282851357013,0.0005512405186891556
1761916236315878100,0.691878173828125,0.0009096090216189623,-0.0005964929005131125,0.0027281083166599274
1761916236325934000,0.70193408203125,0.0001676951942499727,0.0008217317517846823,0.0012559769675135612
1761916236335989200,0.7119892578125,-0.001599844777956605,0.0005375724867917597,0.001472759060561657
1761916236346044200,0.722044189453125,-0.0018414260121062398,-0.0005336054600775242,0.0003203563392162323
1761916236356099000,0.73209912109375,-0.0015735120978206396,-0.0029086126014590263,0.000005836598575115204
1761916236366155300,0.7421552734375,0.0017908404115587473,-0.0003273020847700536,0.0004606889560818672
1761916236376210200,0.752210205078125,0.00046831456711515784,-0.0018269281135872006,0.0010841349139809608
1761916236386265000,0.76226513671875,0.0018501756712794304,-0.0011961540440097451,0.0014613019302487373
1761916236396320000,0.772320068359375,-0.00023401412181556225,0.00010586534335743636,0.0018703639507293701
1761916236406376200,0.782376220703125,-0.0003536514996085316,-0.0014998626429587603,-0.0003967275843024254
1761916236416431000,0.79243115234375,0.0028645123820751905,-0.00008891988545656204,0.0005188668146729469
1761916236426486300,0.802486328125,0.0009001953876577318,0.0015053106471896172,-0.0002933871001005173
1761916236436541200,0.812541259765625,0.0008437363430857658,-0.0004870001575909555,0.0018342118710279465
1761916236446597000,0.82259716796875,-0.00006793104694224894,0.0015935624251142144,-0.0018420927226543427
1761916236456652300,0.83265234375,-0.0029297638684511185,0.0001498628407716751,0.0015960484743118286
1761916236466707200,0.842707275390625,0.00022307405015453696,0.0010108036221936345,0.0014484599232673645
1761916236476762000,0.85276220703125,-0.0021383510902523994,0.000032624539016978815,-0.001960120163857937
1761916236486818000,0.862818115234375,0.00014692671538796276,0.0028144291136413813,0.001933467574417591
1761916236496873200,0.872873291015625,0.0018087392672896385,0.00009880366997094825,-0.0005557890981435776
1761916236506928000,0.88292822265625,-0.0029117711819708347,0.0009806409943848848,-0.00044595636427402496
1761916236516983000,0.892983154296875,-0.0028182941023260355,-0.002118745818734169,0.0009553991258144379
1761916236527039000,0.9030390625,0.00042312219738960266,0.00044186459854245186,-0.00016448739916086197
1761916236537094100,0.91309423828125,-0.00018141535110771656,-0.0003552194975782186,-0.0009687617421150208
1761916236547149000,0.923149169921875,0.0003617031325120479,0.003741300432011485,-0.000012182630598545074
1761916236557204200,0.933204345703125,0.002636042656376958,-0.00015596958110108972,0.0018259314820170403
1761916236567260000,0.943260009765625,0.0014037697110325098,-0.002417606534436345,-0.000522146001458168
1761916236577315000,0.953315185546875,0.0005406392156146467,0.002643731189891696,-0.00015143398195505142
1761916236587370200,0.963370361328125,0.0020274838898330927,-0.0009177697356790304,-0.0006257425993680954
1761916236597426200,0.97342626953125,-0.00033234324655495584,-0.00019392257672734559,-0.00043559353798627853
1761916236607481300,0.9834814453125,0.0017424863763153553,-0.0011224402114748955,0.001068771816790104
1761916236617536000,0.993535888671875,-0.0009190769051201642,0.0011673456756398082,0.00007434748113155365
1761916236627591200,1.003591064453125,-0.0018613978754729033,-0.0005317492177709937,0.0008672010153532028
1761916236637647000,1.013647216796875,0.0006819209083914757,-0.000049717098590917885,-0.002309417352080345
1761916236647702300,1.023702392578125,0.0011591071961447597,-0.0008151863585226238,0.0005254857242107391
1761916236657757000,1.0337568359375,-0.000496846332680434,-0.00011876971984747797,0.0004929946735501289
1761916236667812000,1.04381201171875,0.0007413341663777828,-0.0021320877131074667,0.0007146699354052544
1761916236677870600,1.05387060546875,0.00017567872419022024,0.0007822095649316907,0.00035514310002326965
1761916236687925200,1.06392529296875,-0.00017644607578404248,0.0011117724934592843,-0.00032497383654117584
1761916236697980400,1.07398046875,0.0004571199242491275,0.0007280108984559774,0.0012295134365558624
1761916236708035600,1.08403564453125,-0.0002262851339764893,0.0005869207088835537,-0.0018861033022403717
1761916236718091500,1.094091552734375,0.0012365891598165035,0.00008811063889879733,-0.0021604085341095924
1761916236728146400,1.104146484375,-0.0008450859459117055,-0.0015433375956490636,-0.00037664733827114105
1761916236738201300,1.114201416015625,0.0006193862645886838,0.0012556447181850672,-0.001261616125702858
1761916236748256500,1.124256591796875,-0.000992350629530847,0.0004889176343567669,0.0038804514333605766
1761916236758312400,1.1343125,-0.0005526627064682543,-0.0020970117766410112,-0.0005750171840190887
1761916236768367400,1.144367431640625,0.00014788021508138627,0.003892911598086357,0.0003809584304690361
1761916236778422300,1.15442236328125,0.00018729499424807727,-0.003610810963436961,-0.0016600880771875381
1761916236788477400,1.1644775390625,-0.0011120638810098171,0.002529796678572893,0.000938992016017437
1761916236798533400,1.174533447265625,0.002004100941121578,0.0035489886067807674,-0.0020783692598342896
1761916236808588500,1.184588623046875,-0.0005523931467905641,-0.00006154515722300857,-0.002911185845732689
1761916236818643500,1.1946435546875,0.0013690775958821177,-0.0008743418729864061,0.0014894213527441025
1761916236828698400,1.204698486328125,0.0014981754356995225,-0.0001352186664007604,0.0016927570104599
1761916236838754300,1.21475439453125,0.0011250665411353111,0.001134044025093317,0.00011563301086425781
1761916236848809500,1.2248095703125,-0.0005928886239416897,0.0015489053912460804,-0.0004507359117269516
1761916236858864400,1.234864501953125,0.002256693784147501,-0.0005909445462748408,-0.002849978394806385
1761916236868919300,1.244919189453125,-0.0011660552117973566,-0.0012181977508589625,-0.0007425565272569656
1761916236878975500,1.2549755859375,0.00019402119505684823,-0.0014152716612443328,0.0003381548449397087
1761916236889030400,1.265030517578125,0.0009301207028329372,-0.0004804533673450351,-0.0005094613879919052
1761916236899085300,1.275085205078125,-0.0012869609054178,-0.0006977673037908971,0.0003307666629552841
1761916236909140200,1.28514013671875,-0.001243959995917976,-0.0009074599365703762,-0.0013400232419371605
1761916236919196400,1.295196533203125,0.0008942920248955488,-0.0014076015213504434,0.0005305809900164604
1761916236929251300,1.305251220703125,0.0005250638350844383,0.0008064666762948036,-0.001145736314356327
1761916236939306500,1.315306396484375,-0.0026494241319596767,0.0014877032954245806,-0.0022083381190896034
1761916236949361400,1.325361328125,0.0006592654390260577,0.0002688961394596845,-0.0004996368661522865
1761916236959417300,1.335417236328125,0.00024940495495684445,0.0003719604865182191,0.0015123812481760979
1761916236969472500,1.345472412109375,0.0010916744358837605,0.0010348488576710224,0.00036639347672462463
1761916236979527400,1.35552734375,0.0019209827296435833,0.0032758989837020636,0.0017823968082666397
1761916236989582300,1.365582275390625,-0.00006113396375440061,-0.00012697245983872563,0.0012374352663755417
1761916236999638300,1.37563818359375,0.00027176117873750627,-0.0006979541503824294,0.0015325136482715607
1761916237009693400,1.385693359375,0.00045783218229189515,0.0008622172754257917,0.0002110954374074936
1761916237019748400,1.395748291015625,-0.0009238157654181123,-0.0006355444784276187,-0.0004943758249282837
1761916237029803500,1.405803466796875,0.00028071762062609196,0.00012081789463991299,-0.002023313194513321
1761916237039859200,1.415859130859375,-0.0011126482859253883,-0.0006869188509881496,0.00042413175106048584
1761916237049914400,1.425914306640625,0.0011964334407821298,-0.0014058235101401806,-0.0009239986538887024
1761916237059969500,1.435969482421875,-0.000010244810255244374,-0.0005706561496481299,0.0013322317972779274
1761916237070025500,1.446025390625,-0.0005457211518660188,0.0018344916170462966,-0.00159510038793087
1761916237080080400,1.456080322265625,-0.0004258789122104645,0.0011862782994285226,-0.0009133312851190567
1761916237090135300,1.46613525390625,0.0005308238323777914,0.000559840991627425,0.0020982353016734123
1761916237100190500,1.4761904296875,-0.0006652017473243177,0.0006621063803322613,0.0007429523393511772
1761916237110246400,1.486246337890625,-0.0009829819900915027,0.003143156645819545,0.00044436752796173096
1761916237120301600,1.496301513671875,-0.00010413883137516677,0.002034216420724988,-0.00028214231133461
1761916237130356200,1.506356201171875,0.0017421048833057284,0.0009178895852528512,0.0026532914489507675
1761916237140411400,1.516411376953125,-0.0008819076465442777,-0.001236341311596334,0.00008413940668106079
1761916237150467300,1.52646728515625,-0.0013438687892630696,0.0018287244020029902,0.00031892023980617523
1761916237160522500,1.5365224609375,-0.0005744814407080412,0.00035493102041073143,0.001737586222589016
1761916237170577400,1.546577392578125,-0.0012155307922512293,0.0015243208035826683,0.0018795449286699295
1761916237180632300,1.55663232421875,0.0003075310087297112,-0.00344460504129529,0.00039456598460674286
1761916237190688300,1.566688232421875,-0.0014212888199836016,-0.0010140808299183846,0.0005443450063467026
1761916237200743400,1.576743408203125,0.0004386628861539066,-0.0000686585990479216,0.002400835044682026
1761916237210798600,1.586798583984375,0.0011761172208935022,-0.0021836545784026384,0.00021234061568975449
1761916237220853200,1.596853271484375,-0.0009956905851140618,-0.0009514099801890552,0.0026619164273142815
1761916237230909400,1.606909423828125,0.00011234436533413827,-0.0022990028373897076,-0.0018238555639982224
1761916237240964400,1.61696435546875,-0.002496754750609398,-0.00004383795021567494,0.0009168032556772232
1761916237251019500,1.62701953125,0.0008074470097199082,0.0016091130673885345,-0.001093769446015358
1761916237261074400,1.637074462890625,0.0028583474922925234,-0.0009102372569032013,-0.0011632787063717842
1761916237271130400,1.64713037109375,0.0016503330552950501,-0.0013896439922973514,-0.0010548941791057587
1761916237281185300,1.657185302734375,-0.00038032722659409046,-0.0010610099416226149,0.0008061230182647705
1761916237291240400,1.667240478515625,-0.0009186130482703447,-0.0012546908110380173,0.00034347735345363617
1761916237301295400,1.67729541015625,-0.001047243713401258,0.0005147133488208055,0.0015189973637461662
1761916237311351300,1.687351318359375,0.00042371894232928753,0.0005591234075836837,-0.0011088121682405472
1761916237321406500,1.697406494140625,-0.001145948190242052,-0.0031860799062997103,0.00016843993216753006
1761916237331461400,1.70746142578125,-0.003085216972976923,0.0017641127342358232,-0.0022251103073358536
1761916237341516500,1.7175166015625,0.0010549330618232489,-0.001970704412087798,-0.0004698215052485466
1761916237351572500,1.727572509765625,-0.0012100591557100415,0.0016524416860193014,0.00014257244765758514
1761916237361627400,1.73762744140625,-0.0005397414788603783,0.00043644238030537963,-0.0006182920187711716
1761916237371682300,1.747682373046875,0.00037564284866675735,-0.0009612120920792222,0.0003820229321718216
1761916237381737500,1.757737548828125,0.0008313097059726715,-0.0020003775134682655,0.0005444763228297234
1761916237391793400,1.76779345703125,0.0031498060561716557,-0.0011371466098353267,0.0025085164234042168
1761916237401848300,1.777848388671875,-0.00025105051463469863,0.00011081071716034785,0.0003641396760940552
1761916237411903500,1.787903564453125,0.00006453051173593849,0.001058374298736453,-0.0005544619634747505
1761916237421958400,1.79795849609375,0.0021322087850421667,-0.0005808013956993818,-0.0012423563748598099
1761916237432014600,1.8080146484375,0.0006934623816050589,-0.0011033221380785108,0.0009580431506037712
1761916237442069200,1.8180693359375,0.0016961426008492708,-0.00020290733664296567,0.0013753604143857956
1761916237452124400,1.82812451171875,0.00015873878146521747,0.001537305535748601,-0.0015504807233810425
1761916237462179300,1.838179443359375,-0.001968594267964363,-0.001580723444931209,-0.0028722072020173073
1761916237472235500,1.848235595703125,0.0007812678231857717,0.0004368976515252143,-0.0009495895355939865
1761916237482290400,1.85829052734375,0.0005527685862034559,-0.0018843135330826044,0.00020995084196329117
1761916237492345300,1.868345458984375,-0.0006965072243474424,0.002609779592603445,-0.0009106975048780441
1761916237502401300,1.8784013671875,-0.00011780235217884183,0.002486475044861436,-0.0020635798573493958
1761916237512456400,1.88845654296875,-0.0008202166645787656,0.0030339558143168688,0.0006594639271497726
1761916237522511400,1.898511474609375,-0.00012486529885791242,-0.0003618409391492605,-0.0001605236902832985
1761916237532566300,1.908566162109375,0.0001515920739620924,0.00027799748932011425,-0.001812637783586979
1761916237542622200,1.918622314453125,0.0009619919583201408,0.0017938688397407532,-0.0003564208745956421
1761916237552677400,1.928677490234375,-0.002361796796321869,0.0037406166084110737,0.0014629261568188667
1761916237562732500,1.938732666015625,-0.0006373999640345573,0.0003014103276655078,0.0002634376287460327
1761916237572787200,1.948787109375,-0.0020382581278681755,-0.0011909371241927147,-0.00010787975043058395
1761916237582843400,1.958843505859375,0.0005316920578479767,-0.000019678831449709833,-0.00164771918207407
1761916237592898300,1.968898193359375,0.0006182922516018152,0.000906351488083601,-0.0007200939580798149
1761916237602953500,1.978953369140625,-0.00010768548236228526,0.001552168047055602,0.0005949754267930984
1761916237613008400,1.98900830078125,0.0012920679291710258,-0.00008371133299078792,-0.001221981830894947
1761916237623064300,1.999064208984375,0.0016726336907595396,-0.001254969509318471,0.0015969742089509964
1761916237633119200,2.009119140625,0.002061942359432578,0.003800555830821395,0.0009298082441091537
1761916237643174400,2.01917431640625,0.0018406338058412075,0.0028178493957966566,0.0016544545069336891
1761916237653229600,2.0292294921875,0.0004347963258624077,0.0012956182472407818,-0.0010152915492653847
1761916237663285500,2.039285400390625,0.00045823215623386204,0.0037619718350470066,-0.0009095640853047371
1761916237673338600,2.049338623046875,0.00034560105996206403,0.0012063473695889115,-0.0016314582899212837
1761916237683393800,2.059393798828125,0.0014023433905094862,0.0014199329307302833,0.0014700591564178467
1761916237693448700,2.06944873046875,-0.0020531259942799807,0.0010178758529946208,0.0014624353498220444
1761916237703505000,2.0795048828125,0.0008177615236490965,0.0015398554969578981,-0.0016923453658819199
1761916237713559600,2.0895595703125,-0.00047519803047180176,-0.0013329883804544806,-0.0014690887182950974
1761916237723614700,2.09961474609375,0.002534972969442606,0.003935276530683041,-0.0006565582007169724
1761916237733669600,2.109669677734375,-0.0006016502156853676,0.0002937407698482275,0.0009195338934659958
1761916237743725800,2.119725830078125,0.000961891608312726,-0.0005060065304860473,0.0014817267656326294
1761916237753780500,2.129780517578125,-0.0009737699874676764,0.0007003755308687687,0.002028217539191246
1761916237763835600,2.139835693359375,-0.00018547431682236493,-0.00023998664983082563,0.00022339355200529099
1761916237773890800,2.149890869140625,0.0009044122416526079,0.00018296789494343102,-0.000002386048436164856
1761916237783946800,2.15994677734375,0.0018434427911415696,0.00004980983067071065,-0.00036484282463788986
1761916237794001700,2.170001708984375,0.001009024796076119,0.0011728055542334914,0.0003575412556529045
1761916237804056600,2.180056640625,0.0012047671480104327,0.0003826456959359348,-0.0033860644325613976
1761916237814111700,2.19011181640625,-0.0025959047488868237,0.0006980825564824045,-0.0014133043587207794
1761916237824167700,2.200167724609375,-0.0014768445398658514,-0.0021174114663153887,0.00044851191341876984
1761916237834222800,2.210222900390625,-0.00016013401909731328,-0.000051109178457409143,-0.0013209367170929909
1761916237844277500,2.220277587890625,-0.0019867962691932917,0.001547053805552423,-0.003356657922267914
1761916237854332700,2.230332763671875,-0.0007098051137290895,-0.00025622721295803785,-0.0002932678908109665
1761916237864388600,2.240388671875,0.002377331256866455,0.000054563664889428765,-0.00027462560683488846
1761916237874443800,2.25044384765625,0.00036426770384423435,0.000038497295463457704,-0.0002619856968522072
1761916237884498700,2.260498779296875,-0.0013686511665582657,0.00039323035161942244,0.0003689173609018326
1761916237894553600,2.2705537109375,-0.00039914087392389774,0.0013549430295825005,-0.003122560679912567
1761916237904609800,2.28060986328125,0.00030473258811980486,-0.00048530130879953504,-0.0003619277849793434
1761916237914664700,2.290664794921875,-0.0018111357931047678,-0.0006633328157477081,-0.0017304681241512299
1761916237924719600,2.3007197265625,0.0006693323375657201,0.0002892798511311412,-0.00021007005125284195
1761916237934774500,2.3107744140625,0.0006438694545067847,0.00018132309196516871,-0.0011575566604733467
1761916237944830700,2.320830810546875,0.0007184379501268268,0.0006827963516116142,-0.0009173396974802017
1761916237954885600,2.3308857421875,-0.0002977370750159025,-0.0006980582838878036,0.00020985864102840424
1761916237964940800,2.34094091796875,-0.0002617843565531075,0.0025688414461910725,-0.00022876355797052383
1761916237974996700,2.350996826171875,0.001804562285542488,-0.000014221935998648405,-0.002146422863006592
1761916237985051600,2.3610517578125,-0.0010492810979485512,-0.0019002726767212152,0.0010762689635157585
1761916237995106800,2.37110693359375,-0.0010802012402564287,-0.004134960472583771,-0.00043398234993219376
1761916238005161700,2.38116162109375,-0.0006503670010715723,0.0013330418150871992,0.0028595495969057083
1761916238015217700,2.3912177734375,0.0008405938278883696,0.00009828681504586712,-0.0008132532238960266
1761916238025272600,2.4012724609375,-0.00002786300319712609,-0.0033955140970647335,-0.0008595921099185944
1761916238035327700,2.41132763671875,0.0003140066110063344,-0.0008617411367595196,0.0006939331069588661
1761916238045382700,2.421382568359375,-0.0007962652598507702,-0.0000540043693035841,0.00020524300634860992
1761916238055438800,2.43143896484375,0.0004330883966758847,-0.0006240611546672881,-0.0010807858780026436
1761916238065493500,2.441493408203125,-0.0008620067965239286,0.00012535239511635154,-0.0002533411607146263
1761916238075548700,2.451548583984375,0.00011357356561347842,-0.0009065123740583658,0.0020609479397535324
1761916238085603800,2.461603759765625,-0.0010108130518347025,0.002626436995342374,0.0018090130761265755
1761916238095659800,2.47165966796875,-0.0017290234100073576,0.00010494548769202083,0.0006994567811489105
1761916238105714700,2.481714599609375,-0.0020222372841089964,-0.0004196972295176238,0.0008999928832054138
1761916238115769600,2.49176953125,-0.00028393487446010113,0.0015220213681459427,-0.00037375371903181076
1761916238125824800,2.50182470703125,0.0012622963404282928,0.0004538274370133877,0.0013945847749710083
1761916238135880700,2.511880615234375,-0.0008171941735781729,0.002037732396274805,0.0023694466799497604
1761916238145936000,2.521935791015625,-0.0010305134346708655,-0.0012890882790088654,-0.0009746849536895752
1761916238155990500,2.531990478515625,0.0003942851908504963,-0.000941043603233993,-0.00003620237112045288
1761916238166045700,2.542045654296875,-0.00024647137615829706,0.0007841521874070168,-0.0008354168385267258
1761916238176101600,2.5521015625,0.0028631833847612143,0.0008972320938482881,-0.0008318452164530754
1761916238186156800,2.56215673828125,-0.0009688391583040357,-0.0011459450470283628,-0.0005319733172655106
1761916238196211500,2.57221142578125,-0.0013366619823500514,0.0001506904955022037,-0.0020895879715681076
1761916238206266600,2.5822666015625,0.0010990650625899434,0.0035587376914918423,0.0027842624112963676
1761916238216322600,2.592322509765625,0.0017201073933392763,-0.0005988851189613342,0.0003043515607714653
1761916238226377700,2.602377685546875,-0.002761460142210126,-0.0010944993700832129,-0.0008093826472759247
1761916238236433000,2.612432861328125,-0.0002553430385887623,-0.00202194950543344,-0.00022924132645130157
1761916238246487600,2.622487548828125,0.0005241642356850207,0.0017197919078171253,-0.002210632897913456
1761916238256543700,2.632543701171875,-0.0014214797411113977,-0.000015861958672758192,-0.00005635898560285568
1761916238266598700,2.6425986328125,-0.004099554382264614,-0.0008441050304099917,-0.00007153954356908798
1761916238276653800,2.65265380859375,-0.001011798158288002,-0.0022925676312297583,0.0015988647937774658
1761916238286708500,2.66270849609375,-0.0012666627299040556,-0.00019426304788794369,-0.0025844285264611244
1761916238296764700,2.6727646484375,-0.0019370501395314932,0.0030517105478793383,0.0003879424184560776
1761916238306819600,2.682819580078125,0.0003330282343085855,-0.0007044116500765085,0.0007168427109718323
1761916238316874800,2.692874755859375,0.0007837083539925516,-0.003301098942756653,-0.0019021322950720787
1761916238326930700,2.7029306640625,-0.0022155435290187597,-0.00017667835345491767,0.00012852810323238373
1761916238336985600,2.712985595703125,0.0005634971894323826,0.0015688014682382345,0.0011566141620278358
1761916238347040800,2.723040771484375,0.0020071966573596,0.0007213837234303355,0.0010522184893488884
1761916238357095700,2.733095703125,0.001011996646411717,-0.002284254180267453,0.002494651824235916
1761916238367151600,2.743151611328125,0.00025166416889987886,-0.00053162791300565,0.0019782651215791702
1761916238377206800,2.753206787109375,0.000018786377040669322,-0.002240265253931284,-0.0005878116935491562
1761916238387261700,2.76326171875,0.0038771741092205048,-0.0019563722889870405,-0.001206197775900364
1761916238397316600,2.773316650390625,0.001901958603411913,-0.0013632624177262187,0.0005178321152925491
1761916238407372800,2.783372802734375,-0.001798237324692309,0.0009289203444495797,0.0009623132646083832
1761916238417427700,2.793427734375,0.0007145650452002883,0.0010270900093019009,-0.000017062760889530182
1761916238427482600,2.803482666015625,-0.0009842654690146446,0.00154800433665514,0.0007680365815758705
1761916238437537800,2.813537841796875,-0.0005455121281556785,0.0021525234915316105,0.0012472094967961311
1761916238447593700,2.82359375,0.0005378617788664997,-0.0017910853493958712,-0.0006593475118279457
1761916238457648600,2.833648681640625,-0.00003277178620919585,-0.002699346747249365,-0.0011544320732355118
1761916238467703600,2.84370361328125,-0.0009670087601989508,0.0013878063764423132,0.0017441529780626297
1761916238477758700,2.8537587890625,-0.0014697606675326824,0.00422555161640048,-0.0019200323149561882
1761916238487814700,2.863814697265625,-0.002947016153484583,-0.0004038211773149669,-0.0008065644651651382
1761916238497869800,2.873869873046875,-0.0006113991257734597,0.0019473462598398328,-0.0021406905725598335
1761916238507924700,2.8839248046875,-0.0011472271289676428,-0.0026764338836073875,-0.0006783492863178253
1761916238517979600,2.893979736328125,-0.00033281772630289197,0.0011124727316200733,0.0007995925843715668
1761916238528035600,2.90403564453125,0.0002120650460710749,0.00029035480110906065,0.00034232810139656067
1761916238538090800,2.9140908203125,-0.0007592068868689239,-0.0017665865598246455,-0.000986316241323948
1761916238548145700,2.924145751953125,-0.00036452634958550334,-0.002416397910565138,-0.0003764517605304718
1761916238558200600,2.93420068359375,-0.0011054577771574259,-0.0006878714775666595,0.0006523691117763519
1761916238568256500,2.944256591796875,-0.00015710614388808608,0.001274612033739686,0.00043665338307619095
1761916238578311700,2.954311767578125,-0.0012376515660434961,0.0008174724061973393,-0.0008195247501134872
1761916238588366800,2.964366943359375,0.0003498587175272405,0.0005181331653147936,-0.0020951787009835243
1761916238598421500,2.97442138671875,-0.002784166019409895,0.00043996592285111547,0.0038610249757766724
1761916238608477700,2.984477783203125,0.0019629185553640127,-0.0018154651625081897,-0.0011398587375879288
1761916238618532600,2.99453271484375,-0.001795128919184208,-0.0011633987305685878,-0.0008567618206143379
1761916238628587800,3.004587890625,-0.00039776827907189727,0.0012837800895795226,0.00021223071962594986
1761916238638643700,3.014643798828125,-0.0022744606249034405,0.0022835731506347656,0.0004495633766055107
1761916238648698600,3.02469873046875,-0.00039107303018681705,-0.0015961198369041085,0.00003437604755163193
1761916238658753500,3.03475341796875,0.001590025145560503,-0.0007982214447110891,-0.001247696578502655
1761916238668808700,3.04480859375,-0.0007090818253345788,0.0016726594185456634,0.00003221910446882248
1761916238678865200,3.054865234375,0.001766239176504314,-0.0007955518085509539,-0.0006913868710398674
1761916238688920300,3.06492041015625,0.0025734431110322475,-0.000695150694809854,-0.0031497515738010406
1761916238698975000,3.07497509765625,0.0009749449091032147,0.00034557038452476263,-0.0011422932147979736
1761916238709030100,3.085030029296875,0.00023245564079843462,-0.0005740190972574055,-0.0003265673294663429
1761916238719086000,3.095086181640625,0.001233298098668456,0.0006409770576283336,-0.001781064085662365
1761916238729141200,3.105141357421875,0.0004055876925121993,-0.002067724009975791,0.0001888759434223175
1761916238739196200,3.115196044921875,0.0010362300090491772,0.0007889381377026439,0.0007156897336244583
1761916238749251000,3.1252509765625,0.0008293024147860706,-0.0005261307815089822,-0.0008521135896444321
1761916238759307300,3.135307373046875,0.00028546512476168573,-0.001690482604317367,0.0005445294082164764
1761916238769362200,3.145362060546875,-0.0009678185451775789,0.003255540272220969,-0.0008496353402733803
1761916238779417000,3.1554169921875,0.00127418024931103,0.0012843520380556583,-0.0004784064367413521
1761916238789472000,3.165471923828125,-0.0031306880991905928,-0.0006794629152864218,0.0001405123621225357
1761916238799528200,3.175528076171875,0.0003962084010709077,0.0045579276047647,-0.0023556286469101906
1761916238809583000,3.1855830078125,0.0008689194801263511,0.0036332779563963413,-0.0003425450995564461
1761916238819638300,3.19563818359375,0.0014253569534048438,0.0006975191063247621,-0.00015462655574083328
1761916238829693200,3.205693115234375,-0.0007451192941516638,-0.001867637736722827,0.001753261312842369
1761916238839749000,3.2157490234375,0.0005157276755198836,-0.004194291308522224,-0.0011706333607435226
1761916238849804300,3.22580419921875,-0.0004669787304010242,0.0015075362753123045,0.000584922730922699
1761916238859859200,3.235859130859375,0.0009980227332562208,0.0018381739500910044,0.0017719632014632225
1761916238869914000,3.2459140625,0.0018124174093827605,0.00015265936963260174,0.0004342570900917053
1761916238879970000,3.255969970703125,-0.001659492845647037,-0.000569172203540802,-0.0012132041156291962
1761916238890025200,3.266025146484375,0.00008674192940816283,-0.0011721118353307247,0.001934918574988842
1761916238900080000,3.276080078125,0.002658614655956626,0.0031093782745301723,0.0009967200458049774
1761916238910135000,3.286135009765625,-0.0003832478541880846,-0.0012480858713388443,-0.0016155745834112167
1761916238920191000,3.29619091796875,0.0007047201506793499,-0.0015301508828997612,-0.0004770541563630104
1761916238930246100,3.30624609375,-0.0005110128549858928,0.000040581468056188896,0.0018955552950501442
1761916238940301000,3.316301025390625,-0.0016957849729806185,-0.0008615286787971854,-0.0007068607956171036
1761916238950356200,3.326356201171875,0.0006110452231951058,0.0016847195802256465,0.00028197094798088074
1761916238960412200,3.336412109375,-0.0003133109712507576,-0.00001649143814574927,-0.0005831876769661903
1761916238970467000,3.346467041015625,0.0001237137767020613,0.0004269249038770795,-0.0005661435425281525
1761916238980522200,3.356522216796875,0.0012756644282490015,0.0017583074513822794,0.000018262304365634918
1761916238990578200,3.366578125,-0.0007688443292863667,0.002824903465807438,0.0018822085112333298
1761916239000633300,3.37663330078125,0.0005959361442364752,0.001274761976674199,0.00018821470439434052
1761916239010688000,3.38668798828125,-0.0019148921128362417,0.001601531868800521,-0.0009063445031642914
1761916239020743200,3.3967431640625,0.00044284205068834126,0.0004803437041118741,-0.00047324225306510925
1761916239030799000,3.406799072265625,-0.00019445241196081042,-0.0010373917175456882,0.0013369079679250717
1761916239040854300,3.416854248046875,0.000678525713738054,0.00005354922905098647,0.0004572989419102669
1761916239050909000,3.426908935546875,0.0009935777634382248,0.0004327833594288677,0.0003222767263650894
1761916239060964000,3.436964111328125,-0.001045075012370944,-0.0009020194411277771,-0.0016716085374355316
1761916239071020000,3.44702001953125,0.0015507080825045705,-0.001387247466482222,0.0008810311555862427
1761916239081075200,3.4570751953125,0.0002636705758050084,0.0007647576276212931,-0.0023523662239313126
1761916239091130400,3.46713037109375,0.000017061858670786023,0.0011610360816121101,-0.0009680548682808876
1761916239101185000,3.47718505859375,0.0005992670194245875,-0.0012810523621737957,0.0003247661516070366
1761916239111241200,3.4872412109375,0.0010133886244148016,-0.0029593766666948795,-0.0027929963544011116
1761916239121296100,3.497296142578125,-0.00018076383275911212,0.0008119858102872968,-0.0028487760573625565
1761916239131351300,3.507351318359375,0.000020304840290918946,0.0012247757986187935,-0.0020173368975520134
1761916239141406000,3.517406005859375,-0.0006150681874714792,-0.0007682295981794596,-0.0009443480521440506
1761916239151462100,3.527462158203125,0.0002065169537672773,-0.0011871448950842023,-0.0018120063468813896
1761916239161517000,3.53751708984375,0.002589700510725379,0.00011214886035304517,0.002743109129369259
1761916239171572200,3.547572265625,0.0020554703660309315,0.0017718308372423053,0.0003595799207687378
1761916239181627100,3.557627197265625,-0.0007512827287428081,0.0010856731096282601,-0.00030624866485595703
1761916239191683000,3.56768310546875,0.00041305131162516773,0.0019227046286687255,0.00018723495304584503
1761916239201738200,3.57773828125,-0.0008656612480990589,0.001137369079515338,-0.0017163613811135292
1761916239211793200,3.587793212890625,0.00017536840459797531,-0.0008549417834728956,0.0002631666138768196
1761916239221848300,3.597848388671875,-0.0008668419905006886,-0.000020718336600111797,0.0004204725846648216
1761916239231904000,3.607904052734375,0.0011768678668886423,0.0018983554327860475,0.0001901090145111084
1761916239241959200,3.617959228515625,-0.0007659294060431421,0.0007459917687810957,-0.0010779127478599548
1761916239252014000,3.62801416015625,-0.00023223197786137462,0.001452262164093554,-0.0003426140174269676
1761916239262070300,3.6380703125,-0.0032714479602873325,-0.00021677164477296174,0.0006074300035834312
1761916239272125200,3.648125244140625,0.0002551100915297866,0.00035820482298731804,0.0006100926548242569
1761916239282180000,3.65818017578125,0.0019287547329440713,0.002700533950701356,-0.001192576251924038
1761916239292235300,3.6682353515625,-0.0007557115750387311,-0.0002630316885188222,0.0008583236485719681
1761916239302291200,3.678291259765625,-0.00014424894470721483,-0.002291260752826929,0.0013726446777582169
1761916239312346000,3.68834619140625,0.0012192896101623774,0.0037653001490980387,-0.0000462876632809639
1761916239322401000,3.698401123046875,-0.0007078610360622406,-0.0016949150012806058,-0.0010248180478811264
1761916239332456200,3.708456298828125,-0.002052757190540433,-0.000838442356325686,0.0007336670532822609
1761916239342512000,3.71851220703125,-0.0016661162953823805,-0.002309872768819332,-0.0024538133293390274
1761916239352567300,3.7285673828125,0.000016735255485400558,-0.000027809921448351815,-0.00012434646487236023
1761916239362622200,3.738622314453125,-0.00014286860823631287,0.0006375357042998075,0.0006090132519602776
1761916239372677000,3.748677001953125,0.00040787309990264475,-0.001959046348929405,-0.0001939292997121811
1761916239382733000,3.758733154296875,-0.00023885219707153738,-0.003061039140447974,0.0006611943244934082
1761916239392788200,3.768788330078125,0.0027220500633120537,-0.0007914933958090842,0.00015572644770145416
1761916239402843100,3.778843017578125,0.0008251068065874279,0.0002974381495732814,-0.000628485344350338
1761916239412898000,3.78889794921875,0.0014794454909861088,-0.0016293588560074568,0.0002937670797109604
1761916239422954000,3.7989541015625,-0.0008785148966126144,-0.0015866635367274284,0.0019372375681996346
1761916239433009200,3.809009033203125,0.0009068682556971908,0.0003510525275487453,0.00014333240687847137
1761916239443064300,3.819064208984375,-0.0008060740074142814,0.001286244485527277,0.00008869823068380356
1761916239453119000,3.829118896484375,0.0008663911139592528,-0.0011548090260475874,0.000023717060685157776
1761916239463175200,3.839175048828125,0.0022838935256004333,-0.0007937276386655867,0.0023575378581881523
1761916239473230000,3.84922998046875,0.000027130707167088985,-0.0024851011112332344,-0.00021986942738294601
1761916239483285200,3.85928515625,-0.0004993283655494452,-0.001630398677662015,-0.002821335569024086
1761916239493340200,3.869340087890625,-0.0000274162448477,0.0015006798785179853,-0.000450856052339077
1761916239503396000,3.87939599609375,-0.0012136598816141486,0.0017947350861504674,-0.0006294054910540581
1761916239513451000,3.889450927734375,0.0002665249921847135,0.002123369136825204,-0.0005572335794568062
1761916239523506200,3.899506103515625,0.0028234568890184164,-0.003229972906410694,0.0002696812152862549
1761916239533561300,3.909561279296875,0.0006212890148162842,0.001122164772823453,-0.0006597619503736496
1761916239543617300,3.9196171875,-0.0012177068274468184,0.00219332636334002,0.0011566365137696266
1761916239553672200,3.929672119140625,-0.0013165100244805217,0.0007935689645819366,-0.001909993588924408
1761916239563727000,3.93972705078125,-0.0003203913220204413,-0.0016089328564703465,-0.00013000797480344772
1761916239573783000,3.949782958984375,-0.0009872468654066324,-0.001295212423428893,-0.00020750612020492554
1761916239583838200,3.959838134765625,-0.0019704243168234825,0.0016505572712048888,-0.0007423348724842072
1761916239593893000,3.96989306640625,0.0006679693469777703,0.0027315341867506504,0.0011477107182145119
1761916239603948000,3.979947998046875,0.00027366538415662944,0.0016616263892501593,-0.00004351697862148285
1761916239614004200,3.990004150390625,-0.0007372705731540918,0.0005857093492522836,0.0015850057825446129
1761916239624056000,4.00005615234375,-0.0003194205928593874,0.002175616566091776,-0.00007707253098487854
1761916239634111200,4.010111328125,-0.000007455091690644622,0.0014123935252428055,-0.0003356887027621269
1761916239644167200,4.020167236328125,0.0019398943986743689,-0.0036589738447219133,0.0006891833618283272
1761916239654222300,4.030222412109375,-0.00019675970543175936,-0.0018022180302068591,-0.0009113764390349388
1761916239664277000,4.040277099609375,0.0026004291139543056,-0.00021308191935531795,0.0007076850160956383
1761916239674332200,4.050332275390625,0.0014536718372255564,-0.0009094985434785485,-0.0009024618193507195
1761916239684391700,4.0603916015625,0.00008050297037698328,0.001212695729918778,-0.00010520219802856445
1761916239694446800,4.07044677734375,-0.0009280361700803041,-0.00035350926918908954,0.0007254378870129585
1761916239704501800,4.080501708984375,0.0000035211851354688406,0.0010477604810148478,-0.0006136912852525711
1761916239714556700,4.090556640625,-0.0007339081494137645,-0.0006310962489806116,-0.0014893384650349617
1761916239724612600,4.100612548828125,-0.0005497504607774317,0.0002127142361132428,0.002141566015779972
1761916239734667800,4.110667724609375,-0.0015156790614128113,-0.0021204811055213213,-0.00042758509516716003
1761916239744723000,4.120722900390625,-0.0009801810374483466,-0.0002893409691751003,0.0009447718039155006
1761916239754777600,4.130777587890625,0.0017980285920202732,0.00019135959155391902,0.0005753915756940842
1761916239764833800,4.140833740234375,0.00003710153396241367,0.0007474730955436826,0.002442452125251293
1761916239774888700,4.150888671875,0.0016392592806369066,-0.0014773316215723753,0.001917809247970581
1761916239784943900,4.16094384765625,0.00034534072619862854,0.0006888250354677439,0.001261579804122448
1761916239794999800,4.170999755859375,-0.0001974114857148379,-0.0033381409011781216,0.0013329526409506798
1761916239805054700,4.1810546875,0.0010711717186495662,0.00040861181332729757,0.0011055637151002884
1761916239815109600,4.191109619140625,0.0012525329366326332,-0.000856123398989439,-0.0007599806413054466
1761916239825164800,4.201164794921875,-0.0009663327946327627,-0.0012975308345630765,0.00023125763982534409
1761916239835220700,4.211220703125,0.0005474078934639692,-0.001468772068619728,0.00006214715540409088
1761916239845276000,4.22127587890625,0.0008040615357458591,-0.00030279491329565644,-0.0006402861326932907
1761916239855330800,4.231330810546875,0.0009721069945953786,-0.0022120149806141853,0.0009501539170742035
1761916239865385700,4.2413857421875,-0.0019309369381517172,0.001063789241015911,0.00020307954400777817
1761916239875441700,4.251441650390625,-0.0009165388764813542,0.0001982619724003598,-0.004199924413114786
1761916239885496800,4.261496826171875,0.0019912924617528915,0.0024128162767738104,0.0005725240334868431
1761916239895551700,4.2715517578125,-0.00024576293071731925,0.0027105577755719423,-0.00023441296070814133
1761916239905606700,4.281606689453125,-0.0003035646222997457,0.0006421359721571207,-0.0006655706092715263
1761916239915662800,4.291662841796875,-0.0015203629154711962,-0.0020721578039228916,-0.00028606969863176346
1761916239925717800,4.3017177734375,0.0016266237944364548,-0.002594646764919162,0.00019757263362407684
1761916239935772700,4.311772705078125,0.0003238053759559989,-0.000672643247526139,0.001629021018743515
1761916239945827800,4.321827880859375,0.0033886716701090336,-0.000041703991882968694,-0.000719316303730011
1761916239955883800,4.3318837890625,-0.0014905056450515985,0.002200943883508444,-0.00011957250535488129
1761916239965938700,4.341938720703125,0.00012642763613257557,0.0008011549944058061,-0.0019736317917704582
1761916239975993900,4.351993896484375,-0.0009092757245525718,0.0008237918373197317,0.0011710282415151596
1761916239986048800,4.362048828125,-0.0017625631298869848,0.0026738427113741636,0.0016048811376094818
1761916239996104700,4.372104736328125,0.0008081862470135093,-0.001022624783217907,0.000885828398168087
1761916240006160000,4.382159912109375,-0.0000075754651334136724,-0.0008257831213995814,0.001450899988412857
1761916240016214800,4.39221484375,0.0005002893740311265,-0.00048250166582874954,-0.0003557885065674782
1761916240026269700,4.402269775390625,0.00034273945493623614,-0.0012019777204841375,0.0003095204010605812
1761916240036325600,4.41232568359375,-0.0007747229537926614,-0.001114093465730548,0.0006432142108678818
1761916240046380800,4.422380859375,-0.000059028505347669125,0.0006551353726536036,-0.002191433683037758
1761916240056435700,4.432435791015625,-0.0006984533974900842,0.0012751191388815641,-0.0010832920670509338
1761916240066492000,4.442491943359375,0.0015214058803394437,0.0021402165293693542,0.0028717657551169395
1761916240076546600,4.452546630859375,0.0008050155593082309,-0.0024265721440315247,-0.00017595570534467697
1761916240086601700,4.462601806640625,0.0010585269192233682,0.0008604940376244485,0.000007310882210731506
1761916240096657000,4.472656982421875,-0.0027828167658299208,0.0009537046425975859,-0.0002025458961725235
1761916240106712800,4.482712890625,0.0006453316891565919,0.0018011460779234767,0.00033889804035425186
1761916240116768000,4.49276806640625,-0.0007983678951859474,0.0013500065542757511,-0.0008744383230805397
1761916240126822700,4.50282275390625,-0.0018385007278993726,-0.001550548360683024,-0.0005569374188780785
1761916240136877800,4.5128779296875,-0.0016353015089407563,0.00018929477664642036,0.0012201899662613869
1761916240146933800,4.522933837890625,0.001258247415535152,-0.0004694461531471461,0.00018548127263784409
1761916240156989000,4.532989013671875,-0.0016909372061491013,0.0017436407506465912,-0.0021588988602161407
1761916240167043600,4.543043701171875,-0.00007926093530841172,-0.0010539243230596185,0.001965590752661228
1761916240177098800,4.5530986328125,-0.0008638282306492329,-0.0016866914229467511,-0.0007827915251255035
1761916240187154700,4.56315478515625,0.000001033884473145008,-0.0013979410286992788,-0.0005217138677835464
1761916240197209900,4.5732099609375,0.0002513710060156882,-0.0014392200391739607,-0.001469266600906849
1761916240207264800,4.5832646484375,0.0006776119116693735,0.0011457025539129972,0.0015223976224660873
1761916240217319700,4.593319580078125,0.0008597721462137997,0.0016128210118040442,-0.001019056886434555
1761916240227375900,4.6033759765625,-0.0009949441300705075,-0.0011810145806521177,0.0008211871609091759
1761916240237430800,4.6134306640625,0.003049864899367094,-0.0015557212755084038,-0.000981239601969719
1761916240247486000,4.62348583984375,-0.0006573643768206239,-0.0004481140058487654,0.0013452153652906418
1761916240257540600,4.63354052734375,0.0009583755163475871,-0.002689163899049163,-0.0022465893998742104
1761916240267596800,4.6435966796875,-0.00008420215453952551,0.0012171212583780289,0.00042748358100652695
1761916240277651700,4.653651611328125,0.00032672358793206513,0.00021231052232906222,0.001204594038426876
1761916240287707000,4.663706787109375,-0.0017667632782831788,-0.0007299416465684772,0.0013333521783351898
1761916240297761800,4.67376171875,0.0016426155343651772,-0.001384014030918479,-0.001986810937523842
1761916240307817700,4.683817626953125,-0.00011745293159037828,-0.0011759974295273423,0.00034034159034490585
1761916240317872600,4.69387255859375,0.001094019040465355,-0.0013815934071317315,-0.001843184232711792
1761916240327927800,4.703927734375,-0.0030821075197309256,0.002729946281760931,-0.0005304226651787758
1761916240337983700,4.713983642578125,-0.0006439834833145142,-0.0006482736789621413,-0.0015078028663992882
1761916240348038700,4.72403857421875,-0.00005366592085920274,-0.0015572720440104604,-0.0011565014719963074
1761916240358093800,4.73409375,-0.00000972376437857747,-0.0025969701819121838,-0.0006859209388494492
1761916240368148700,4.744148681640625,-0.0007023911457508802,-0.0016567648854106665,0.0018077660351991653
1761916240378205000,4.754204833984375,0.00007711607031524181,0.0023478304501622915,-0.001692160964012146
1761916240388259800,4.764259765625,-0.0010069343261420727,0.002148260362446308,-0.0007393965497612953
1761916240398314800,4.774314697265625,-0.0015116033609956503,-0.0023183932062238455,0.0004214756190776825
1761916240408369700,4.78436962890625,-0.00040103713399730623,0.0046524778008461,-0.0020547769963741302
1761916240418425900,4.79442578125,-0.0006463142344728112,-0.0010181909892708063,0.00007868092507123947
1761916240428480800,4.804480712890625,-0.00018886037287302315,-0.0011402351083233953,0.0009395908564329147
1761916240438535700,4.81453564453125,0.00039410562021657825,0.00017137164832092822,-0.0017217062413692474
1761916240448590800,4.8245908203125,0.00041929871076717973,0.0006330609321594238,-0.0005474025383591652
1761916240458646800,4.834646728515625,0.0007631127955392003,-0.001630626036785543,-0.0009010704234242439
1761916240468702000,4.844701904296875,-0.0011985916644334793,0.00037124924710951746,0.0007892055436968803
1761916240478756600,4.854756591796875,0.0014637705171480775,0.0003494113334454596,0.00010610464960336685
1761916240488811800,4.864811767578125,0.0008949671173468232,-0.0001993051264435053,0.00005151890218257904
1761916240498867700,4.87486767578125,0.002974096918478608,-0.0020645831245929003,-0.0007176026701927185
1761916240508923000,4.8849228515625,0.0009707295685075223,-0.00011072734196204692,0.0012928405776619911
1761916240518977800,4.894977783203125,-0.000015971600078046322,0.00004107283893972635,0.0007458273321390152
1761916240529032700,4.90503271484375,0.0005367581616155803,0.001547458115965128,-0.0010988805443048477
1761916240539088600,4.915088623046875,-0.0028814091347157955,0.0007133561884984374,-0.0016799820587038994
1761916240549143800,4.925143798828125,0.0015623803483322263,0.001902532298117876,0.0024140365421772003
1761916240559199000,4.935198974609375,-0.00030529461218975484,0.0000638858909951523,0.00044329743832349777
1761916240569255000,4.9452548828125,0.0009107484365813434,-0.0010901375208050013,-0.002010561525821686
1761916240579309800,4.955309814453125,0.0006095449207350612,0.00040655891643837094,-0.00011119432747364044
1761916240589364700,4.96536474609375,0.0011769392294809222,0.00047732319217175245,0.0025318795815110207
1761916240599420000,4.975419921875,-0.0015866230241954327,-0.0004353421099949628,0.00015926919877529144
1761916240609475800,4.985475830078125,-0.0009914478287100792,-0.0016888657119125128,0.0001898752525448799
1761916240619530800,4.99553076171875,-0.0005331178545020521,0.0008773563895374537,0.0013608671724796295
1761916240629585700,5.005585693359375,0.0004993590991944075,-0.00036030192859470844,0.0016457661986351013
1761916240639640800,5.015640869140625,-0.002432781271636486,0.0002863135887309909,-0.0004354948177933693
1761916240649696800,5.02569677734375,0.0024826854933053255,-0.0009654886089265347,0.0007141930982470512
1761916240659751700,5.035751708984375,-0.0012446746695786715,0.0011791549623012543,-0.0009156614542007446
1761916240669806600,5.045806640625,-0.00014142427244223654,0.0032618469558656216,0.0017673447728157043
1761916240679858000,5.05585791015625,-0.0001392937556374818,0.0025696915108710527,0.00282461941242218
1761916240689914000,5.0659140625,0.0006491326494142413,0.002411629306152463,0.0023996997624635696
1761916240699969000,5.075968994140625,0.000014501361874863505,0.0007431588601320982,-0.00028849486261606216
1761916240710024200,5.086024169921875,0.0014110358897596598,-0.0019240104593336582,0.00018457602709531784
1761916240720078800,5.096078857421875,0.0006554971332661808,-0.0009855125099420547,-0.0011770986020565033
1761916240730135000,5.106135009765625,-0.0009741390822455287,-0.001046924153342843,-0.0019130092114210129
1761916240740190000,5.11618994140625,-0.00003857063711620867,0.000134187750518322,-0.0009308354929089546
1761916240750245000,5.1262451171875,-0.0005954881780780852,-0.0014393700985237956,-0.002840188331902027
1761916240760300000,5.136300048828125,-0.0008458252996206284,0.002514359075576067,-0.0026252707466483116
1761916240770356000,5.14635595703125,0.0015457458794116974,0.0006168704712763429,0.00046963151544332504
1761916240780411000,5.156410888671875,-0.0021509877406060696,0.00045708080870099366,0.0009370166808366776
1761916240790466000,5.166466064453125,-0.003217858262360096,-0.0014231180539354682,0.0004641478881239891
1761916240800521200,5.176521240234375,0.0007987214485183358,0.0024389983154833317,0.001288662664592266
1761916240810577000,5.186576904296875,0.0005545918829739094,0.0001793113915482536,0.00022635795176029205
1761916240820632000,5.196632080078125,-0.0005450273165479302,0.0025476603768765926,-0.0004261163994669914
1761916240830687000,5.20668701171875,-0.0011309566907584667,-0.0024793685879558325,-0.000035655684769153595
1761916240840742100,5.2167421875,-0.0007645057048648596,0.0025191183667629957,-0.0008196905255317688
1761916240850798000,5.226798095703125,-0.00011659495066851377,0.0014966828748583794,-0.0011921366676688194
1761916240860853000,5.23685302734375,-0.00033657209132798016,-0.000275917089311406,-0.0010784193873405457
1761916240870908000,5.246907958984375,0.0004532115999609232,-0.0011273579439148307,0.0008133649826049805
1761916240880963000,5.256963134765625,0.000985044869594276,0.0011200837325304747,0.000906309112906456
1761916240891019000,5.26701904296875,0.00002004177076742053,-0.00015712439198978245,-0.0019930778071284294
1761916240901074000,5.277073974609375,-0.0041541969403624535,-0.00040106993401423097,-0.000009022653102874756
1761916240911129000,5.287129150390625,-0.0006360135157592595,-0.001471250900067389,0.0004945499822497368
1761916240921185000,5.29718505859375,-0.0014357607578858733,-0.0002738935872912407,-0.00006711110472679138
1761916240931240200,5.307240234375,0.00007087331323418766,-0.0003044332261197269,0.0015409225597977638
1761916240941294800,5.317294921875,0.0018059227149933577,-0.0017169738421216607,0.0019955234602093697
1761916240951350000,5.32735009765625,-0.003436766564846039,0.0010436925804242492,0.0007371501997113228
1761916240961406000,5.337406005859375,-0.0007645506411790848,-0.0022591599263250828,-0.002065028063952923
1761916240971461000,5.347461181640625,0.001023678807541728,-0.00042955641401931643,0.000030277296900749207
1761916240981516000,5.35751611328125,-0.0016013991553336382,-0.001844227546826005,0.0004979288205504417
1761916240991571000,5.367571044921875,-0.0028417780995368958,0.0025739502161741257,0.0020224377512931824
1761916241001627000,5.377626953125,0.0022967911791056395,-0.0011182562448084354,0.0017388109117746353
1761916241011682000,5.38768212890625,0.000959094671998173,0.002654080977663398,0.0006494661793112755
1761916241021737200,5.3977373046875,0.0013348667416721582,-0.0009715466876514256,0.0006326884031295776
1761916241031791900,5.4077919921875,0.0007131056627258658,0.0002825648116413504,0.0008377330377697945
1761916241041848000,5.41784814453125,-0.0001297848066315055,0.00040080916369333863,-0.000037647783756256104
1761916241051903000,5.427903076171875,0.001546791521832347,-0.0005264061037451029,0.0005848901346325874
1761916241061958100,5.437958251953125,0.000059948681155219674,-0.0007522421656176448,0.0013444237411022186
1761916241072013000,5.448012939453125,-0.0017087424639612436,0.000759213522542268,0.001981450244784355
1761916241082069000,5.458069091796875,0.0003581368364393711,0.0024947954807430506,0.0007936805486679077
1761916241092124000,5.4681240234375,0.0016870221588760614,0.000387206906452775,0.0002728700637817383
1761916241102179000,5.478178955078125,-0.002679230412468314,-0.0013736751861870289,-0.0006653610616922379
1761916241112234200,5.488234130859375,0.00025793848908506334,-0.0016101382207125425,-0.0007429337128996849
1761916241122290200,5.498290283203125,-0.0015197214670479298,0.00034408929059281945,0.0014547063037753105
1761916241132345000,5.508344970703125,-0.0017578669358044863,0.0005014593480154872,-0.00022494234144687653
1761916241142400000,5.51839990234375,0.0009553615818731487,0.001663662726059556,-0.0016009975224733353
1761916241152455200,5.528455078125,-0.0007807540823705494,-0.00034123496152460575,0.001021149568259716
1761916241162511000,5.538510986328125,0.0007534930482506752,0.002494232729077339,-0.001392473466694355
1761916241172566000,5.54856591796875,0.0011951221385970712,0.0012795515358448029,0.001651206985116005
1761916241182621000,5.558620849609375,0.00141776236705482,-0.0005058316164650023,0.0016112597659230232
1761916241192676000,5.568676025390625,-0.001789522124454379,0.0037761330604553223,0.00024878326803445816
1761916241202732000,5.57873193359375,0.002883792854845524,-0.001981354784220457,-0.00011207535862922668
1761916241212787000,5.588786865234375,0.0004545153060462326,-0.0028917458839714527,0.00040805432945489883
1761916241222841900,5.598841796875,0.0007194998324848711,-0.0014725474175065756,-0.0007541486993432045
1761916241232897000,5.60889697265625,0.00006918571307323873,0.002614438533782959,0.0005790367722511292
1761916241242953000,5.618952880859375,0.0007176654180511832,0.00024875253438949585,0.002466951496899128
1761916241253008100,5.629008056640625,0.0020715731661766768,-0.0021888171322643757,0.0005165794864296913
1761916241263063000,5.63906298828125,0.0010566425044089556,0.001357448287308216,0.0006830263882875443
1761916241273119000,5.649118896484375,0.0011393479071557522,-0.0002986758481711149,-0.0009640520438551903
1761916241283174100,5.659174072265625,-0.0008321902132593095,0.0002853553742170334,0.00026845838874578476
1761916241293229000,5.66922900390625,0.0009807427413761616,-0.0017549069598317146,0.00014171656221151352
1761916241303284000,5.679283935546875,0.002695818431675434,0.00036070827627554536,-0.00023272354155778885
1761916241313340000,5.68933984375,-0.0015695106703788042,-0.0011341084027662873,-0.002455652691423893
1761916241323395000,5.69939501953125,0.0015716878697276115,0.00010000035399571061,0.0006258916109800339
1761916241333450000,5.709449951171875,-0.0010811532847583294,-0.0015743519179522991,0.0022771265357732773
1761916241343505000,5.7195048828125,-0.00009764780406840146,-0.0033094012178480625,-0.002828420139849186
1761916241353560800,5.729560791015625,0.001031282590702176,-0.0011593119706958532,-0.0021348921582102776
1761916241363616000,5.739615966796875,-0.0003096190048381686,0.0027640569023787975,-0.0011535165831446648
1761916241373671200,5.749671142578125,-0.0005259063327684999,0.001975972903892398,0.002031821757555008
1761916241383726000,5.75972607421875,0.00015346605505328625,0.0007136345375329256,-0.0005855327472090721
1761916241393782000,5.769781982421875,-0.0011648702202364802,0.0004886044189333916,-0.0005836794152855873
1761916241403837000,5.7798369140625,-0.000055397278629243374,0.0014888877049088478,-0.0028766607865691185
1761916241413892000,5.78989208984375,0.0018990312237292528,0.00011763256770791486,0.00040738005191087723
1761916241423947000,5.799947021484375,0.0010854355059564114,0.0017032786272466183,0.0006683692336082458
1761916241434003200,5.810003173828125,-0.0007348087383434176,-0.003190991235896945,-0.00013039354234933853
1761916241444057900,5.820057861328125,-0.00021069872309453785,-0.0003888131759595126,0.001034473069012165
1761916241454113000,5.830113037109375,0.0008538322290405631,0.0001896609173854813,0.00011647213250398636
1761916241464168200,5.840168212890625,-0.0020189196802675724,0.0007491910364478827,-0.0008747559040784836
1761916241474224000,5.85022412109375,-0.0006754316855221987,0.0005838035140186548,0.000682012178003788
1761916241484279000,5.860279052734375,-0.0006485337507911026,0.0002895242359954864,0.002354743890464306
1761916241494334000,5.870333984375,-0.00008270077523775399,-0.003558509750291705,0.0025166524574160576
1761916241504389000,5.88038916015625,0.0013484819792211056,0.0002506095333956182,0.0006353948265314102
1761916241514445000,5.890445068359375,-0.0003808057517744601,0.0027766283601522446,0.0013979263603687286
1761916241524500200,5.900500244140625,-0.0017744379583746195,0.0009052249952219427,0.0011414643377065659
1761916241534555000,5.910554931640625,-0.000023583386791869998,-0.0027125936467200518,0.003929522819817066
1761916241544610000,5.920610107421875,0.0009138493333011866,-0.0018007272155955434,-0.000005563721060752869
1761916241554666000,5.930666015625,0.002251572208479047,0.00011418465874157846,0.0012478968128561974
1761916241564721200,5.94072119140625,0.0024643586948513985,-0.00003628393460530788,-0.0007127225399017334
1761916241574775800,5.95077587890625,-0.0014065983705222607,-0.0010698344558477402,-0.00042438413947820663
1761916241584831000,5.9608310546875,-0.001434561563655734,-0.0009167028474621475,-0.0011152075603604317
1761916241594887000,5.970886962890625,-0.0005176892736926675,0.0035519376397132874,0.00007762666791677475
1761916241604942000,5.980942138671875,-0.000015683413948863745,0.0026326142251491547,-0.0005151927471160889
1761916241614997000,5.9909970703125,-0.00421933876350522,-0.000619696918874979,0.001870483160018921
1761916241625052000,6.001052001953125,0.0017674469854682684,0.0005662086186930537,0.002979690209031105
1761916241635108000,6.011108154296875,0.0018750454764813185,-0.0013077899347990751,-0.0008281394839286804
1761916241645163000,6.0211630859375,0.0016342956805601716,-0.0005844753468409181,-0.000638788565993309
1761916241655218200,6.03121826171875,0.0016067096730694175,0.0001949563156813383,-0.0011441027745604515
1761916241665273900,6.04127392578125,0.0004676756798289716,0.0014098904794082046,0.0012530088424682617
1761916241675329000,6.0513291015625,0.0010701599530875683,-0.00037655222695320845,0.0010543111711740494
1761916241685387300,6.06138720703125,-0.002548543270677328,-0.0036967152263969183,0.0005315318703651428
1761916241695442400,6.0714423828125,-0.0009487290517427027,0.000195122673176229,0.000019609928131103516
1761916241705498400,6.081498291015625,-0.00038866634713485837,-0.0012784043792635202,-0.0016576489433646202
1761916241715553300,6.09155322265625,-0.0007719702553004026,-0.0004745158366858959,0.0009041018784046173
1761916241725608400,6.1016083984375,0.0009481654851697385,-0.0001978134096134454,-0.000584072433412075
1761916241735663400,6.111663330078125,-0.0002479790127836168,0.0006910398369655013,0.0024101464077830315
1761916241745719600,6.121719482421875,0.0003477701102383435,0.0013584280386567116,-0.00035315006971359253
1761916241755774500,6.1317744140625,-0.0010053794831037521,0.00174488197080791,-0.0011422205716371536
1761916241765829400,6.141829345703125,-0.0002647543733473867,-0.001096178195439279,-0.0012183869257569313
1761916241775884300,6.15188427734375,-0.00035390385892242193,0.00039876351365819573,-0.001281491480767727
1761916241785940500,6.1619404296875,0.0014242888428270817,0.0009545652428641915,0.0015164250507950783
1761916241795995400,6.171995361328125,0.00021704351820517331,-0.0007142338436096907,0.00026358943432569504
1761916241806050300,6.18205029296875,-0.0019829939119517803,-0.00045084720477461815,-0.000048533082008361816
1761916241816105500,6.19210546875,-0.001514015719294548,-0.0003112607810180634,0.001150195486843586
1761916241826161400,6.202161376953125,0.0003209022106602788,-0.0012550849933177233,-0.0008447784930467606
1761916241836216600,6.212216552734375,-0.001550603425130248,0.0005683806957677007,-0.0017190547659993172
1761916241846271500,6.222271484375,-0.0007290182984434068,0.002384123858064413,-0.003267415799200535
1761916241856326400,6.232326416015625,0.0005175158730708063,0.0003022973542101681,-0.0003960980102419853
1761916241866382300,6.24238232421875,0.000873846816830337,0.0017499917885288596,0.0014651846140623093
1761916241876437500,6.2524375,-0.0008336212486028671,0.002412826055660844,0.0021311966702342033
1761916241886492400,6.262492431640625,0.00009049568325281143,-0.0002460739342495799,-0.0015274537727236748
1761916241896547300,6.27254736328125,-0.00010753041715361178,0.000041169856558553874,-0.0008631367236375809
1761916241906603300,6.282603271484375,0.0001324204058619216,-0.0017463439144194126,0.0023158779367804527
1761916241916658400,6.292658447265625,0.0009927336359396577,0.0007751574739813805,-0.0021667517721652985
1761916241926713300,6.30271337890625,-0.0009337970986962318,0.0009434692328795791,0.0013185273855924606
1761916241936768300,6.312768310546875,-0.00011858929065056145,-0.004688394721597433,0.0010442249476909637
1761916241946824200,6.32282421875,0.0005365483229979873,0.0011218236759305,-0.00029241573065519333
1761916241956879400,6.33287939453125,0.0014715793076902628,0.0020776756573468447,-0.002069484442472458
1761916241966934500,6.3429345703125,-0.0011239373125135899,0.0006219918723218143,-0.002852986566722393
1761916241976989400,6.352989501953125,-0.0010526195401325822,-0.0007318302523344755,-0.0019921800121665
1761916241987045400,6.36304541015625,-0.0017999025294557214,-0.0002937402459792793,0.0012563439086079597
1761916241997100300,6.373100341796875,-0.0013192824553698301,0.002630384871736169,-0.0004163263365626335
1761916242007155500,6.383155517578125,0.0012581248302012682,-0.0029816944152116776,-0.0017814626917243004
1761916242017210400,6.39321044921875,0.00030988833168521523,-0.00022904001525603235,0.002587604336440563
1761916242027266600,6.4032666015625,-0.0006640296778641641,0.0015640663914382458,0.0011412408202886581
1761916242037321200,6.4133212890625,0.0013354918919503689,-0.0007689110352657735,-0.0012304149568080902
1761916242047376400,6.42337646484375,-0.000904492917470634,0.00040607567643746734,-0.003640575800091028
1761916242057431600,6.433431640625,-0.0006007259944453835,0.003219825215637684,0.0018567470833659172
1761916242067487500,6.443487548828125,-0.00035464990651234984,0.0001625162549316883,-0.0006958935409784317
1761916242077542400,6.45354248046875,0.00001907980185933411,0.0003925490891560912,-0.0015786457806825638
1761916242087597300,6.463597412109375,0.0007546448614448309,0.0018514286493882537,0.0007438967004418373
1761916242097653500,6.473653564453125,-0.0006061711465008557,0.002884824760258198,-0.00003291945904493332
1761916242107708400,6.48370849609375,-0.0005800721701234579,0.0002323162480024621,-0.000848645344376564
1761916242117763300,6.493763427734375,-0.003013620153069496,0.00009079086885321885,0.002266906201839447
1761916242127818200,6.503818359375,0.0016296012327075005,-0.001255437033250928,0.0003433050587773323
1761916242137874400,6.51387451171875,-0.0005469640018418431,-0.0002844230330083519,-0.00010065548121929169
1761916242147929300,6.523929443359375,0.00048474461073055863,-0.0010157270589843392,0.0014559617266058922
1761916242157984500,6.533984619140625,0.0021251915022730827,-0.0003166125388815999,0.0018043192103505135
1761916242168039400,6.544039306640625,0.0017230543307960033,0.0015116475988179445,-0.001007712446153164
1761916242178095400,6.554095458984375,-0.0020072050392627716,0.0007189062889665365,0.0016365842893719673
1761916242188150500,6.564150634765625,0.00025435138377361,-0.0007916386239230633,0.00008902139961719513
1761916242198205400,6.574205322265625,-0.0020366760436445475,0.0017496974905952811,-0.00025394000113010406
1761916242208260400,6.58426025390625,0.00019159098155796528,0.0007728500058874488,-0.0010156035423278809
1761916242218316300,6.59431640625,0.001020290656015277,0.00039751757867634296,0.001513647846877575
1761916242228371500,6.604371337890625,0.0017699705203995109,-0.0007569627487100661,0.0009959293529391289
1761916242238426400,6.61442626953125,0.001994179328903556,0.0032990770414471626,-0.0009091990068554878
1761916242248481500,6.6244814453125,0.0013803206384181976,-0.000028809226932935417,-0.0003885515034198761
1761916242258537200,6.634537109375,0.0007677265675738454,-0.000083829669165425,0.00009777117520570755
1761916242268592400,6.64459228515625,0.001346431439742446,-0.0007203251589089632,-0.00026894640177488327
1761916242278647300,6.654647216796875,0.0012382096610963345,-0.0009313292102888227,-0.0010200003162026405
1761916242288702500,6.664702392578125,0.001549266860820353,-0.0007409132667817175,0.0016253171488642693
1761916242298758400,6.67475830078125,-0.0006498834118247032,0.0008378467173315585,0.0014883894473314285
1761916242308813300,6.684813232421875,-0.0012759926030412316,0.00033157982397824526,0.0005661370232701302
1761916242318868500,6.694868408203125,0.001853371737524867,-0.0020402059890329838,-0.000014980323612689972
1761916242328923400,6.70492333984375,0.00022831078968010843,0.00014118912804406136,0.000815659761428833
1761916242338979600,6.7149794921875,0.00015452579827979207,0.0009353002533316612,-0.0008431542664766312
1761916242349034200,6.7250341796875,-0.0019802639726549387,-0.002052233787253499,0.0012479601427912712
1761916242359089400,6.73508935546875,0.0010281491558998823,-0.0013819910818710923,-0.0044693732634186745
1761916242369144300,6.745144287109375,-0.0003140841145068407,-0.0009609452681615949,-0.00048288796097040176
1761916242379200500,6.755200439453125,0.0007956541376188397,0.0017652962123975158,-0.0001366371288895607
1761916242389255200,6.765255126953125,0.0008606353076174855,0.0012715461198240519,0.0010798946022987366
1761916242399310300,6.775310302734375,-0.0017479738453403115,0.002703174715861678,0.0017502447590231895
1761916242409365500,6.785365478515625,0.0010827002115547657,-0.000498743902426213,0.000695900060236454
1761916242419421400,6.79542138671875,-0.00017274956917390227,-0.0014622354647144675,0.0010957447811961174
1761916242429476600,6.8054765625,0.001077604596503079,-0.0011250792304053903,-0.0003396989777684212
1761916242439531300,6.81553125,0.002336667152121663,0.00034717569360509515,0.001617620699107647
1761916242449586400,6.82558642578125,0.0017739410977810621,0.0002643513726070523,-0.0005597798153758049
1761916242459642400,6.835642333984375,-0.0005226732464507222,-0.0008521809941157699,-0.002120617777109146
1761916242469697500,6.845697509765625,0.0001513728202553466,0.0025918190367519855,-0.00009368639439344406
1761916242479752200,6.855752197265625,-0.0011624062899500132,0.0023940864484757185,-0.00009530037641525269
1761916242489807400,6.865807373046875,-0.0003938179579563439,0.0008345392998307943,-0.00020981580018997192
1761916242499863300,6.87586328125,-0.0007856271113269031,0.002361397724598646,0.001843973994255066
1761916242509918500,6.88591845703125,0.00211295741610229,-0.00018298639042768627,-0.00044368114322423935
1761916242519973400,6.895973388671875,-0.0012750453315675259,0.0017304116627201438,0.002781849354505539
1761916242530028300,6.9060283203125,0.0020073007326573133,-0.0008978620171546936,0.0025946293026208878
1761916242540084500,6.91608447265625,0.0006825381424278021,-0.0021954230032861233,0.00022762734442949295
1761916242550139400,6.926139404296875,-0.0017159045673906803,-0.002455880166962743,0.0006364220753312111
1761916242560194600,6.936194580078125,0.0016845171339809895,0.0011321224737912416,-0.0001939358189702034
1761916242570249200,6.946249267578125,0.0008347023976966739,0.000770465238019824,-0.0008139191195368767
1761916242580305400,6.956305419921875,0.001004904042929411,-0.0003318428061902523,-0.0004937192425131798
1761916242590360300,6.9663603515625,0.0019764252938330173,0.0008932113414630294,-0.001241002231836319
1761916242600415500,6.97641552734375,0.00019422105106059462,-0.0009751421166583896,-0.0011509591713547707
1761916242610470400,6.986470458984375,0.0003297759685665369,0.001180686871521175,-0.0014324551448225975
1761916242620526300,6.9965263671875,-0.00012716103810817003,0.000624466803856194,0.0008021919056773186
1761916242630581500,7.00658154296875,0.0005564723978750408,0.00038691284134984016,0.0012828921899199486
1761916242640636400,7.016636474609375,-0.0011165945325046778,0.002722768811509013,-0.0011431602761149406
1761916242650692400,7.0266923828125,0.0003401546273380518,0.001267084851861,-0.002829739823937416
1761916242660747300,7.036747314453125,0.002030052710324526,-0.001798529177904129,0.0011834120377898216
1761916242670802400,7.046802490234375,0.0002904759021475911,0.000638263241853565,0.0016023274511098862
1761916242680854000,7.05685400390625,-0.0018439092673361301,0.00036746152909472585,-0.00042445212602615356
1761916242690910200,7.06691015625,0.0009718509390950203,-0.00040032778633758426,-0.0009608129039406776
1761916242700964900,7.07696484375,-0.0009470100048929453,0.0005868955049663782,-0.0007101781666278839
1761916242711020000,7.08702001953125,-0.0008181130979210138,-0.0000639811041764915,-0.0005626389756798744
1761916242721075000,7.097074951171875,-0.000617126002907753,-0.0010063801892101765,0.0014589112251996994
1761916242731131100,7.107131103515625,-0.0016778631834313273,0.0013467889511957765,-0.00003192666918039322
1761916242741185800,7.117185791015625,0.0010235952213406563,0.0010022820206359029,0.00047750677913427353
1761916242751241000,7.127240966796875,0.0017541004344820976,0.0007341017480939627,-0.0015992261469364166
1761916242761296100,7.137296142578125,-0.0001209100300911814,0.0002702345955185592,-0.0003760727122426033
1761916242771352000,7.14735205078125,0.0014008202124387026,-0.000047214220103342086,0.0005776053294539452
1761916242781407200,7.1574072265625,-0.0002682561753317714,-0.00024568132357671857,-0.001222456805408001
1761916242791462000,7.1674619140625,-0.0000445506302639842,-0.0007474208250641823,0.003032209351658821
1761916242801517000,7.17751708984375,0.0013215260114520788,0.002134693320840597,-0.00010172557085752487
1761916242811573000,7.187572998046875,-0.00081113341730088,0.001194064854644239,0.00030893366783857346
1761916242821628200,7.197628173828125,-0.0015015751123428345,0.0032822496723383665,-0.0005943523719906807
1761916242831682800,7.207682861328125,0.000272889097686857,0.0013016569428145885,-0.002130730077624321
1761916242841738000,7.217738037109375,0.002892147284001112,0.0016568946884945035,-0.0004907539114356041
1761916242851794000,7.2277939453125,-0.0017177845584228635,0.0012307889992371202,-0.0020521655678749084
1761916242861849000,7.23784912109375,-0.00041323190089315176,-0.004405695479363203,0.0007517151534557343
1761916242871904300,7.247904296875,-0.0014076561201363802,-0.0022274961229413748,-0.0017900057137012482
1761916242881959000,7.257958984375,0.0002574146492406726,-0.0019106932450085878,-0.0011355429887771606
1761916242892015000,7.26801513671875,-0.00150000536814332,0.0012376958038657904,-0.0017259661108255386
1761916242902070000,7.278070068359375,-0.0005871524335816503,0.0013327678898349404,-0.0005116714164614677
1761916242912125200,7.288125244140625,-0.00034480480826459825,-0.0008510242914780974,0.0006569232791662216
1761916242922179800,7.298179931640625,0.002380682621151209,-0.0032604739535599947,-0.0005592908710241318
1761916242932236000,7.308236083984375,-0.0006366788875311613,0.00010709314665291458,0.0007323417812585831
1761916242942291000,7.318291015625,-0.0008205317426472902,0.00006091786053730175,0.0016448786482214928
1761916242952346000,7.32834619140625,0.001313192886300385,0.00001804096609703265,0.0012483345344662666
1761916242962401000,7.338401123046875,-0.0005008375737816095,0.001700100488960743,-0.00030073802918195724
1761916242972457000,7.34845703125,-0.0019117803312838078,0.00048276956658810377,-0.0019063586369156837
1761916242982511900,7.358511962890625,0.001945799682289362,0.0023416727781295776,-0.00009864382445812225
1761916242992567000,7.368567138671875,-0.00017807120457291603,-0.0004216230590827763,-0.0021966826170682907
1761916243002622200,7.378622314453125,0.00038328603841364384,0.000235387880820781,0.0027916133403778076
1761916243012678000,7.388677978515625,-0.0010340483859181404,-0.0003515728167258203,0.0018640346825122833
1761916243022733000,7.398733154296875,-0.00045571025111712515,0.003092680824920535,0.0004718611016869545
1761916243032788000,7.4087880859375,0.00030382326804101467,-0.0026893082540482283,-0.0018453551456332207
1761916243042843100,7.418843017578125,0.00018136131984647363,0.0011587536428123713,0.0004848148673772812
1761916243052899000,7.428899169921875,0.00044847637764178216,0.0004961590748280287,-0.0013301298022270203
1761916243062954000,7.4389541015625,0.00006240003858692944,-0.0010928550036624074,0.0006036879494786263
1761916243073009000,7.4490087890625,-0.000550393364392221,0.0007628356106579304,0.00026067253202199936
1761916243083064000,7.45906396484375,0.00011070365144405514,0.0016329489881172776,-0.0020557334646582603
1761916243093120000,7.4691201171875,-0.0012198116164654493,-0.001147391158156097,-0.0006402637809514999
1761916243103175000,7.4791748046875,0.002273502293974161,0.0018798470264300704,0.0007505882531404495
1761916243113230000,7.48922998046875,-0.0004751463420689106,0.0010113902390003204,-0.000054751522839069366
1761916243123286000,7.4992861328125,0.00005333180888555944,0.003029582090675831,-0.0018824096769094467
1761916243133341200,7.509341064453125,-0.0005365583929233253,0.0007344698533415794,-0.0001268535852432251
1761916243143396000,7.51939599609375,0.002071686089038849,0.002273065038025379,0.00003289245069026947
1761916243153451000,7.529450927734375,0.0005704620270989835,-0.0008228598162531853,0.002257697284221649
1761916243163507000,7.5395068359375,-0.0005169353680685163,0.002708850661292672,-0.003397073596715927
1761916243173562000,7.54956201171875,-0.0018559726886451244,0.00036873097997158766,0.0007689092308282852
1761916243183617000,7.559616943359375,0.0015823551220819354,0.0000576796883251518,0.0005536936223506927
1761916243193672000,7.569671875,0.0028044795617461205,0.0011953820940107107,0.0014133621007204056
1761916243203728000,7.579727783203125,-0.00023753676214255393,-0.0009430174250155687,-0.0008912375196814537
1761916243213783000,7.589782958984375,0.00036753344465978444,0.0011646081693470478,0.0003825528547167778
1761916243223838200,7.599838134765625,-0.003917087335139513,0.00007613706839038059,0.0008863741531968117
1761916243233892900,7.609892822265625,-0.0012038591085001826,0.0021294341422617435,0.0025220876559615135
1761916243243949000,7.619948974609375,0.002017783932387829,-0.0007852905546315014,-0.00045794062316417694
1761916243254004000,7.63000390625,0.0013658420648425817,0.001646708115004003,-0.0012299912050366402
1761916243264059100,7.64005908203125,0.0003557527670636773,-0.0033855033107101917,-0.00020227115601301193
1761916243274114000,7.650114013671875,-0.0005830115405842662,-0.0018411363707855344,-0.0021644877269864082
1761916243284170000,7.660169921875,0.0008731461130082607,0.0016346366610378027,-0.00015484914183616638
1761916243294225000,7.670224853515625,-0.0003380595881026238,0.0007520651561208069,0.0002472875639796257
1761916243304280000,7.680280029296875,-0.0002333969750907272,-0.0005677774315699935,0.0024501951411366463
1761916243314335200,7.690335205078125,-0.0008238197769969702,-0.0013864331413060427,-0.000452650710940361
1761916243324391200,7.70039111328125,-0.0008807862177491188,-0.0016650184988975525,0.0013896534219384193
1761916243334446000,7.710446044921875,0.0006880820146761835,-0.0012788601452484727,-0.0007539251819252968
1761916243344501000,7.7205009765625,-0.0004081446386408061,0.001151440548710525,0.0006906772032380104
1761916243354556200,7.73055615234375,0.002125054132193327,0.0021815511863678694,-0.0007658051326870918
1761916243364612000,7.740612060546875,-0.0015378472162410617,0.001420146320015192,-0.00030971504747867584
1761916243374667000,7.7506669921875,0.0004864215152338147,0.0005069483886472881,0.0005800472572445869
1761916243384722000,7.760721923828125,0.0012209211708977818,0.0006133398273959756,-0.0008614668622612953
1761916243394777000,7.770777099609375,-0.002219882793724537,-0.002389640547335148,0.002737262286245823
1761916243404833000,7.7808330078125,0.0009814323857426643,-0.00033664348302409053,-0.0024831416085362434
1761916243414888000,7.790887939453125,-0.0012369807809591293,-0.0007686082390137017,0.001604277640581131
1761916243424942800,7.80094287109375,-0.0007263478473760188,0.00047087197890505195,-0.00015810970216989517
1761916243434998000,7.810998046875,0.00010881951311603189,-0.00012221402721479535,0.0000038100406527519226
1761916243445054000,7.821053955078125,-0.00045959267299622297,0.0011953532230108976,-0.0003146044909954071
1761916243455109000,7.831109130859375,0.000414989423006773,-0.0017959093675017357,0.0017578676342964172
1761916243465164000,7.8411640625,-0.00031381839653477073,-0.003489067079499364,-0.0007509207352995872
1761916243475219000,7.851218994140625,-0.0002994373207911849,-0.001730581745505333,0.0010725464671850204
1761916243485275100,7.861275146484375,0.0004083272360730916,-0.00037369440542533994,0.001382392831146717
1761916243495330000,7.871330078125,0.0017742626368999481,-0.0008453401969745755,-0.0023452332243323326
1761916243505385000,7.881385009765625,-0.0008403324754908681,-0.002170644700527191,-0.0004668068140745163
1761916243515439900,7.89143994140625,-0.0012203655205667019,-0.000893658900167793,-0.0011203465983271599
1761916243525496000,7.90149609375,-0.00003813215880654752,0.0002961761492770165,0.0012603169307112694
1761916243535551000,7.911551025390625,-0.0010029954137280583,-0.000005560006684390828,-0.00007046479731798172
1761916243545606100,7.921606201171875,0.0029736971482634544,-0.000876413774676621,0.00034225545823574066
1761916243555661000,7.9316611328125,0.00011932116467505693,-0.00013658759417012334,-0.0022838879376649857
1761916243565717000,7.941717041015625,0.00008995895041152835,0.0010394761338829994,-0.0008857101202011108
1761916243575772200,7.951772216796875,0.001230857102200389,0.00009192345169140026,-0.0012814560905098915
1761916243585827000,7.9618271484375,0.0019843808840960264,-0.0007617673836648464,0.0019050026312470436
1761916243595882000,7.971882080078125,0.0018328470177948475,-0.00025736461975611746,-0.0025501996278762817
1761916243605938000,7.98193798828125,0.0003378049877937883,-0.0021135439164936543,0.0019667446613311768
1761916243615993000,7.9919931640625,-0.0019264145521447062,0.0012257936177775264,0.00019920431077480316
1761916243626048000,8.002048095703126,0.0007276801625266671,-0.002144055673852563,-0.0009326227009296417
1761916243636103000,8.01210302734375,-0.00029497366631403565,0.0018253857269883156,-0.001590156927704811
1761916243646158800,8.022158935546875,0.0015925087500363588,-0.0015464898897334933,-0.00024819187819957733
1761916243656214000,8.032214111328125,0.000343486201018095,-0.0009928186191245914,0.0027342820540070534
1761916243666269200,8.042269287109375,0.001856454648077488,0.0008632275275886059,0.0010850271210074425
1761916243676324000,8.052323974609376,-0.0022328293416649103,-0.0010601073736324906,-0.00023696571588516235
1761916243686383000,8.062383056640625,0.0014544669538736343,-0.0013564666733145714,0.001420280896127224
1761916243696437800,8.072437744140625,0.0002938613179139793,-0.0032377238385379314,0.001506301574409008
1761916243706493000,8.082492919921876,0.0010219673858955503,0.0010270869825035334,0.0005470467731356621
1761916243716547800,8.0925478515625,-0.0006102839251980186,-0.0000781248090788722,0.000043443404138088226
1761916243726604000,8.10260400390625,0.00020300770120229572,0.0005701264599338174,0.0008481405675411224
1761916243736658700,8.11265869140625,0.00026718986919149756,0.0016484403749927878,0.002284916117787361
1761916243746713900,8.1227138671875,0.00022624812845606357,-0.0005604171892628074,0.0002677701413631439
1761916243756769000,8.13276904296875,0.0031368169002234936,0.00008593199163442478,0.00043182075023651123
1761916243766825000,8.142824951171875,-0.0001765655179042369,0.002168539445847273,0.000348544679582119
1761916243776879900,8.1528798828125,0.0008902967674657702,-0.0014384458772838116,0.00031978264451026917
1761916243786934800,8.162934814453125,-0.002048525959253311,0.0007641979609616101,-0.00004131346940994263
1761916243796990000,8.172989990234376,-0.0015222851652652025,-0.0006989427492953837,-0.0003406526520848274
1761916243807046000,8.1830458984375,0.00030832429183647037,0.002022910863161087,0.0020995456725358963
1761916243817101000,8.19310107421875,0.004167511127889156,0.0009619076736271381,-0.0012938538566231728
1761916243827155700,8.20315576171875,-0.0010715725366026163,-0.00007519002974731848,-0.0006061382591724396
1761916243837211000,8.2132109375,0.0002956943353638053,-0.0002621439634822309,0.0015464955940842628
1761916243847266800,8.223266845703124,0.0013906370149925351,0.0021420384291559458,-0.0010946383699774742
1761916243857322000,8.233322021484375,-0.0006389579502865672,0.0004858186293859035,0.0019562793895602226
1761916243867377000,8.243376953125,0.0014777493197470903,-0.0044289641082286835,0.0009507481008768082
1761916243877432800,8.253432861328125,0.001143522560596466,-0.002563153626397252,-0.0005555357784032822
1761916243887488000,8.263488037109376,0.00011701585026457906,0.0012731122551485896,-0.00015341956168413162
1761916243897543000,8.27354296875,-0.0008792727021500468,0.003065419616177678,0.0016263704746961594
1761916243907597800,8.283597900390625,-0.0013358237920328975,0.0024850384797900915,-0.0010764477774500847
1761916243917653800,8.29365380859375,0.0019385326886549592,0.000864771252963692,-0.002286321483552456
1761916243927709000,8.303708984375,-0.001539955846965313,0.00026766755036078393,-0.0007006200030446053
1761916243937763800,8.313763916015626,0.0023943320848047733,0.0015033743111416698,-0.0002337675541639328
1761916243947819000,8.323819091796874,0.0006527699297294021,0.0022715788800269365,0.0019356776028871536
1761916243957875000,8.333875,0.0038829180411994457,-0.002064846223220229,-0.0006667627021670341
1761916243967929900,8.343929931640625,0.001761698629707098,-0.0016580125084146857,0.0015866393223404884
1761916243977985000,8.353985107421876,0.0005126760806888342,-0.0014414975885301828,0.0002486668527126312
1761916243988040000,8.3640400390625,0.0039927903562784195,-0.00018166209338232875,0.001895025372505188
1761916243998096000,8.374095947265625,-0.000528458331245929,0.0015584473730996251,-0.0011803926900029182
1761916244008150800,8.38415087890625,0.0007439826731570065,-0.001499939477071166,0.00029575545340776443
1761916244018206000,8.3942060546875,0.0011016451753675938,0.0005344492965377867,0.0016811322420835495
1761916244028260900,8.4042607421875,0.0012543523916974664,0.002163386670872569,-0.000799066387116909
1761916244038317000,8.414317138671874,0.00024235119053628296,-0.0021093888208270073,0.000002278946340084076
1761916244048371700,8.424371826171875,0.0018479883437976241,0.0027095291297882795,0.0007795728743076324
1761916244058427000,8.434427001953125,-0.0016143872635439038,-0.0023877613712102175,0.0012197932228446007
1761916244068482000,8.44448193359375,-0.0007530760485678911,0.0014441156527027488,-0.0022045765072107315
1761916244078538000,8.4545380859375,-0.00031977970502339303,-0.0020520822145044804,0.00014912523329257965
1761916244088593000,8.464593017578125,0.0006788596510887146,0.0015149515820667148,-0.0010442128404974937
1761916244098647800,8.474647705078125,0.0007342534372583032,-0.0013929539127275348,-0.0017145304009318352
1761916244108703000,8.484702880859375,0.0005887419101782143,-0.0018106658244505525,0.002248690463602543
1761916244118759000,8.494759033203126,-0.0010946423280984163,-0.00025751034263521433,0.0015565352514386177
1761916244128814000,8.50481396484375,-0.0017639357829466462,0.0025883479975163937,0.00005964748561382294
1761916244138868700,8.51486865234375,0.0012166741071268916,-0.00000929912130231969,-0.0012900428846478462
1761916244148924000,8.524923828125,-0.000768079305998981,0.0003921805473510176,0.000563429668545723
1761916244158979800,8.534979736328125,-0.001056233304552734,-0.0008504503639414907,-0.0007196813821792603
1761916244169035000,8.545034912109376,-0.00008149424684233963,0.000005726731615141034,0.00028224382549524307
1761916244179089700,8.555089599609374,-0.000023437343770638108,-0.0010499503696337342,0.0003373716026544571
1761916244189144800,8.565144775390625,-0.0008971404167823493,-0.0023100674152374268,0.0023387782275676727
1761916244199200800,8.57520068359375,0.0004845075018238276,-0.0014341537607833743,-0.001572340726852417
1761916244209257700,8.5852578125,-0.001503791194409132,-0.0012727649882435799,-0.00016008038073778152
1761916244219313000,8.59531298828125,0.0009575022850185633,0.0006660163635388017,0.0027715275064110756
1761916244229368000,8.6053681640625,0.00044480967335402966,0.002476579276844859,-0.0020574545487761497
1761916244239422700,8.615422607421875,0.0005348245613276958,-0.0008648890070617199,0.0007425937801599503
1761916244249479000,8.62547900390625,0.002064861822873354,-0.0016233299393206835,0.0002802722156047821
1761916244259533800,8.635533935546874,0.000684012658894062,-0.0025517079047858715,-0.0004164110869169235
1761916244269589000,8.645589111328125,0.0022288954351097345,0.0009387124446220696,-0.0022039366886019707
1761916244279644000,8.655643798828125,-0.00016608525766059756,-0.00038115016650408506,0.0018643084913492203
1761916244289699800,8.665699951171876,-0.0005871614557690918,0.0017157603288069367,0.0005497206002473831
1761916244299754800,8.675754638671876,-0.003109441138803959,0.0002153353561880067,-0.0016583064571022987
1761916244309810000,8.685809814453124,-0.0005152436788193882,0.0016981868539005518,-0.002175428904592991
1761916244319865000,8.695864990234375,-0.00033814343623816967,0.0020151028875261545,0.00031622499227523804
1761916244329921000,8.705921142578125,-0.00043449184158816934,0.0010047736577689648,0.00039924681186676025
1761916244339976000,8.715975830078126,0.0002944153384305537,0.0016710965428501368,0.00022001564502716064
1761916244350030800,8.72603076171875,0.00008826731937006116,0.001194196054711938,0.0019897781312465668
1761916244360086000,8.7360859375,0.0004347445792518556,0.0015822185669094324,-0.0005205171182751656
1761916244370142000,8.746141845703125,-0.000047689100028946996,-0.00007402636401820928,0.001491171307861805
1761916244380196900,8.75619677734375,0.0015683170640841126,-0.001516927033662796,0.00003894977271556854
1761916244390251800,8.766251708984376,0.0013053957372903824,-0.004691264592111111,-0.0006941892206668854
1761916244400307000,8.776306884765624,-0.00027572305407375097,0.0017876734491437674,-0.0004044370725750923
1761916244410363000,8.78636279296875,0.0009230462601408362,0.0011358829215168953,-0.0000992426648736
1761916244420417800,8.796417724609375,-0.0015228008851408958,0.0035042320378124714,0.0003204718232154846
1761916244430473000,8.806472900390625,-0.001355210319161415,-0.0005413639009930193,-0.0009676869958639145
1761916244440528000,8.81652783203125,-0.002068138448521495,0.0021913056261837482,0.0018017338588833809
1761916244450583800,8.826583740234375,-0.0019152841996401548,-0.0006278214859776199,-0.0006516901776194572
1761916244460639000,8.836638916015625,0.0006570629775524139,-0.0011766989482566714,0.00016616657376289368
1761916244470694000,8.84669384765625,-0.00033205602085217834,-0.0023649411741644144,0.0005883267149329185
1761916244480748800,8.856748779296876,-0.0006961101898923516,0.003131823381409049,0.0011670319363474846
1761916244490805000,8.866804931640624,0.00013093859888613224,0.0011858174111694098,0.0008314661681652069
1761916244500860000,8.87685986328125,0.001364781172014773,0.0031927756499499083,0.0015590423718094826
1761916244510914800,8.886914794921875,-0.00014912575716152787,-0.0006711223977617919,0.00002980697900056839
1761916244520970000,8.896969970703125,0.00013529983698390424,0.001238630386069417,-0.0016043083742260933
1761916244531026000,8.90702587890625,-0.0018523149192333221,0.0004096943885087967,-0.0025494014844298363
1761916244541080800,8.917080810546874,-0.00042432796908542514,-0.0004587624571286142,-0.0015701577067375183
1761916244551135700,8.9271357421875,-0.0006277614738792181,0.002396780764684081,-0.002066046930849552
1761916244561191000,8.93719091796875,0.003731833305209875,-0.002033121418207884,-0.0002092905342578888
1761916244571246800,8.947246826171876,0.0008627697825431824,-0.0008952351054176688,-0.0007781563326716423
1761916244581302000,8.957302001953124,-0.00022113678278401494,-0.0014238725416362286,0.0014586327597498894
1761916244591357000,8.96735693359375,-0.0001791345712263137,-0.0007588915177620947,-0.0005387598648667336
1761916244601411800,8.977411865234375,0.0006251400336623192,-0.0005136143881827593,-0.002357698976993561
1761916244611467800,8.9874677734375,0.002066568238660693,-0.0009862114675343037,-0.0020847972482442856
1761916244621523000,8.99752294921875,0.000037505931686609983,0.0005160776781849563,0.0019597457721829414
1761916244631577900,9.007577880859374,0.0015275669284164906,0.002198203466832638,-0.0009357836097478867
1761916244641632800,9.0176328125,-0.0003188026021234691,0.0018581176409497857,-0.0010859854519367218
1761916244651688700,9.027688720703125,-0.0019461920019239187,0.0006260123918764293,0.0006322506815195084
1761916244661743900,9.037743896484375,-0.0017587053589522839,0.0020763699430972338,0.0007643429562449455
1761916244671799000,9.047799072265626,-0.00016029804828576744,-0.0002592463861219585,0.0016228379681706429
1761916244681850000,9.05785009765625,0.0007097566267475486,0.00148299359716475,-0.0017801495268940926
1761916244691906300,9.06790625,0.0016246617306023836,-0.0028801043517887592,0.0007719527930021286
1761916244701961000,9.0779609375,-0.0010651310440152884,0.003834523493424058,-0.0011612353846430779
1761916244712016100,9.08801611328125,0.0016188257141038775,0.000954616058152169,0.001869584433734417
1761916244722071300,9.0980712890625,0.0007607552106492221,0.00209258496761322,0.0017952816560864449
1761916244732127200,9.108127197265626,-0.0013599162921309471,0.0013320290017873049,0.0011411579325795174
1761916244742182100,9.11818212890625,0.0012334700440987945,0.0007943367818370461,-0.0012953681871294975
1761916244752237000,9.128237060546875,-0.0010278461268171668,-0.000027918809792026877,0.0018814997747540474
1761916244762292200,9.138292236328125,0.0009852373041212559,0.001281823730096221,-0.0008599581196904182
1761916244772348200,9.14834814453125,0.00197754823602736,0.002716053742915392,-0.001295977272093296
1761916244782403300,9.1584033203125,-0.0004398031160235405,-0.0022677858360111713,-0.00022192485630512238
1761916244792458000,9.1684580078125,0.003400803543627262,0.0010778006399050355,-0.001087862066924572
1761916244802513200,9.17851318359375,-0.0016544086392968893,0.002359313890337944,0.0019345590844750404
1761916244812569000,9.188569091796875,0.0009893709793686867,0.0009126389632001519,0.0005511976778507233
1761916244822624300,9.198624267578126,-0.00022263359278440475,0.002656743163242936,-0.002618230879306793
1761916244832679000,9.208678955078126,-0.0008964916341938078,-0.0018176407320424914,-0.0005116965621709824
1761916244842734000,9.218734130859374,0.0018188674002885818,-0.0003438473795540631,0.0006249407306313515
1761916244852790000,9.2287900390625,0.002775622298941016,-0.0018554243724793196,-0.0008433712646365166
1761916244862845200,9.23884521484375,0.0009034201502799988,-0.0005028047598898411,0.0007047243416309357
1761916244872900400,9.248900390625,-0.0015495900297537446,-0.0003372775681782514,0.0003421260043978691
1761916244882955000,9.258955078125,0.003860088996589184,-0.0024036243557929993,-0.00018464680761098862
1761916244893011200,9.26901123046875,-0.0007922386284917593,0.0008076983503997326,0.0004572290927171707
1761916244903066000,9.279066162109375,-0.0007541554514318705,0.0009597648750059307,0.0029970863834023476
1761916244913121300,9.289121337890625,-0.001011176616884768,0.0006659187492914498,-0.0011141914874315262
1761916244923176000,9.299176025390626,-0.0010061166249215603,-0.00028243294218555093,-0.004329159390181303
1761916244933232000,9.309232177734375,-0.003304720390588045,0.002256241859868169,0.0007486725226044655
1761916244943287000,9.319287109375,0.003984883893281221,0.00010414126882096753,0.0010008737444877625
1761916244953342200,9.32934228515625,-0.0012260896619409323,0.00036990479566156864,-0.0014011934399604797
1761916244963397400,9.3393974609375,0.00021148462838027626,0.001566729391925037,0.00048459041863679886
1761916244973453000,9.349453125,0.0007027945248410106,-0.0005847307620570064,0.0008549969643354416
1761916244983508200,9.35950830078125,0.00011769800039473921,-0.0018470691284164786,0.00015298742800951004
1761916244993563100,9.369563232421875,-0.0007564508123323321,-0.0007250956259667873,-0.001702253706753254
1761916245003618300,9.379618408203125,-0.00010264472803100944,-0.0012971425894647837,-0.0008620265871286392
1761916245013674200,9.38967431640625,-0.00043172319419682026,-0.0016333080129697919,0.0008642002940177917
1761916245023729200,9.399729248046874,-0.0024077887646853924,0.0004125323030166328,-0.000567249022424221
1761916245033784000,9.4097841796875,-0.002217229688540101,0.0015945292543619871,-0.0014545228332281113
1761916245043839200,9.419839111328125,-0.0020992516074329615,0.0017212957609444857,0.0018328828737139702
1761916245053895200,9.429895263671876,0.0027686201501637697,0.00204813783057034,-0.00021134037524461746
1761916245063950000,9.4399501953125,0.002429066924378276,0.0011139009147882462,0.000958319753408432
1761916245074005200,9.450005126953124,-0.0005472007323987782,-0.0001723782334011048,0.000971529632806778
1761916245084061200,9.460061279296875,0.00047811627155169845,0.0016263207653537393,0.0004740515723824501
1761916245094116000,9.4701162109375,0.0009015904506668448,0.0010922483634203672,0.002423962578177452
1761916245104171000,9.4801708984375,0.0013844214845448732,0.00006346928421407938,0.0023768246173858643
1761916245114226200,9.49022607421875,-0.002553335390985012,0.0024562624748796225,0.000620339997112751
1761916245124282000,9.5002822265625,-0.0010758135467767715,0.0006471770466305315,-0.001171967014670372
1761916245134337300,9.510337158203125,-0.00030743004754185677,-0.0006411668728105724,0.0016788821667432785
1761916245144392200,9.52039208984375,0.0017930050380527973,-0.000732246960978955,-0.000054037198424339294
1761916245154447000,9.530447021484376,0.00007836922304704785,-0.001012101536616683,0.00008474010974168777
1761916245164502000,9.540501953125,-0.0008161865407600999,-0.002177234273403883,0.0015018079429864883
1761916245174558200,9.55055810546875,0.00026785556110553443,0.00006537901936098933,0.002444673329591751
1761916245184613000,9.560613037109375,0.0010319164721295238,-0.0008531452622264624,-0.00010823365300893784
1761916245194668000,9.57066796875,-0.0018328141886740923,-0.0004362264589872211,-0.0003690812736749649
1761916245204724000,9.580723876953124,0.002226375974714756,0.00035020499490201473,0.0006911233067512512
1761916245214779100,9.590779052734375,0.003751952899619937,0.0012936186976730824,-0.0006067520007491112
1761916245224834300,9.600834228515625,-0.0014550596242770553,-0.000009199677151627839,-0.00011246930807828903
1761916245234889000,9.610888916015625,0.00046316947555169463,0.002621655585244298,0.00044139381498098373
1761916245244944100,9.620944091796876,0.0014613221865147352,0.0012197677278891206,0.0005412632599473
1761916245255000000,9.631,-0.0006952141411602497,0.003921792842447758,-0.001237824559211731
1761916245265055200,9.64105517578125,0.0006843033479526639,0.00005035559297539294,-0.0026232004165649414
1761916245275110100,9.651110107421875,-0.000982475932687521,0.0010738882701843977,0.003042615018785
1761916245285165000,9.6611650390625,-0.002053865697234869,0.0016384783666580915,0.000008209608495235443
1761916245295221000,9.671220947265626,-0.0007408637320622802,-0.0008256681612692773,-0.003294600173830986
1761916245305276200,9.681276123046874,0.0000325182918459177,0.0013392154360190034,0.00003302004188299179
1761916245315331300,9.691331298828125,-0.0006874805549159646,-0.0006651500589214265,0.000059948302805423737
1761916245325386000,9.701385986328125,0.0013519682688638568,-0.0010726136388257146,-0.0005190232768654823
1761916245335442200,9.711442138671876,0.0020831814035773277,0.0017169214552268386,0.0008762702345848083
1761916245345497000,9.7214970703125,-0.001283320365473628,0.001387488329783082,0.0006666798144578934
1761916245355552300,9.73155224609375,0.0008553707739338279,-0.0023683723993599415,0.003003516234457493
1761916245365607200,9.741607177734375,0.0008817360503599048,-0.0023268270306289196,0.0006130635738372803
1761916245375663000,9.7516630859375,0.00022407984943129122,-0.0006214031018316746,-0.0009672390297055244
1761916245385718000,9.761718017578126,-0.0014454557094722986,0.0018484124448150396,0.0011132219806313515
1761916245395773200,9.771773193359374,-0.0009359108516946435,-0.0003378254477865994,0.0002024322748184204
1761916245405828400,9.781828369140625,-0.003011312335729599,-0.0017855198821052909,0.0009100344032049179
1761916245415884300,9.79188427734375,0.0006095687858760357,-0.00014058267697691917,-0.0010165739804506302
1761916245425939200,9.801939208984376,-0.0005864568520337343,0.001674894243478775,0.0006534941494464874
1761916245435994000,9.811994140625,0.000761083560064435,-0.0005017983494326472,-0.0011583389714360237
1761916245446049300,9.82204931640625,0.00010994065087288618,0.0009341780678369105,0.0005530091002583504
1761916245456105200,9.832105224609375,0.0019039495382457972,-0.00025229775928892195,0.0039118994027376175
1761916245466160000,9.84216015625,0.00042269937694072723,0.000412427238188684,-0.00006899330765008926
1761916245476215000,9.852215087890626,0.000557081017177552,0.0006034080288372934,0.0010101990774273872
1761916245486270200,9.862270263671874,0.00007291833753697574,0.0006564049399457872,-0.0017752014100551605
1761916245496326100,9.872326171875,0.0004506960976868868,-0.0003371560014784336,0.0022727120667696
1761916245506381000,9.882381103515625,-0.0009834161028265953,0.0007307715713977814,0.0014165062457323074
1761916245516436200,9.892436279296875,-0.0011398433707654476,0.01536521501839161,0.005505746230483055
1761916245526491100,9.9024912109375,0.0014407597482204437,0.07270333915948868,0.027723167091608047
1761916245536547000,9.912547119140624,0.000029739137971773744,0.08777323365211487,0.015324246138334274
1761916245546602200,9.922602294921875,0.0007764894980937243,0.05455642193555832,0.012930329889059067
1761916245556657200,9.9326572265625,-0.0012837611138820648,0.010340270586311817,0.01022306364029646
1761916245566712000,9.942712158203125,0.0017940541729331017,0.016906293109059334,0.010599900968372822
1761916245576768300,9.952768310546874,0.00010389482486061752,0.05234786123037338,0.009370215237140656
1761916245586823200,9.9628232421875,-0.0019502013456076384,0.031040174886584282,0.000330914743244648
1761916245596878000,9.972878173828125,-0.0006656875484623015,-0.026753487065434456,-0.007983814924955368
1761916245606933000,9.98293310546875,0.0010126365814357996,-0.07842946797609329,-0.02027643471956253
1761916245616989200,9.9929892578125,-0.0012068976648151875,-0.09508154541254044,-0.026298150420188904
1761916245627044000,10.003044189453124,-0.0008931772317737341,-0.09081356227397919,-0.03000153973698616
1761916245637099000,10.01309912109375,-0.0027028084732592106,-0.05901482328772545,-0.009763136506080627
1761916245647154200,10.023154296875,0.00015183382492978126,0.027121389284729958,0.011085153557360172
1761916245657210000,10.033210205078126,0.00007648795144632459,0.05499928072094917,0.006921505555510521
