time,seconds_elapsed,z,y,x
1761916235702508300,0.07850830078125,-0.0013129384024068713,0.041978076100349426,0.018696988001465797
1761916235712564200,0.088564208984375,0.0013728595804423094,0.026826022192835808,0.015919310972094536
1761916235722619100,0.098619140625,-0.0019771307706832886,-0.026189526543021202,0.010279801674187183
1761916235732674000,0.108674072265625,-0.0005097290268167853,-0.03368845582008362,0.007644337601959705
1761916235742729200,0.118729248046875,0.0024437166284769773,0.005994775798171759,0.0116148442029953
1761916235752785200,0.12878515625,-0.00035127095179632306,0.03382986783981323,0.013404488563537598
1761916235762840000,0.138840087890625,-0.00126766471657902,0.00755086075514555,0.011475294828414917
1761916235772895000,0.14889501953125,0.00003888214996550232,-0.021979333832859993,0.011354653164744377
1761916235782950100,0.1589501953125,-0.0002665824140422046,-0.01841655746102333,0.0120702451094985
1761916235793006000,0.169006103515625,0.001356614287942648,0.011808455921709538,0.015309181064367294
1761916235803061200,0.179061279296875,0.0006362291751429439,0.020554808899760246,0.01074186060577631
1761916235813116200,0.1891162109375,-0.00032410668791271746,-0.0013970943400636315,0.009753295220434666
1761916235823171000,0.199171142578125,-0.002295911079272628,-0.018629077821969986,0.010842793621122837
1761916235833227300,0.209227294921875,-0.0017251957906410098,-0.00672368286177516,0.009936253540217876
1761916235843282200,0.2192822265625,0.00014407701382879168,0.015238340944051743,0.010067014954984188
1761916235853337000,0.229337158203125,-0.0015867113834246993,0.010879811830818653,0.01068060752004385
1761916235863392000,0.23939208984375,-0.0034525219816714525,-0.006683202926069498,0.01125025749206543
1761916235873448200,0.2494482421875,-0.0006428870838135481,-0.015251390635967255,0.012093680910766125
1761916235883503000,0.259503173828125,-0.00042770366417244077,0.0005965480813756585,0.012745888903737068
1761916235893558300,0.269558349609375,-0.0027539748698472977,0.00962972454726696,0.011827630922198296
1761916235903613200,0.27961328125,-0.0029917950741946697,0.004340952727943659,0.010578075423836708
1761916235913669000,0.289669189453125,0.0033388049341738224,-0.008392419666051865,0.008768457919359207
1761916235923724300,0.299724365234375,-0.0023182816803455353,-0.007666974328458309,0.008379369974136353
1761916235933779200,0.309779296875,-0.0013757890556007624,0.002058623591437936,0.012292086146771908
1761916235943834000,0.319834228515625,-0.0012844426091760397,0.00902784988284111,0.010186857543885708
1761916235953890000,0.32989013671875,0.0005728459218516946,0.0016769925132393837,0.010757306590676308
1761916235963945200,0.3399453125,0.0011403656098991632,-0.006773217581212521,0.012288624420762062
1761916235974000000,0.350000244140625,0.0008594020619057119,-0.0022178804501891136,0.009486978873610497
1761916235984055000,0.360054931640625,-0.0012394351651892066,0.004608866758644581,0.012060923501849174
1761916235994111000,0.370111083984375,-0.0008175904513336718,0.005756955128163099,0.010273942723870277
1761916236004166100,0.380166259765625,-0.00013182646944187582,-0.0008761800127103925,0.009619603864848614
1761916236014221300,0.39022119140625,-0.0011938951211050153,-0.006313822232186794,0.010901915840804577
1761916236024276200,0.400276123046875,-0.0009683253592811525,0.0020839234348386526,0.011329620145261288
1761916236034332200,0.410332275390625,0.000027430558475316502,0.007474960293620825,0.009561547078192234
1761916236044387000,0.420386962890625,0.00005965480886516161,-0.0008412926108576357,0.012064652517437935
1761916236054442200,0.430442138671875,0.0005707154050469398,-0.004274906124919653,0.011215370148420334
1761916236064497200,0.4404970703125,0.0008522115531377494,-0.003038400551304221,0.011579424142837524
1761916236074553300,0.45055322265625,-0.0028043086640536785,0.0021608888637274504,0.01131177693605423
1761916236084608000,0.46060791015625,-0.0010516822803765535,0.002936667762696743,0.00851545762270689
1761916236094663200,0.4706630859375,0.0006748450105078518,-0.001243696198798716,0.009857424534857273
1761916236104718300,0.48071826171875,-0.0002300971100339666,-0.0010381002211943269,0.011393269523978233
1761916236114774300,0.490774169921875,0.000050866376113845035,0.000606934423558414,0.010031328536570072
1761916236124829000,0.500828857421875,-0.000743554555810988,0.0025814019609242678,0.0117312241345644
1761916236134884000,0.510884033203125,0.0011832424206659198,0.0003968109958805144,0.011996741406619549
1761916236144939300,0.520939208984375,-0.001395496423356235,0.0016295883106067777,0.0105354655534029
1761916236154994200,0.530994140625,0.0013323795283213258,-0.0018413095967844129,0.01212590467184782
1761916236165050000,0.541050048828125,0.00019813918333966285,-0.000046339002437889576,0.012034825049340725
1761916236175105000,0.55110498046875,0.0025691515766084194,0.00199310970492661,0.01314882468432188
1761916236185160200,0.56116015625,-0.003516437951475382,0.004162786994129419,0.011446000076830387
1761916236195215000,0.571215087890625,-0.001764344167895615,-0.0010285128373652697,0.00962413102388382
1761916236205271300,0.581271240234375,-0.0010165285784751177,-0.002139050979167223,0.01113334484398365
1761916236215326000,0.591325927734375,-0.0010972223244607449,-0.00045353634050115943,0.01082521677017212
1761916236225381000,0.601381103515625,-0.00016831177345011383,0.0012695288751274347,0.01194214727729559
1761916236235436300,0.611436279296875,0.0006263754912652075,-0.0022951122373342514,0.010570086538791656
1761916236245492200,0.6214921875,-0.00195156445261091,-0.0005965480813756585,0.012052934616804123
1761916236255547100,0.631547119140625,-0.0010599381057545543,0.0003355582884978503,0.011363442055881023
1761916236265602000,0.64160205078125,-0.0006617955514229834,0.0015643407823517919,0.01221458800137043
1761916236275657200,0.6516572265625,-0.0010138654615730047,0.0022008363157510757,0.012838566675782204
1761916236285713200,0.661713134765625,-0.0008817726047709584,-0.0021382521372288465,0.009857424534857273
1761916236295768300,0.671768310546875,-0.000806138850748539,0.00011717908637365326,0.00854315422475338
1761916236305823000,0.681822998046875,-0.00427144393324852,0.00024208133982028812,0.011872638016939163
1761916236315878100,0.691878173828125,0.0005970807396806777,-0.0005866943974979222,0.014049505814909935
1761916236325934000,0.70193408203125,-0.00014913702034391463,0.0008303736103698611,0.012584500946104527
1761916236335989200,0.7119892578125,-0.0019166769925504923,0.0005462143453769386,0.012801283039152622
1761916236346044200,0.722044189453125,-0.002156095113605261,-0.000523577444255352,0.01164786797016859
1761916236356099000,0.73209912109375,-0.0018881811993196607,-0.002898584585636854,0.011333348229527473
1761916236366155300,0.7421552734375,0.0014751249691471457,-0.0003171824791934341,0.01179167814552784
1761916236376210200,0.752210205078125,0.0001525991247035563,-0.0018168084789067507,0.012415124103426933
1761916236386265000,0.76226513671875,0.0015329155139625072,-0.0011861718958243728,0.012797021307051182
1761916236396320000,0.772320068359375,-0.0005512743373401463,0.00011584750609472394,0.013206083327531815
1761916236406376200,0.782376220703125,-0.0006743124104104936,-0.001490571303293109,0.010946124792098999
1761916236416431000,0.79243115234375,0.002543851500377059,-0.00007962851668708026,0.011861719191074371
1761916236426486300,0.802486328125,0.0005797701887786388,0.0015153386630117893,0.011052384972572327
1761916236436541200,0.812541259765625,0.0005233111442066729,-0.00047697214176878333,0.01317998394370079
1761916236446597000,0.82259716796875,-0.0003909520455636084,0.001603222917765379,0.00950988195836544
1761916236456652300,0.83265234375,-0.0032527849543839693,0.00015952334797475487,0.012948023155331612
1761916236466707200,0.842707275390625,-0.00010333064710721374,0.0010197244118899107,0.012807408347725868
1761916236476762000,0.85276220703125,-0.0024647556710988283,0.000041545314161339775,0.009398828260600567
1761916236486818000,0.862818115234375,-0.00017789915727917105,0.0028245486319065094,0.013292635791003704
1761916236496873200,0.872873291015625,0.0014839133946225047,0.00010892329009948298,0.010803379118442535
1761916236506928000,0.88292822265625,-0.003239469137042761,0.0009901633020490408,0.010919226333498955
1761916236516983000,0.892983154296875,-0.0031459920573979616,-0.002109223511070013,0.012320581823587418
1761916236527039000,0.9030390625,0.00009560748003423214,0.0004519384237937629,0.011203385889530182
1761916236537094100,0.91309423828125,-0.0005089300684630871,-0.0003451456723269075,0.010399111546576023
1761916236547149000,0.923149169921875,0.000027430558475316502,0.003722033929079771,0.011373295448720455
1761916236557204200,0.933204345703125,0.002301770029589534,-0.0001752359967213124,0.01321140956133604
1761916236567260000,0.943260009765625,0.001067661214619875,-0.002453836612403393,0.010874485597014427
1761916236577315000,0.953315185546875,0.00020453077740967274,0.0026075011119246483,0.011245197616517544
1761916236587370200,0.963370361328125,0.0016825852217152715,-0.0009709885343909264,0.010788465850055218
1761916236597426200,0.97342626953125,-0.0006772418855689466,-0.00024714134633541107,0.010978614911437035
1761916236607481300,0.9834814453125,0.0013933659065514803,-0.001189900329336524,0.012496616691350937
1761916236617536000,0.993535888671875,-0.0012681973166763783,0.0010998855577781796,0.011502192355692387
1761916236627591200,1.003591064453125,-0.0022178804501891136,-0.0006101301987655461,0.012310195714235306
1761916236637647000,1.013647216796875,0.0003254382754676044,-0.0001280980504816398,0.009133577346801758
1761916236647702300,1.023702392578125,0.0007957525085657835,-0.0009054747642949224,0.011983426287770271
1761916236657757000,1.0337568359375,-0.0008602010202594101,-0.00020905814017169178,0.011950935237109661
1761916236667812000,1.04381201171875,0.00037683729897253215,-0.002229065867140889,0.012179167941212654
1761916236677870600,1.05387060546875,-0.00018881811411119998,0.0006852313526906073,0.01181964110583067
1761916236687925200,1.06392529296875,-0.0005467469454742968,0.001008539111353457,0.011151188053190708
1761916236697980400,1.07398046875,0.00008681904728291556,0.000624777574557811,0.012705675326287746
1761916236708035600,1.08403564453125,-0.0006016080733388662,0.000480434246128425,0.00959749985486269
1761916236718091500,1.094091552734375,0.0008612662786617875,-0.000018375811123405583,0.00932319462299347
1761916236728146400,1.104146484375,-0.0012258529895916581,-0.001654355670325458,0.011115501634776592
1761916236738201300,1.114201416015625,0.00023861923546064645,0.0011446266435086727,0.010230532847344875
1761916236748256500,1.124256591796875,-0.0013733921805396676,0.0003736414946615696,0.01537496130913496
1761916236758312400,1.1343125,-0.0009337042574770749,-0.0022122878581285477,0.010919492691755295
1761916236768367400,1.144367431640625,-0.00023675501870457083,0.0037729002069681883,0.01188222598284483
1761916236778422300,1.15442236328125,-0.00019734023953787982,-0.00373082235455513,0.009841179475188255
1761916236788477400,1.1644775390625,-0.0015017564874142408,0.0024029703345149755,0.012448946014046669
1761916236798533400,1.174533447265625,0.0016144082183018327,0.003422162029892206,0.009431584738194942
1761916236808588500,1.184588623046875,-0.0009443568997085094,-0.00019387812062632293,0.00860334187746048
1761916236818643500,1.1946435546875,0.0009771138429641724,-0.0010066748363897204,0.013003949075937271
1761916236828698400,1.204698486328125,0.0011052117915824056,-0.00027297402266412973,0.013209811411798
1761916236838754300,1.21475439453125,0.0007321029552258551,0.0009962886106222868,0.011632687412202358
1761916236848809500,1.2248095703125,-0.0009882990270853043,0.0014056164072826505,0.011070494540035725
1761916236858864400,1.234864501953125,0.0018612833227962255,-0.0007342335302382708,0.008671252056956291
1761916236868919300,1.244919189453125,-0.0015600797487422824,-0.0013646037550643086,0.010778345167636871
1761916236878975500,1.2549755859375,-0.00020000340009573847,-0.001561677665449679,0.011859056539833546
1761916236889030400,1.265030517578125,0.0005358280031941831,-0.0006290386663749814,0.01101323589682579
1761916236899085300,1.275085205078125,-0.0016812535468488932,-0.0008463526028208435,0.01185346394777298
1761916236909140200,1.28514013671875,-0.0016421051695942879,-0.001059405505657196,0.010191118344664574
1761916236919196400,1.295196533203125,0.0004961469094268978,-0.0015595471486449242,0.012061722576618195
1761916236929251300,1.305251220703125,0.00012889699428342283,0.0006530070677399635,0.010386860929429531
1761916236939306500,1.315306396484375,-0.0030455910600721836,0.0013342436868697405,0.009324259124696255
1761916236949361400,1.325361328125,0.00026498452643863857,0.00011478224041638896,0.011034009046852589
1761916236959417300,1.335417236328125,-0.0001448759576305747,0.00021784658019896597,0.013046027161180973
1761916236969472500,1.345472412109375,0.0006977482116781175,0.0008804410463199019,0.011902199126780033
1761916236979527400,1.35552734375,0.0015270565636456013,0.0031214910559356213,0.013318202458322048
1761916236989582300,1.365582275390625,-0.0004527373821474612,-0.0002798982313834131,0.012773052789270878
1761916236999638300,1.37563818359375,-0.00011984224693151191,-0.000850879936479032,0.013068131171166897
1761916237009693400,1.385693359375,0.00006444849714171141,0.0007089334540069103,0.011751997284591198
1761916237019748400,1.395748291015625,-0.0013171994360163808,-0.0007888282998465002,0.01104652602225542
1761916237029803500,1.405803466796875,-0.00010705907334340736,-0.000029827404432580806,0.009513876400887966
1761916237039859200,1.415859130859375,-0.0015004249289631844,-0.0008375641773454845,0.011961321346461773
1761916237049914400,1.425914306640625,0.0008111988427117467,-0.0015563513152301311,0.010613761842250824
1761916237059969500,1.435969482421875,-0.00039547940832562745,-0.0007211840129457414,0.012869992293417454
1761916237070025500,1.446025390625,-0.0009299758239649236,0.001683384063653648,0.009946640580892563
1761916237080080400,1.456080322265625,-0.0008101335843093693,0.0010351707460358739,0.010628409683704376
1761916237090135300,1.46613525390625,0.00015472965606022626,0.00041039311327040195,0.013635118491947651
1761916237100190500,1.4761904296875,-0.001041295938193798,0.0005126585019752383,0.012279835529625416
1761916237110246400,1.486246337890625,-0.0013568805297836661,0.002993126632645726,0.011985556222498417
1761916237120301600,1.496301513671875,-0.0004780374001711607,0.0018841864075511694,0.011259046383202076
1761916237130356200,1.506356201171875,0.0013739247806370258,0.0007680556736886501,0.014194115996360779
1761916237140411400,1.516411376953125,-0.0012500877492129803,-0.001386175281368196,0.011624963954091072
1761916237150467300,1.52646728515625,-0.0017068199813365936,0.0016772588714957237,0.011858790181577206
1761916237160522500,1.5365224609375,-0.0009374326909892261,0.00020346550445538014,0.013277456164360046
1761916237170577400,1.546577392578125,-0.0015731292078271508,0.0013712616637349129,0.01341887004673481
1761916237180632300,1.55663232421875,-0.0000500674286740832,-0.0035976641811430454,0.011933891102671623
1761916237190688300,1.566688232421875,-0.0017707358347252011,-0.0011667308863252401,0.012080631218850613
1761916237200743400,1.576743408203125,0.00008921589324017987,-0.00022130868455860764,0.013937121257185936
1761916237210798600,1.586798583984375,0.0008303736103698611,-0.0023369237314909697,0.011750399135053158
1761916237220853200,1.596853271484375,-0.001341434195637703,-0.0011046791914850473,0.014199974946677685
1761916237230909400,1.606909423828125,-0.00022929816623218358,-0.0024530377704650164,0.00971574429422617
1761916237240964400,1.61696435546875,-0.002838397165760398,-0.0001978728687390685,0.012456403113901615
1761916237251019500,1.62701953125,0.00047377636656165123,0.0014559502014890313,0.010441722348332405
1761916237261074400,1.637074462890625,0.0025246767327189445,-0.0010634001810103655,0.010372213087975979
1761916237271130400,1.64713037109375,0.001320927869528532,-0.0015425028977915645,0.010479805059731007
1761916237281185300,1.657185302734375,-0.0007097324123606086,-0.001213868847116828,0.012340822257101536
1761916237291240400,1.667240478515625,-0.0012426309986039996,-0.0014093448407948017,0.011877964250743389
1761916237301295400,1.67729541015625,-0.0013712616637349129,0.000360059377271682,0.01305348426103592
1761916237311351300,1.687351318359375,0.00010386328358436003,0.00040293627534992993,0.010427873581647873
1761916237321406500,1.697406494140625,-0.0014658038271591067,-0.0033422671258449554,0.01170512568205595
1761916237331461400,1.70746142578125,-0.0033992587123066187,0.0016072177095338702,0.009310677647590637
1761916237341516500,1.7175166015625,0.0007408913807012141,-0.002127599436789751,0.011065966449677944
1761916237351572500,1.727572509765625,-0.0015198660548776388,0.0014950985787436366,0.011678759939968586
1761916237361627400,1.73762744140625,-0.0008495483780279756,0.0002790992730297148,0.01091789547353983
1761916237371682300,1.747682373046875,0.0000679106087773107,-0.001118527608923614,0.011920841410756111
1761916237381737500,1.757737548828125,0.000523577444255352,-0.0021576930303126574,0.012083294801414013
1761916237391793400,1.76779345703125,0.0028479844331741333,-0.0012932310346513987,0.014044445939362049
1761916237401848300,1.777848388671875,-0.0005528722540475428,-0.000045273736759554595,0.011900069192051888
1761916237411903500,1.787903564453125,-0.00023435817274730653,0.0009020126308314502,0.010982077568769455
1761916237421958400,1.79795849609375,0.0018333201296627522,-0.0007371630053967237,0.010294183157384396
1761916237432014600,1.8080146484375,0.00039947417099028826,-0.0012594088912010193,0.012493421323597431
1761916237442069200,1.8180693359375,0.0014021543320268393,-0.00035899411886930466,0.012910738587379456
1761916237452124400,1.82812451171875,-0.00013182646944187582,0.0013811152894049883,0.009985522367060184
1761916237462179300,1.838179443359375,-0.0022591594606637955,-0.0017369136912748218,0.00866379588842392
1761916237472235500,1.848235595703125,0.0004942826926708221,0.00028069718973711133,0.010587130673229694
1761916237482290400,1.85829052734375,0.0002657834847923368,-0.002040514023974538,0.011746671050786972
1761916237492345300,1.868345458984375,-0.0009811085183173418,0.0024530377704650164,0.010629475116729736
1761916237502401300,1.8784013671875,-0.00040240364614874125,0.002329733222723007,0.009476592764258385
1761916237512456400,1.88845654296875,-0.0010974886827170849,0.0028786107432097197,0.012195413932204247
1761916237522511400,1.898511474609375,-0.0004021373169962317,-0.0005171858938410878,0.011375426314771175
1761916237532566300,1.908566162109375,-0.00012410330236889422,0.00012170646368758753,0.009726929478347301
1761916237542622200,1.918622314453125,0.0006862966110929847,0.0016375777777284384,0.011183146387338638
1761916237552677400,1.928677490234375,-0.0026320021133869886,0.003585147438570857,0.013001286424696445
1761916237562732500,1.938732666015625,-0.0009076052810996771,0.0001459412305848673,0.011801797896623611
1761916237572787200,1.948787109375,-0.0023060310631990433,-0.0013467605458572507,0.011433483101427555
1761916237582843400,1.958843505859375,0.0002639192680362612,-0.00017550231132190675,0.009893643669784069
1761916237592898300,1.968898193359375,0.0003502056933939457,0.0007488809060305357,0.01082628220319748
1761916237602953500,1.978953369140625,-0.0003757720405701548,0.0013946974650025368,0.012141351588070393
1761916237613008400,1.98900830078125,0.0010274475207552314,-0.00024101608141791075,0.010323744267225266
1761916237623064300,1.999064208984375,0.0014080132823437452,-0.0014122743159532547,0.013142700307071209
1761916237633119200,2.009119140625,0.0018005631864070892,0.0036434705834835768,0.012474246323108673
1761916237643174400,2.01917431640625,0.0015792545164003968,0.0026607641484588385,0.013198892585933208
1761916237653229600,2.0292294921875,0.0001739044237183407,0.001139033935032785,0.0105314701795578
1761916237663285500,2.039285400390625,0.00019734023953787982,0.003605387406423688,0.010637197643518448
1761916237673338600,2.049338623046875,0.0000852211524033919,0.0010511496802791953,0.009916546754539013
1761916237683393800,2.059393798828125,0.001141963410191238,0.001264735241420567,0.013018064200878143
1761916237693448700,2.06944873046875,-0.0023105584550648928,0.0008652610122226179,0.013008476234972477
1761916237703505000,2.0795048828125,0.0005603290628641844,0.0013872405979782343,0.009853695519268513
1761916237713559600,2.0895595703125,-0.0007315703551284969,-0.0014836470363661647,0.0100774010643363
1761916237723614700,2.09961474609375,0.00227860058657825,0.0037846181076020002,0.010889931581914425
1761916237733669600,2.109669677734375,-0.0008554073283448815,0.0001459412305848673,0.012463860213756561
1761916237743725800,2.119725830078125,0.000708134553860873,-0.0006538060260936618,0.013026053085923195
1761916237753780500,2.129780517578125,-0.0012269183062016964,0.0005550027708522975,0.013573865406215191
1761916237763835600,2.139835693359375,-0.0004386226355563849,-0.00038535939529538155,0.011769041419029236
1761916237773890800,2.149890869140625,0.0006508765509352088,0.00003968110104324296,0.011546134948730469
1761916237783946800,2.15994677734375,0.0015899071004241705,-0.00009347695595351979,0.011183678172528744
1761916237794001700,2.170001708984375,0.0007579356315545738,0.001032507512718439,0.011904063634574413
1761916237804056600,2.180056640625,0.0009536779834888875,0.00024234765442088246,0.008160457946360111
1761916237814111700,2.19011181640625,-0.0028490496333688498,0.0005584649043157697,0.01013732235878706
1761916237824167700,2.200167724609375,-0.0017299894243478775,-0.0022570290602743626,0.011999138630926609
1761916237834222800,2.210222900390625,-0.00041278995922766626,-0.00018881811411119998,0.01023000106215477
1761916237844277500,2.220277587890625,-0.0022394522093236446,0.0014093448407948017,0.008194279856979847
1761916237854332700,2.230332763671875,-0.0009614011505618691,-0.0003914846747647971,0.011256382800638676
1761916237864388600,2.240388671875,0.0021257351618260145,-0.00008069378236541525,0.011275025084614754
1761916237874443800,2.25044384765625,0.0001150485550169833,-0.00009321063407696784,0.011285677552223206
1761916237884498700,2.260498779296875,-0.0016178702935576439,0.0002615224220789969,0.011916580609977245
1761916237894553600,2.2705537109375,-0.0006450176006183028,0.001228516222909093,0.008420915342867374
1761916237904609800,2.28060986328125,0.00005885586142539978,-0.0006117281154729426,0.011181548237800598
1761916237914664700,2.290664794921875,-0.002055960241705179,-0.0007861651247367263,0.009811352007091045
1761916237924719600,2.3007197265625,0.00042450788896530867,0.00016644757124595344,0.011331750079989433
1761916237934774500,2.3107744140625,0.0004005394293926656,0.00006231796578504145,0.010381801053881645
1761916237944830700,2.320830810546875,0.0004751079250127077,0.0005637911963276565,0.01062201801687479
1761916237954885600,2.3308857421875,-0.0005382248782552779,-0.0008127967594191432,0.011744273826479912
1761916237964940800,2.34094091796875,-0.0005022721597924829,0.002454102970659733,0.011305651627480984
1761916237974996700,2.350996826171875,0.0015622102655470371,-0.00012676646292675287,0.00939003936946392
1761916237985051600,2.3610517578125,-0.0012916331179440022,-0.0020128171890974045,0.012612731195986271
1761916237995106800,2.37110693359375,-0.0013219931861385703,-0.004244279582053423,0.01110112015157938
1761916238005161700,2.38116162109375,-0.0008921589469537139,0.0012237224727869034,0.014394652098417282
1761916238015217700,2.3912177734375,0.0006026733317412436,-0.000006125270374468528,0.010714962147176266
1761916238025272600,2.4012724609375,-0.0002657834847923368,-0.0034999263007193804,0.010668623261153698
1761916238035327700,2.41132763671875,0.00007376955909421667,-0.0009635316673666239,0.012222844175994396
1761916238045382700,2.421382568359375,-0.0010365023044869304,-0.00015579492901451886,0.01173415407538414
1761916238055438800,2.43143896484375,0.00019494339358061552,-0.0007217166712507606,0.01044225413352251
1761916238065493500,2.441493408203125,-0.0011001517996191978,0.000027696874894900247,0.011269698850810528
1761916238075548700,2.451548583984375,-0.00012490226072259247,-0.0010018812026828527,0.013581322506070137
1761916238085603800,2.461603759765625,-0.0012492889072746038,0.002531068166717887,0.01332938764244318
1761916238095659800,2.47165966796875,-0.0019688750617206097,0.000010918960470007733,0.01221725158393383
1761916238105714700,2.481714599609375,-0.0022620889358222485,-0.0005137237603776157,0.012417787685990334
1761916238115769600,2.49176953125,-0.0005246427026577294,0.0014293185668066144,0.011141334660351276
1761916238125824800,2.50182470703125,0.0010215885704383254,0.0003611246356740594,0.012909673154354095
1761916238135880700,2.511880615234375,-0.0010583401890471578,0.0019475696608424187,0.013880395330488682
1761916238145936000,2.521935791015625,-0.0012716593919321895,-0.0013792511308565736,0.010536263696849346
1761916238155990500,2.531990478515625,0.000150202278746292,-0.0010295780375599861,0.011473163962364197
1761916238166045700,2.542045654296875,-0.0004905542591586709,0.0006956176948733628,0.010673949494957924
1761916238176101600,2.5521015625,0.0026192190125584602,0.000811997801065445,0.010670221410691738
1761916238186156800,2.56215673828125,-0.0012128035305067897,-0.0012311793398112059,0.010970093309879303
1761916238196211500,2.57221142578125,-0.0015848471084609628,0.00006631271389778703,0.009411078877747059
1761916238206266600,2.5822666015625,0.000850879936479032,0.00347435986623168,0.014284929260611534
1761916238216322600,2.592322509765625,0.0014721954939886928,-0.0006807039608247578,0.011798336170613766
1761916238226377700,2.602377685546875,-0.0030093719251453876,-0.0011763182701542974,0.010684601962566376
1761916238236433000,2.612432861328125,-0.0005054679932072759,-0.0021025657188147306,0.011261709034442902
1761916238246487600,2.622487548828125,0.0002740392810665071,0.0016391756944358349,0.009280317462980747
1761916238256543700,2.632543701171875,-0.001672198879532516,-0.00009454221435589716,0.01142948865890503
1761916238266598700,2.6425986328125,-0.0043502734042704105,-0.0009227853151969612,0.011414308100938797
1761916238276653800,2.65265380859375,-0.001264202524907887,-0.002370745874941349,0.013081979937851429
1761916238286708500,2.66270849609375,-0.0015190670965239406,-0.0002724413643591106,0.008898686617612839
1761916238296764700,2.6727646484375,-0.0021915151737630367,0.0029739518649876118,0.011868643574416637
1761916238306819600,2.682819580078125,0.00007856325100874528,-0.0007821703911758959,0.012197543866932392
1761916238316874800,2.692874755859375,0.000526773277670145,-0.0033782199025154114,0.009575129486620426
1761916238326930700,2.7029306640625,-0.002472478663548827,-0.0002537992550060153,0.011605789884924889
1761916238336985600,2.712985595703125,0.00030546457855962217,0.0014929680619388819,0.012628709897398949
1761916238347040800,2.723040771484375,0.001749164192005992,0.000645550258923322,0.012524314224720001
1761916238357095700,2.733095703125,0.0007480819476768374,-0.0023608922492712736,0.013968013226985931
1761916238367151600,2.743151611328125,-0.000012250540748937055,-0.0006082659820094705,0.013451626524329185
1761916238377206800,2.753206787109375,-0.0002466087171342224,-0.0023166837636381388,0.010880877263844013
1761916238387261700,2.76326171875,0.003611779073253274,-0.0020327907986938953,0.010262491181492805
1761916238397316600,2.773316650390625,0.0016338493442162871,-0.001440237509086728,0.011983426287770271
1761916238407372800,2.783372802734375,-0.0020663465838879347,0.0008519452530890703,0.012427907437086105
1761916238417427700,2.793427734375,0.0004439489566721022,0.0009494169498793781,0.011446266435086727
1761916238427482600,2.803482666015625,-0.0012548814993351698,0.0014703312190249562,0.012231365777552128
1761916238437537800,2.813537841796875,-0.0008178567513823509,0.0020751350093632936,0.012708071619272232
1761916238447593700,2.82359375,0.00026551715563982725,-0.001868473831564188,0.010801514610648155
1761916238457648600,2.833648681640625,-0.0003091930120717734,-0.002778475871309638,0.010307764634490013
1761916238467703600,2.84370361328125,-0.0012434299569576979,0.0013086773687973619,0.013206349685788155
1761916238477758700,2.8537587890625,-0.0017473000334575772,0.004145476501435041,0.00953944306820631
1761916238487814700,2.863814697265625,-0.003224555402994156,-0.00048389637959189713,0.01065291091799736
1761916238497869800,2.873869873046875,-0.0008910936885513365,0.0018658105982467532,0.009317335672676563
1761916238507924700,2.8839248046875,-0.0014269216917455196,-0.002757969545200467,0.010779676958918571
1761916238517979600,2.893979736328125,-0.0006146575906313956,0.0010301107540726662,0.012256399728357792
1761916238528035600,2.90403564453125,-0.0000697748182574287,0.0002079928817693144,0.011799135245382786
1761916238538090800,2.9140908203125,-0.001044758129864931,-0.00185036426410079,0.01047181524336338
1761916238548145700,2.924145751953125,-0.0006500775925815105,-0.0025001754984259605,0.011081679724156857
1761916238558200600,2.93420068359375,-0.0013909690314903855,-0.0007728493656031787,0.012108061462640762
1761916238568256500,2.944256591796875,-0.0004426173691172153,0.0011896340874955058,0.011892345733940601
1761916238578311700,2.954311767578125,-0.001526523963548243,0.0007302387384697795,0.010637464001774788
1761916238588366800,2.964366943359375,0.000060986389144090936,0.0004308994684834033,0.00936181005090475
1761916238598421500,2.97442138671875,-0.003072755178436637,0.00035233621019870043,0.01531450729817152
1761916238608477700,2.984477783203125,0.0016743293963372707,-0.0019030949333682656,0.010313623584806919
1761916238618532600,2.99453271484375,-0.002085787709802389,-0.001253017340786755,0.010596984066069126
1761916238628587800,3.004587890625,-0.0006884271278977394,0.0011941614793613553,0.011665976606309414
1761916238638643700,3.014643798828125,-0.002569950418546796,0.0021915151737630367,0.011906993575394154
1761916238648698600,3.02469873046875,-0.0006865629111416638,-0.0016881778137758374,0.011491806246340275
1761916238658753500,3.03475341796875,0.0012934972764924169,-0.0008913599886000156,0.010207896120846272
1761916238668808700,3.04480859375,-0.001005609636195004,0.0015795208746567369,0.011487811803817749
1761916238678865200,3.054865234375,0.0014655375853180885,-0.0008900284301489592,0.010765296407043934
1761916238688920300,3.06492041015625,0.002272741636261344,-0.0007896272582001984,0.00830693170428276
1761916238698975000,3.07497509765625,0.0006700513185933232,0.00025033715064637363,0.01031495537608862
1761916238709030100,3.085030029296875,-0.00007243797881528735,-0.000669252360239625,0.01113068126142025
1761916238719086000,3.095086181640625,0.0009238505735993385,0.0005451490869745612,0.009675797075033188
1761916238729141200,3.105141357421875,0.00009614011651137844,-0.0021635519806295633,0.01164573710411787
1761916238739196200,3.115196044921875,0.0007222492713481188,0.0006921555614098907,0.012171445414423943
1761916238749251000,3.1252509765625,0.0005153216770850122,-0.0006229133578017354,0.010603642091155052
1761916238759307300,3.135307373046875,-0.00003488740912871435,-0.001788312685675919,0.012002067640423775
1761916238769362200,3.145362060546875,-0.001288171042688191,0.0031577101908624172,0.010607902891933918
1761916238779417000,3.1554169921875,0.0009510148083791137,0.001186970854178071,0.010977549478411674
1761916238789472000,3.165471923828125,-0.003453853540122509,-0.0007768440991640091,0.011596468277275562
1761916238799528200,3.175528076171875,0.00007004113285802305,0.004461860284209251,0.009099489077925682
1761916238809583000,3.1855830078125,0.0005427522119134665,0.003537210635840893,0.011112572625279427
1761916238819638300,3.19563818359375,0.0010953581659123302,0.0006034722900949419,0.011299792677164078
1761916238829693200,3.205693115234375,-0.0010751180816441774,-0.001961684552952647,0.01320768054574728
1761916238839749000,3.2157490234375,0.00018109494703821838,-0.004285824950784445,0.01028352975845337
1761916238849804300,3.22580419921875,-0.0008016114588826895,0.001416002749465406,0.01203908585011959
1761916238859859200,3.235859130859375,0.000660463934764266,0.0017496967921033502,0.013223127461969852
1761916238869914000,3.2459140625,0.0014748586108908057,0.00006418218254111707,0.011885421350598335
1761916238879970000,3.255969970703125,-0.002002430846914649,-0.00065460498444736,0.010237723588943481
1761916238890025200,3.266025146484375,-0.0002561961009632796,-0.0012575446162372828,0.01338584627956152
1761916238900080000,3.276080078125,0.0023121563717722893,0.0030277478508651257,0.012444951571524143
1761916238910135000,3.286135009765625,-0.0007297061383724213,-0.001329716295003891,0.009832656942307949
1761916238920191000,3.29619091796875,0.0003539340978022665,-0.0016085492679849267,0.010971158742904663
1761916238930246100,3.30624609375,-0.0008617989369668067,-0.00003781688792514615,0.013343768194317818
1761916238940301000,3.316301025390625,-0.0020509003661572933,-0.0009363674325868487,0.01074132788926363
1761916238950356200,3.326356201171875,0.00025592977181077003,0.0016098808264359832,0.011730159632861614
1761916238960412200,3.336412109375,-0.000672448193654418,-0.00008735168376006186,0.010863300412893295
1761916238970467000,3.346467041015625,-0.00023542344570159912,0.00035606464371085167,0.010880344547331333
1761916238980522200,3.356522216796875,0.0009113337146118283,0.0016913736471906304,0.011464109644293785
1761916238990578200,3.366578125,-0.001133174984715879,0.002757969545200467,0.01332805585116148
1761916239000633300,3.37663330078125,0.00022610237647313625,0.0012114719720557332,0.011634019203484058
1761916239010688000,3.38668798828125,-0.002284725895151496,0.001538241864182055,0.010539459995925426
1761916239020743200,3.3967431640625,0.00006897587445564568,0.0004213120846543461,0.010969826951622963
1761916239030799000,3.406799072265625,-0.000568318588193506,-0.0010964233661070466,0.012779977172613144
1761916239040854300,3.416854248046875,0.000297475082334131,-0.000002663161012605997,0.011900868266820908
1761916239050909000,3.426908935546875,0.0006125270738266408,0.0003765709698200226,0.01176584605127573
1761916239060964000,3.436964111328125,-0.0014271880500018597,-0.0009523464250378311,0.009765013121068478
1761916239071020000,3.44702001953125,0.0011685950448736548,-0.0014375743921846151,0.012317652814090252
1761916239081075200,3.4570751953125,-0.00012357067316770554,0.0007182545377872884,0.00908297672867775
1761916239091130400,3.46713037109375,-0.0003701793903019279,0.0011145329335704446,0.010467288084328175
1761916239101185000,3.47718505859375,0.00020719393796753138,-0.0013233247445896268,0.011758122593164444
1761916239111241200,3.4872412109375,0.0006213154993019998,-0.003001648932695389,0.008640360087156296
1761916239121296100,3.497296142578125,-0.0005749764968641102,0.0007747135823592544,0.008579373359680176
1761916239131351300,3.507351318359375,-0.00037390782381407917,0.001187503570690751,0.009410812519490719
1761916239141406000,3.517406005859375,-0.0010125337867066264,-0.0008016114588826895,0.010480337776243687
1761916239151462100,3.527462158203125,-0.00019094864546786994,-0.0012205267557874322,0.009612679481506348
1761916239161517000,3.53751708984375,0.0021907163318246603,0.00008388957212446257,0.014162157662212849
1761916239171572200,3.547572265625,0.0016564861871302128,0.001743571599945426,0.011778628453612328
1761916239181627100,3.557627197265625,-0.0011534150689840317,0.0010610034223645926,0.011110175400972366
1761916239191683000,3.56768310546875,0.000010918960470007733,0.001898034941405058,0.011603659018874168
1761916239201738200,3.57773828125,-0.0012695288751274347,0.001116130850277841,0.009695503860712051
1761916239211793200,3.587793212890625,-0.00022849922243040055,-0.0008761800127103925,0.0116750318557024
1761916239221848300,3.597848388671875,-0.001276453142054379,-0.000040746363083599135,0.011833223514258862
1761916239231904000,3.607904052734375,0.0007672567153349519,0.0018783274572342634,0.011602859944105148
1761916239241959200,3.617959228515625,-0.0011744539951905608,0.0007283745799213648,0.010327472351491451
1761916239252014000,3.62801416015625,-0.0006407565670087934,0.0014346449170261621,0.011062771081924438
1761916239262070300,3.6380703125,-0.0036826191935688257,-0.00023409185814671218,0.012011389248073101
1761916239272125200,3.648125244140625,-0.0001560612436151132,0.0003408846096135676,0.012014051899313927
1761916239282180000,3.65818017578125,0.0015158712631091475,0.002683401107788086,0.010209760628640652
1761916239292235300,3.6682353515625,-0.0011685950448736548,-0.0002801645314320922,0.012260660529136658
1761916239302291200,3.678291259765625,-0.0005539375124499202,-0.0023068301379680634,0.012767193838953972
1761916239312346000,3.68834619140625,0.0008096009842120111,0.0037497307639569044,0.011348261497914791
1761916239322401000,3.698401123046875,-0.0011174624087288976,-0.0017102820565924048,0.010366886854171753
1761916239332456200,3.708456298828125,-0.0024623586796224117,-0.000853809411637485,0.01212537195533514
1761916239342512000,3.71851220703125,-0.0020777983590960503,-0.002326271263882518,0.0089391665533185
1761916239352567300,3.7285673828125,-0.00039494677912443876,-0.00004420847471919842,0.011268633417785168
1761916239362622200,3.738622314453125,-0.0005520732956938446,0.0006207828409969807,0.011998073197901249
1761916239372677000,3.748677001953125,-0.0000013315805063029984,-0.001975799212232232,0.01119513064622879
1761916239382733000,3.758733154296875,-0.0006460828590206802,-0.003078614128753543,0.012046809308230877
1761916239392788200,3.768788330078125,0.0023148194886744022,-0.000809068325906992,0.011541341431438923
1761916239402843100,3.778843017578125,0.00042024682625196874,0.0002796319022309035,0.010753312148153782
1761916239412898000,3.78889794921875,0.0010745854815468192,-0.0016471651615574956,0.01167556457221508
1761916239422954000,3.7989541015625,-0.001284975209273398,-0.0016072177095338702,0.013321397826075554
1761916239433009200,3.809009033203125,0.0005004079430364072,0.0003304982965346426,0.01152749266475439
1761916239443064300,3.819064208984375,-0.0012112056137993932,0.0012634035665541887,0.011472364887595177
1761916239453119000,3.829118896484375,0.000461259507574141,-0.0011776498286053538,0.011407383717596531
1761916239463175200,3.839175048828125,0.0018823222490027547,-0.000818123109638691,0.013737383298575878
1761916239473230000,3.84922998046875,-0.00037444045301526785,-0.0025094966404139996,0.01115997601300478
1761916239483285200,3.85928515625,-0.0008990831556729972,-0.0016567525453865528,0.008556736633181572
1761916239493340200,3.869340087890625,-0.0004271710349712521,0.0014743260107934475,0.010927216149866581
1761916239503396000,3.87939599609375,-0.001609081868082285,0.0017678063595667481,0.010744256898760796
1761916239513451000,3.889450927734375,-0.00012889699428342283,0.0020964404102414846,0.010816428810358047
1761916239523506200,3.899506103515625,0.002429868094623089,-0.0032586439047008753,0.011641476303339005
1761916239533561300,3.909561279296875,0.00022770027862861753,0.0010934938909485936,0.0107120331376791
1761916239543617300,3.9196171875,-0.001606685109436512,0.0021632856223732233,0.012522716075181961
1761916239553672200,3.929672119140625,-0.0017054883064702153,0.0007635282818228006,0.009456085972487926
1761916239563727000,3.93972705078125,-0.000708134553860873,-0.0016418388113379478,0.011235610581934452
1761916239573783000,3.949782958984375,-0.0013749900972470641,-0.0013281183782964945,0.011158112436532974
1761916239583838200,3.959838134765625,-0.0023547669406980276,0.001615473534911871,0.01062015350908041
1761916239593893000,3.96989306640625,0.0002836266648955643,0.0026964505668729544,0.012510199099779129
1761916239603948000,3.979947998046875,-0.00010652644414221868,0.0016250609187409282,0.011314705945551395
1761916239614004200,3.990004150390625,-0.0011174624087288976,0.0005491438205353916,0.012943228706717491
1761916239624056000,4.00005615234375,-0.0006996124284341931,0.002139050979167223,0.011281150393188
1761916239634111200,4.010111328125,-0.0003866909828502685,0.0013731258222833276,0.011023356579244137
1761916239644167200,4.020167236328125,0.0015667376574128866,-0.0036991306114941835,0.012042813934385777
1761916239654222300,4.030222412109375,-0.0005699164466932416,-0.0018423747969791293,0.01044225413352251
1761916239664277000,4.040277099609375,0.002228533150628209,-0.00025592977181077003,0.012061189860105515
1761916239674332200,4.050332275390625,0.0010817759903147817,-0.0009523464250378311,0.010451043024659157
1761916239684391700,4.0603916015625,-0.00029055087361484766,0.0011669971281662583,0.01124892570078373
1761916239694446800,4.07044677734375,-0.0012990899849683046,-0.0003992078418377787,0.012079565785825253
1761916239704501800,4.080501708984375,-0.00036458674003370106,0.0010000169277191162,0.01073813159018755
1761916239714556700,4.090556640625,-0.0011020160745829344,-0.0006788397440686822,0.009862484410405159
1761916239724612600,4.100612548828125,-0.000916393706575036,0.00016192019393201917,0.013493438251316547
1761916239734667800,4.110667724609375,-0.0018823222490027547,-0.002171275205910206,0.010924287140369415
1761916239744723000,4.120722900390625,-0.001344363670796156,-0.0003427488263696432,0.012296613305807114
1761916239754777600,4.130777587890625,0.001433845958672464,0.00013795174891129136,0.011927233077585697
1761916239764833800,4.140833740234375,-0.0003246393462177366,0.0006918892613612115,0.013794375583529472
1761916239774888700,4.150888671875,0.0012775183422490954,-0.0015329155139625072,0.01326973270624876
1761916239784943900,4.16094384765625,-0.000014647385796706658,0.000630902883131057,0.012614861130714417
1761916239794999800,4.170999755859375,-0.0005573995877057314,-0.0033960631117224693,0.012686233967542648
1761916239805054700,4.1810546875,0.0007155913626775146,0.0003499393642414361,0.012458267621695995
1761916239815109600,4.191109619140625,0.0008969526388682425,-0.0009147958480753005,0.01059272326529026
1761916239825164800,4.201164794921875,-0.0013193299528211355,-0.001356347929686308,0.01158634852617979
1761916239835220700,4.211220703125,0.00019441076437942684,-0.0015275891637429595,0.011417238041758537
1761916239845276000,4.22127587890625,0.00045540055725723505,-0.000360059377271682,0.010715228505432606
1761916239855330800,4.231330810546875,0.0006234460161067545,-0.002269279444590211,0.0123056685552001
1761916239865385700,4.2413857421875,-0.002276203827932477,0.0010090717114508152,0.011560515500605106
1761916239875441700,4.251441650390625,-0.001261805766262114,0.000143544384627603,0.007157511543482542
1761916239885496800,4.261496826171875,0.0016495619202032685,0.0023611586075276136,0.011930961161851883
1761916239895551700,4.2715517578125,-0.0005874933558516204,0.0026589001063257456,0.011124024167656898
1761916239905606700,4.281606689453125,-0.0006434197421185672,0.0005933523061685264,0.010696053504943848
1761916239915662800,4.291662841796875,-0.0018602180061861873,-0.002120941411703825,0.01107555441558361
1761916239925717800,4.3017177734375,0.0012903015594929457,-0.002639458980411291,0.011559983715415001
1761916239935772700,4.311772705078125,-0.0000125168571685208,-0.0007174555794335902,0.012991432100534439
1761916239945827800,4.321827880859375,0.0030509172938764095,-0.00008415588672505692,0.0106505136936903
1761916239955883800,4.3318837890625,-0.0018282600212842226,0.0021584921050816774,0.01125025749206543
1761916239965938700,4.341938720703125,-0.00020532972121145576,0.000764593540225178,0.009393502026796341
1761916239975993900,4.351993896484375,-0.001241033081896603,0.0007872303831391037,0.012538162060081959
1761916239986048800,4.362048828125,-0.0020905814599245787,0.002642122097313404,0.012973056174814701
1761916239996104700,4.372104736328125,0.0004801679460797459,-0.0010543455136939883,0.012254003435373306
1761916240006160000,4.382159912109375,-0.0003326288133393973,-0.0008535431115888059,0.012820723466575146
1761916240016214800,4.39221484375,0.0001752359967213124,-0.0005102616851218045,0.01101403497159481
1761916240026269700,4.402269775390625,0.000018375811123405583,-0.0012266519479453564,0.011683021672070026
1761916240036325600,4.41232568359375,-0.0010990865994244814,-0.0011387676931917667,0.012016715481877327
1761916240046380800,4.422380859375,-0.0003818972909357399,0.00063383235828951,0.009183377958834171
1761916240056435700,4.432435791015625,-0.0010213222121819854,0.0012538161827251315,0.010291519574820995
1761916240066492000,4.442491943359375,0.0012024171883240342,0.0021228056866675615,0.014244715683162212
1761916240076546600,4.452546630859375,0.00048602689639665186,-0.0024439829867333174,0.011196994222700596
1761916240086601700,4.462601806640625,0.0007384945638477802,0.0008442220860160887,0.011384480632841587
1761916240096657000,4.472656982421875,-0.003102849004790187,0.0009374326909892261,0.011174623854458332
1761916240106712800,4.482712890625,0.0003259709046687931,0.0017859158106148243,0.011716843582689762
1761916240116768000,4.49276806640625,-0.0011177286505699158,0.0013347762869670987,0.01050350721925497
1761916240126822700,4.50282275390625,-0.002159557305276394,-0.0015654060989618301,0.010824684053659439
1761916240136877800,4.5128779296875,-0.0019563580863177776,0.00017443705291952938,0.012601811438798904
1761916240146933800,4.522933837890625,0.0009376989910379052,-0.0004828310920856893,0.011567972600460052
1761916240156989000,4.532989013671875,-0.002011485630646348,0.0017302557826042175,0.009223592467606068
1761916240167043600,4.543043701171875,-0.0003992078418377787,-0.0010655306978151202,0.013349627144634724
1761916240177098800,4.5530986328125,-0.0011837751371785998,-0.0016982977977022529,0.010601244866847992
1761916240187154700,4.56315478515625,-0.0003171824791934341,-0.001407214323990047,0.010861968621611595
1761916240197209900,4.5732099609375,-0.00006684534309897572,-0.0014484933344647288,0.009914415888488293
1761916240207264800,4.5832646484375,0.0003581951605156064,0.0011377023765817285,0.012909406796097755
1761916240217319700,4.593319580078125,0.0005403553950600326,0.0016048208344727755,0.010367952287197113
1761916240227375900,4.6033759765625,-0.0013134710025042295,-0.0011867046123370528,0.012208729051053524
1761916240237430800,4.6134306640625,0.00273133791051805,-0.0015614113071933389,0.01040630228817463
1761916240247486000,4.62348583984375,-0.0009749832679517567,-0.0004519384237937629,0.012732839211821556
1761916240257540600,4.63354052734375,0.0006407565670087934,-0.0026929883752018213,0.009141034446656704
1761916240267596800,4.6435966796875,-0.0004010720585938543,0.0012152004055678844,0.011815646663308144
1761916240277651700,4.653651611328125,0.000009853695701167453,0.0002103897277265787,0.012592757120728493
1761916240287707000,4.663706787109375,-0.002083124592900276,-0.0007302387384697795,0.012721654027700424
1761916240297761800,4.67376171875,0.0013262542197480798,-0.0013843111228197813,0.009401490911841393
1761916240307817700,4.683817626953125,-0.00043329631444066763,-0.001175519311800599,0.011729360558092594
1761916240317872600,4.69387255859375,0.0007781756576150656,-0.0013811152894049883,0.009545834735035896
1761916240327927800,4.703927734375,-0.0033987262286245823,0.002731071785092354,0.010861169546842575
1761916240337983700,4.713983642578125,-0.0009606021922081709,-0.0006471481174230576,0.009883789345622063
1761916240348038700,4.72403857421875,-0.00036911413189955056,-0.0015542207984253764,0.010233995504677296
1761916240358093800,4.73409375,-0.0003251719754189253,-0.0025939189363271,0.010704576037824154
1761916240368148700,4.744148681640625,-0.0010194580536335707,-0.0016532903537154198,0.013201289810240269
1761916240378205000,4.754204833984375,-0.00023995080846361816,0.0023513049818575382,0.009701362811028957
1761916240388259800,4.764259765625,-0.0013257216196507215,0.0021518340799957514,0.010657171718776226
1761916240398314800,4.774314697265625,-0.0018303906545042992,-0.0023148194886744022,0.011818043887615204
1761916240408369700,4.78436962890625,-0.0007185208378359675,0.0046568033285439014,0.009339439682662487
1761916240418425900,4.79442578125,-0.000963797967415303,-0.0010138654615730047,0.011472897604107857
1761916240428480800,4.804480712890625,-0.0005083974683657289,-0.0011369034182280302,0.01233602873980999
1761916240438535700,4.81453564453125,0.00007456851017195731,0.00017470336752012372,0.009674731642007828
1761916240448590800,4.8245908203125,0.00010066748654935509,0.0006370281334966421,0.010846522636711597
1761916240458646800,4.834646728515625,0.0004444815858732909,-0.0016266588354483247,0.010492854751646519
1761916240468702000,4.844701904296875,-0.0015182681381702423,0.00037444045301526785,0.012182630598545074
1761916240478756600,4.854756591796875,0.0011440940434113145,0.00035260253935121,0.011499529704451561
1761916240488811800,4.864811767578125,0.0005763080553151667,-0.00019627496658358723,0.011442005634307861
1761916240498867700,4.87486767578125,0.0026554379146546125,-0.002061553066596389,0.010672884061932564
1761916240508923000,4.8849228515625,0.0006506102508865297,-0.00010918960470007733,0.012684369459748268
1761916240518977800,4.894977783203125,-0.000336090917699039,0.00004261057620169595,0.012137356214225292
1761916240529032700,4.90503271484375,0.0002170476218452677,0.0015480954898521304,0.010291785933077335
1761916240539088600,4.915088623046875,-0.003201119601726532,0.000713993504177779,0.009710684418678284
1761916240549143800,4.925143798828125,0.0012434299569576979,0.0019022959750145674,0.013803429901599884
1761916240559199000,4.935198974609375,-0.0006242449744604528,0.00006364954606397077,0.011832690797746181
1761916240569255000,4.9452548828125,0.0005917543894611299,-0.0010921623324975371,0.009377788752317429
1761916240579309800,4.955309814453125,0.00029055087361484766,0.000404534162953496,0.011277155950665474
1761916240589364700,4.96536474609375,0.0008554073283448815,0.0004724447790067643,0.013921940699219704
1761916240599420000,4.975419921875,-0.0019081549253314734,-0.00044022052315995097,0.011549330316483974
1761916240609475800,4.985475830078125,-0.001311873085796833,-0.00169563468080014,0.011577294208109379
1761916240619530800,4.99553076171875,-0.0008535431115888059,0.0008705873624421656,0.012748286128044128
1761916240629585700,5.005585693359375,0.000180029688635841,-0.00036911413189955056,0.013030581176280975
1761916240639640800,5.015640869140625,-0.002752110594883561,0.00027750138542614877,0.010949320159852505
1761916240649696800,5.02569677734375,0.0021646174136549234,-0.000975782226305455,0.01209660992026329
1761916240659751700,5.035751708984375,-0.0015627428656443954,0.0011688614031299949,0.010466755367815495
1761916240669806600,5.045806640625,-0.00046152580762282014,0.0032490564044564962,0.0131522873416543
1761916240679858000,5.05585791015625,-0.0004593952908180654,0.0025569009594619274,0.014209561981260777
1761916240689914000,5.0659140625,0.00032890037982724607,0.002397910226136446,0.013785853050649166
1761916240699969000,5.075968994140625,-0.0003057308786083013,0.0007294398383237422,0.011097658425569534
1761916240710024200,5.086024169921875,0.0010932276491075754,-0.0019374496769160032,0.011568771675229073
1761916240720078800,5.096078857421875,0.0003376888344064355,-0.0009989517275243998,0.010207097046077251
1761916240730135000,5.106135009765625,-0.0012921657180413604,-0.0010604707058519125,0.009472331032156944
1761916240740190000,5.11618994140625,-0.00035659727291204035,0.00012064119800925255,0.010454504750669003
1761916240750245000,5.1262451171875,-0.0009118663729168475,-0.00145222176797688,0.0085439532995224
1761916240760300000,5.136300048828125,-0.0011622034944593906,0.0025015072897076607,0.008758870884776115
1761916240770356000,5.14635595703125,0.0012333098566159606,0.0006050702068023384,0.01184866949915886
1761916240780411000,5.156410888671875,-0.002463423879817128,0.00044528054422698915,0.012316054664552212
1761916240790466000,5.166466064453125,-0.003531351685523987,-0.0014357101172208786,0.011845207773149014
1761916240800521200,5.176521240234375,0.0004852279380429536,0.0024264061357825994,0.01266972254961729
1761916240810577000,5.186576904296875,0.00024154871061909944,0.00016591492749284953,0.011607919819653034
1761916240820632000,5.196632080078125,-0.0008580705034546554,0.00253426400013268,0.01095544546842575
1761916240830687000,5.20668701171875,-0.0014436995843425393,-0.002493517706170678,0.011346131563186646
1761916240840742100,5.2167421875,-0.0010772485984489322,0.00250496924854815,0.01056209672242403
1761916240850798000,5.226798095703125,-0.00042637207661755383,0.0014825817197561264,0.010186857543885708
1761916240860853000,5.23685302734375,-0.0006463492172770202,-0.000290018244413659,0.010300574824213982
1761916240870908000,5.246907958984375,0.0001411475386703387,-0.0011440940434113145,0.012197011150419712
1761916240880963000,5.256963134765625,0.0006729807937517762,0.0011033476330339909,0.012289955280721188
1761916240891019000,5.26701904296875,-0.000290018244413659,-0.00017470336752012372,0.0093892402946949
1761916240901074000,5.277073974609375,-0.004464257042855024,-0.00041864890954457223,0.011373295448720455
1761916240911129000,5.287129150390625,-0.0009462211164645851,-0.0014897723449394107,0.011877698823809624
1761916240921185000,5.29718505859375,-0.001745968358591199,-0.0002924150903709233,0.011316037736833096
1761916240931240200,5.307240234375,-0.00023915186466183513,-0.00032437301706522703,0.012924853712320328
1761916240941294800,5.317294921875,0.0014958975370973349,-0.0017369136912748218,0.013379454612731934
1761916240951350000,5.32735009765625,-0.0037438718136399984,0.001023452845402062,0.012117915786802769
1761916240961406000,5.337406005859375,-0.0010716560063883662,-0.00227939966134727,0.009315737523138523
1761916240971461000,5.347461181640625,0.0007153250626288354,-0.0004516721237450838,0.011412976309657097
1761916240981516000,5.35751611328125,-0.0019097528420388699,-0.0018663433147594333,0.01188062783330679
1761916240991571000,5.367571044921875,-0.0031470574904233217,0.0025510420091450214,0.013401293195784092
1761916241001627000,5.377626953125,0.0019915117882192135,-0.0011411645682528615,0.013117666356265545
1761916241011682000,5.38768212890625,0.0006511429091915488,0.002628007438033819,0.012031895108520985
1761916241021737200,5.3977373046875,0.0010269149206578732,-0.0009976201690733433,0.012015117332339287
1761916241031791900,5.4077919921875,0.0004037352045997977,0.0002537992550060153,0.012221512384712696
1761916241041848000,5.41784814453125,-0.0004391552647575736,0.00037204360705800354,0.011346131563186646
1761916241051903000,5.427903076171875,0.0012391688069328666,-0.0005573995877057314,0.011965583078563213
1761916241061958100,5.437958251953125,-0.00024767397553659976,-0.0007832356495782733,0.012725116685032845
1761916241072013000,5.448012939453125,-0.0020208065398037434,0.0007238471880555153,0.013367470353841782
1761916241082069000,5.458069091796875,0.000046072687837295234,0.0024594292044639587,0.012179700657725334
1761916241092124000,5.4681240234375,0.0013757890556007624,0.00034967303508892655,0.011656655929982662
1761916241102179000,5.478178955078125,-0.0029904635157436132,-0.0014112089993432164,0.010718424804508686
1761916241112234200,5.488234130859375,-0.000055393749789800495,-0.001651159836910665,0.010641725733876228
1761916241122290200,5.498290283203125,-0.0018330537714064121,0.00030306773260235786,0.012839365750551224
1761916241132345000,5.508344970703125,-0.0020698087755590677,0.00045806370326317847,0.011155715212225914
1761916241142400000,5.51839990234375,0.0006434197421185672,0.0016202671686187387,0.009779660031199455
1761916241152455200,5.528455078125,-0.0010932276491075754,-0.00038828887045383453,0.012400477193295956
1761916241162511000,5.538510986328125,0.0004410194815136492,0.0024471788201481104,0.009986854158341885
1761916241172566000,5.54856591796875,0.0008801747462712228,0.0012279836228117347,0.0130319120362401
1761916241182621000,5.558620849609375,0.0011028150329366326,-0.0005573995877057314,0.01299196481704712
1761916241192676000,5.568676025390625,-0.002103897277265787,0.003721234854310751,0.011627094820141792
1761916241202732000,5.57873193359375,0.002569417702034116,-0.0020362529903650284,0.011266236193478107
1761916241212787000,5.588786865234375,0.00013848437811248004,-0.0029502499382942915,0.011785819195210934
1761916241222841900,5.598841796875,0.0004034689045511186,-0.0015310513554140925,0.01062361616641283
1761916241232897000,5.60889697265625,-0.0002487392339389771,0.002552373567596078,0.011957859620451927
1761916241242953000,5.618952880859375,0.00039974047103896737,0.00018668759730644524,0.013845774345099926
1761916241253008100,5.629008056640625,0.0017542241839691997,-0.0022538332268595695,0.011893943883478642
1761916241263063000,5.63906298828125,0.0007392935222014785,0.0012924320762977004,0.012060390785336494
1761916241273119000,5.649118896484375,0.0008202536264434457,-0.0003677825443446636,0.010416155681014061
1761916241283174100,5.659174072265625,-0.001151284552179277,0.0002162486780434847,0.011648666113615036
1761916241293229000,5.66922900390625,0.000663393409922719,-0.0018274611793458462,0.011520568281412125
1761916241303284000,5.679283935546875,0.0023784691002219915,0.00028815402765758336,0.011146128177642822
1761916241313340000,5.68933984375,-0.001886317040771246,-0.0012112056137993932,0.008923985995352268
1761916241323395000,5.69939501953125,0.0012548814993351698,0.000022903184799361043,0.012005530297756195
1761916241333450000,5.709449951171875,-0.0013978932984173298,-0.001657285145483911,0.013658820651471615
1761916241343505000,5.7195048828125,-0.00041438787593506277,-0.0033923345617949963,0.008553273975849152
1761916241353560800,5.729560791015625,0.0007142598042264581,-0.0012487561907619238,0.009248625487089157
1761916241363616000,5.739615966796875,-0.0006266417913138866,0.002674612682312727,0.01023000106215477
1761916241373671200,5.749671142578125,-0.0008407599525526166,0.0018815232906490564,0.01341407559812069
1761916241383726000,5.75972607421875,-0.0001613875647308305,0.0006191849242895842,0.01079672109335661
1761916241393782000,5.769781982421875,-0.0014809839194640517,0.00038775624125264585,0.010801248252391815
1761916241403837000,5.7798369140625,-0.00037151097785681486,0.0013880395563319325,0.008508266881108284
1761916241413892000,5.78989208984375,0.001582982949912548,0.000011717908819264267,0.01179354265332222
1761916241423947000,5.799947021484375,0.0007693872321397066,0.001597363967448473,0.012054531835019588
1761916241434003200,5.810003173828125,-0.0010479538468644023,-0.0033009881153702736,0.01125345379114151
1761916241444057900,5.820057861328125,-0.000523843802511692,-0.0004988100845366716,0.012418320402503014
1761916241454113000,5.830113037109375,0.0005395564367063344,0.000075101139373146,0.011502991430461407
1761916241464168200,5.840168212890625,-0.0023331954143941402,0.0006346312584355474,0.010511763393878937
1761916241474224000,5.85022412109375,-0.0009885653853416443,0.00046578687033616006,0.01206784788519144
1761916241484279000,5.860279052734375,-0.0009616674506105483,0.0001715075777610764,0.013740579597651958
1761916241494334000,5.870333984375,-0.0003981425834354013,-0.0036815537605434656,0.013907027430832386
1761916241504389000,5.88038916015625,0.0010330402292311192,0.00012756542128045112,0.012025769799947739
1761916241514445000,5.890445068359375,-0.0006937534781172872,0.0026501116808503866,0.01278663519769907
1761916241524500200,5.900500244140625,-0.0020873856265097857,0.0007787083159200847,0.012530173175036907
1761916241534555000,5.910554931640625,-0.0003350256592966616,-0.0028423918411135674,0.0153163718059659
1761916241544610000,5.920610107421875,0.0006024070316925645,-0.001930525409989059,0.011381285265088081
1761916241554666000,5.930666015625,0.0019374496769160032,-0.000020506340661086142,0.01263882964849472
1761916241564721200,5.94072119140625,0.002150236163288355,-0.00017097493400797248,0.01067821029573679
1761916241574775800,5.95077587890625,-0.0017201356822624803,-0.0012082761386409402,0.010966097936034203
1761916241584831000,5.9608310546875,-0.0017480988753959537,-0.0010551444720476866,0.010275274515151978
1761916241594887000,5.970886962890625,-0.0008303736103698611,0.0034107104875147343,0.01146757137030363
1761916241604942000,5.980942138671875,-0.0003283677506260574,0.0024913870729506016,0.010874751955270767
1761916241614997000,5.9909970703125,-0.004533232655376196,-0.0007640608819201589,0.013263074681162834
1761916241625052000,6.001052001953125,0.0014535533264279366,0.0004218447138555348,0.014372281730175018
1761916241635108000,6.011108154296875,0.001561944023706019,-0.0014538196846842766,0.01056422758847475
1761916241645163000,6.0211630859375,0.001321194227784872,-0.0007305050967261195,0.010753578506410122
1761916241655218200,6.03121826171875,0.0012932310346513987,0.000046871635277057067,0.010249707847833633
1761916241665273900,6.04127392578125,0.00015419702685903758,0.001261805766262114,0.012646819464862347
1761916241675329000,6.0513291015625,0.0007582019316032529,-0.0005259743193164468,0.012447881512343884
1761916241685387300,6.06138720703125,-0.0028605014085769653,-0.0038461373187601566,0.011925102211534977
1761916241695442400,6.0714423828125,-0.0012596751330420375,0.00004340952364145778,0.011415107175707817
1761916241705498400,6.081498291015625,-0.0006996124284341931,-0.0014301175251603127,0.009737848304212093
1761916241715553300,6.09155322265625,-0.0010804444318637252,-0.000627707049716264,0.012300075963139534
1761916241725608400,6.1016083984375,0.000639691308606416,-0.0003510046226438135,0.010811901651322842
1761916241735663400,6.111663330078125,-0.0005581985460594296,0.0005344964447431266,0.01381248515099287
1761916241745719600,6.121719482421875,0.000037550569686573,0.001201884588226676,0.011049188673496246
1761916241755774500,6.1317744140625,-0.0013134710025042295,0.0015869776252657175,0.010261159390211105
1761916241765829400,6.141829345703125,-0.0005728459218516946,-0.0012540825409814715,0.010184993036091328
1761916241775884300,6.15188427734375,-0.0006649913266301155,0.0002378202771069482,0.010128800757229328
1761916241785940500,6.1619404296875,0.001113201375119388,0.0007936219917610288,0.012926717288792133
1761916241795995400,6.171995361328125,-0.00009241169027518481,-0.0008764463127590716,0.01167396642267704
1761916241806050300,6.18205029296875,-0.0022924491204321384,-0.0006130596739239991,0.011361843906342983
1761916241816105500,6.19210546875,-0.0018232000293210149,-0.0004756405542138964,0.012563728727400303
1761916241826161400,6.202161376953125,0.000011717908819264267,-0.0014194648247212172,0.010568754747509956
1761916241836216600,6.212216552734375,-0.0018618159228935838,0.0004013383586425334,0.009700830094516277
1761916241846271500,6.222271484375,-0.0010402307379990816,0.002217081608250737,0.00815246906131506
1761916241856326400,6.232326416015625,0.00020772656716872007,0.00013395700079854578,0.011024422012269497
1761916241866382300,6.24238232421875,0.0005640574963763356,0.0015816513914614916,0.012885704636573792
1761916241876437500,6.2524375,-0.0011432950850576162,0.002243180526420474,0.013553359545767307
1761916241886492400,6.262492431640625,-0.00021917815320193768,-0.00041571943438611925,0.00989470910280943
1761916241896547300,6.27254736328125,-0.0004159857635386288,-0.00012863067968282849,0.010558368638157845
1761916241906603300,6.282603271484375,-0.00017603494052309543,-0.001916144392453134,0.013737383298575878
1761916241916658400,6.292658447265625,0.0006804376607760787,0.000604004948399961,0.009259810671210289
1761916241926713300,6.30271337890625,-0.0012460930738598108,0.0007723167072981596,0.012745089828968048
1761916241936768300,6.312768310546875,-0.00043276368523947895,-0.004860002547502518,0.012473979964852333
1761916241946824200,6.32282421875,0.000222373942960985,0.0009502158500254154,0.011137339286506176
1761916241956879400,6.33287939453125,0.0011592740193009377,0.001907355966977775,0.009358614683151245
1761916241966934500,6.3429345703125,-0.0014362427173182368,0.0004516721237450838,0.00857511255890131
1761916241976989400,6.352989501953125,-0.0013670006301254034,-0.0009025452891364694,0.009439308196306229
1761916241987045400,6.36304541015625,-0.0021142836194485426,-0.0004644552827812731,0.012687832117080688
1761916241997100300,6.373100341796875,-0.0016327840276062489,0.0024607607629150152,0.01101563312113285
1761916242007155500,6.383155517578125,0.0009446232579648495,-0.003151318524032831,0.009650496765971184
1761916242017210400,6.39321044921875,-0.0000066579027588886674,-0.0003989415417890996,0.014024472795426846
1761916242027266600,6.4032666015625,-0.0009805759182199836,0.0013941648649051785,0.01257810927927494
1761916242037321200,6.4133212890625,0.0010165285784751177,-0.0009379653492942452,0.010209227912127972
1761916242047376400,6.42337646484375,-0.0012234562309458852,0.00023702133330516517,0.007799067068845034
1761916242057431600,6.433431640625,-0.0009182579233311117,0.003052515210583806,0.013294766657054424
1761916242067487500,6.443487548828125,-0.000672181835398078,-0.000004793690095539205,0.010742126032710075
1761916242077542400,6.45354248046875,-0.0002996056282427162,0.00022690132027491927,0.009861418977379799
1761916242087597300,6.463597412109375,0.00043595946044661105,0.0016857809387147427,0.0121839614585042
1761916242097653500,6.473653564453125,-0.0009257147903554142,0.002721750643104315,0.011408449150621891
1761916242107708400,6.48370849609375,-0.0008996158139780164,0.00006924218905624002,0.01059272326529026
1761916242117763300,6.493763427734375,-0.0033340114168822765,-0.0000697748182574287,0.013709953054785728
1761916242127818200,6.503818359375,0.00130920996889472,-0.001416002749465406,0.011786351911723614
1761916242137874400,6.51387451171875,-0.0008697884040884674,-0.00044314999831840396,0.011346930637955666
1761916242147929300,6.523929443359375,0.00016192019393201917,-0.0011744539951905608,0.01290354784578085
1761916242157984500,6.533984619140625,0.0018018947448581457,-0.0004732437082566321,0.013252688571810722
1761916242168039400,6.544039306640625,0.0013997574569657445,0.0013550163712352514,0.010440656915307045
1761916242178095400,6.554095458984375,-0.0023299995809793472,0.000565122754778713,0.013084376230835915
1761916242188150500,6.564150634765625,-0.00006844323797849938,-0.0009454221581108868,0.011536813341081142
1761916242198205400,6.574205322265625,-0.00236302288249135,0.0015970977256074548,0.011197260580956936
1761916242208260400,6.58426025390625,-0.0001347559446003288,0.0006202502408996224,0.010435597039759159
1761916242218316300,6.59431640625,0.0006910903030075133,0.0002460760879330337,0.012967463582754135
1761916242228371500,6.604371337890625,0.0014407701091840863,-0.0009084042394533753,0.012449745088815689
1761916242238426400,6.61442626953125,0.0016668725293129683,0.0031502533238381147,0.010540791787207127
1761916242248481500,6.6244814453125,0.00105301383882761,-0.0001776328426785767,0.011061439290642738
1761916242258537200,6.634537109375,0.00043649208964779973,-0.00023196132679004222,0.011551727540791035
1761916242268592400,6.64459228515625,0.0010151970200240612,-0.0008684568456374109,0.011185009963810444
1761916242278647300,6.654647216796875,0.0009060074225999415,-0.0010772485984489322,0.010433732531964779
1761916242288702500,6.664702392578125,0.0012170645641162992,-0.0008868326549418271,0.013079049997031689
1761916242298758400,6.67475830078125,-0.0009840379934757948,0.0006940197781659663,0.012942962348461151
1761916242308813300,6.684813232421875,-0.0016101471846923232,0.0001877528557088226,0.012020709924399853
1761916242318868500,6.694868408203125,0.001517469179816544,-0.0021813951898366213,0.011440407484769821
1761916242328923400,6.70492333984375,-0.00010759170982055366,0,0.012271047569811344
1761916242338979600,6.7149794921875,-0.000182959163794294,0.00079735042527318,0.010613229125738144
1761916242349034200,6.7250341796875,-0.0023177489638328552,-0.0021901836153119802,0.012704343535006046
1761916242359089400,6.73508935546875,0.0006908240029588342,-0.0015156050212681293,0.006986270658671856
1761916242369144300,6.745144287109375,-0.0006514092092402279,-0.001094559207558632,0.010972755961120129
1761916242379200500,6.755200439453125,0.00045673211570829153,0.0016357135027647018,0.011321363970637321
1761916242389255200,6.765255126953125,0.0005217132274992764,0.001141963410191238,0.012537895701825619
1761916242399310300,6.775310302734375,-0.0020865867845714092,0.002578738844022155,0.01320794690400362
1761916242409365500,6.785365478515625,0.0007440872141160071,-0.0006231797160580754,0.012153602205216885
1761916242419421400,6.79542138671875,-0.0005131911602802575,-0.0015816513914614916,0.012555738911032677
1761916242429476600,6.8054765625,0.0007371630053967237,-0.0012444951571524143,0.011120295152068138
1761916242439531300,6.81553125,0.001996838254854083,0.0002335592289455235,0.013076920062303543
1761916242449586400,6.82558642578125,0.001434112200513482,0.0001507349224993959,0.010899519547820091
1761916242459642400,6.835642333984375,-0.0008633967954665422,-0.0009606021922081709,0.009341037832200527
1761916242469697500,6.845697509765625,-0.0001893507578643039,0.0024833977222442627,0.01136796921491623
1761916242479752200,6.855752197265625,-0.0015020228456705809,0.002290851203724742,0.011366371065378189
1761916242489807400,6.865807373046875,-0.0007334345718845725,0.0007313040550798178,0.01125185564160347
1761916242499863300,6.87586328125,-0.0011241203173995018,0.0022626216523349285,0.013305685482919216
1761916242509918500,6.88591845703125,0.0017744642682373524,-0.0002817624481394887,0.011018030345439911
1761916242519973400,6.895973388671875,-0.0016141419764608145,0.0016351809026673436,0.014246313832700253
1761916242530028300,6.9060283203125,0.0016682040877640247,-0.0009930927772074938,0.014059093780815601
1761916242540084500,6.91608447265625,0.0003438140847720206,-0.0022863238118588924,0.011693407781422138
1761916242550139400,6.926139404296875,-0.0020546286832541227,-0.002546780975535512,0.012102202512323856
1761916242560194600,6.936194580078125,0.0013462279457598925,0.0010452907299622893,0.011273426935076714
1761916242570249200,6.946249267578125,0.0004964132094755769,0.0006836334359832108,0.01065344363451004
1761916242580305400,6.956305419921875,0.0006649913266301155,-0.00041545313433744013,0.010978614911437035
1761916242590360300,6.9663603515625,0.0016365124611184,0.0008096009842120111,0.010231331922113895
1761916242600415500,6.97641552734375,-0.0001430117554264143,-0.0010551444720476866,0.010320015251636505
1761916242610470400,6.986470458984375,-0.000007456851108145202,0.001100684516131878,0.010038519278168678
1761916242620526300,6.9965263671875,-0.0004652542411349714,0.0005464806454256177,0.01227690652012825
1761916242630581500,7.00658154296875,0.00021837920940015465,0.00030892668291926384,0.01275760680437088
1761916242640636400,7.016636474609375,-0.00145222176797688,0.0026469158474355936,0.010331466794013977
1761916242650692400,7.0266923828125,0.0000045273736759554595,0.0011912320042029023,0.008644887246191502
1761916242660747300,7.036747314453125,0.0016937704058364034,-0.0018730012234300375,0.012660933658480644
1761916242670802400,7.046802490234375,-0.000045806369598722085,0.0005637911963276565,0.013079849071800709
1761916242680854000,7.05685400390625,-0.002176867797970772,0.0002956108655780554,0.011049721390008926
1761916242690910200,7.06691015625,0.0006388923502527177,-0.0004721784498542547,0.010513360612094402
1761916242700964900,7.07696484375,-0.0012780509423464537,0.0005171858938410878,0.010762632824480534
1761916242711020000,7.08702001953125,-0.0011491540353745222,-0.00013369068619795144,0.010910172015428543
1761916242721075000,7.097074951171875,-0.0009507485083304346,-0.0010756507981568575,0.0129363052546978
1761916242731131100,7.107131103515625,-0.002011485630646348,0.0012775183422490954,0.011445467360317707
1761916242741185800,7.117185791015625,0.0006924218614585698,0.0009363674325868487,0.011952799744904041
1761916242751241000,7.127240966796875,0.0014229270163923502,0.0006681871018372476,0.009876066818833351
1761916242761296100,7.137296142578125,-0.0004527373821474612,0.00020586235041264445,0.0111019192263484
1761916242771352000,7.14735205078125,0.0010689928894862533,-0.00011158645065734163,0.012055597268044949
1761916242781407200,7.1574072265625,-0.0006000102148391306,-0.0003091930120717734,0.01025716494768858
1761916242791462000,7.1674619140625,-0.00037630466977134347,-0.0008109325426630676,0.014511831104755402
1761916242801517000,7.17751708984375,0.0009925601771101356,0.0020730046089738607,0.011377024464309216
1761916242811573000,7.187572998046875,-0.0011400992516428232,0.0011323761427775025,0.011787683703005314
1761916242821628200,7.197628173828125,-0.0018322548130527139,0.003221093211323023,0.01088886708021164
1761916242831682800,7.207682861328125,-0.0000577905957470648,0.0012405004817992449,0.009352489374577999
1761916242841738000,7.217738037109375,0.00256382510997355,0.0015981629258021712,0.010991930961608887
1761916242851794000,7.2277939453125,-0.002046106616035104,0.0011720572365447879,0.009430519305169582
1761916242861849000,7.23784912109375,-0.0007419566973112524,-0.004463191609829664,0.012238023802638054
1761916242871904300,7.247904296875,-0.0017363809747621417,-0.002284992253407836,0.009696302935481071
1761916242881959000,7.257958984375,-0.0000697748182574287,-0.001966744428500533,0.010351440869271755
1761916242892015000,7.26801513671875,-0.0018271948210895061,0.001181644620373845,0.009761017747223377
1761916242902070000,7.278070068359375,-0.0009147958480753005,0.0012777847005054355,0.010977284051477909
1761916242912125200,7.288125244140625,-0.000672448193654418,-0.0009060074225999415,0.012145878747105598
1761916242922179800,7.298179931640625,0.0020506340079009533,-0.0033153691329061985,0.010933607816696167
1761916242932236000,7.308236083984375,-0.000966727442573756,0.00005219795639277436,0.012225240468978882
1761916242942291000,7.318291015625,-0.0011518171522766352,0.000006125270374468528,0.013138971291482449
1761916242952346000,7.32834619140625,0.00098190747667104,-0.000036751622246811166,0.012742427177727222
1761916242962401000,7.338401123046875,-0.0008338357438333333,0.0016445019282400608,0.01119459792971611
1761916242972457000,7.34845703125,-0.0022447784431278706,0.0004271710349712521,0.009588977321982384
1761916242982511900,7.358511962890625,0.001615207176655531,0.0022860574536025524,0.011392736807465553
1761916242992567000,7.368567138671875,-0.000508663768414408,-0.0004772384709212929,0.009294698014855385
1761916243002622200,7.378622314453125,0.00005326322207110934,0.00017896443023346364,0.014281733892858028
1761916243012678000,7.388677978515625,-0.0013640711549669504,-0.00040799626731313765,0.013354155234992504
1761916243022733000,7.398733154296875,-0.0007869640830904245,0.0030341395176947117,0.011963452212512493
1761916243032788000,7.4087880859375,-0.000027430558475316502,-0.0027478495612740517,0.009646235965192318
1761916243042843100,7.418843017578125,-0.0001507349224993959,0.0010985539993271232,0.011975702829658985
1761916243052899000,7.428899169921875,0.00011638013529591262,0.00043595946044661105,0.010160758160054684
1761916243062954000,7.4389541015625,-0.0002713761059567332,-0.0011547466274350882,0.012093680910766125
1761916243073009000,7.4490087890625,-0.0008841694798320532,0.0007009439868852496,0.011750665493309498
1761916243083064000,7.45906396484375,-0.00022663500567432493,0.0015696671325713396,0.009434248320758343
1761916243093120000,7.4691201171875,-0.0015571502735838294,-0.001210673013702035,0.010849718004465103
1761916243103175000,7.4791748046875,0.0019331886433064938,0.0018160095205530524,0.012238290160894394
1761916243113230000,7.48922998046875,-0.0008154599345289171,0.0009475527331233025,0.011432950384914875
1761916243123286000,7.4992861328125,-0.00029108350281603634,0.002965696156024933,0.009604157879948616
1761916243133341200,7.509341064453125,-0.0008809737046249211,0.0006705839768983424,0.011359713971614838
1761916243143396000,7.51939599609375,0.0017243968322873116,0.0022096247412264347,0.011516307480633259
1761916243153451000,7.529450927734375,0.00022317290131468326,-0.0008862999966368079,0.013741112314164639
1761916243163507000,7.5395068359375,-0.0008660599705763161,0.0026466494891792536,0.008081628940999508
1761916243173562000,7.54956201171875,-0.002205097349360585,0.00030652983696199954,0.01224761176854372
1761916243183617000,7.559616943359375,0.001228516222909093,-0.000004793690095539205,0.012031895108520985
1761916243193672000,7.569671875,0.0024506407789885998,0.0011329087428748608,0.012891563586890697
1761916243203728000,7.579727783203125,-0.0005936186062172055,-0.0010037453612312675,0.010583668015897274
1761916243213783000,7.589782958984375,0.000011451592399680521,0.001103880233131349,0.011857458390295506
1761916243223838200,7.599838134765625,-0.004277835600078106,0.000016245283404714428,0.01236132811754942
1761916243233892900,7.609892822265625,-0.0015646071406081319,0.0020695424173027277,0.013997041620314121
1761916243243949000,7.619948974609375,0.0016556872287765145,-0.0008434231276623905,0.011012171395123005
1761916243254004000,7.63000390625,0.0010037453612312675,0.001588575541973114,0.010240120813250542
1761916243264059100,7.64005908203125,-0.000009853695701167453,-0.0034437335561960936,0.011266502551734447
1761916243274114000,7.650114013671875,-0.0009486179915256798,-0.0018993664998561144,0.009304285980761051
1761916243284170000,7.660169921875,0.0005049353349022567,0.0015763250412419438,0.01131204329431057
1761916243294225000,7.670224853515625,-0.0007062703371047974,0.0006937534781172872,0.011714180000126362
1761916243304280000,7.680280029296875,-0.0006048039067536592,-0.0006261091912165284,0.013916348107159138
1761916243314335200,7.690335205078125,-0.0011952266795560718,-0.0014447649009525776,0.01101350225508213
1761916243324391200,7.70039111328125,-0.0012522183824330568,-0.0017219999572262168,0.012850817292928696
1761916243334446000,7.710446044921875,0.00031664984999224544,-0.001335841603577137,0.01070723868906498
1761916243344501000,7.7205009765625,-0.0007827030494809151,0.0010940266074612737,0.012150938622653484
1761916243354556200,7.73055615234375,0.0017504957504570484,0.002124137245118618,0.010694456286728382
1761916243364612000,7.740612060546875,-0.0019105518003925681,0.0013651363551616669,0.011143464595079422
1761916243374667000,7.7506669921875,0.00011371697473805398,0.0004519384237937629,0.012033226899802685
1761916243384722000,7.760721923828125,0.000844754686113447,0.0005603290628641844,0.0105916578322649
1761916243394777000,7.770777099609375,-0.0025960493367165327,-0.002442651428282261,0.014190386980772018
1761916243404833000,7.7808330078125,0.0006061354652047157,-0.00038535939529538155,0.008963135071098804
1761916243414888000,7.790887939453125,-0.001612277701497078,-0.0008173241512849927,0.013050554320216179
1761916243424942800,7.80094287109375,-0.0011044129496440291,0.00042450788896530867,0.011286742985248566
1761916243434998000,7.810998046875,-0.0002692455891519785,-0.0001685781026026234,0.011448662728071213
1761916243445054000,7.821053955078125,-0.0008396946941502392,0.001151284552179277,0.011127485893666744
1761916243455109000,7.831109130859375,0.00003488740912871435,-0.0018399780383333564,0.013199958018958569
1761916243465164000,7.8411640625,-0.0006972155533730984,-0.003531617810949683,0.010689395479857922
1761916243475219000,7.851218994140625,-0.0006828344776295125,-0.001773132593370974,0.01251286268234253
1761916243485275100,7.861275146484375,0.00002157160452043172,-0.0004146541759837419,0.012820989824831486
1761916243495330000,7.871330078125,0.0013875069562345743,-0.0008862999966368079,0.009093363769352436
1761916243505385000,7.881385009765625,-0.0012290488230064511,-0.0022096247412264347,0.010968495160341263
1761916243515439900,7.89143994140625,-0.001609081868082285,-0.0009326389990746975,0.01031495537608862
1761916243525496000,7.90149609375,-0.000428502622526139,0.0002585929469205439,0.012692092917859554
1761916243535551000,7.911551025390625,-0.0013933659065514803,-0.00004314320904086344,0.011361311189830303
1761916243545606100,7.921606201171875,0.0025827335193753242,-0.0009118663729168475,0.011769307777285576
1761916243555661000,7.9316611328125,-0.0002716424351092428,-0.00017204020696226507,0.00914316438138485
1761916243565717000,7.941717041015625,-0.0003028014034498483,0.001005609636195004,0.010538660921156406
1761916243575772200,7.951772216796875,0.0008380967774428427,0.00005805691034765914,0.010142914950847626
1761916243585827000,7.9618271484375,0.001589108258485794,-0.0007941546500660479,0.0133288549259305
1761916243595882000,7.971882080078125,0.0014375743921846151,-0.0002897519152611494,0.008873652666807175
1761916243605938000,7.98193798828125,-0.00005858954318682663,-0.002144377212971449,0.01338824350386858
1761916243615993000,7.9919931640625,-0.0023228090722113848,0.0011949603212997317,0.011620703153312206
1761916243626048000,8.002048095703126,0.0003304982965346426,-0.0021723404061049223,0.010485664010047913
1761916243636103000,8.01210302734375,-0.0006921555614098907,0.001797101111151278,0.009828129783272743
1761916243646158800,8.022158935546875,0.0011941614793613553,-0.0015728629659861326,0.011168498545885086
1761916243656214000,8.032214111328125,-0.000054861116950633004,-0.0010191916953772306,0.014150972478091717
1761916243666269200,8.042269287109375,0.0014583469601348042,0.0008391620358452201,0.012499013915657997
1761916243676324000,8.052323974609376,-0.002630936913192272,-0.0010841728653758764,0.011177021078765392
1761916243686383000,8.062383056640625,0.0010527475969865918,-0.00138031633105129,0.012838033959269524
1761916243696437800,8.072437744140625,-0.000107858024421148,-0.0032615733798593283,0.012924054637551308
1761916243706493000,8.082492919921876,0.000618918624240905,0.0010040117194876075,0.011967180296778679
1761916243716547800,8.0925478515625,-0.0010133327450603247,-0.00010120012302650139,0.011463576927781105
1761916243726604000,8.10260400390625,-0.00019520970818120986,0.0005494101205840707,0.012262791395187378
1761916243736658700,8.11265869140625,-0.0001310275256400928,0.0016277240356430411,0.013699566945433617
1761916243746713900,8.1227138671875,-0.00017443705291952938,-0.0005819007055833936,0.011686749756336212
1761916243756769000,8.13276904296875,0.0027361316606402397,0.00006444849714171141,0.01185080036520958
1761916243766825000,8.142824951171875,-0.000577107013668865,0.0021470405627042055,0.011767443269491196
1761916243776879900,8.1528798828125,0.0004897553008049726,-0.0014599448768422008,0.011738681234419346
1761916243786934800,8.162934814453125,-0.00245143985375762,0.0007419566973112524,0.011379154399037361
1761916243796990000,8.172989990234376,-0.001925199176184833,-0.0007211840129457414,0.011079815216362476
1761916243807046000,8.1830458984375,-0.0000929443194763735,0.002001898130401969,0.013514743186533451
1761916243817101000,8.19310107421875,0.003766242414712906,0.0009408948244526982,0.010121343657374382
1761916243827155700,8.20315576171875,-0.0014732606941834092,-0.00009614011651137844,0.010807373560965061
1761916243837211000,8.2132109375,-0.00010599380766507238,-0.00028309403569437563,0.012960007414221764
1761916243847266800,8.223266845703124,0.000987500068731606,0.002121474128216505,0.010319216176867485
1761916243857322000,8.233322021484375,-0.0010420948965474963,0.0004652542411349714,0.013370133936405182
1761916243867377000,8.243376953125,0.0010753844399005175,-0.004448011517524719,0.01236212719231844
1761916243877432800,8.253432861328125,0.0007411577389575541,-0.002582201035693288,0.01085584331303835
1761916243887488000,8.263488037109376,-0.000287088769255206,0.0012538161827251315,0.011259579099714756
1761916243897543000,8.27354296875,-0.0012833772925660014,0.00304612354375422,0.013039369136095047
1761916243907597800,8.283597900390625,-0.0017379788914695382,0.002466353354975581,0.010333331301808357
1761916243917653800,8.29365380859375,0.0015363775892183185,0.0008460862445645034,0.009123457595705986
1761916243927709000,8.303708984375,-0.0019417107105255127,0.0002487392339389771,0.01070777140557766
1761916243937763800,8.313763916015626,0.0019925772212445736,0.001484445994719863,0.011174623854458332
1761916243947819000,8.323819091796874,0.0002511360798962414,0.002252235310152173,0.013344034552574158
1761916243957875000,8.333875,0.003481284249573946,-0.0020841897930949926,0.01074159424751997
1761916243967929900,8.343929931640625,0.001359277404844761,-0.0016783240716904402,0.01299569383263588
1761916243977985000,8.353985107421876,0.0001102548703784123,-0.0014618091518059373,0.011657721363008022
1761916243988040000,8.3640400390625,0.003590740030631423,-0.0002031991898547858,0.013303021900355816
1761916243998096000,8.374095947265625,-0.0009305084822699428,0.0015369103057309985,0.01022760383784771
1761916244008150800,8.38415087890625,0.00034221619716845453,-0.0015241270884871483,0.01170379389077425
1761916244018206000,8.3942060546875,0.0006998787284828722,0.0005102616851218045,0.013089170679450035
1761916244028260900,8.4042607421875,0.000853809411637485,0.0021369203459471464,0.010607902891933918
1761916244038317000,8.414317138671874,-0.00015819176041986793,-0.00213585514575243,0.011409248225390911
1761916244048371700,8.424371826171875,0.001449025934562087,0.002681004349142313,0.0121852932497859
1761916244058427000,8.434427001953125,-0.002013349672779441,-0.002416286151856184,0.012625513598322868
1761916244068482000,8.44448193359375,-0.001148355077020824,0.0014144048327580094,0.009198025800287724
1761916244078538000,8.4545380859375,-0.0007150587625801563,-0.0020817930344492197,0.011551727540791035
1761916244088593000,8.464593017578125,0.00028389296494424343,0.0014825817197561264,0.010359962470829487
1761916244098647800,8.474647705078125,0.00033928672201000154,-0.0014253237750381231,0.009689644910395145
1761916244108703000,8.484702880859375,0.00019574233738239855,-0.0018455706303939223,0.013651896268129349
1761916244118759000,8.494759033203126,-0.001487641828134656,-0.0002924150903709233,0.012959741055965424
1761916244128814000,8.50481396484375,-0.0021555626299232244,0.002551840851083398,0.011462245136499405
1761916244138868700,8.51486865234375,0.0008250473183579743,-0.000045806369598722085,0.010112554766237736
1761916244148924000,8.524923828125,-0.0011576761025935411,0.00035420042695477605,0.011964784003794193
1761916244158979800,8.534979736328125,-0.001445830101147294,-0.0008884305134415627,0.01068167295306921
1761916244169035000,8.545034912109376,-0.00046685212873853743,-0.00003328951424919069,0.011679026298224926
1761916244179089700,8.555089599609374,-0.0004087952256668359,-0.001088966615498066,0.01173415407538414
1761916244189144800,8.565144775390625,-0.0012825783342123032,-0.0023521038237959146,0.013735786080360413
1761916244199200800,8.57520068359375,0.00009906959166983142,-0.0014761901693418622,0.009824667125940323
1761916244209257700,8.5852578125,-0.0018887137994170189,-0.001318264752626419,0.011236408725380898
1761916244219313000,8.59531298828125,0.0005725796218030155,0.0006205165409483016,0.014168016612529755
1761916244229368000,8.6053681640625,0.00006205165118444711,0.002427471335977316,0.009336243383586407
1761916244239422700,8.615422607421875,0.00015206649550236762,-0.0009139968897216022,0.012136291712522507
1761916244249479000,8.62547900390625,0.0016847157385200262,-0.0016756609547883272,0.011669971980154514
1761916244259533800,8.635533935546874,0.0003038666909560561,-0.0026040389202535152,0.010973288677632809
1761916244269589000,8.645589111328125,0.0018485001055523753,0.0008815063047222793,0.009186041541397572
1761916244279644000,8.655643798828125,-0.0005464806454256177,-0.00043835630640387535,0.013254286721348763
1761916244289699800,8.665699951171876,-0.000966727442573756,0.0016535567119717598,0.011938418261706829
1761916244299754800,8.675754638671876,-0.003489007242023945,0.0001531317684566602,0.009730391204357147
1761916244309810000,8.685809814453124,-0.0008916263468563557,0.0016317188274115324,0.009209210984408855
1761916244319865000,8.695864990234375,-0.0007145261042751372,0.001948634977452457,0.011700864881277084
1761916244329921000,8.705921142578125,-0.0008101335843093693,0.0009334379574283957,0.011783422902226448
1761916244339976000,8.715975830078126,-0.00008122641156660393,0.0015997608425095677,0.011604191735386848
1761916244350030800,8.72603076171875,-0.00028309403569437563,0.0011198592837899923,0.013369068503379822
1761916244360086000,8.7360859375,0.00006338323146337643,0.0015078817959874868,0.01085877325385809
1761916244370142000,8.746141845703125,-0.00041758365114219487,-0.00015233281010296196,0.012870258651673794
1761916244380196900,8.75619677734375,0.0011984225129708648,-0.0015952334506437182,0.011418037116527557
1761916244390251800,8.766251708984376,0.0009403621661476791,-0.004772384651005268,0.01068167295306921
1761916244400307000,8.776306884765624,-0.0006407565670087934,0.0017065536230802536,0.010971425101161003
1761916244410363000,8.78636279296875,0.0005589975044131279,0.001050350721925497,0.01127901952713728
1761916244420417800,8.796417724609375,-0.0018868496408686042,0.003418699838221073,0.011698734015226364
1761916244430473000,8.806472900390625,-0.0017164073651656508,-0.0006301039247773588,0.010409764014184475
1761916244440528000,8.81652783203125,-0.0024293356109410524,0.0021025657188147306,0.01317918486893177
1761916244450583800,8.826583740234375,-0.002275138394907117,-0.000720118754543364,0.010727745480835438
1761916244460639000,8.836638916015625,0.0002972087822854519,-0.0012689962750300765,0.011545602232217789
1761916244470694000,8.84669384765625,-0.000690291344653815,-0.002459961920976639,0.011969311162829399
1761916244480748800,8.856748779296876,-0.0010543455136939883,0.0030368026345968246,0.012548016384243965
1761916244490805000,8.866804931640624,-0.0002258360618725419,0.001088700257241726,0.01221378892660141
1761916244500860000,8.87685986328125,0.0010080065112560987,0.0030956584960222244,0.012941365130245686
1761916244510914800,8.886914794921875,-0.0005049353349022567,-0.0007701861904934049,0.011413242667913437
1761916244520970000,8.896969970703125,-0.0002205097407568246,0.001139566651545465,0.009779127314686775
1761916244531026000,8.90702587890625,-0.0022069616243243217,0.0003091930120717734,0.008834770880639553
1761916244541080800,8.917080810546874,-0.0007789746159687638,-0.000559263804461807,0.009814014658331871
1761916244551135700,8.9271357421875,-0.0009829727932810783,0.002293514320626855,0.009320531040430069
1761916244561191000,8.93719091796875,0.003376621985808015,-0.00213638786226511,0.011177287437021732
1761916244571246800,8.947246826171876,0.0005089300684630871,-0.0010002832859754562,0.010608169250190258
1761916244581302000,8.957302001953124,-0.0005749764968641102,-0.001528920722194016,0.01284495834261179
1761916244591357000,8.96735693359375,-0.0005320995696820319,-0.0008660599705763161,0.010847588069736958
1761916244601411800,8.977411865234375,0.0002721750643104315,-0.0006207828409969807,0.00902864895761013
1761916244611467800,8.9874677734375,0.0017142767319455743,-0.0010950918076559901,0.009301356039941311
1761916244621523000,8.99752294921875,-0.0003147856332361698,0.00040719733806326985,0.013345899060368538
1761916244631577900,9.007577880859374,0.001175519311800599,0.0020876519847661257,0.010450776666402817
1761916244641632800,9.0176328125,-0.0006708502769470215,0.0017475662752985954,0.010300574824213982
1761916244651688700,9.027688720703125,-0.002296976512297988,0.0005139900604262948,0.012017514556646347
1761916244661743900,9.037743896484375,-0.002109489869326353,0.00196434766985476,0.012149606831371784
1761916244671799000,9.047799072265626,-0.0005089300684630871,-0.000371777277905494,0.013005014508962631
1761916244681850000,9.05785009765625,0.0003611246356740594,0.0013704627053812146,0.009602027013897896
1761916244691906300,9.06790625,0.0012751214671880007,-0.0029947245493531227,0.01215519942343235
1761916244701961000,9.0779609375,-0.0014146711910143495,0.0037199032958596945,0.010222011245787144
1761916244712016100,9.08801611328125,0.0012689962750300765,0.0008383630774915218,0.013254020363092422
1761916244722071300,9.0980712890625,0.00041092574247159064,0.001976331928744912,0.01317971758544445
1761916244732127200,9.108127197265626,-0.0017073525814339519,0.0012146678054705262,0.012524314224720001
1761916244742182100,9.11818212890625,0.0008860336965881288,0.0006769755273126066,0.010087788105010986
1761916244752237000,9.128237060546875,-0.0013755226973444223,-0.00014700648898724467,0.01326706912368536
1761916244762292200,9.138292236328125,0.0006375607335940003,0.0011627360945567489,0.010525611229240894
1761916244772348200,9.14834814453125,0.0016327840276062489,0.002597380895167589,0.010088320821523666
1761916244782403300,9.1584033203125,-0.0007845672662369907,-0.002386458683758974,0.01116237323731184
1761916244792458000,9.1684580078125,0.003058107802644372,0.0009592706337571144,0.010297112166881561
1761916244802513200,9.17851318359375,-0.0019971043802797794,0.002240783767774701,0.013319533318281174
1761916244812569000,9.188569091796875,0.000645550258923322,0.0007941546500660479,0.01194161456078291
1761916244822624300,9.198624267578126,-0.0005664543714374304,0.002538258908316493,0.008772186003625393
1761916244832679000,9.208678955078126,-0.0012383698485791683,-0.0019350528018549085,0.010880344547331333
1761916244842734000,9.218734130859374,0.0014769891276955605,-0.000461259507574141,0.012016981840133667
1761916244852790000,9.2287900390625,0.0024373249616473913,-0.0019715381786227226,0.010548780672252178
1761916244862845200,9.23884521484375,0.000565122754778713,-0.000618918624240905,0.01209687627851963
1761916244872900400,9.248900390625,-0.0018868496408686042,-0.0004527373821474612,0.011737083084881306
1761916244882955000,9.258955078125,0.0035228293854743242,-0.0025190841406583786,0.011210310272872448
1761916244893011200,9.26901123046875,-0.0011289139511063695,0.0006934871198609471,0.011855327524244785
1761916244903066000,9.279066162109375,-0.0010908307740464807,0.0008455536444671452,0.014395184814929962
1761916244913121300,9.289121337890625,-0.0013427657540887594,0.0005547364708036184,0.010280334390699863
1761916244923176000,9.299176025390626,-0.0013377057621255517,-0.0003936151915695518,0.007065366487950087
1761916244933232000,9.309232177734375,-0.0036370791494846344,0.002145442645996809,0.012147210538387299
1761916244943287000,9.319287109375,0.0036525253672152758,-0.0000066579027588886674,0.012399411760270596
1761916244953342200,9.32934228515625,-0.0015579492319375277,0.00025992453447543085,0.009999104775488377
1761916244963397400,9.3393974609375,-0.0001203748834086582,0.0014567491598427296,0.011884888634085655
1761916244973453000,9.349453125,0.00037390782381407917,-0.0006929545197635889,0.012252938002347946
1761916244983508200,9.35950830078125,-0.00021118867152836174,-0.001955292886123061,0.011550928466022015
1761916244993563100,9.369563232421875,-0.0010873686987906694,-0.0008335694437846541,0.009699232876300812
1761916245003618300,9.379618408203125,-0.00043356261448934674,-0.0014056164072826505,0.010539459995925426
1761916245013674200,9.38967431640625,-0.0007635282818228006,-0.0017422399250790477,0.012267851270735264
1761916245023729200,9.399729248046874,-0.0027395938523113728,0.00030360036180354655,0.010836401954293251
1761916245033784000,9.4097841796875,-0.002547047333791852,0.0014865765115246177,0.009946640580892563
1761916245043839200,9.419839111328125,-0.0024290692526847124,0.0016133430181071162,0.013234046287834644
1761916245053895200,9.429895263671876,0.002439721953123808,0.0019403791520744562,0.011188206262886524
1761916245063950000,9.4399501953125,0.002100168727338314,0.0010061422362923622,0.012357866391539574
1761916245074005200,9.450005126953124,-0.0008788431296125054,-0.0002820287481881678,0.012374377809464931
1761916245084061200,9.460061279296875,0.00014647385978605598,0.0015166702214628458,0.011876899749040604
1761916245094116000,9.4701162109375,0.0005725796218030155,0.0009824400767683983,0.013822072185575962
1761916245104171000,9.4801708984375,0.0010554107138887048,-0.000046339002437889576,0.013774934224784374
1761916245114226200,9.49022607421875,-0.0028847360517829657,0.0023441144730895758,0.012020443566143513
1761916245124282000,9.5002822265625,-0.001407214323990047,0.0005350290448404849,0.01022813655436039
1761916245134337300,9.510337158203125,-0.0006383596919476986,-0.0007555388147011399,0.013077186420559883
1761916245144392200,9.52039208984375,0.0014620753936469555,-0.0008466189028695226,0.011344267055392265
1761916245154447000,9.530447021484376,-0.00025486451340839267,-0.0011291803093627095,0.011484615504741669
1761916245164502000,9.540501953125,-0.0011494202772155404,-0.0022943131625652313,0.01290168333798647
1761916245174558200,9.55055810546875,-0.00006498113361885771,-0.00005352953667170368,0.0138431116938591
1761916245184613000,9.560613037109375,0.000699079770129174,-0.0009720537927933037,0.011290204711258411
1761916245194668000,9.57066796875,-0.0021654162555933,-0.0005568669876083732,0.011028682813048363
1761916245204724000,9.580723876953124,0.0018937737913802266,0.00022956448083277792,0.012088887393474579
1761916245214779100,9.590779052734375,0.0034179009962826967,0.0011717908782884479,0.010791661217808723
1761916245224834300,9.600834228515625,-0.0017891116440296173,-0.0001310275256400928,0.011285943910479546
1761916245234889000,9.610888916015625,0.00012623383372556418,0.0024980450980365276,0.011842544190585613
1761916245244944100,9.620944091796876,0.00112438655924052,0.0010961571242660284,0.01194241363555193
1761916245255000000,9.631,-0.0010343717876821756,0.0037971350830048323,0.01016581803560257
1761916245265055200,9.64105517578125,0.0003451456723269075,-0.00007430219557136297,0.008780442178249359
1761916245275110100,9.651110107421875,-0.001317998394370079,0.0009504822082817554,0.01444125734269619
1761916245285165000,9.6611650390625,-0.002389388158917427,0.0015150723047554493,0.011406851932406425
1761916245295221000,9.671220947265626,-0.0010793792316690087,-0.000949150591623038,0.008107993751764297
1761916245305276200,9.681276123046874,-0.00030599720776081085,0.0012157330056652427,0.011435613967478275
1761916245315331300,9.691331298828125,-0.0010285128373652697,-0.0007882956997491419,0.011465707793831825
1761916245325386000,9.701385986328125,0.0010109359864145517,-0.00119575927965343,0.01088673621416092
1761916245335442200,9.711442138671876,0.0017441042000427842,0.0015957661671563983,0.012279302813112736
1761916245345497000,9.7214970703125,-0.0016223976854234934,0.0012663330417126417,0.01206971239298582
1761916245355552300,9.73155224609375,0.0005147890187799931,-0.0024892566725611687,0.01440903265029192
1761916245365607200,9.741607177734375,0.0005411543534137309,-0.002447711303830147,0.012018579989671707
1761916245375663000,9.7516630859375,-0.00011904330312972888,-0.0007422229973599315,0.010441189631819725
1761916245385718000,9.761718017578126,-0.0017885789275169373,0.0017275925492867827,0.012521650642156601
1761916245395773200,9.771773193359374,-0.0012801815755665302,-0.00045619948650710285,0.011610050685703754
1761916245405828400,9.781828369140625,-0.003355582943186164,-0.0019038938917219639,0.012317652814090252
1761916245415884300,9.79188427734375,0.000258859246969223,-0.0002580603177193552,0.010396714322268963
1761916245425939200,9.801939208984376,-0.000937166390940547,0.0015574166318401694,0.01206678245216608
1761916245435994000,9.811994140625,0.0004122573300264776,-0.0006143912323750556,0.010248642414808273
1761916245446049300,9.82204931640625,-0.0002388855500612408,0.0008215851848945022,0.011959990486502647
1761916245456105200,9.832105224609375,0.0015502260066568851,-0.00036245622322894633,0.015321165323257446
1761916245466160000,9.84216015625,0.00006897587445564568,0.0003022687742486596,0.01134027261286974
1761916245476215000,9.852215087890626,0.0002008023438975215,0.0004958806093782187,0.012418853119015694
1761916245486270200,9.862270263671874,-0.00028336033574305475,0.0005488775204867125,0.009633452631533146
1761916245496326100,9.872326171875,0.00009267800487577915,-0.00044288369826972485,0.013679592870175838
1761916245506381000,9.882381103515625,-0.001341434195637703,0.0006250438746064901,0.012823387049138546
1761916245516436200,9.892436279296875,-0.0015020228456705809,0.015259913168847561,0.01691480167210102
1761916245526491100,9.9024912109375,0.0010785802733153105,0.07259804010391235,0.03913222253322601
1761916245536547000,9.912547119140624,-0.0003328951424919069,0.08766806870698929,0.026732811704277992
1761916245546602200,9.922602294921875,0.0004138552176300436,0.05445125699043274,0.024338895455002785
1761916245556657200,9.9326572265625,-0.0016474314033985138,0.010235060937702656,0.021631792187690735
1761916245566712000,9.942712158203125,0.0014303837670013309,0.016801083460450172,0.022008629515767097
1761916245576768300,9.952768310546874,-0.00026019083452410996,0.0522426962852478,0.020778780803084373
1761916245586823200,9.9628232421875,-0.002314287004992366,0.03093501180410385,0.011739480309188366
1761916245596878000,9.972878173828125,-0.0010327738709747791,-0.026859577745199203,0.003428020980209112
1761916245606933000,9.98293310546875,0.000645550258923322,-0.07853555679321289,-0.008864598348736763
1761916245616989200,9.9929892578125,-0.001574194524437189,-0.09518750011920929,-0.014886803925037384
1761916245627044000,10.003044189453124,-0.0012604740913957357,-0.09091951698064804,-0.01859019510447979
1761916245637099000,10.01309912109375,-0.0030658310279250145,-0.059118978679180145,0.0016418388113379478
1761916245647154200,10.023154296875,-0.00021118867152836174,0.02701723575592041,0.022490128874778748
1761916245657210000,10.033210205078126,-0.00029108350281603634,0.054893609136343,0.018331868574023247
