time,seconds_elapsed,z,y,x
1761914680963724500,0.124724609375,0.5104997911423445,-0.04948913031220436,-0.0643920273464173
1761914680973779700,0.13477978515625,0.4883487496107816,-0.1421609842687845,-0.08789240112770348
1761914680983835600,0.144835693359375,0.41230888150334355,-0.2227799968600273,-0.0698521193832159
1761914680993891800,0.154891845703125,0.4850052844017744,-0.23759528867602348,-0.07256813687626272
1761914681003947800,0.16494775390625,0.6263239726275205,-0.1819768618285656,-0.08805109882075339
1761914681014002700,0.175002685546875,0.6566746872276067,-0.1040460654079914,-0.07965747408270836
1761914681024058600,0.18505859375,0.599690817245841,-0.08000234199762343,-0.0746891476182267
1761914681034114600,0.195114501953125,0.48870355439782137,-0.11026537831425666,-0.065341181297414
1761914681044170500,0.20517041015625,0.40428631856739516,-0.18284867622703313,-0.05158745429832488
1761914681054225700,0.2152255859375,0.33858722721040246,-0.27762071733325716,-0.06369677509125321
1761914681064281600,0.225281494140625,0.2914689176827669,-0.3851975872159004,-0.07834441872276365
1761914681074337800,0.235337890625,0.32520693663358685,-0.4874909637376666,-0.09827995789563283
1761914681084393700,0.245393798828125,0.4174567657858133,-0.552922051808238,-0.08073219064213336
1761914681094447600,0.255447509765625,0.5334311693966388,-0.6075923841506242,-0.07000705421660094
1761914681104503600,0.265503662109375,0.5799567737281323,-0.6868038680315017,-0.03680811057854443
1761914681114559700,0.275559814453125,0.5009907890409231,-0.7939785868540405,0.006736852240655571
1761914681124615400,0.285615478515625,0.39638942783772946,-0.9137602737933397,0.06601658720779233
1761914681134670600,0.295670654296875,0.3015571809768677,-0.9892202961862087,0.1454957912473008
1761914681144726500,0.3057265625,0.26547581377029417,-1.0300637632280587,0.19771679420880972
1761914681154782500,0.315782470703125,0.3162748576372862,-1.0908540397554636,0.20790685564326122
1761914681164838700,0.325838623046875,0.3928314430952072,-1.1558958362475036,0.2513880690438673
1761914681174894600,0.33589453125,0.4653939904808998,-1.2020610828340053,0.2930103384384885
1761914681184949800,0.34594970703125,0.5202420174777508,-1.2234484465166926,0.3039581046387553
1761914681195005700,0.356005615234375,0.5751619406670332,-1.2091215227395296,0.29923158757351337
1761914681205061400,0.366061279296875,0.6221463946819306,-1.1804732281431556,0.28885000388864424
1761914681215117600,0.37611767578125,0.5558604433476925,-1.1653422945067287,0.31476722955331204
1761914681225172500,0.38617236328125,0.44635494349002836,-1.1887041731327772,0.35138694142028687
1761914681235228400,0.396228515625,0.4569342051714658,-1.2085434305906295,0.3766024485563859
1761914681245284600,0.40628466796875,0.4834177229493856,-1.2106231594741343,0.3875818154713139
1761914681255340500,0.416340576171875,0.5091694193214178,-1.215148527944088,0.4028380925204605
1761914681265395700,0.426395751953125,0.5590823280036449,-1.2296274274125694,0.4278631185857579
1761914681275451600,0.43645166015625,0.641978053355217,-1.278314009170234,0.438528195387125
1761914681285507300,0.44650732421875,0.7296025607943535,-1.3292527537688612,0.46012332006897777
1761914681295563500,0.4565634765625,0.671902066975832,-1.3320268946573137,0.4891181630806997
1761914681305618400,0.466618408203125,0.5437567485779523,-1.3478671456068754,0.5532589921450242
1761914681315674600,0.476674560546875,0.455384053120017,-1.3530083078876136,0.6689985275540501
1761914681325730600,0.48673046875,0.4586965386688709,-1.3386629716709255,0.7701167228166014
1761914681335786500,0.496786376953125,0.49227849027514453,-1.2605188247606158,0.8116982948746532
1761914681345841700,0.506841552734375,0.5513847592383623,-1.1213792341396212,0.8123877384435385
1761914681355897600,0.516897705078125,0.6363900240898132,-1.0644964864447712,0.8493877548649906
1761914681365953500,0.52695361328125,0.7078612691074609,-1.1334887741282582,0.9065127138178795
1761914681376009500,0.537009521484375,0.7087304531574249,-1.2205807821258903,0.9473384260073303
1761914681386064600,0.547064697265625,0.6860410669654607,-1.1981374796494841,0.9407871046677231
1761914681396120600,0.55712060546875,0.6385539241254329,-1.1166624347507954,0.9320631885293871
1761914681406176500,0.567176513671875,0.614843962714076,-1.0566934114784001,0.9163644649423658
1761914681416232700,0.577232666015625,0.6247767431855201,-1.0545482161432504,0.8947215921286493
1761914681426287600,0.58728759765625,0.6580974135071039,-1.062471702618897,0.860986568852514
1761914681436343600,0.597343505859375,0.6949649626553058,-1.0597884548842906,0.7988866710312664
1761914681446399500,0.6073994140625,0.6847773306399584,-1.04093470133245,0.7671952824119478
1761914681456455400,0.617455322265625,0.6589467238128185,-1.0353186150163411,0.7410887081876397
1761914681466510600,0.627510498046875,0.6454553740769624,-1.0661956915780901,0.7225140638381242
1761914681476566500,0.63756640625,0.5998714345097541,-1.0919245915964244,0.741422908578068
1761914681486622500,0.64762255859375,0.4521685982048511,-1.0730126781165599,0.7952847010165452
1761914681496678700,0.6576787109375,0.2697568520903587,-1.0211328532755375,0.8787426633607596
1761914681506734600,0.667734619140625,0.08961889612674713,-0.9396151382789015,0.9264290550999343
1761914681516789500,0.67778955078125,-0.03821428758203983,-0.8285720535904169,0.9548613688580692
1761914681526845400,0.687845458984375,-0.21577508653402327,-0.7383665897473692,0.9858798997171223
1761914681536901400,0.6979013671875,-0.2339770981788635,-0.8512284142956137,1.036950600132346
1761914681546957600,0.70795751953125,-0.20149404772520063,-1.1034653917863964,1.0633630254354327
1761914681557012500,0.718012451171875,-0.2650035200834274,-1.1751353742465376,1.0667256337363271
1761914681567068700,0.728068603515625,-0.32604455650150777,-1.0583671899095177,1.0517162806529552
1761914681577124600,0.73812451171875,-0.3690004856526851,-1.0309420073673128,0.9763822957925498
1761914681587180500,0.7481806640625,-0.4445452637195587,-1.1261533166736364,0.8668151288755237
1761914681597235500,0.7582353515625,-0.6035656128525734,-1.2306658305495977,0.8042144419252872
1761914681607291400,0.76829150390625,-0.7273124040305614,-1.2485104070588946,0.6813595580857247
1761914681617347600,0.77834765625,-0.8686012816399336,-1.0809057694539428,0.5297868580775336
1761914681627403500,0.788403564453125,-1.0544470938563346,-0.8672422682464123,0.3925493747508153
1761914681637458700,0.798458740234375,-1.1892092000454664,-0.6694967593997716,0.3104806382752955
1761914681647514600,0.8085146484375,-1.3152099076300858,-0.5026590145140886,0.27612271559415386
1761914681657570600,0.818570556640625,-1.3546744875341652,-0.25267215403765436,0.2726444998232648
1761914681667626500,0.82862646484375,-1.3924088826447725,0.02532265730500221,0.30618798258267343
1761914681677681400,0.838681396484375,-1.4104653483390808,0.24646599287390708,0.2989355820353143
1761914681687737300,0.8487373046875,-1.3485305779516696,0.43605508327186104,0.20126681484058498
1761914681697793500,0.85879345703125,-1.2364496746480464,0.571665330722928,0.02046599278775975
1761914681707849500,0.868849365234375,-1.0595072998553514,0.6578051525622606,-0.16635766975115984
1761914681717904600,0.878904541015625,-0.7597393403828143,0.753091280670464,-0.33229813700355587
1761914681727960600,0.888960693359375,-0.34429683702886105,0.8940314909726381,-0.5106965558234602
1761914681738016500,0.8990166015625,0.08191782023012638,1.0510004605337977,-0.6761872700143605
1761914681748072700,0.90907275390625,0.47403848470747467,1.2044777885869145,-0.8024654793661087
1761914681758128600,0.919128662109375,0.7853770549863577,1.3403455179303885,-0.8996787030793726
1761914681768183600,0.92918359375,1.1361194148927927,1.3662109038099646,-1.0094803363393992
1761914681778239500,0.939239501953125,1.4462129535466433,1.3068570898264646,-1.1584154178529977
1761914681788295400,0.94929541015625,1.5697949095517396,1.2065820673897862,-1.2547097000904381
1761914681798351600,0.9593515625,1.6089941165179014,1.058282726496458,-1.2798914876200258
1761914681808406500,0.969406494140625,1.5598989539593457,0.9156324974060058,-1.2685986708417534
1761914681818462700,0.979462646484375,1.4333990646809338,0.8460843294054269,-1.2617134413726627
1761914681828518700,0.9895185546875,1.3871125298023224,0.8093766469940543,-1.2740803171232342
1761914681838574600,0.99957470703125,1.363942082095146,0.7438473592460155,-1.2737949243105948
1761914681848629500,1.00962939453125,1.211069734197855,0.7073249702736735,-1.2744134946003556
1761914681858685400,1.019685546875,0.8885936838328837,0.7869608170464635,-1.3313728146627544
1761914681868741600,1.02974169921875,0.5768950480699538,0.9703644968077539,-1.424353296177089
1761914681878797600,1.039797607421875,0.30754853034615515,1.1132546721339225,-1.4950141015946865
1761914681888852500,1.0498525390625,0.031243279525637626,1.1226774572566152,-1.4799129785746334
1761914681898908700,1.05990869140625,-0.2386614566028118,1.0271265407323837,-1.438232768447697
1761914681908964600,1.069964599609375,-0.4262573273569345,0.8797253177225589,-1.4144276760987937
1761914681919020500,1.0800205078125,-0.5451233607560396,0.7179056932598352,-1.4465557756349443
1761914681929075500,1.090075439453125,-0.5698538973867893,0.5350450343340635,-1.5180378343075513
1761914681939131400,1.10013134765625,-0.5636486130058765,0.3184276517570019,-1.5533027705647051
1761914681949187600,1.1101875,-0.5490460871577263,0.09556289922297,-1.4513614223510025
1761914681959243500,1.120243408203125,-0.5038882640480995,-0.024423662638664245,-1.268545479349792
1761914681969298700,1.130298583984375,-0.35509646346271034,-0.04360124131739139,-1.1083583514597266
1761914681979354600,1.140354736328125,-0.08896189352273941,0.06858283009976149,-1.0140947713322936
1761914681989410600,1.15041064453125,0.26013445274233815,0.28019670530110596,-0.9334236632276326
1761914681999466800,1.160466796875,0.6051110887289047,0.4436319482669234,-0.808121605431661
1761914682009521400,1.170521484375,0.8822767557710408,0.4732189850181341,-0.6398050201650709
1761914682019577600,1.18057763671875,0.9879764336049556,0.36841713280677796,-0.4718790051186457
1761914682029633500,1.190633544921875,0.8840946188479661,0.2407745032340288,-0.30717392488010226
1761914682039689500,1.200689453125,0.7519856575161218,0.1680418599784374,-0.23964924379745497
1761914682049745700,1.21074560546875,0.7685399019539356,0.11854279279410838,-0.2820521969746798
1761914682059800600,1.220800537109375,0.9254086260110139,0.09933511123806238,-0.3754616079581901
1761914682069856800,1.230856689453125,0.9248767110913991,0.003425590534508228,-0.3793236171485856
1761914682079912700,1.24091259765625,0.8433253860861063,-0.2209694403067231,-0.30970483159720896
1761914682089969400,1.250969482421875,0.7084685873508453,-0.43732758742570876,-0.25724200097015126
1761914682100024300,1.2610244140625,0.5535445676207542,-0.5591179838389158,-0.2574592787163332
1761914682110080300,1.271080322265625,0.4507657456696033,-0.5649865836113691,-0.33120719996169207
1761914682120136200,1.28113623046875,0.3643266486227512,-0.5373629558876156,-0.3940628480536863
1761914682130192400,1.2911923828125,0.3180377756565809,-0.5105372005432843,-0.41001276992280034
1761914682140247300,1.301247314453125,0.46475978423058983,-0.5278644751802086,-0.3379145886458456
1761914682150303500,1.311303466796875,0.7343605689764022,-0.5867115086853504,-0.2852329276363365
1761914682160359400,1.321359375,0.9323603448450565,-0.6357128554806113,-0.25390631720880047
1761914682170415400,1.331415283203125,1.0116869795382022,-0.6407970268771052,-0.28710400047153234
1761914682180470300,1.34147021484375,1.0227987406611443,-0.5707555224016309,-0.3779837103143334
1761914682190526200,1.351526123046875,0.9958920290350913,-0.49391836643666026,-0.4582052114879712
1761914682200582100,1.36158203125,1.010723102942109,-0.46052170826941724,-0.5104090806515887
1761914682210638300,1.371638427734375,1.0124491960823536,-0.49891807442009445,-0.5468129943434149
1761914682220693200,1.381693359375,1.0054179822713136,-0.6050108432248235,-0.5587982138326392
1761914682230749400,1.39174951171875,1.1080647022753953,-0.7141942715212702,-0.5861379465810954
1761914682240805400,1.401805419921875,1.2271727277368307,-0.7566796605512499,-0.627979703945294
1761914682250861300,1.411861328125,1.3104472232729196,-0.7264344521522521,-0.7121892883744091
1761914682260916200,1.421916259765625,1.406212367069721,-0.58219899969697,-0.8217528750948607
1761914682270972200,1.43197216796875,1.5153963798880576,-0.39846448054611683,-0.9296856457430869
1761914682281028400,1.4420283203125,1.654493300411105,-0.14147475557029246,-1.0030641126215458
1761914682291084300,1.452084228515625,1.8262620719581841,0.1779506750524044,-1.0318117028739302
1761914682301139500,1.462139404296875,2.026655464965105,0.5407049597918987,-1.0064073586348443
1761914682311195400,1.4721953125,2.1888877618819476,0.9420575629949569,-0.9211603209167718
1761914682321251300,1.482251220703125,2.247360409116745,1.3306430390834807,-0.8293146155860275
1761914682331307500,1.4923076171875,2.181507003980875,1.636591148495674,-0.748991005744785
1761914682341363500,1.502363525390625,2.118491452619433,1.8628548958182334,-0.615664631447196
1761914682351418400,1.51241845703125,2.2377648977756497,1.790700344711542,-0.521606218503043
1761914682361474300,1.522474365234375,2.425337972176075,0.9369348131537437,-0.3580758445996791
1761914682371530200,1.5325302734375,2.0652415084689855,-0.27219021671712396,0.07871925251767971
1761914682381586400,1.54258642578125,1.2561352028489112,-1.4644488674610852,0.17597466227170078
1761914682391641300,1.552641357421875,0.16670213580727578,-2.18371649672389,0.298387903290987
1761914682401697300,1.562697265625,-1.3333680801331995,-2.3087159183114765,0.4824535906249657
1761914682411753500,1.57275341796875,-2.4547429303586483,-2.4525386983126403,0.6755752755958586
1761914682421809400,1.582809326171875,-2.7262182768046856,-2.758467518502474,1.111172605162859
1761914682431864300,1.5928642578125,-2.758819400680065,-3.036573096743226,1.4488266431763768
1761914682441920300,1.602920166015625,-3.0190444543153045,-2.7845927243620157,1.5371663131475448
1761914682451976200,1.61297607421875,-3.3315807099461554,-1.9049474861383437,1.4806990143857894
1761914682462032400,1.623032470703125,-3.357508931928873,-0.9759364517211914,1.5104593618772924
1761914682472087300,1.63308740234375,-3.075868749821186,-0.3104915980607271,1.5368176458403466
1761914682482143500,1.6431435546875,-2.7801579567849632,0.28436580767929553,1.421211929411441
1761914682492199400,1.653199462890625,-2.4648411305248734,0.8209013728320598,1.178598812573403
1761914682502255400,1.66325537109375,-2.0794220095127818,1.0790659868061543,0.9294269217416643
1761914682512310300,1.673310302734375,-1.825031068858504,0.8487871586233376,0.7870653733994811
1761914682522366200,1.6833662109375,-1.6715034719228743,0.2988146042704582,0.800957632086426
1761914682532422400,1.69342236328125,-1.4590268424123525,-0.3173673290491104,0.8645761177770793
1761914682542478300,1.703478271484375,-1.3081196571081877,-0.8240414244234562,0.9211826788790524
1761914682552533500,1.713533447265625,-1.0093237575381995,-1.2284651056349276,1.0430001094296575
1761914682562589400,1.72358935546875,-0.6605465602248907,-1.5153221456080674,1.274837857492268
1761914682572645400,1.733645263671875,-0.6311807650089264,-1.571170289558172,1.5655600484609602
1761914682582701600,1.74370166015625,-0.7703279544144869,-1.3157850771695374,1.7898419743165372
1761914682592756200,1.753756103515625,-0.6837544173330068,-0.7813736645638942,1.891045217514038
1761914682602812400,1.7638125,-0.4473252498269081,-0.24497370848953723,1.933994716924429
1761914682612868400,1.773868408203125,-0.2373801846206188,0.12593465661108494,1.8918539035484194
1761914682622924300,1.78392431640625,0.016520342168211934,0.3486854273766279,1.7756074049979447
1761914682632979500,1.7939794921875,0.39166824453473087,0.44273850655853747,1.6186673692703246
1761914682643035400,1.804035400390625,0.8242670498728751,0.4328729461044073,1.4146101930588484
1761914682653091300,1.81409130859375,1.2343804671585559,0.3653782035022974,1.2106962247103452
1761914682663147500,1.8241474609375,1.5463888995230197,0.31388357858657834,1.0213487610485403
1761914682673203200,1.834203125,1.9023492863386868,0.3196463798969984,0.876089810764417
1761914682683258400,1.84425830078125,2.1587883916944266,0.3257406051188707,0.7807539982955902
1761914682693314300,1.854314208984375,2.2021704373031854,0.2768640537470579,0.6865500394009053
1761914682703370200,1.864370361328125,2.1006354779332876,0.2246878763079643,0.5967510739995167
1761914682713426400,1.874426513671875,1.9735072276234626,0.17717150737345216,0.462454795223847
1761914682723481300,1.8844814453125,2.0085469768226147,0.122532739213109,0.26209267413802445
1761914682733537500,1.89453759765625,2.1213018338650462,0.07865384999811649,0.09353778660353272
1761914682743593500,1.904593505859375,2.152221872785687,0.016616788280010224,-0.04831733745331876
1761914682753649200,1.914649169921875,2.0883499968558548,-0.0500537784576416,-0.17069637480890376
1761914682763704300,1.924704345703125,1.936170891919732,-0.1528197409272194,-0.27521442337650803
1761914682773760300,1.93476025390625,1.5759253751307725,-0.1647095006853342,-0.33162206437289715
1761914682783816400,1.94481640625,1.1371943506479263,-0.1275824238181114,-0.3491397470153868
1761914682793872400,1.954872314453125,0.8060258752614259,-0.14977438188195227,-0.3479388833256438
1761914682803927300,1.96492724609375,0.6270563785552978,-0.19795593672692774,-0.32903263240158553
1761914682813983500,1.9749833984375,0.504458172890544,-0.21716215697824953,-0.35299437661692495
1761914682824039200,1.9850390625,0.4367150084853172,-0.21999065840244292,-0.4112518832636997
1761914682834095400,1.995095458984375,0.33315760337710376,-0.1890092446833849,-0.5205019835881889
1761914682844150300,2.005150390625,-0.006229249778389931,-0.1454343068510294,-0.6170215259488672
1761914682854206200,2.015206298828125,-0.5221808765858411,-0.009457564175128936,-0.5708547449924052
1761914682864262400,2.025262451171875,-0.9749994631320238,0.21021277623176574,-0.4075579241165891
1761914682874318300,2.035318359375,-1.2538584900885819,0.3426210127711296,-0.2183197660481557
1761914682884373500,2.04537353515625,-1.2849211523503064,0.2611398303925991,-0.1388914976114407
1761914682894429400,2.055429443359375,-1.283547525909543,0.12701076140999792,-0.2741070101238787
1761914682904485000,2.065485107421875,-1.3811995063662528,0.1663911701619625,-0.5797447749452665
1761914682914541300,2.075541259765625,-1.4582617032587528,0.23743103802502155,-0.8298437540266662
1761914682924596200,2.08559619140625,-1.5227023189872502,-0.09343991571962833,-1.0152204874265938
1761914682934652400,2.09565234375,-1.5037047730505466,-0.9460486784577369,-1.0118683274544775
1761914682944708400,2.105708251953125,-1.4600304664969443,-1.8331044851988554,-0.7710386599671095
1761914682954764300,2.115764404296875,-1.412055832400918,-2.212540440148115,-0.5452216334987432
1761914682964819500,2.1258193359375,-1.2963076387614012,-2.0292168398857116,-0.5040137170586735
1761914682974875400,2.13587548828125,-1.0004857865661383,-1.7443670480817555,-0.6122822955325246
1761914682984931300,2.145931396484375,-0.681519790148735,-1.5897160000741482,-0.6280876943644136
1761914682994987300,2.1559873046875,-0.5685919146269559,-1.2890005306184291,-0.6103562593733891
1761914683005042400,2.16604248046875,-0.7049205394804477,-0.7438672329902648,-0.5206390539713204
1761914683015098400,2.176098388671875,-0.9550953237444162,-0.09689327104389667,-0.3817668090496212
1761914683025154300,2.186154296875,-1.165704990339279,0.4428109872728586,-0.31929365746919064
1761914683035210500,2.19621044921875,-1.2568465659886598,0.7409954769462347,-0.3895759484305978
1761914683045266400,2.206266357421875,-1.3252777126580475,0.9185124367564916,-0.4904017000852152
1761914683055321300,2.2163212890625,-1.2948071710705757,0.9886854586571454,-0.671207216579467
1761914683065377300,2.226377197265625,-1.1611328601181505,0.995077790042758,-0.9447859650455415
1761914683075433200,2.23643310546875,-0.9570645779907703,1.0310586194843052,-1.2311430926725269
1761914683085489200,2.2464892578125,-0.8002735953450203,1.1075830562382936,-1.5031959467455744
1761914683095544000,2.2565439453125,-0.6688999625504016,1.1059919876545667,-1.7187319638267158
1761914683105600000,2.26660009765625,-0.5552969642460346,1.0315694916158913,-1.884488781607896
1761914683115656200,2.27665625,-0.4708867426782846,0.9661199911057948,-2.0226013672687113
1761914683125712100,2.286712158203125,-0.4346867175281048,0.9296762203276157,-2.125488033508509
1761914683135767000,2.29676708984375,-0.511591678032279,0.9354115491092204,-2.168068115084618
1761914683145823000,2.306822998046875,-0.6606903526097536,0.9213514595746993,-2.1382681662350893
1761914683155879000,2.31687890625,-0.8816782053560018,0.9184440476953982,-1.9203738955900072
1761914683165935000,2.32693505859375,-0.9637357263177633,0.9950181688100099,-1.5937544618099928
1761914683175990000,2.336989990234375,-0.8696797245264053,1.0581319198489187,-1.3099331362709403
1761914683186046200,2.347046142578125,-0.6738315737336874,1.1609703630328179,-1.0046613186851143
1761914683196102100,2.35710205078125,-0.2939116346597671,1.3461702785611152,-0.7361056590780616
1761914683206158000,2.367157958984375,0.15262100348472593,1.5012649786829948,-0.5564805114747956
1761914683216213000,2.377212890625,0.5619534995257854,1.6010510485589504,-0.45076753576789047
1761914683226269000,2.38726904296875,0.8796516679644584,1.6324422121226787,-0.3674791943695396
1761914683236325000,2.3973251953125,1.2173930920004843,1.5927689579039812,-0.3030607539402321
1761914683246381000,2.407381103515625,1.3545131594926119,1.4661878200829028,-0.20575773305166511
1761914683256436200,2.417436279296875,1.3615017032057046,1.253267538458109,-0.0675674516452942
1761914683266492200,2.4274921875,1.3652689467847345,1.1064122588932515,0.017157790688378735
1761914683276548000,2.437548095703125,1.4105495194911957,1.022105497699976,0.03996805418049917
1761914683286604300,2.447604248046875,1.4688567470312117,0.8835416611403226,0.016785011853231117
1761914683296659000,2.457658935546875,1.3995125771701336,0.7489356222957372,-0.009102850719634443
1761914683306715100,2.467715087890625,1.2531038723289967,0.6338070218592882,-0.0891306376857683
1761914683316771000,2.47777099609375,1.0626964512854813,0.4967547589063644,-0.23529678420899436
1761914683326827000,2.487826904296875,0.8831354184269905,0.3361538625836372,-0.4110140924524516
1761914683336882200,2.497882080078125,0.7564023049145937,0.22464403716623782,-0.5282112427912652
1761914683346938000,2.507938232421875,0.5902303304612636,0.18674480688273906,-0.6059416212689132
1761914683356994000,2.517994140625,0.33810441212952136,0.13466975173056125,-0.6873617941752076
1761914683367050000,2.528050048828125,0.21839491364359853,0.014012158739566802,-0.8175584190797061
1761914683377106000,2.53810595703125,0.1865735419690609,-0.21051205143928525,-0.9604776743698865
1761914683387161000,2.5481611328125,0.12903612975776194,-0.46098201925754545,-1.0959596192661671
1761914683397217000,2.558217041015625,0.047915597385168075,-0.6336521235585212,-1.1664522285100072
1761914683407273000,2.56827294921875,-0.09554185643494129,-0.7462631882160902,-1.1478927086643873
1761914683417329200,2.5783291015625,-0.33883155736029147,-0.7550210796892642,-0.9993437769241631
1761914683427384000,2.588384033203125,-0.476630254766345,-0.7392331434488296,-0.7562636270962655
1761914683437440300,2.598440185546875,-0.5058054958462714,-0.8007423819005489,-0.5287056021794676
1761914683447496000,2.608495849609375,-0.5880570780754089,-0.9427198262959718,-0.3300035963255912
1761914683457552000,2.6185517578125,-0.6859428672879934,-1.0633844335496425,-0.12984458746328018
1761914683467607000,2.62860693359375,-0.7481278130441904,-1.0628186163604258,0.0219860556616215
1761914683477663000,2.6386630859375,-0.7977496298253536,-0.9576800795406103,0.10876155875572002
1761914683487719200,2.64871923828125,-0.7783189531683922,-0.7870563863754272,0.09453912739949301
1761914683497775000,2.658775146484375,-0.6674187840819359,-0.6060077453076839,0.02748348631741246
1761914683507830000,2.668830078125,-0.5023065478146076,-0.5269026444107294,-0.07083923985757865
1761914683517886200,2.67888623046875,-0.3785843065559864,-0.5484060356885194,-0.1574209328460507
1761914683527942000,2.68894189453125,-0.26303718844652174,-0.5813619643509388,-0.32060952584072944
1761914683537998000,2.698998046875,-0.2326572477519512,-0.5728367125898599,-0.5412041780183091
1761914683548053000,2.709052978515625,-0.2001665985137224,-0.6643219871103763,-0.7809170068375766
1761914683558109000,2.71910888671875,-0.13742284983098507,-0.8584037127524614,-1.0319819448743015
1761914683568165000,2.7291650390625,-0.173889416962862,-0.9587386486828327,-1.2858046571865678
1761914683578221000,2.739220947265625,-0.2301432191044092,-1.0032412227541208,-1.5464480823643505
1761914683588276200,2.749276123046875,-0.3823398596972227,-1.0248130030930043,-1.7695286696061492
1761914683598332000,2.759331787109375,-0.6843997294992208,-1.0366618463188408,-1.87731962063089
1761914683608387800,2.769387939453125,-0.9963549703717232,-1.0136252541244029,-1.933811030920595
1761914683618444000,2.779444091796875,-1.3027017237126826,-0.8566279352515935,-2.0112302245572207
1761914683628499000,2.7894990234375,-1.6695038225382566,-0.622924977838993,-2.091317468359321
1761914683638555100,2.79955517578125,-1.9786282238990067,-0.38566111307442186,-2.2172277211815117
1761914683648611000,2.809611083984375,-2.053164117184281,-0.11902853048443794,-2.4208077814005313
1761914683658667000,2.8196669921875,-1.874341919994354,0.19004735555946825,-2.6493656310096383
1761914683668722200,2.82972216796875,-1.5678513742685316,0.5665116012215614,-2.817607981996238
1761914683678777900,2.83977783203125,-1.2672153997898101,0.8767255513846873,-2.902626106329262
1761914683688834000,2.849833984375,-0.9908914442688226,1.0515297451049088,-2.9296476765066384
1761914683698890000,2.859889892578125,-0.7343786891549825,1.2143898185312747,-2.848043452270329
1761914683708945200,2.869945068359375,-0.5839958199858665,1.4462363344222307,-2.661818577608466
1761914683719001000,2.8800009765625,-0.4300058662354946,1.734904807731509,-2.4326737218916414
1761914683729057000,2.89005712890625,-0.21898177362084387,2.0208371340751645,-2.14091064356789
1761914683739113200,2.90011328125,0.15696633921265601,2.237632211306691,-1.757546263128519
1761914683749169200,2.910169189453125,0.5745838485181332,2.2839269294917584,-1.353843589667976
1761914683759224000,2.92022412109375,0.7863356708854436,2.140674058333039,-0.9676862905744462
1761914683769280000,2.930280029296875,0.7445505390793085,1.8774305336594581,-0.607194799667783
1761914683779336000,2.9403359375,0.5683516761302948,1.6076479626059532,-0.31708821984678504
1761914683789392000,2.950391845703125,0.35734570369422436,1.4803613068640231,-0.06369173358995467
1761914683799447000,2.960447021484375,0.15384849945306778,1.4385621465325356,0.14292473518289625
1761914683809503000,2.9705029296875,0.0013537526965141295,1.4115700947105885,0.3542887272763997
1761914683819559200,2.98055908203125,-0.017517536512017248,1.3734212735801934,0.5087201411839575
1761914683829615000,2.990614990234375,-0.04729483513832092,1.3176637305229901,0.6051297934293747
1761914683839670000,3.000669921875,-0.13492811040580271,1.245848202112317,0.5976701616058125
1761914683849726000,3.010725830078125,-0.16998305717408657,1.2704355308800934,0.4887587917163968
1761914683859782000,3.020781982421875,-0.1717027205735445,1.4656184957623482,0.2733005160465836
1761914683869838000,3.030838134765625,-0.060787938439846034,1.7392296851933002,-0.025537286436371504
1761914683879893000,3.04089306640625,0.10809154140651225,1.9478969855487345,-0.3849113176204264
1761914683889949200,3.05094921875,0.2236561951726675,1.8726520672112703,-0.6897643983375281
1761914683900005000,3.061005126953125,0.23252046962976455,1.5083201578915117,-0.8983117986403405
1761914683910061000,3.07106103515625,0.06963993793725967,1.1203098513424397,-1.087433856048435
1761914683920116000,3.081115966796875,-0.16284546037912367,0.8860498445689677,-1.2698688369080424
1761914683930172000,3.091171875,-0.3431985203981399,0.7654922048211097,-1.3943579708859324
1761914683940228000,3.10122802734375,-0.4997872584700584,0.6464858861684799,-1.4593771171547472
1761914683950284000,3.111283935546875,-0.5326894111186266,0.5069003053456544,-1.4504394852004945
1761914683960339000,3.1213388671875,-0.5091489610552787,0.37895197082459925,-1.3563409594416618
1761914683970395100,3.13139501953125,-0.43956513721942897,0.28321780668795105,-1.1849849334139375
1761914683980451000,3.141451171875,-0.42023558284938334,0.3711281453311443,-0.9637049658533186
1761914683990507000,3.151507080078125,-0.5819523314595222,0.5388701455801725,-0.722240215332806
1761914684000562000,3.16156201171875,-0.7094517531692981,0.6867068373978138,-0.5024357271522283
1761914684010617900,3.171617919921875,-0.6978910792350769,0.8205763786613941,-0.33700320942196993
1761914684020674000,3.181674072265625,-0.5929062716722489,0.8596575122058391,-0.20663042423296718
1761914684030730000,3.19172998046875,-0.43649347468912597,0.8133920201152562,-0.13737153976885602
1761914684040786000,3.201785888671875,-0.262799872559309,0.7505471491456032,-0.1260907787545584
1761914684050841000,3.211841064453125,-0.10511340237855911,0.7212988428294658,-0.19042563255364076
1761914684060897000,3.22189697265625,0.07188976269066333,0.7135989359766245,-0.23530980808734892
1761914684070953200,3.231953125,0.17673837665319442,0.7110626954972744,-0.2496131135269068
1761914684081009200,3.242009033203125,0.3111766577154398,0.7474316474735736,-0.23362214726135133
1761914684091063800,3.252063720703125,0.47121933563351626,0.7856196315705776,-0.2058366435067728
1761914684101119700,3.26211962890625,0.6481728163421153,0.7744371432989835,-0.21048688046541064
1761914684111175700,3.27217578125,0.7403074946820736,0.6793897923827171,-0.28062353414474056
1761914684121232000,3.28223193359375,0.800775699648261,0.605794979339838,-0.4016685372844338
1761914684131286800,3.292286865234375,0.8339584228038788,0.6188450150489807,-0.5135200888115913
1761914684141343000,3.302343017578125,0.780503311470151,0.6204156253665686,-0.6059167790886014
1761914684151399000,3.31239892578125,0.6932663420438766,0.5108803148925304,-0.6899548794083297
1761914684161454800,3.322454833984375,0.5395721563696861,0.3484340829640627,-0.788999191006273
1761914684171509800,3.332509765625,0.3487017939895391,0.18620353961288927,-0.890467661011219
1761914684181565700,3.342565673828125,0.22471593335866927,-0.002057517051696777,-0.9688504389829933
1761914684191622000,3.352621826171875,0.17720014894604683,-0.17346797668039798,-1.014503498263657
1761914684201677800,3.362677734375,0.12981120578348637,-0.28669629645347594,-1.0384742295030505
1761914684211733000,3.37273291015625,0.11186229211688041,-0.3155202398777008,-1.0466552709363401
1761914684221789000,3.382788818359375,0.07192658756971358,-0.3400724973320961,-0.9777556299723684
1761914684231844900,3.392844970703125,0.042213586351275444,-0.39120471867620943,-0.8477638069249689
1761914684241900800,3.40290087890625,0.06860241158306599,-0.44637364819049835,-0.7185216332010924
1761914684251955700,3.412955810546875,0.08378127601444721,-0.5145733241915702,-0.5893921991366893
1761914684262011600,3.42301171875,0.12424305026233196,-0.543237108618021,-0.42762247823029753
1761914684272067800,3.43306787109375,0.20525369251966474,-0.5014852945595979,-0.2931751736113801
1761914684282123800,3.443123779296875,0.2952116113424301,-0.4314677554816007,-0.15401567271351813
1761914684292179700,3.4531796875,0.35614275764524933,-0.3658049044817686,-0.016305859167315064
1761914684302235000,3.46323486328125,0.3908130890101194,-0.2799491602808237,0.13836601243261248
1761914684312290800,3.473290771484375,0.3409773372173309,-0.19037994851469991,0.2797417646078393
1761914684322346800,3.4833466796875,0.29436814625561236,-0.11844985381364821,0.3760906631093472
1761914684332402700,3.493402587890625,0.27531565526127816,-0.08337327973544598,0.4240781201543286
1761914684342457900,3.503457763671875,0.25126374854445455,-0.09105623545348644,0.4915327499417588
1761914684352513800,3.513513671875,0.16080430994033812,-0.0769628281712532,0.5918644344691186
1761914684362569700,3.52356982421875,0.03304536051154137,-0.030747020441293713,0.661374973873049
1761914684372626000,3.5336259765625,-0.08028174346089363,0.023645664003491402,0.7253329206511377
1761914684382680800,3.543680908203125,-0.1832002661436796,0.07197042671144008,0.7642388437591493
1761914684392737000,3.553737060546875,-0.2980874590396881,0.11285013411045074,0.7114331362448633
1761914684402792700,3.563792724609375,-0.4912579150557518,-0.07795943799316883,0.6709745038021355
1761914684412848600,3.5738486328125,-0.6723264298677444,-0.6419540879577398,0.6737218297488987
1761914684422903800,3.58390380859375,-0.8780249435454607,-1.288241821205616,0.6634823214158415
1761914684432959700,3.593959716796875,-1.0455793122678994,-1.8259370777875183,0.5119500264832749
1761914684443016000,3.604015869140625,-1.2262386617571115,-2.1977841850429773,0.17973529344685374
1761914684453072000,3.61407177734375,-1.5997510718762873,-2.259892558431625,-0.29251742208870124
1761914684463127800,3.6241279296875,-2.045077256840467,-2.0391502048790455,-0.7814642654567956
1761914684473182700,3.6341826171875,-2.169453578093648,-1.776464898610115,-1.028973922164738
1761914684483238700,3.64423876953125,-2.2577602225780486,-1.415945825576782,-0.9049125851448625
1761914684493294600,3.654294677734375,-2.5521459044903514,-0.8419973523527383,-0.6764593649540096
1761914684503350800,3.664350830078125,-2.648877847492695,-0.11401976241171359,-0.6725608231455087
1761914684513405700,3.67440576171875,-2.4843887115597725,0.5647855080813169,-0.9160492615133523
1761914684523462000,3.6844619140625,-2.090440831655264,1.1100707814007997,-1.257111062143743
1761914684533517800,3.694517822265625,-1.5653104576140642,1.4365180734843015,-1.5672719669453798
1761914684543573800,3.70457373046875,-1.0637655418217182,1.541442675292492,-1.828022213498503
1761914684553628700,3.714628662109375,-0.594397971534729,1.6390099000751972,-2.0039213628485797
1761914684563684600,3.7246845703125,-0.04064297603368759,1.7327818242281674,-2.103112973962724
1761914684573740800,3.73474072265625,0.5223182392299175,1.8094255034476519,-2.1000432111285625
1761914684583796700,3.744796630859375,1.018789505019784,1.7891630521416664,-1.9895904935486612
1761914684593852000,3.754851806640625,1.2960516181737183,1.6715864740312099,-1.776327682096511
1761914684603907800,3.764907958984375,1.326248603516817,1.5370628527730703,-1.5411835859648881
1761914684613963800,3.7749638671875,1.2050778003066778,1.4614789117395877,-1.343467303212732
1761914684624020000,3.78502001953125,0.9604887072205543,1.4089035058498383,-1.207858444001153
1761914684634074600,3.79507470703125,0.7931482735097408,1.3104524839699268,-1.082698059698194
1761914684644130800,3.805130859375,0.7283797410011291,1.2003338206499814,-0.9326712374251336
1761914684654186800,3.815186767578125,0.6752157215684652,1.2073878308147192,-0.7544805430717766
1761914684664242700,3.82524267578125,0.6409767673581839,1.3179448855519293,-0.6165420718688518
1761914684674299000,3.835298828125,0.6605605887502431,1.474617210254073,-0.5444558367580175
1761914684684353800,3.845353759765625,0.7770973024189471,1.634170643350482,-0.519758289081417
1761914684694409700,3.85540966796875,0.901374254950881,1.7749065632522105,-0.5108624139096588
1761914684704466000,3.8654658203125,1.0175970803648233,1.8119284261792896,-0.5521770786598325
1761914684714521900,3.87552197265625,1.1498515876471995,1.764402120372653,-0.6361004665587097
1761914684724576800,3.88557666015625,1.280089494410157,1.6525047569423914,-0.7150814296193421
1761914684734632700,3.8956328125,1.3228180445462465,1.4846704022347925,-0.7716377218388021
1761914684744688600,3.905688720703125,1.287176822322607,1.2744786687910556,-0.7711041994839907
1761914684754744800,3.915744873046875,1.2424573906302452,1.0437602801471948,-0.6578980915427207
1761914684764799700,3.9257998046875,1.2083008540064095,0.7960352271229029,-0.4207606296367943
1761914684774856000,3.93585595703125,1.2070528997719288,0.5778220997869968,-0.15623126640375704
1761914684784912000,3.945911865234375,1.1921972759455441,0.36499943331778045,0.06647849649796261
1761914684794967800,3.9559677734375,1.0651929442763328,0.18809972862303256,0.23878716534171252
1761914684805022700,3.966022705078125,0.9023585898131131,0.041730771270394325,0.38694855906907466
1761914684815078700,3.97607861328125,0.8246493271887302,-0.0476268435716629,0.42868367772102356
1761914684825134800,3.986134765625,0.7440221312910318,-0.11387070932984351,0.42021267689783126
1761914684835190800,3.996190673828125,0.6120236445963383,-0.16784896775484084,0.3425831649787724
1761914684845246000,4.006245849609375,0.40375674173533915,-0.25854747581183907,0.23076409094911068
1761914684855302000,4.016302001953125,0.1568845061480999,-0.40418694984614845,0.1647561163060367
1761914684865357800,4.02635791015625,-0.007009586501121521,-0.5562608408421278,0.1272346332937479
1761914684875414000,4.0364140625,-0.13138473871052264,-0.7567506799608469,0.14373729367479682
1761914684885470000,4.046469970703125,-0.22462942411899564,-0.9901455943375825,0.2322387300789356
1761914684895524900,4.05652490234375,-0.2586959443718195,-1.1508937901765108,0.36279574926104396
1761914684905580800,4.066580810546875,-0.31468378905355926,-1.1946797404110432,0.4731394169759005
1761914684915636700,4.07663671875,-0.3486111930966377,-1.1333236466944216,0.52370191214066
1761914684925692700,4.086692626953125,-0.39168461114764214,-0.9735288060575723,0.5067726969106122
1761914684935747800,4.096747802734375,-0.49863691939115523,-0.8278712118446826,0.4770164776049554
1761914684945803800,4.1068037109375,-0.5945142913907766,-0.7523071445554494,0.44899807840995487
1761914684955860000,4.11685986328125,-0.6823001268714666,-0.7272884386330842,0.4085270248770714
1761914684965915600,4.12691552734375,-0.7850520608156919,-0.7497083602339029,0.32568971518184986
1761914684975970800,4.136970703125,-0.8609487210601567,-0.8380985913485288,0.1785002352265641
1761914684986026800,4.14702685546875,-0.8294020746737718,-0.9673457335084676,0.022721242634952066
1761914684996082700,4.157082763671875,-0.7266992405682802,-1.018369818302989,-0.15412844890560953
1761914685006139000,4.167138916015625,-0.6243856980413198,-0.9884399594634771,-0.33847894453033806
1761914685016193800,4.17719384765625,-0.5248106405675411,-1.0763093815743923,-0.4922443688098341
1761914685026250000,4.18725,-0.572193153989315,-1.3153186287015677,-0.606629530467838
1761914685036306000,4.197305908203125,-0.7779156330645084,-1.4423942720413208,-0.710521574357897
1761914685046361600,4.207361572265625,-0.991332758295536,-1.4082523484647274,-0.8519801094457506
1761914685056417800,4.217417724609375,-1.1177385395497084,-1.375389943304658,-0.923041239292547
1761914685066472700,4.22747265625,-1.2292372590512037,-1.3306670044809579,-0.912543591479957
1761914685076529000,4.23752880859375,-1.3251836046338081,-1.2552321165293454,-0.8213288775291293
1761914685086584800,4.247584716796875,-1.3679752831339835,-1.0598165119349956,-0.7214276568409055
1761914685096640800,4.257640869140625,-1.282756667792797,-0.6632809536248445,-0.6316854265954345
1761914685106696000,4.267696044921875,-1.111737253308296,-0.14482114338874816,-0.5777138536395505
1761914685116752000,4.277751953125,-0.9347568845927715,0.40086277385950086,-0.5639407278202474
1761914685126807800,4.287807861328125,-0.6896013897955418,0.8914327066510915,-0.5531797163637354
1761914685136863700,4.29786376953125,-0.4077420119792223,1.2307821504056453,-0.5482946112032979
1761914685146918700,4.307918701171875,-0.12177870597541332,1.4586720376253126,-0.4928877082146704
1761914685156974800,4.317974853515625,0.18707739983797073,1.5190385357826948,-0.34559400069992985
1761914685167030800,4.32803076171875,0.5453986705660819,1.3755097702920436,-0.08602562087513506
1761914685177086700,4.338086669921875,0.8399982874900103,1.0870073011994361,0.2508589671358466
1761914685187142000,4.348141845703125,1.0445201586037873,0.8427934711664915,0.5831706212081015
1761914685197197800,4.35819775390625,1.1469202103704212,0.6340156961739063,0.8679339037723839
1761914685207253800,4.368253662109375,1.0079296728312968,0.41165187889933585,1.09720194747746
1761914685217309700,4.378309814453125,0.7546165905416011,0.14365502221882342,1.2905027518749237
1761914685227365600,4.38836572265625,0.4978349553585052,-0.15618483344614506,1.449913561630249
1761914685237420800,4.3984208984375,0.24340309817194938,-0.3874281227469444,1.5844493117175995
1761914685247476700,4.408476806640625,-0.059086395218968385,-0.4028121543616056,1.6672303246483207
1761914685257533000,4.418532958984375,-0.359086409881711,-0.20497078392505644,1.6543296342819929
1761914685267588900,4.4285888671875,-0.5400795213699341,0.02705342662036419,1.5444045938380062
1761914685277643800,4.438643798828125,-0.5341267504453658,0.11099778424203395,1.333093062584102
1761914685287699700,4.44869970703125,-0.4297977764427662,0.16886486679911614,1.0839430182579903
1761914685297755600,4.458755615234375,-0.2837035443782806,0.32761282873153685,0.8201013815607875
1761914685307811800,4.468811767578125,-0.18805647400319575,0.43320553905963893,0.4335034625602886
1761914685317866800,4.47886669921875,0.012314707171916961,0.456184263586998,-0.04697517472989857
1761914685327923000,4.4889228515625,0.34408231749534607,0.3826970025718212,-0.49389191682115197
1761914685337979000,4.498978759765625,0.4475982215493917,0.22818565529584883,-0.7891958826221526
1761914685348034800,4.509034912109375,0.6110504156500101,0.04817746319174766,-0.8488885731711984
1761914685358090800,4.5190908203125,0.9002315146565437,-0.13263035485744476,-0.695527857235074
1761914685368145700,4.529145751953125,1.1972492986381054,-0.22140110972225666,-0.419565209307149
1761914685378201600,4.53920166015625,1.3514689694911242,-0.18000585401654243,-0.08607252875678241
1761914685388257800,4.5492578125,1.4380524434447288,-0.1327677175015211,0.28628252802081405
1761914685398313700,4.559313720703125,1.593324838221073,-0.11087211203575134,0.6234019477009773
1761914685408369000,4.569368896484375,1.7569465436697005,0.03431143492460251,0.9116710464291274
1761914685418424800,4.5794248046875,1.8008137424468993,0.21929683091938496,1.12359135723114
1761914685428483800,4.58948388671875,1.7032845115870237,0.40799218734800813,1.2469359973490237
1761914685438539800,4.599539794921875,1.5712363405317067,0.5735439840763807,1.278329206739366
1761914685448594700,4.6095947265625,1.393726394984126,0.6294651932626962,1.1988330606982112
1761914685458651000,4.61965087890625,1.1025836405158043,0.5710030674219131,1.0962852710239588
1761914685468706800,4.629706787109375,0.8611275847584009,0.43332887317836283,1.0070390806671232
1761914685478762800,4.6397626953125,0.6931120282649994,0.28358547095656395,0.9357418039768933
1761914685488817700,4.649817626953125,0.6150011991024017,0.26822482021749017,0.8209871514193713
1761914685498873600,4.65987353515625,0.5687994198977947,0.3728185826361179,0.6727239047527312
1761914685508929800,4.6699296875,0.6132032097697258,0.46395665115416046,0.4970565183319151
1761914685518985700,4.67998583984375,0.6457903051197529,0.43020694176554675,0.27907537312097846
1761914685529041000,4.690041015625,0.6618950522243976,0.19914953042566774,0.1296987583849579
1761914685539096800,4.700096923828125,0.648749739447236,-0.07727905451357364,0.042710210761800406
1761914685549152800,4.71015283203125,0.6083563542604447,-0.3549807281285524,-0.10547259107977151
1761914685559209000,4.720208984375,0.5405108985245227,-0.5328606760323047,-0.29580928497463466
1761914685569265000,4.730264892578125,0.5317962616711854,-0.6067196929693222,-0.48567945733629164
1761914685579319800,4.74031982421875,0.5055635037839412,-0.6559861204415559,-0.607495938038826
1761914685589375700,4.750375732421875,0.40963410933613775,-0.7114952416956424,-0.6807819773934781
1761914685599431700,4.760431640625,0.29207214427292344,-0.755347827425599,-0.6873956233795732
1761914685609488000,4.77048779296875,0.16328735892772672,-0.7427338450461626,-0.665347384635359
1761914685619542800,4.780542724609375,0.0013999299257993697,-0.7264578330278396,-0.5811618386689573
1761914685629599000,4.790598876953125,-0.17438392248153686,-0.7211801848858594,-0.45769196473620827
1761914685639655000,4.800655029296875,-0.3184522016763687,-0.682174454665184,-0.31410956936217843
1761914685649710800,4.8107109375,-0.5585094965517521,-0.6104185474872589,-0.16797982759289443
1761914685659765800,4.820765869140625,-0.8207470590531826,-0.5267413163691759,-0.011709727016091347
1761914685669821700,4.83082177734375,-1.011869934889674,-0.466984474542737,0.15925105261635034
1761914685679877600,4.840877685546875,-1.03011753924191,-0.5151455711215734,0.3010719912758097
1761914685689933800,4.850933837890625,-0.9043044631838798,-0.8163684055775403,0.3428127724835649
1761914685699989800,4.86098974609375,-0.8360907586574554,-1.1729162368923425,0.31064576570913194
1761914685710045000,4.871044921875,-0.7810685441374778,-1.2749977242290973,0.2653578864790499
1761914685720100900,4.881100830078125,-0.6118845283865928,-1.305617903420329,0.1720329754412174
1761914685730156800,4.89115673828125,-0.5619862327516079,-1.4870453146725893,0.053822191080451005
1761914685740212700,4.901212646484375,-0.6115636258691549,-1.6707161209374666,-0.00897043824531138
1761914685750267600,4.911267578125,-0.7546668594241142,-1.629015744805336,-0.035565745834633705
1761914685760323800,4.92132373046875,-0.9677560678750275,-1.3180349019229411,0.012611425096169113
1761914685770379800,4.9313798828125,-1.1775585097402335,-0.8394844927489757,0.14464363139737396
1761914685780435700,4.941435791015625,-1.3610907843172548,-0.336695129853487,0.2911641625825315
1761914685790491000,4.951490966796875,-1.463382699534297,0.12106968092322348,0.36082306094858796
1761914685800546800,4.961546875,-1.5043483316510915,0.5050333424299955,0.27264822615031153
1761914685810603000,4.97160302734375,-1.5291192002922296,0.7262789693295956,0.019926022425852716
1761914685820658700,4.98165869140625,-1.3345248489528894,0.8282897295176982,-0.31293384011369196
1761914685830714600,4.991714599609375,-1.0611667575001715,0.9036638271927833,-0.6453774865351617
1761914685840769800,5.001769775390625,-0.8600959036231041,0.9652443773150443,-0.9983016474600881
1761914685850825700,5.01182568359375,-0.6795856072157621,1.0147335076272488,-1.2906212636880576
1761914685860882000,5.0218818359375,-0.42506256461441516,0.9983780006319284,-1.4632576118499039
1761914685870937900,5.031937744140625,-0.1516653101950884,0.8374877659738064,-1.5010224020987748
1761914685880992800,5.04199267578125,0.13851181411147118,0.5764999112725258,-1.4459513800010084
1761914685891049000,5.052049072265625,0.3044172465831041,0.3319230931460857,-1.3698893000617622
1761914685901104600,5.062104736328125,0.30913492275476456,0.2264315051048994,-1.3256943306349218
1761914685911160800,5.072160888671875,0.34318040021955964,0.2402086860448122,-1.2705685096099972
1761914685921215700,5.0822158203125,0.4202712386846542,0.25053134261667726,-1.1974427023183554
1761914685931271700,5.092271728515625,0.45113457898199555,0.246542565241456,-1.0345171624403446
1761914685941328000,5.102327880859375,0.40096740327775476,0.3256576030105352,-0.8036625071309507
1761914685951383800,5.1123837890625,0.3186129451960325,0.46631461245715616,-0.5450768547331915
1761914685961439700,5.122439697265625,0.28439620281755923,0.6587935790777206,-0.3568513077734038
1761914685971495000,5.132494873046875,0.33427813183963295,0.8255167576730251,-0.27119530566195027
1761914685981550600,5.142550537109375,0.4626730410844087,0.9275392082989216,-0.2891906705524772
1761914685991606800,5.152606689453125,0.6157236681580543,0.9724363346457481,-0.378142298409529
1761914686001662700,5.162662841796875,0.78488781016469,0.9545277529895305,-0.4837285424642265
1761914686011718000,5.1727177734375,0.957576034644246,0.870424405413866,-0.6095267497466876
1761914686021773800,5.18277392578125,1.1279144811272621,0.7702239095181226,-0.724652683302015
1761914686031829800,5.192829833984375,1.2503823384106159,0.7111474511712789,-0.7530352396342903
1761914686041886000,5.202885986328125,1.3642378501713275,0.6745803462743759,-0.7203369389947504
1761914686051940600,5.212940673828125,1.4295464809060097,0.6016840368896722,-0.6359030442904681
1761914686061996800,5.222996826171875,1.445467103615403,0.4923427876830101,-0.537487532115355
1761914686072052700,5.233052734375,1.3725778084933757,0.367734411239624,-0.5167699209203943
1761914686082108700,5.243108642578125,1.229398587092757,0.3176502376437187,-0.5016222553448751
1761914686092168400,5.25316845703125,1.0764017360329627,0.28877427177131176,-0.4557328665576875
1761914686102223600,5.2632236328125,0.9455044885784387,0.2703852131217718,-0.45073085701931265
1761914686112279600,5.273279541015625,0.8462661157131195,0.2797860786736011,-0.49829161308482284
1761914686122335700,5.283335693359375,0.8448147478610276,0.21837737798690796,-0.5528303914694115
1761914686132391700,5.2933916015625,0.8395341771095991,0.12962298973500727,-0.5700089783506468
1761914686142446600,5.303446533203125,0.8040794173687696,0.08083411664664746,-0.5567923173703253
1761914686152502500,5.31350244140625,0.6841711814403534,0.07110591883659362,-0.5170877181652933
1761914686162558500,5.323558349609375,0.5350467878997326,0.0529991842597723,-0.48990474688112734
1761914686172614700,5.33361474609375,0.44602761123180384,0.0036018238842487334,-0.49587556491903956
1761914686182670600,5.343670654296875,0.31207214525043964,-0.0800216312199831,-0.4502349267285317
1761914686192725800,5.353725830078125,0.2431049920082092,-0.18607728288471698,-0.33702268130742014
1761914686202781700,5.36378173828125,0.15553133797347546,-0.3187298495739698,-0.23901823415122925
1761914686212837600,5.373837646484375,0.015734160226583478,-0.4403852214306593,-0.14410022696936503
1761914686222893600,5.3838935546875,0.039736967104673386,-0.5097346519887447,-0.07679832179192453
1761914686232948500,5.393948486328125,0.10900924077332019,-0.5152069459199905,0.0026332163141109047
1761914686243004700,5.404004638671875,0.13732231206595896,-0.5376134235173463,0.08159642452234402
1761914686253060600,5.414060546875,0.11332359684109687,-0.5854436807066202,0.1748096736129373
1761914686263116500,5.424116455078125,0.07505611776709556,-0.5796013844192027,0.21669077660683542
1761914686273171700,5.434171630859375,0.051968087646365166,-0.4546224210977554,0.17004558274997397
1761914686283227600,5.4442275390625,0.08004910374879837,-0.33506840543448924,0.008035002292413265
1761914686293283600,5.45428369140625,0.07604629784822464,-0.2601554955303669,-0.30260130146862935
1761914686303339500,5.464339599609375,-0.042748423880338664,-0.22568857778310775,-0.6513043923661113
1761914686313395500,5.4743955078125,-0.10593173302412033,-0.19146715922951696,-0.9682404173258692
1761914686323450600,5.48445068359375,-0.049183425363898275,-0.2512187403589487,-1.2966281028874218
1761914686333506600,5.494506591796875,0.015004676908254622,-0.5032324304878711,-1.616276528611034
1761914686343562500,5.5045625,-0.0834895995914936,-0.7954758396744728,-1.804145224957168
1761914686353618700,5.51461865234375,-0.35618776583075523,-1.1250175906419753,-1.827105244784057
1761914686363673600,5.524673583984375,-0.6689712742209434,-1.5454378824084996,-1.6448488353617488
1761914686373729800,5.534729736328125,-1.0112088406324387,-1.9177841713577508,-1.3136203003510831
1761914686383785500,5.544785400390625,-1.5015005410045386,-1.9654443326771258,-0.9335980699464678
1761914686393841400,5.55484130859375,-1.8275667248159646,-1.6111650308161973,-0.5736126653984188
1761914686403896600,5.564896484375,-1.7936404898166656,-1.0439823984652756,-0.3040237902861088
1761914686413952500,5.574952392578125,-1.7537077078789471,-0.42699733206927776,-0.13798041064850985
1761914686424008700,5.5850087890625,-1.7809300613254309,0.19112346035838126,-0.05288684645909816
1761914686434064600,5.595064697265625,-1.690383528959751,0.7271715342551469,-0.10217625294812023
1761914686444120600,5.60512060546875,-1.4316484216213226,1.2384183443725107,-0.24195289936363695
1761914686454175500,5.615175537109375,-1.0158797550529242,1.6366542768597603,-0.3755026706209406
1761914686464231400,5.6252314453125,-0.6435287899285554,1.7634382437765597,-0.4474900119345635
1761914686474287600,5.63528759765625,-0.44241643499732014,1.6055150422304867,-0.4290000136611983
1761914686484343600,5.645343505859375,-0.2449129182130098,1.3857190296173094,-0.3358304758481681
1761914686494398700,5.655398681640625,-0.0014952069938182829,1.20231359629035,-0.13978486625459044
1761914686504454700,5.66545458984375,0.2233504902243614,1.0289081634521484,0.08178743531610816
1761914686514510600,5.675510498046875,0.44028117653429505,0.759777334305644,0.3006483042373322
1761914686524566500,5.68556640625,0.510280595433712,0.3760235161572695,0.5127021965574473
1761914686534621400,5.695621337890625,0.30300328813195226,0.02913374002575874,0.6939341583028436
1761914686544677400,5.705677490234375,-0.06701777274012566,-0.20370178690254687,0.8313431257389485
1761914686554733600,5.715733642578125,-0.38881227058172224,-0.3451549151629209,0.8787878176767379
1761914686564789500,5.72578955078125,-0.5878174241006374,-0.36647359752357006,0.7835406333394348
1761914686574845400,5.735845458984375,-0.6639648442357778,-0.3383990111619234,0.6257777369216084
1761914686584900600,5.745900634765625,-0.6941144833058118,-0.25301205351650713,0.4746137273121625
1761914686594956500,5.75595654296875,-0.7428197697639465,-0.11430851622521877,0.3565926203045994
1761914686605012700,5.7660126953125,-0.7726233718752861,0.08945698356330395,0.21876688876114783
1761914686615068700,5.776068603515625,-0.7745172227978706,0.3602303192198276,0.09407358311382122
1761914686625123600,5.78612353515625,-0.7583984471678733,0.5877203934669494,0.01947790419901721
1761914686635179500,5.796179443359375,-0.6502858629733324,0.6843325094819068,0.057525995768141
1761914686645235500,5.8062353515625,-0.4425666571229696,0.6907289325207472,0.20509313166309148
1761914686655291600,5.816291748046875,-0.08101824104189873,0.6687135000675917,0.38476869427934285
1761914686665346600,5.8263466796875,0.38038872562944887,0.5866466267555952,0.5289295836610719
1761914686675402800,5.83640283203125,0.8823112425625323,0.5245376688450575,0.6486476673122495
1761914686685458700,5.846458740234375,1.3366145147085189,0.5558820706576109,0.8154660499103367
1761914686695514600,5.8565146484375,1.6195295390576123,0.5832224975258111,0.9956837200466543
1761914686705570800,5.86657080078125,1.7896230708688496,0.5712362916558981,1.1464217593289912
1761914686715625500,5.87662548828125,1.83378603772223,0.5289198294520377,1.2031887716896832
1761914686725681700,5.886681640625,1.752654399433732,0.4894289460629225,1.138595084291324
1761914686735737600,5.896737548828125,1.6344237413287162,0.45070203278362747,1.0619660181190818
1761914686745793500,5.90679345703125,1.5861486629813908,0.4203092326074838,0.8807260922629385
1761914686755848700,5.9168486328125,1.5469699142813682,0.4005722664803266,0.6756781514484435
1761914686765904600,5.926904541015625,1.541568932020664,0.3775421040266752,0.4801563465332612
1761914686775960600,5.936960693359375,1.4624860429555178,0.3410381274938583,0.299968614877481
1761914686786016800,5.947016845703125,1.2993892381638288,0.2711702260196209,0.15727739618951453
1761914686796072400,5.957072509765625,1.0992559573978185,0.21084289082884788,0.04852150912275537
1761914686806127600,5.967127685546875,0.897659033820033,0.1587047073125839,-0.025607410796824843
1761914686816183600,5.97718359375,0.7513818464040756,0.13224340136647222,-0.06513904632143676
1761914686826239500,5.987239501953125,0.6131248838365078,0.0630769261598587,-0.07449037364311516
1761914686836295700,5.997295654296875,0.4820768297344446,-0.04243687371313572,-0.10263806177359074
1761914686846350600,6.0073505859375,0.38935295332968234,-0.17717793711423874,-0.1712935552507639
1761914686856406800,6.01740673828125,0.2799053211390972,-0.2811334016293287,-0.2499920481082052
1761914686866462700,6.027462646484375,0.165720723554492,-0.30611119101941586,-0.3208527234794572
1761914686876518400,6.037518310546875,0.054496729341149325,-0.3180284233063459,-0.3712072019167244
1761914686886573600,6.047573486328125,-0.04642389752268791,-0.38579263049960133,-0.4209265607882291
1761914686896629500,6.05762939453125,-0.15859657076299188,-0.5208411524146795,-0.4700706405224278
1761914686906685700,6.067685791015625,-0.3196504715502262,-0.6810825677752494,-0.4828288171455264
1761914686916741600,6.07774169921875,-0.41494799783527847,-0.7811024464070796,-0.41858978840373456
1761914686926797600,6.087797607421875,-0.398801749676466,-0.7994149326890706,-0.3603402824003249
1761914686936852700,6.097852783203125,-0.3998801925629377,-0.7084925527483225,-0.33824615868777036
1761914686946908400,6.107908447265625,-0.4988286425709724,-0.5893646535426378,-0.32881803980283436
1761914686956964600,6.117964599609375,-0.6025076282322407,-0.5082388604730368,-0.3361408569715917
1761914686967020500,6.1280205078125,-0.6164174956411123,-0.4850479544997215,-0.2824233318420127
1761914686977075500,6.138075439453125,-0.5042074129998684,-0.636269028058648,-0.14441689170310273
1761914686987131600,6.148131591796875,-0.3976069869339466,-0.8931704902291298,-0.07998022149736062
1761914686997187600,6.1581875,-0.3530547285020351,-0.9756751704365014,-0.09823902309704571
1761914687007243500,6.168243408203125,-0.2635883925884962,-0.8915905275613069,-0.12173735105171798
1761914687017299700,6.1782998046875,-0.15910802741646765,-0.88082363435328,-0.08096024551065638
1761914687027354400,6.188354248046875,-0.17444412823617458,-0.9473954168915748,0.013401164401485584
1761914687037410600,6.19841064453125,-0.22720891921818254,-0.8941402120441198,0.14246644262191838
1761914687047466500,6.208466552734375,-0.281944133490324,-0.6094266138404607,0.2182867953603156
1761914687057522400,6.2185224609375,-0.5064245045274496,-0.08824994586110115,0.22335746795441955
1761914687067577600,6.22857763671875,-0.7374287243753671,0.5317880783647299,0.1543370318886824
1761914687077633500,6.238633544921875,-0.7800748569250107,1.0492869346141815,0.027311031810357232
1761914687087689700,6.248689697265625,-0.7573556601166724,1.267855451259017,-0.11746985719981602
1761914687097745700,6.25874560546875,-0.6827911252588034,1.1281091269165278,-0.21158446644376963
1761914687107800600,6.268800537109375,-0.5819383029341697,0.7542331441819667,-0.24895664064586162
1761914687117856500,6.2788564453125,-0.4699240351259708,0.40111762540340423,-0.280831970997341
1761914687127912400,6.288912353515625,-0.35847324641942974,0.07671382184624671,-0.3137051898123696
1761914687137968600,6.29896875,-0.3603922317832708,-0.14523440036475657,-0.43194556559380143
1761914687148024600,6.309024658203125,-0.515386978662014,-0.271869314199686,-0.6472051403537392
1761914687158079700,6.319079833984375,-0.7432464707434177,-0.5201899950295686,-0.8332722671706229
1761914687168135700,6.3291357421875,-1.0353104317098856,-0.7722469397783279,-0.9291257468380033
1761914687178191600,6.339191650390625,-1.2858850289463997,-0.9132260207861661,-0.9488916467987001
1761914687188247800,6.349247802734375,-1.4460615623772144,-0.840187088060379,-0.9917284796148538
1761914687198302500,6.359302490234375,-1.5052029026538132,-0.4907552262306213,-1.0489309607833623
1761914687208358400,6.3693583984375,-1.4410942953586579,-0.0678086308568716,-1.1187756275124847
1761914687218414600,6.37941455078125,-1.259175885719061,0.3218862677782774,-1.1232133176989854
1761914687228470500,6.389470458984375,-1.0299988812983036,0.6236456933289766,-1.1139111632812768
1761914687238526500,6.3995263671875,-0.7355985863387584,0.8909890545368194,-1.0687552398677915
1761914687248581600,6.40958154296875,-0.3408393900513649,1.1207564260661602,-0.9329203168153762
1761914687258637600,6.419637451171875,0.08561959735751151,1.1793635133355855,-0.7743520953640342
1761914687268693800,6.42969384765625,0.5054314018368721,1.108751515495777,-0.5643546058507636
1761914687278749700,6.439749755859375,0.9486176521629095,1.0085241315931082,-0.3535907716074958
1761914687288804600,6.4498046875,1.3298539345324039,0.9443711006343364,-0.24407451289379967
1761914687298860500,6.459860595703125,1.625138026589155,0.9517004206091165,-0.17369473464097826
1761914687308916500,6.46991650390625,1.8960411261051893,0.9784802909851074,-0.05693575652372092
1761914687318972700,6.47997265625,2.048635826104879,0.9273229351997375,0.11663669431130401
1761914687329027600,6.490027587890625,2.0890403172075747,0.8298013031244278,0.3057380833907053
1761914687339083800,6.500083740234375,2.052765473255515,0.7504898660004139,0.45769035730101165
1761914687349139700,6.5101396484375,1.994478119459748,0.6947200479835272,0.5409058891914784
1761914687359195400,6.5201953125,1.9072212762892244,0.6224415782362223,0.5492099724825471
1761914687369251600,6.53025146484375,1.7912363512843845,0.5175386037379502,0.4760456598114222
1761914687379306500,6.540306396484375,1.6150947714805601,0.47329088121056556,0.374940324030444
1761914687389362700,6.55036279296875,1.386978674289584,0.480093546962738,0.2542335946680978
1761914687399418600,6.560418701171875,1.2439070049166678,0.5040817407935857,0.1673899902072735
1761914687409474600,6.570474609375,1.131232227373123,0.5636877759724855,0.1413675688687712
1761914687419529700,6.58052978515625,0.9912819048911332,0.6332791985929012,0.09304936376577243
1761914687429585700,6.590585693359375,0.8664490720421075,0.638850276723504,-0.018134828160144386
1761914687439641600,6.6006416015625,0.7546119143664837,0.5621744488000869,-0.14301950079426168
1761914687449697500,6.610697509765625,0.666288318747282,0.3618880232989788,-0.2062645500626415
1761914687459753500,6.62075341796875,0.5310965889692306,0.04822247137725353,-0.2397834463700652
1761914687469808600,6.63080859375,0.3657259940266609,-0.2415098317712545,-0.21825660115145146
1761914687479864600,6.640864501953125,0.18931728771924972,-0.475749964800477,-0.10957732298485934
1761914687489920500,6.65092041015625,0.0008580781340599059,-0.6493330922931433,0.03319017580971122
1761914687499976700,6.660976806640625,-0.16846388478279112,-0.8285574405431747,0.154238813944906
1761914687510031600,6.671031494140625,-0.22704934474229813,-0.9994874231785535,0.2917823675461113
1761914687520087600,6.681087646484375,-0.16425065100193023,-1.0653460890114306,0.47076939990893
1761914687530143500,6.6911435546875,-0.09168693457245826,-1.0389455733418465,0.6017518414288758
1761914687540199400,6.701199462890625,-0.08872107050418854,-0.9880594357132911,0.6436242131270468
1761914687550255600,6.711255615234375,-0.07572890246212483,-0.8882347873926162,0.5527911189049483
1761914687560310500,6.721310546875,-0.06873626709580422,-0.7516185777693987,0.3513404719300568
1761914687570366700,6.73136669921875,-0.18798808494210242,-0.6266092193096876,0.12511672782432287
1761914687580422700,6.741422607421875,-0.32385786011219025,-0.501233365625143,-0.12359492508452385
1761914687590478600,6.751478515625,-0.47769876078069207,-0.3147790661215782,-0.38344215838331724
1761914687600533500,6.761533447265625,-0.5159563029825687,-0.09097557143270969,-0.6985450130991637
1761914687610589400,6.77158935546875,-0.3272445799410343,0.04583996015489101,-1.075143698795885
1761914687620645600,6.781645751953125,-0.13070318618714807,0.10804477965533733,-1.4311132918313145
1761914687630701600,6.79170166015625,-0.10812836628556251,0.0794464616805315,-1.7287360559687017
1761914687640756500,6.801756591796875,-0.008866028022766113,-0.13815174862742424,-1.901102355017513
1761914687650812700,6.811812744140625,0.04277648093104362,-0.5586445211082697,-1.871433777462691
1761914687660868600,6.82186865234375,-0.19704466710090637,-0.9952911405324936,-1.6498567266516386
1761914687670924500,6.831924560546875,-0.6925497182071209,-1.197816869392991,-1.2504413751214742
1761914687680980700,6.841980712890625,-1.2232418180286884,-1.2080255441963672,-0.881950008034706
1761914687691035400,6.852035400390625,-1.6190578298926352,-1.1324953791767358,-0.5941296029221266
1761914687701091600,6.862091552734375,-1.7749229298651217,-0.9291074805289506,-0.3384009108580649
1761914687711147500,6.8721474609375,-1.8721949710935353,-0.5815630398809909,-0.1338184138645418
1761914687721203500,6.882203369140625,-1.9728420417129993,-0.12899170609414576,-0.03445097125945613
1761914687731258600,6.892258544921875,-2.0007553000330924,0.3191384303748607,-0.07248129884302616
1761914687741314600,6.902314453125,-1.785446661967039,0.5650812761574984,-0.18075037050722165
1761914687751370800,6.912370849609375,-1.520660584026575,0.5520101976603269,-0.23545911689754573
1761914687761426700,6.9224267578125,-1.2140098793029785,0.4205143997907638,-0.24943666098145767
1761914687771482600,6.932482666015625,-0.8377548924773931,0.5173661697804928,-0.21735647397395222
1761914687781537500,6.94253759765625,-0.47972938982546326,0.7356541159182787,-0.0956321468005888
1761914687791593500,6.952593505859375,-0.09670096334218978,0.828879512104392,0.15124606186971068
1761914687801649700,6.962649658203125,0.1703302631765604,0.6915992856144905,0.5013098283948376
1761914687811705600,6.97270556640625,0.2199298681259155,0.4726134203404188,0.8929329551462084
1761914687821760800,6.9827607421875,0.09422434409558772,0.28852760353386403,1.2146147133283316
1761914687831816700,6.992816650390625,0.0524152468919754,0.20758827294707297,1.4128103040300308
1761914687841872600,7.00287255859375,0.01002338136434555,0.23913550385534763,1.4993611908882856
1761914687851928600,7.012928466796875,0.006617956835031509,0.29987609602212906,1.4836314145758747
1761914687861984500,7.022984619140625,0.04715104275345802,0.34226270085275173,1.3731969633050263
1761914687872039700,7.033039794921875,0.14379063129723071,0.347445071926713,1.1476774584785103
1761914687882095600,7.043095703125,0.1698340040922165,0.39694589267671104,0.8924532818704843
1761914687892151600,7.053151611328125,0.2415501637816429,0.4611667281746864,0.6676894907820969
1761914687902207500,7.06320751953125,0.36436814967691894,0.5036702373832463,0.46022374823614953
1761914687912262700,7.0732626953125,0.45964229508638377,0.5321054737508296,0.32141682363562285
1761914687922318600,7.083318603515625,0.47845747019350526,0.5453419719427823,0.2663626065421849
1761914687932374500,7.09337451171875,0.5265127683103085,0.5161006798893213,0.2895111346784979
1761914687942430500,7.103430419921875,0.6096078156262635,0.4407943867534399,0.3227112108277157
1761914687952485600,7.113485595703125,0.7472592135161161,0.3752040164679289,0.32231464925818143
1761914687962541600,7.12354150390625,0.892992795574665,0.32579438113272186,0.37239425627682354
1761914687972597500,7.133597412109375,1.0224977118879557,0.23005495629906653,0.4848967094607651
1761914687982653700,7.14365380859375,1.1397475422620773,0.1256178457468748,0.6374641561273485
1761914687992709600,7.153709716796875,1.1336772824376822,0.0382896909058094,0.7635654014769941
1761914688002764800,7.163764892578125,1.0994295603990554,0.059464580881595605,0.8798919064611196
1761914688012820500,7.173820556640625,0.9910650472700595,0.13065642443597317,0.9388436424497515
1761914688022876400,7.18387646484375,0.8595967219293117,0.1663514226734638,0.954782312272489
1761914688032932600,7.1939326171875,0.7427683318376541,0.11790040323734283,0.8891693648289889
1761914688042988500,7.203988525390625,0.6091209088921546,0.020738836646080016,0.7573223423689603
1761914688053043700,7.214043701171875,0.47693888232409953,-0.0677782357186079,0.5403543197233229
1761914688063099600,7.224099609375,0.4110679415315389,-0.04918810153901577,0.3154495127290487
1761914688073155600,7.234155517578125,0.35866964577436444,0.0854763894945383,0.09423059117328375
1761914688083211800,7.244211669921875,0.21994038951992986,0.24172961200177667,-0.11541191088985651
1761914688093266400,7.254266357421875,0.1785731908649206,0.29178572854697704,-0.2507112657608464
1761914688103322600,7.264322509765625,0.17227146037220953,0.23004735751450062,-0.32408750414960086
1761914688113378600,7.274378662109375,0.13063421260416508,0.12462825018763542,-0.44997653152067213
1761914688123434500,7.2844345703125,0.14643909997940063,0.026598084068298337,-0.5993209610201418
1761914688133490700,7.29449072265625,0.26549977916777134,-0.049241877552866936,-0.7439077111311256
1761914688143545300,7.30454541015625,0.29012977803349493,-0.06730944916307925,-0.875846868854016
1761914688153601500,7.3146015625,0.23813304881453512,-0.09652209964394569,-0.9123306063164025
1761914688163657500,7.324657470703125,0.13720248507857322,-0.207217101547122,-0.8603187525935471
1761914688173713400,7.33471337890625,0.11284662697911262,-0.3856049989730119,-0.7155731586590409
1761914688183768600,7.3447685546875,0.13517828577458857,-0.5732248351246119,-0.5628182265963405
1761914688193824500,7.354824462890625,0.1658329517573118,-0.6460860731959343,-0.3922977746099233
1761914688203880400,7.36488037109375,0.11293956595957279,-0.6219786368995904,-0.20527864429783074
1761914688213936600,7.3749365234375,0.008556231421232224,-0.5587456433951854,-0.010096775394119321
1761914688223991300,7.3849912109375,-0.1335135674327612,-0.49282677180767054,0.16641546435300258
1761914688234047500,7.395047607421875,-0.25597382593154905,-0.4247708881914615,0.2841549779402092
1761914688244103400,7.405103515625,-0.3397650388181209,-0.4111836768656969,0.29667839595936235
1761914688254159400,7.415159423828125,-0.2823240727186203,-0.6100777712255716,0.2749959948528558
1761914688264215600,7.425215576171875,-0.18134616270959375,-0.9353408219605683,0.263419538827613
1761914688274270500,7.4352705078125,-0.16113748741745948,-1.1516641900271176,0.28652298571318385
1761914688284326700,7.44532666015625,-0.1607926195025444,-1.1004834533661603,0.30487094516735525
1761914688294382600,7.455382568359375,-0.038432898768782614,-0.9414765482366084,0.3485147469848394
1761914688304438300,7.465438232421875,0.06804127056896686,-0.9944202029168605,0.41713312332201746
1761914688314493400,7.475493408203125,0.019015666115283963,-1.2136790399134159,0.4626802380101755
1761914688324549400,7.48554931640625,-0.0899684402167797,-1.2071744803249835,0.43157329821530727
1761914688334605600,7.49560546875,-0.262535084143281,-0.8698585882246493,0.4008997814016416
1761914688344661500,7.50566162109375,-0.40797056003808974,-0.30975276239216326,0.4240360711108893
1761914688354717400,7.515717529296875,-0.5664250919818877,0.28686405423581596,0.5089451090462506
1761914688364772600,7.525772705078125,-0.6774187845706939,0.6737094086587428,0.565594084517844
1761914688374828500,7.53582861328125,-0.7423410463362932,0.8488678226441144,0.5599799344304949
1761914688384884500,7.545884521484375,-0.7791121493726968,0.9596370588272809,0.3833152806006372
1761914688394940400,7.5559404296875,-0.8067752323240042,1.0305430711776018,0.05791466629216447
1761914688404995300,7.565995361328125,-0.753880092960596,1.045281790626049,-0.28231210828619074
1761914688415051500,7.576051513671875,-0.6461404337316751,0.9036433689266443,-0.59559887175709
1761914688425107500,7.586107421875,-0.6609796909451484,0.6656546970188617,-0.8354126402001828
1761914688435163400,7.596163330078125,-0.6910568493008613,0.5094470672190189,-1.0042081680901347
1761914688445219600,7.606219482421875,-0.6661094550490378,0.440092960485816,-1.0824482496555894
1761914688455274500,7.6162744140625,-0.6495815140962601,0.3878448868542909,-1.1390124329205602
1761914688465330400,7.626330322265625,-0.5808797337919474,0.33471827682256694,-1.1116240021921693
1761914688475386400,7.636386474609375,-0.5118763401925563,0.3180371911346912,-1.0214115971516817
1761914688485442300,7.6464423828125,-0.5149684609889984,0.3310492329210043,-0.9858023775015026
1761914688495497500,7.65649755859375,-0.4854267246842384,0.3705371937006712,-0.960226622218266
1761914688505553400,7.666553466796875,-0.44499125392138955,0.45300504902899263,-0.9469354712296276
1761914688515609600,7.676609619140625,-0.4280629154741764,0.5022539408445358,-0.8944669597804545
1761914688525665500,7.68666552734375,-0.3460533253073692,0.4689776941865682,-0.8376186988770962
1761914688535721500,7.696721435546875,-0.2992038958489895,0.391425667950511,-0.8121531259700655
1761914688545776400,7.7067763671875,-0.21453005490899085,0.3842430629700422,-0.8589847275108099
1761914688555832300,7.716832275390625,-0.03717968383729458,0.4652829313218593,-0.9297389103002845
1761914688565888500,7.726888427734375,0.20186814173460005,0.5117898309528828,-0.9293418007414788
1761914688575944400,7.7369443359375,0.5121463893055915,0.4493161313831806,-0.8149098042670637
1761914688585999600,7.74699951171875,0.8087894947558641,0.3892313727766275,-0.6738732209183276
1761914688596055600,7.7570556640625,0.9648755440026521,0.3903051394879818,-0.564651762166433
1761914688606111500,7.767111572265625,1.0925398008853195,0.3890320508122444,-0.5212724199714138
1761914688616167400,7.77716748046875,1.1779238359212876,0.38473230779170986,-0.5132083559812978
1761914688626222300,7.787222412109375,1.21219786144495,0.37841888686120506,-0.5056317467145621
1761914688636278300,7.7972783203125,1.2549766804635525,0.3833639420479536,-0.4778024038182571
1761914688646334500,7.80733447265625,1.284564009475708,0.33709844995737076,-0.43924489228911695
1761914688656390400,7.817390380859375,1.2675503308326006,0.2605038705766201,-0.3969695658132434
1761914688666446300,7.8274462890625,1.2381740142226219,0.20597674609720706,-0.35103480351436883
1761914688676501500,7.83750146484375,1.151781094405055,0.14491232880353927,-0.2606047188689001
1761914688686557400,7.847557373046875,1.0663175643920897,0.07455576702952385,-0.246897443093732
1761914688696613600,7.857613525390625,0.970907225382328,0.017754267877340316,-0.3183227300778031
1761914688706669600,7.867669677734375,0.8227449548721313,-0.012156301739811897,-0.41144276619330045
1761914688716724500,7.877724365234375,0.7338987966835498,-0.05788461821377277,-0.46188817431703205
1761914688726780400,7.887780517578125,0.6686585550099611,-0.1279360595613718,-0.44979434335418045
1761914688736836400,7.89783642578125,0.6206073485463858,-0.25536124699115753,-0.3665461878357455
1761914688746892500,7.907892578125,0.6514063914358615,-0.43865737472474575,-0.24717001295741647
1761914688756948500,7.917948486328125,0.6366928064286709,-0.5480792879521846,-0.10186391732962802
1761914688767003600,7.928003662109375,0.5571721104681492,-0.6319979266107082,0.013909978148370281
1761914688777059600,7.9380595703125,0.45404842060208317,-0.7061743389338254,0.10154852210436947
1761914688787115500,7.948115478515625,0.2810088984668255,-0.7428501649022102,0.1865989504049532
1761914688797171500,7.95817138671875,0.04756722233891487,-0.7799462621092796,0.2557334230381064
1761914688807226400,7.968226318359375,-0.1614589744567871,-0.7826543520241975,0.27937446566540747
1761914688817282600,7.978282470703125,-0.3079185327023268,-0.7945388510853052,0.2620885642184876
1761914688827338500,7.98833837890625,-0.3429980293899774,-0.8174094390630722,0.2275149164274335
1761914688837394400,7.99839453125,-0.3903466405421495,-0.79464172693789,0.12397903816443867
1761914688847447300,8.008447265625,-0.3946989905327558,-0.6671370445311069,-0.00010715016890317201
1761914688857502500,8.01850244140625,-0.29482231976389883,-0.5189058004379272,-0.0830691365565639
1761914688867558400,8.028558349609375,-0.149228438436985,-0.3785971660375595,-0.12392911634179762
1761914688877614600,8.038614501953125,0.0004284545451402664,-0.22085399723351,-0.19705632100608197
1761914688887670500,8.04867041015625,0.10978373227715492,-0.00848667331635952,-0.3075225191220641
1761914688897726500,8.0587265625,0.2789554730683565,0.24938977136611937,-0.4572060078501701
1761914688907781400,8.068781494140625,0.4260135817289352,0.5319809705883264,-0.6526550032574683
1761914688917837300,8.07883740234375,0.5753787982881069,0.7235176879227161,-0.8764284681342541
1761914688927893500,8.0888935546875,0.7759791120439767,0.7331722359746694,-1.0930339410778134
1761914688937949400,8.098949462890625,0.8154857775241136,0.5064566532313823,-1.2138123839695005
1761914688948004600,8.109004638671875,0.6623240912914276,0.2407826865404844,-1.2706386522367596
1761914688958060500,8.119060546875,0.4466933816641569,0.0663835664898157,-1.222721082090214
1761914688968116500,8.129116455078124,0.264120307508111,-0.1122504146516323,-1.0797297844771294
1761914688978172400,8.13917236328125,0.12798632844388486,-0.34548049385547636,-0.8708729528989643
1761914688988228600,8.149228515625,-0.06637129153013228,-0.6621668549031019,-0.626047566838935
1761914688998283300,8.159283203125,-0.3064373542338609,-0.9173048145323991,-0.39144904882609843
1761914689008339500,8.16933935546875,-0.546955836880207,-0.9454986433595418,-0.2840677015155554
1761914689018395400,8.1793955078125,-0.8671908303201198,-0.8400789515107869,-0.21026209526620804
1761914689028451300,8.189451416015626,-1.2001496962547302,-0.6842495073735714,-0.08518025609217583
1761914689038506500,8.199506591796874,-1.4187597139537333,-0.47001814315021034,0.024356223425641654
1761914689048562400,8.2095625,-1.4760639019310473,-0.1493845057815313,0.0672509969741106
1761914689058618600,8.21961865234375,-1.4488731126666068,0.26361937224864956,0.05227116224616766
1761914689068674600,8.229674560546876,-1.2764625360846518,0.5887976673096418,0.06509053100459278
1761914689078729500,8.2397294921875,-1.1107727921903132,0.7788251491248607,0.04985789055936038
1761914689088785400,8.249785400390625,-1.1822726787805558,0.8843956476211547,0.116632356062904
1761914689098842000,8.259842041015625,-1.2611071460425853,0.9239233558893203,0.3259220991656184
1761914689108898000,8.26989794921875,-1.160020514962077,0.84732819198668,0.5529178140245378
1761914689118954200,8.279954345703125,-0.988417747631669,0.6358809055238962,0.8154615198656916
1761914689129009200,8.290009033203125,-0.8682266031086444,0.3861684780746698,1.1488413876913488
1761914689139065300,8.3000654296875,-0.7723667667657137,0.18646365185379982,1.3826952978819609
1761914689149121300,8.310121337890624,-0.5717635304003954,0.11153320629298687,1.6100778201013803
1761914689159177000,8.320177001953125,-0.31403964593112466,0.07316285136640072,1.7805701419718563
1761914689169233200,8.330233154296875,-0.1887561467051506,0.013283844465017318,1.8622610215783117
1761914689179288000,8.3402880859375,-0.09170330118536948,-0.10514964273571968,1.814984891140461
1761914689189344300,8.35034423828125,0.028782442370057105,-0.20853870553970336,1.6177366642914712
1761914689199400200,8.360400146484375,0.16775193712115286,-0.23370003480315207,1.3147675706900654
1761914689209456000,8.3704560546875,0.28200258567929265,-0.23448212509155272,0.9846198166534305
1761914689219511300,8.38051123046875,0.3289139744579792,-0.249418412938714,0.6768357239857316
1761914689229567200,8.390567138671875,0.36733985896408555,-0.18094985686838627,0.4335537314428016
1761914689239623200,8.400623046875,0.39601825643777844,-0.06049275488555431,0.2921853588564321
1761914689249679000,8.41067919921875,0.49972062297463415,0.014407880058884619,0.2284277569560334
1761914689259734300,8.420734375,0.5867535942614078,0.10755436578989028,0.22040990672782063
1761914689269790200,8.430790283203125,0.6545189704984427,0.21531799041628835,0.32701186716370284
1761914689279846100,8.44084619140625,0.7631219685584306,0.3139771020889282,0.4999546509262174
1761914689289902300,8.45090234375,0.8767419179975986,0.4234855245560407,0.7210806700341403
1761914689299958300,8.460958251953125,1.0132254411518573,0.5386784224003554,0.8743667132988572
1761914689310013000,8.471012939453125,1.019552306085825,0.6463222200393677,0.939674905642122
1761914689320069000,8.481069091796876,1.0177928951978683,0.6575169832706451,0.9332637234255671
1761914689330125000,8.491125,1.0421090058088303,0.5663678088366985,0.8832885631620884
1761914689340181000,8.501180908203125,1.005475265416503,0.4793658172100782,0.8375282441146671
1761914689350236200,8.511236083984375,0.9541823005527257,0.4344067315429449,0.7797975012883543
1761914689360292000,8.5212919921875,0.9708528648465872,0.40777240711748597,0.688128540764004
1761914689370348300,8.531348388671875,0.9983511126250028,0.3669891458302736,0.5994462679002434
1761914689380404200,8.541404296875,1.0416565858662128,0.3106698772370815,0.4997379394356161
1761914689390460200,8.551460205078126,1.0589221934437751,0.2359036823272705,0.44341625968962906
1761914689400515000,8.56151513671875,1.0412275467991827,0.18851240107715128,0.3492457646731287
1761914689410571000,8.571571044921875,1.0652712702095508,0.1482388428777456,0.24292342489622532
1761914689420627200,8.581627197265625,1.1085878493666648,0.1055062010884285,0.13247114570774138
1761914689430683100,8.59168310546875,1.0992799227952956,-0.08837152641415595,0.026004575154557823
1761914689440738300,8.60173828125,1.05439974758327,-0.2755430342763662,-0.08595935070589185
1761914689450794200,8.611794189453125,0.983499580451846,-0.2880705074161291,-0.22474567090980707
1761914689460850200,8.62185009765625,0.8718962315320968,-0.19867899030447006,-0.39870530356466766
1761914689470906400,8.63190625,0.740800831156969,-0.17081600086688994,-0.5373929126344621
1761914689480962300,8.64196240234375,0.6308031638681888,-0.28478257178664207,-0.6270086669560522
1761914689491017200,8.652017333984375,0.552892241191864,-0.4682996487945318,-0.6743479257579893
1761914689501073200,8.6620732421875,0.41967619540095324,-0.5418114597290754,-0.7140313360445201
1761914689511129000,8.672129150390624,0.22697452594041823,-0.5403454788297415,-0.7326772920645773
1761914689521185300,8.682185302734375,0.010407996767759322,-0.5204004229098558,-0.6839949480906129
1761914689531240200,8.692240234375,-0.14330021743178367,-0.5293056138992309,-0.5838159333743155
1761914689541296000,8.702296142578126,-0.23124036669135092,-0.5336217235326767,-0.43059294540844856
1761914689551352300,8.712352294921875,-0.30782676276564597,-0.5002209737122059,-0.2642546014122665
1761914689561408300,8.722408203125,-0.3942763812065124,-0.3747995273202657,-0.11175912400335072
1761914689571464000,8.7324638671875,-0.4340414053618908,-0.23372400020062922,0.044224487782269714
1761914689581519000,8.74251904296875,-0.384286317589879,-0.18713819011449812,0.25360300514698025
1761914689591575000,8.752574951171875,-0.277024212744832,-0.4741512974321842,0.4943931443415582
1761914689601631200,8.76263134765625,-0.2950900307893753,-1.0228525166749953,0.6612872225243598
1761914689611687200,8.772687255859376,-0.4145253885090351,-1.3341560156404972,0.7251503306258469
1761914689621742300,8.782742431640624,-0.5083072495341301,-1.2923545172214508,0.7121695607606321
1761914689631798300,8.79279833984375,-0.6334492944628,-1.2915864554584024,0.6416138962179422
1761914689641854200,8.802854248046875,-0.7909194915443658,-1.4793869088739156,0.6071069752538576
1761914689651910100,8.81291015625,-1.0753297228872776,-1.50819273211956,0.6428998443752527
1761914689661965000,8.822965087890625,-1.4089128582000732,-1.1592512841552496,0.6489025919213891
1761914689672021200,8.833021240234375,-1.4960247399419546,-0.5472825846165418,0.5803271414104849
1761914689682077200,8.8430771484375,-1.5001590632677078,0.0683493136048317,0.4756795299127698
1761914689692133000,8.853133056640624,-1.5029326196342705,0.5580372028648853,0.3360010101094842
1761914689702189300,8.863189208984375,-1.4813000490188597,0.9103454969137906,0.06015431671142578
1761914689712244200,8.873244140625,-1.2979033835202454,1.0432651901066303,-0.23448859136495737
1761914689722300400,8.883300537109376,-0.9321516705304383,0.9676561146318912,-0.5030260211955756
1761914689732356000,8.893356201171875,-0.6620066959053278,0.8928314675331115,-0.7271386548988521
1761914689742412000,8.903412109375,-0.567497105127573,0.831824333384633,-0.9523905948303639
1761914689752467200,8.91346728515625,-0.36830256651639937,0.7878489980578423,-1.1921679037205875
1761914689762523100,8.923523193359374,-0.1305798520684242,0.6963654771029949,-1.3784582448340952
1761914689772579000,8.9335791015625,0.09550736964344977,0.46896015852987766,-1.4361499708242713
1761914689782635300,8.94363525390625,0.31617081274092196,0.15564415069818496,-1.346547295179963
1761914689792691200,8.953691162109376,0.4552414297789335,-0.044565117913484574,-1.1686278920486568
1761914689802746000,8.96374609375,0.5506687199234962,-0.07198796236813068,-0.9829689076412469
1761914689812802000,8.973802001953125,0.6460182686567306,0.02176174995303154,-0.8153808558449148
1761914689822858000,8.98385791015625,0.6793646579414606,0.1560474708020687,-0.6658231854535639
1761914689832914200,8.9939140625,0.6771440592825413,0.2506821492642164,-0.5021023670120165
1761914689842969000,9.003968994140624,0.628272184085846,0.29421324795484544,-0.29409594171810893
1761914689853025300,9.014025390625,0.5808586910039186,0.2618213829159736,-0.08684446297734975
1761914689863081200,9.024081298828126,0.5481938542425632,0.23710312124490737,0.08085388079304248
1761914689873137200,9.03413720703125,0.5983242050677537,0.2859077764242887,0.15915464303717017
1761914689883193300,9.044193359375,0.6909200711786747,0.4034434380024671,0.18120817901100963
1761914689893248000,9.054248046875,0.7728618568062782,0.5192132589519024,0.12176007434017956
1761914689903304200,9.06430419921875,0.8050257583081721,0.6158405725359917,0.09396233215853571
1761914689913360100,9.074360107421874,0.7592617859989405,0.6175275027096271,0.13284549544546753
1761914689923416000,9.084416015625,0.7436310861468315,0.5837316160917282,0.19151198475193232
1761914689933471200,9.09447119140625,0.7973965786039828,0.6005173311978578,0.27426662113238126
1761914689943527200,9.104527099609374,0.8561585641741752,0.6092518417954444,0.2983568505655974
1761914689953583400,9.114583251953125,0.9215677326738834,0.6355348685652017,0.23131323099816217
1761914689963639300,9.124639404296875,1.0595973162263632,0.5695400091320276,0.1517815569858998
1761914689973695200,9.1346953125,1.0999743348002433,0.445924735379219,0.04555878685964271
1761914689983750100,9.144750244140624,0.9822831903994083,0.2990525046795606,-0.07083482854394242
1761914689993806000,9.15480615234375,1.0292460171043871,0.1645616166472435,-0.15940823420574887
1761914690003862000,9.164862060546875,1.0792764146864413,0.11253449229001998,-0.22232213355731217
1761914690013918200,9.174918212890624,1.0723252803742884,0.12163900524377823,-0.285425454533752
1761914690023973000,9.18497314453125,1.10844756411314,0.14757424148917198,-0.37525253178477286
1761914690034029300,9.195029296875,1.1463012016892433,0.09428338080644608,-0.42940329723246395
1761914690044085200,9.205085205078126,1.1438310121834276,-0.03130933049917221,-0.40208435154370964
1761914690054141200,9.21514111328125,1.0613181486696004,-0.1987251675337553,-0.29245180950658395
1761914690064196000,9.225196044921875,0.9330372211933136,-0.35865561724901196,-0.20995381476832553
1761914690074252000,9.235251953125,0.679662179583311,-0.44222997251451013,-0.12480430087428539
1761914690084308200,9.24530810546875,0.4135609273910522,-0.4765700490117073,-0.07377901050336659
1761914690094364200,9.2553642578125,0.24794307968914508,-0.48477615182101724,-0.04327007313426584
1761914690104419800,9.265419921875,0.050857496055960655,-0.49302667829394337,-0.09922956850435584
1761914690114475000,9.27547509765625,-0.14882394928932188,-0.5988742401659488,-0.25861812989525496
1761914690124531000,9.285531005859376,-0.26005145063400265,-0.6953256126612425,-0.48985553744453936
1761914690134587100,9.295587158203125,-0.3777870186984539,-0.7438157950639724,-0.6979670670807361
1761914690144643000,9.30564306640625,-0.5201426487565041,-0.7637170118421316,-0.8145107950121164
1761914690154698200,9.3156982421875,-0.81120298563838,-0.7605038950145244,-0.9137770057324319
1761914690164754200,9.325754150390624,-1.1371265461087225,-0.6971890684455633,-0.9417267966706305
1761914690174809900,9.335809814453125,-1.4089105201125145,-0.5904442654728889,-0.941086160679534
1761914690184866000,9.345865966796875,-1.6004121661335229,-0.4210340397506952,-0.9522072010874748
1761914690194922000,9.355921875,-1.5847124926984308,-0.22292612733244896,-0.9569471621561795
1761914690204977200,9.36597705078125,-1.3871172059774397,-0.09964695366621017,-0.9612225744530558
1761914690215033000,9.376033203125,-1.0849451079726218,-0.15946809290051459,-0.9935426894299685
1761914690225089000,9.386089111328126,-0.784371092814207,-0.4540063350260257,-0.9945826269369572
1761914690235145200,9.396145263671874,-0.7170657353043556,-0.8308598722666501,-0.9479897295229136
1761914690245200100,9.4062001953125,-0.6924176162600517,-1.1828846731990574,-0.7980538734689354
1761914690255256000,9.416256103515625,-0.8621990133821964,-1.437783563375473,-0.5035629776164889
1761914690265312000,9.42631201171875,-1.2334481547445058,-1.4824024573028087,-0.1382279830682557
1761914690275368000,9.436367919921874,-1.4386650223851203,-1.2700807260930538,0.24260542672192675
1761914690285423000,9.446423095703125,-1.3988614197850227,-0.9346019862920045,0.45914300379473716
1761914690295479000,9.45647900390625,-1.3414216227293014,-0.6212374631434678,0.577391380219534
1761914690305535000,9.466534912109376,-1.2842115427762268,-0.3308826441824436,0.5860956052767112
1761914690315591200,9.476591064453125,-1.0553735610514878,0.038081601113080975,0.4578462785150855
1761914690325647000,9.486647216796875,-0.6403542515456676,0.4042331270754337,0.27717512899022545
1761914690335702000,9.496701904296875,-0.24666297675073146,0.6135849025636911,0.06621997342593967
1761914690345758000,9.506758056640624,0.05049684605002403,0.6811205616980791,-0.06247925252765417
1761914690355814000,9.51681396484375,0.19128888005316255,0.6765642135679721,-0.11049885827656834
1761914690365870000,9.5268701171875,0.16346154645085334,0.6824117705523968,-0.036189248027838766
1761914690375925000,9.536925048828126,0.16107786618471145,0.7564075656116008,0.19634711329080162
1761914690385981200,9.546981201171874,0.2612076349318027,0.7756774987488985,0.5404579992935061
1761914690396037000,9.557037109375,0.3335182533830404,0.6564777033507824,0.9113606653057038
1761914690406093000,9.567093017578125,0.38552258138656614,0.4990291335791349,1.2201796539790928
1761914690416148000,9.57714794921875,0.3557686636358499,0.3832417769730091,1.4553205352403222
1761914690426204000,9.587203857421875,0.36016835989952084,0.3013637042313814,1.6135506107784807
1761914690436260000,9.597260009765625,0.3344605026692152,0.3177081053107977,1.6381258107170462
1761914690446316000,9.60731591796875,0.3003004589140415,0.3900643164694309,1.546344329728931
1761914690456372000,9.6173720703125,0.24767303057610987,0.462829108428955,1.3524815075345336
1761914690466427100,9.62742724609375,0.2021837835550308,0.49125849957764145,1.1190172542486339
1761914690476483000,9.637483154296875,0.27233517814576624,0.5074082548677921,0.8687270999766886
1761914690486539000,9.6475390625,0.33562954644858833,0.46634266950786113,0.6476872247822583
1761914690496595200,9.65759521484375,0.3391752562314272,0.40192192752361294,0.48462797552198167
1761914690506649900,9.66764990234375,0.35481647747755046,0.38209436050355433,0.36996852696724236
1761914690516706000,9.6777060546875,0.3923474589705467,0.39817105055749413,0.2720387159498408
1761914690526762000,9.687761962890624,0.44063773488700386,0.4161199642241001,0.24820518295774235
1761914690536818000,9.69781787109375,0.536019432324171,0.3705997375428676,0.319594613177143
1761914690546874000,9.7078740234375,0.7092851644307374,0.31805005061626435,0.4472140080047771
1761914690556929000,9.717928955078126,0.9618068040817975,0.31596213842630383,0.5997800664318725
1761914690566985200,9.727985107421874,1.148092176759243,0.33687691616117954,0.735204764715582
1761914690577041200,9.738041259765625,1.2351608038812876,0.30357845767140385,0.8539964907694607
1761914690587096800,9.748096923828125,1.2913579073995352,0.24763152952194212,0.9621410044722258
1761914690597152000,9.758152099609376,1.2600742958635092,0.2882055319726467,1.0241286010254174
1761914690607208000,9.7682080078125,1.1917793427944183,0.39173254194259644,1.0294953887555747
1761914690617264000,9.77826416015625,1.101660680451989,0.47157414042055606,0.9847213042665273
1761914690627320000,9.788320068359376,1.026098366728425,0.5331804095059633,0.9333214449621736
1761914690637375200,9.798375244140624,0.990042133963108,0.5490443335920572,0.8932296730704605
1761914690647431200,9.80843115234375,0.9260054228603839,0.5171937358230352,0.843518351374939
1761914690657487000,9.818487060546875,0.7906482733875513,0.46404491395950315,0.745865274939686
1761914690667543000,9.82854296875,0.7049900975853204,0.42215749082267284,0.576153801248595
1761914690677599000,9.838598876953125,0.5796253498166799,0.365846990057826,0.38930852966606616
1761914690687654100,9.848654052734375,0.4021317708820104,0.2559679807126522,0.2717875359340571
1761914690697710000,9.8587099609375,0.27056933751702306,0.10099369210004806,0.2084214723682031
1761914690707766000,9.86876611328125,0.2389969721674919,-0.059198623421788214,0.13279310767110436
1761914690717822000,9.878822021484375,0.23931845920681952,-0.10599193877875804,0.004558393956720828
1761914690727877000,9.888877197265625,0.2103098068654537,-0.10601356608867644,-0.10947488552369176
1761914690737933000,9.89893310546875,0.08637129250764847,-0.23254034337401389,-0.13548457524478436
1761914690747989000,9.908989013671874,-0.11887246313989162,-0.45865445309281344,-0.10369191820807755
1761914690758045000,9.919044921875,-0.3281149330347776,-0.5364058012932539,-0.08366638093050568
1761914690768100900,9.929100830078125,-0.4257493778347969,-0.351417482689023,-0.10070709371101111
1761914690778156000,9.939156005859376,-0.43438978040814397,-0.021657705056667326,-0.18214951498173176
1761914690788212000,9.9492119140625,-0.483310755443573,0.25120062018036843,-0.28471575362812723
1761914690798268200,9.95926806640625,-0.5965951893180609,0.3069885583758354,-0.33575839699264615
1761914690808324000,9.969323974609376,-0.5654653070390224,0.22330840464830398,-0.34643085338287055
1761914690818379300,9.979379150390624,-0.3783259478807449,-0.04343815971016884,-0.28197533234618605
1761914690828435000,9.98943505859375,-0.10485036752820015,-0.43213761756718155,-0.21445308068264274
1761914690838491000,9.999490966796875,0.12538052985966205,-0.5456996993392705,-0.2125042299035005
1761914690848547000,10.009547119140626,0.3625333354651928,-0.34967268484830855,-0.1993263300309889
1761914690858602000,10.01960205078125,0.5293810172230005,-0.2868745756298303,-0.15399707761090248
1761914690868658200,10.029658203125,0.4459206437259912,-0.5558201113373041,-0.029025503011466933
1761914690878714000,10.039714111328125,0.15227964270114897,-0.9025923985689878,0.12446606362955644
1761914690888770000,10.04977001953125,-0.17638532543182373,-1.0173691168278456,0.22802531363498418
1761914690898826200,10.059826171875,-0.4395300659060478,-0.8467267189621925,0.2439034489095211
1761914690908881000,10.069880859375,-0.6435802278548479,-0.4185270253658294,0.17633808875661341
1761914690918937000,10.07993701171875,-0.765489866733551,0.012447393640875815,0.08104196897735819
1761914690928993000,10.089992919921874,-0.8878484184235333,0.23780104038119315,0.06976787516586481
1761914690939049000,10.100049072265625,-0.8776596173644066,0.3319675168097019,0.0929612196914386
1761914690949104000,10.110104248046875,-0.8749035966545343,0.4549187736958265,0.05805040323473513
1761914690959160000,10.12016015625,-0.9426257182717322,0.551456070908904,-0.08066139042824506
1761914690969216000,10.130216064453125,-0.9414660268425941,0.5531418320387601,-0.23857299286806954
1761914690979272200,10.140272216796875,-1.0056646505087614,0.4438309779703617,-0.34031609682962294
1761914690989328100,10.150328125,-1.15591191059947,0.3218243084579706,-0.3061550118948333
1761914690999383000,10.160383056640624,-1.1126204658836125,0.2524678636372089,-0.2624637724727392
1761914691009439000,10.17043896484375,-1.0016653517395258,0.13013269282281398,-0.3050011474182829
1761914691019495000,10.180494873046875,-0.9931015215337275,-0.015484569379687308,-0.46346831964794544
1761914691029551000,10.190551025390626,-1.011258524993062,-0.1819376988619566,-0.6821396025475114
1761914691039606000,10.20060595703125,-1.0154577302485703,-0.31780045976936816,-0.9371011826965957
1761914691049662200,10.210662109375,-1.0384136584222317,-0.32953473670482636,-1.183701396409422
1761914691059718100,10.22071826171875,-1.061867599245906,-0.24225042100548744,-1.3456639364741743
1761914691069774000,10.230774169921874,-1.0068296026349066,-0.12544015109241008,-1.4024328485310076
1761914691079829000,10.2408291015625,-0.8427472939372063,-0.044747488743066784,-1.3980834211498498
1761914691089885000,10.250885009765625,-0.6685363899350166,-0.05762158336341381,-1.29632385924384
1761914691099936500,10.2609365234375,-0.519361142989993,-0.11730886708498,-1.1540559074692427
1761914691109992400,10.270992431640625,-0.3396177393019199,-0.16989713245630264,-1.0041958931304513
1761914691120048600,10.281048583984376,-0.15988836413919924,-0.1623486167728901,-0.8663567906487732
1761914691130103600,10.291103515625,0.07260638652741909,-0.11845277642309665,-0.7477810454331338
1761914691140159500,10.301159423828125,0.35355975541472434,-0.05961947918236255,-0.5851483144892379
1761914691150215700,10.311215576171875,0.580251957282424,-0.03231295458376408,-0.40506855498626826
1761914691160271600,10.321271728515624,0.7784446253746747,-0.0402893402904272,-0.23430289606712756
1761914691170326500,10.331326416015624,0.9066717768371104,-0.01808569178879261,-0.10151743284636176
1761914691180382500,10.341382568359375,1.0258616353631018,0.07994447433054447,0.013387204374792053
1761914691190438400,10.3514384765625,1.0660931079864502,0.2455675827294588,0.07188127799010835
1761914691200494600,10.36149462890625,1.1441688658356666,0.38506490074694155,0.12360385730965062
1761914691210549500,10.371549560546875,1.220245558822155,0.4680652555167675,0.1471694235479459
1761914691220605700,10.381605712890625,1.1950222702383995,0.5577244836539029,0.1513816161491908
1761914691230661600,10.39166162109375,1.1607587661087513,0.62882397274971,0.09670527419112622
1761914691240717600,10.401717529296874,1.3569605526447295,0.6554623888283968,0.07045003047743811
1761914691250773800,10.411773681640625,1.5847650996685028,0.6926245370090007,-0.006679276834521442
1761914691260828400,10.421828369140625,1.6624948205590246,0.7629711619108915,-0.10895506290066986
1761914691270884600,10.431884521484376,1.64241766269207,0.7884469639509916,-0.15731988362437113
1761914691280940500,10.4419404296875,1.6811556818872688,0.7296826402932405,-0.15036195424525067
1761914691290996500,10.45199658203125,1.7319330984443424,0.5963625496059656,-0.11966277326736599
1761914691301051600,10.4620517578125,1.673479155910015,0.37122166883349417,-0.05934298206223174
1761914691311107600,10.472107666015624,1.5421686514794826,0.11760288159549236,-0.004719758530892432
1761914691321163800,10.482163818359375,1.3800538434624672,-0.09331833516657352,-0.0076911755571141835
1761914691331219700,10.4922197265625,1.284785543271899,-0.2182353391677141,-0.012282960326783358
1761914691341274600,10.502274658203126,1.2192407656937836,-0.2505570615798235,0.0028955387784168124
1761914691351330600,10.51233056640625,1.135661734253168,-0.3021457945197821,0.03391498295292258
1761914691361386500,10.522386474609375,0.8524187931239604,-0.4684177222162485,0.0848255974356085
1761914691371442400,10.5324423828125,0.48917234095335005,-0.6562298660695552,0.1810238354200497
1761914691381498600,10.54249853515625,0.3827566238045692,-0.8037211054503918,0.26845771565791215
1761914691391553500,10.552553466796875,0.36112229962348935,-0.8499643857091664,0.2768572586800903
1761914691401609700,10.562609619140625,0.2399129179686308,-0.7740250553667545,0.21665245389044283
1761914691411665700,10.572665771484376,0.23835282904505728,-0.7340875972539186,0.104282979436405
1761914691421721600,10.5827216796875,0.273062907898426,-0.6700532242387532,-0.02673340088576078
1761914691431776500,10.592776611328125,0.1443751531869173,-0.5318061985433101,-0.19329232883006334
1761914691441832400,10.60283251953125,-0.03699906657338142,-0.3679670509517193,-0.34511067416239527
1761914691451888600,10.612888671875,-0.09750935711562633,-0.1868079352468252,-0.43283648655153806
1761914691461944600,10.622944580078125,-0.14323942715525625,-0.14524959793388842,-0.478292050498724
1761914691471999700,10.632999755859375,-0.24260990196764468,-0.4915881699234247,-0.5441873585475608
1761914691482055700,10.6430556640625,-0.6257365281283855,-0.8156225556463003,-0.6499529777571559
1761914691492111600,10.653111572265624,-0.9309639220505952,-0.839452344045043,-0.6537255550984293
1761914691502167800,10.663167724609375,-1.0832003101319074,-0.952087374100089,-0.5199694841466844
1761914691512222500,10.673222412109375,-1.4127479063183068,-1.1287357343822717,-0.3922067718582228
1761914691522278700,10.683278564453126,-1.648560987752676,-0.9869336465537547,-0.23262509904801845
1761914691532334600,10.69333447265625,-1.7583038034975527,-0.6242775614917278,-0.04984311311533674
1761914691542390500,10.703390625,-1.8640648561298847,-0.3135334499746561,0.14631770208943634
1761914691552446700,10.71344677734375,-1.9721558130145072,-0.1599777959883213,0.30299464816777033
1761914691562501600,10.723501708984376,-1.910651835259795,-0.23046879779696464,0.3820407306201756
1761914691572557600,10.7335576171875,-1.6093822390526533,-0.31327859843075273,0.3414342872045934
1761914691582613800,10.74361376953125,-1.352006145107746,-0.2505032855659723,0.188955560001079
1761914691592669400,10.75366943359375,-1.0556956326127052,-0.00021919570863246916,0.02418660247977823
1761914691602724600,10.763724609375,-0.852414116948843,0.3191483672469854,-0.04695992236183956
1761914691612780500,10.773780517578125,-0.8758698113381862,0.5108908362865447,0.005999532675743103
1761914691622836500,10.78383642578125,-0.8015291483640671,0.4364513891130686,0.13176381942229345
1761914691632892700,10.793892578125,-0.688189184910059,0.2495674660205841,0.2675815538778901
1761914691642947600,10.803947509765624,-0.5534866999536753,0.11469722328186034,0.31601741227749736
1761914691653003800,10.814003662109375,-0.5532470459789037,0.11677052242457867,0.4047768785633147
1761914691663059500,10.8240595703125,-0.4539221638739109,0.18623218118548393,0.48478166824635116
1761914691673115400,10.834115478515624,-0.24019758012890816,0.19726035567820072,0.45419740061871705
1761914691683171600,10.844171630859375,-0.2593558695852756,0.15883388665020465,0.3815765471745282
1761914691693226500,10.8542265625,-0.3021709289610386,0.1250391690760851,0.24348549749208612
1761914691703282700,10.86428271484375,-0.0696995591700077,0.14693009836673734,-0.04975671804009471
1761914691713338600,10.874338623046874,0.3281862447053194,0.39088556972444055,-0.2929800346317701
1761914691723394600,10.88439453125,-0.27884382938742636,0.3729413322329521,-0.42988410301934926
1761914691733449700,10.89444970703125,-0.37759237290918823,0.16999825474321842,-0.637577991765365
1761914691743505400,10.90450537109375,-0.2969353663951158,0.18107143742144108,-0.663349415751174
1761914691753561600,10.9145615234375,-0.4337000445783138,0.17463994306921957,-0.554237956712395
1761914691763617500,10.924617431640625,-0.10818915656208991,0.43041970773339266,-0.35843116084337234
1761914691773672700,10.934672607421875,0.04700783489048481,0.9837164380729198,-0.10397985917082987
