time,seconds_elapsed,z,y,x
1761914680963724500,0.124724609375,-0.05338751897215843,-0.25398561358451843,-0.17808189988136292
1761914680973779700,0.13477978515625,-0.0482524111866951,-0.30418193340301514,-0.20881903171539307
1761914680983835600,0.144835693359375,-0.0464620478451252,-0.355236291885376,-0.23766446113586426
1761914680993891800,0.154891845703125,-0.04506921395659447,-0.37005916237831116,-0.25056561827659607
1761914681003947800,0.16494775390625,-0.052040569484233856,-0.3491853177547455,-0.2661419212818146
1761914681014002700,0.175002685546875,-0.05954722315073013,-0.32364559173583984,-0.2876583933830261
1761914681024058600,0.18505859375,-0.059279706329107285,-0.30429109930992126,-0.3127146363258362
1761914681034114600,0.195114501953125,-0.051873721182346344,-0.2956528663635254,-0.3334638476371765
1761914681044170500,0.20517041015625,-0.0253389161080122,-0.30243784189224243,-0.34588557481765747
1761914681054225700,0.2152255859375,0.00441285315901041,-0.3180548846721649,-0.3397746682167053
1761914681064281600,0.225281494140625,0.04161953553557396,-0.3403306305408478,-0.3204158842563629
1761914681074337800,0.235337890625,0.07794585078954697,-0.3376117944717407,-0.30744123458862305
1761914681084393700,0.245393798828125,0.11118236929178238,-0.3268584907054901,-0.293992817401886
1761914681094447600,0.255447509765625,0.1290614902973175,-0.3048565089702606,-0.28552183508872986
1761914681104503600,0.265503662109375,0.13723352551460266,-0.30382010340690613,-0.2876477837562561
1761914681114559700,0.275559814453125,0.13770011067390442,-0.32449743151664734,-0.2975139915943146
1761914681124615400,0.285615478515625,0.14556612074375153,-0.3637946546077728,-0.3113955855369568
1761914681134670600,0.295670654296875,0.15457558631896973,-0.40609654784202576,-0.3222697973251343
1761914681144726500,0.3057265625,0.16120554506778717,-0.4212592542171478,-0.33311727643013
1761914681154782500,0.315782470703125,0.17136125266551971,-0.403984397649765,-0.34245750308036804
1761914681164838700,0.325838623046875,0.1708393543958664,-0.3563160002231598,-0.35729244351387024
1761914681174894600,0.33589453125,0.17077623307704926,-0.2883841097354889,-0.377406507730484
1761914681184949800,0.34594970703125,0.1566808968782425,-0.20813944935798645,-0.4187312722206116
1761914681195005700,0.356005615234375,0.14023880660533905,-0.11628703027963638,-0.4635099470615387
1761914681205061400,0.366061279296875,0.12696558237075806,-0.03534010425209999,-0.5015662312507629
1761914681215117600,0.37611767578125,0.11229556798934937,0.012278812006115913,-0.525165855884552
1761914681225172500,0.38617236328125,0.09506303817033768,0.06443490087985992,-0.5193459987640381
1761914681235228400,0.396228515625,0.07583102583885193,0.11920946836471558,-0.4904557466506958
1761914681245284600,0.40628466796875,0.06040559709072113,0.1688464879989624,-0.4500703811645508
1761914681255340500,0.416340576171875,0.0459720604121685,0.2099182903766632,-0.4011409282684326
1761914681265395700,0.426395751953125,0.038816921412944794,0.23953913152217865,-0.3484117090702057
1761914681275451600,0.43645166015625,0.033404044806957245,0.27957066893577576,-0.28745409846305847
1761914681285507300,0.44650732421875,0.028185809031128883,0.30313578248023987,-0.21772897243499756
1761914681295563500,0.4565634765625,0.016952328383922577,0.2690065801143646,-0.14980770647525787
1761914681305618400,0.466618408203125,0.003175223944708705,0.19293652474880219,-0.0744437500834465
1761914681315674600,0.476674560546875,-0.012263653799891472,0.10464821010828018,0.00410006009042263
1761914681325730600,0.48673046875,-0.022930143401026726,0.03429728001356125,0.07713930308818817
1761914681335786500,0.496786376953125,-0.03359610214829445,-0.022652288898825645,0.1284160614013672
1761914681345841700,0.506841552734375,-0.05179818719625473,-0.05999932810664177,0.15651395916938782
1761914681355897600,0.516897705078125,-0.06485246121883392,-0.08686796575784683,0.16766223311424255
1761914681365953500,0.52695361328125,-0.06407851725816727,-0.1077522337436676,0.17019352316856384
1761914681376009500,0.537009521484375,-0.05023247376084328,-0.13639532029628754,0.16553857922554016
1761914681386064600,0.547064697265625,-0.04232499748468399,-0.15582303702831268,0.15862786769866943
1761914681396120600,0.55712060546875,-0.046566613018512726,-0.16124789416790009,0.1480252891778946
1761914681406176500,0.567176513671875,-0.04560001567006111,-0.15514697134494781,0.13723070919513702
1761914681416232700,0.577232666015625,-0.047724951058626175,-0.14743658900260925,0.12328960746526718
1761914681426287600,0.58728759765625,-0.041584257036447525,-0.13330549001693726,0.11193890869617462
1761914681436343600,0.597343505859375,-0.030830679461359978,-0.11576192080974579,0.0888114869594574
1761914681446399500,0.6073994140625,-0.014691825956106186,-0.11189988255500793,0.0677131712436676
1761914681456455400,0.617455322265625,0.001337474212050438,-0.09388066828250885,0.06076151877641678
1761914681466510600,0.627510498046875,0.019402189180254936,-0.05998251959681511,0.06501923501491547
1761914681476566500,0.63756640625,0.03959214314818382,-0.02713216282427311,0.07696644216775894
1761914681486622500,0.64762255859375,0.059585314244031906,-0.00044384150533005595,0.08972309529781342
1761914681496678700,0.6576787109375,0.08354923129081726,0.010652751661837101,0.12003252655267715
1761914681506734600,0.667734619140625,0.1152762696146965,0.02926398627460003,0.157914936542511
1761914681516789500,0.67778955078125,0.13478977978229523,0.032255250960588455,0.21419233083724976
1761914681526845400,0.687845458984375,0.13903261721134186,0.04233819246292114,0.2708742022514343
1761914681536901400,0.6979013671875,0.13740089535713196,0.06436546891927719,0.3423382639884949
1761914681546957600,0.70795751953125,0.14042703807353973,0.07228625565767288,0.39849117398262024
1761914681557012500,0.718012451171875,0.14883436262607574,0.06495856493711472,0.4235301911830902
1761914681567068700,0.728068603515625,0.1600012481212616,0.07999764382839203,0.4311703145503998
1761914681577124600,0.73812451171875,0.16303804516792297,0.13030263781547546,0.439927875995636
1761914681587180500,0.7481806640625,0.16241039335727692,0.20420271158218384,0.46031320095062256
1761914681597235500,0.7582353515625,0.1736886203289032,0.28873756527900696,0.49930399656295776
1761914681607291400,0.76829150390625,0.1949518620967865,0.3768080770969391,0.5458115935325623
1761914681617347600,0.77834765625,0.2183101922273636,0.45816925168037415,0.5790569186210632
1761914681627403500,0.788403564453125,0.2340787649154663,0.5211634039878845,0.5826542973518372
1761914681637458700,0.798458740234375,0.26373571157455444,0.5826919674873352,0.5443785190582275
1761914681647514600,0.8085146484375,0.30572497844696045,0.6409395933151245,0.4536709487438202
1761914681657570600,0.818570556640625,0.3521853983402252,0.6758051514625549,0.3195083439350128
1761914681667626500,0.82862646484375,0.4133068025112152,0.6871158480644226,0.16324903070926666
1761914681677681400,0.838681396484375,0.47632837295532227,0.679402232170105,0.012881636619567871
1761914681687737300,0.8487373046875,0.5264121890068054,0.6537174582481384,-0.10870093107223511
1761914681697793500,0.85879345703125,0.5787020325660706,0.6049134135246277,-0.19301262497901917
1761914681707849500,0.868849365234375,0.6351656317710876,0.5348694920539856,-0.23836667835712433
1761914681717904600,0.878904541015625,0.6763937473297119,0.4642584025859833,-0.24045167863368988
1761914681727960600,0.888960693359375,0.6938932538032532,0.3991181552410126,-0.21741026639938354
1761914681738016500,0.8990166015625,0.6852430701255798,0.3485353887081146,-0.17399834096431732
1761914681748072700,0.90907275390625,0.6427345275878906,0.2894710302352905,-0.12809421122074127
1761914681758128600,0.919128662109375,0.590186595916748,0.24890470504760742,-0.0814814418554306
1761914681768183600,0.92918359375,0.5113537311553955,0.23842492699623108,-0.029305949807167053
1761914681778239500,0.939239501953125,0.4045063853263855,0.2360914647579193,0.018527086824178696
1761914681788295400,0.94929541015625,0.2775332033634186,0.21724936366081238,0.06022290512919426
1761914681798351600,0.9593515625,0.15139900147914886,0.17274822294712067,0.09395982325077057
1761914681808406500,0.969406494140625,0.028176164254546165,0.09805310517549515,0.11903469264507294
1761914681818462700,0.979462646484375,-0.09408503025770187,0.019493315368890762,0.13514575362205505
1761914681828518700,0.9895185546875,-0.21929572522640228,-0.02432994917035103,0.1498514711856842
1761914681838574600,0.99957470703125,-0.3334907591342926,-0.04739025980234146,0.1406577080488205
1761914681848629500,1.00962939453125,-0.44889456033706665,-0.08811061084270477,0.10227200388908386
1761914681858685400,1.019685546875,-0.5536108613014221,-0.1518392562866211,0.0411713644862175
1761914681868741600,1.02974169921875,-0.6447205543518066,-0.2158026546239853,-0.03056861273944378
1761914681878797600,1.039797607421875,-0.7144085168838501,-0.281740665435791,-0.102104052901268
1761914681888852500,1.0498525390625,-0.7478957176208496,-0.35923779010772705,-0.17274326086044312
1761914681898908700,1.05990869140625,-0.7367578744888306,-0.4384572505950928,-0.24517911672592163
1761914681908964600,1.069964599609375,-0.6883025765419006,-0.5142878293991089,-0.31959590315818787
1761914681919020500,1.0800205078125,-0.6331245303153992,-0.5551835894584656,-0.3775465488433838
1761914681929075500,1.090075439453125,-0.5677272081375122,-0.5782049894332886,-0.41716817021369934
1761914681939131400,1.10013134765625,-0.4913637340068817,-0.5991917848587036,-0.45828977227211
1761914681949187600,1.1101875,-0.3822263181209564,-0.6112537980079651,-0.49417057633399963
1761914681959243500,1.120243408203125,-0.253934383392334,-0.6145428419113159,-0.5346122980117798
1761914681969298700,1.130298583984375,-0.1346769481897354,-0.5943059921264648,-0.5771738886833191
1761914681979354600,1.140354736328125,-0.05156422033905983,-0.5574153661727905,-0.6099118590354919
1761914681989410600,1.15041064453125,-0.015131950378417969,-0.4886210560798645,-0.6285773515701294
1761914681999466800,1.160466796875,-0.017690716311335564,-0.4055837094783783,-0.6195766925811768
1761914682009521400,1.170521484375,-0.035476621240377426,-0.32566508650779724,-0.5937650799751282
1761914682019577600,1.18057763671875,-0.0734570249915123,-0.270801305770874,-0.5512088537216187
1761914682029633500,1.190633544921875,-0.12247245013713837,-0.24008360505104065,-0.491449236869812
1761914682039689500,1.200689453125,-0.18815399706363678,-0.20281559228897095,-0.39978882670402527
1761914682049745700,1.21074560546875,-0.2660679817199707,-0.11150484532117844,-0.2703143060207367
1761914682059800600,1.220800537109375,-0.3514215052127838,-0.005277207586914301,-0.11806617677211761
1761914682069856800,1.230856689453125,-0.4159153997898102,0.08162929862737656,0.06004957854747772
1761914682079912700,1.24091259765625,-0.4374105632305145,0.1398736983537674,0.2430926114320755
1761914682089969400,1.250969482421875,-0.4234673082828522,0.16336974501609802,0.4157073199748993
1761914682100024300,1.2610244140625,-0.39951324462890625,0.1609952747821808,0.5524894595146179
1761914682110080300,1.271080322265625,-0.3763408958911896,0.16592104732990265,0.6457744836807251
1761914682120136200,1.28113623046875,-0.35124486684799194,0.15728282928466797,0.6864529252052307
1761914682130192400,1.2911923828125,-0.31580474972724915,0.1696747988462448,0.6806848049163818
1761914682140247300,1.301247314453125,-0.2622840106487274,0.22468824684619904,0.6392502784729004
1761914682150303500,1.311303466796875,-0.18286582827568054,0.3142428994178772,0.5833228230476379
1761914682160359400,1.321359375,-0.09590988606214523,0.39278191328048706,0.5208426713943481
1761914682170415400,1.331415283203125,-0.019618215039372444,0.44225573539733887,0.46689358353614807
1761914682180470300,1.34147021484375,0.04952863231301308,0.4455873370170593,0.43065088987350464
1761914682190526200,1.351526123046875,0.10636025667190552,0.40859293937683105,0.41853067278862
1761914682200582100,1.36158203125,0.15592780709266663,0.34363871812820435,0.4334590435028076
1761914682210638300,1.371638427734375,0.19774793088436127,0.24542313814163208,0.4735468924045563
1761914682220693200,1.381693359375,0.24254363775253296,0.13128778338432312,0.5267038345336914
1761914682230749400,1.39174951171875,0.2817401885986328,0.024600433185696602,0.5871053338050842
1761914682240805400,1.401805419921875,0.3207949101924896,-0.08009056001901627,0.6475609540939331
1761914682250861300,1.411861328125,0.34724804759025574,-0.18582606315612793,0.6862725615501404
1761914682260916200,1.421916259765625,0.3666451871395111,-0.29119056463241577,0.6989601254463196
1761914682270972200,1.43197216796875,0.3725248873233795,-0.37844908237457275,0.6889979243278503
1761914682281028400,1.4420283203125,0.37233367562294006,-0.42864325642585754,0.6714056134223938
1761914682291084300,1.452084228515625,0.3567522466182709,-0.4488084316253662,0.6569680571556091
1761914682301139500,1.462139404296875,0.3402411639690399,-0.43433308601379395,0.6514363884925842
1761914682311195400,1.4721953125,0.3268892168998718,-0.4064047336578369,0.6570092439651489
1761914682321251300,1.482251220703125,0.3133118748664856,-0.3861817717552185,0.6753435134887695
1761914682331307500,1.4923076171875,0.2958953380584717,-0.38310885429382324,0.724060595035553
1761914682341363500,1.502363525390625,0.24896565079689026,-0.3514348268508911,0.8224803805351257
1761914682351418400,1.51241845703125,0.09239868819713593,-0.2062140703201294,1.0009894371032715
1761914682361474300,1.522474365234375,-0.1554659605026245,-0.015191659331321716,1.2035512924194336
1761914682371530200,1.5325302734375,-0.3686412572860718,0.01738591492176056,1.3943079710006714
1761914682381586400,1.54258642578125,-0.5259382128715515,-0.18611633777618408,1.5303329229354858
1761914682391641300,1.552641357421875,-0.6913586854934692,-0.6356795430183411,1.522350788116455
1761914682401697300,1.562697265625,-0.8435854911804199,-1.2058098316192627,1.4361095428466797
1761914682411753500,1.57275341796875,-0.9861193895339966,-1.5778346061706543,1.3236711025238037
1761914682421809400,1.582809326171875,-1.0927399396896362,-1.6563196182250977,1.207750916481018
1761914682431864300,1.5928642578125,-1.1648764610290527,-1.5332000255584717,1.0349841117858887
1761914682441920300,1.602920166015625,-1.2369320392608643,-1.3023239374160767,0.7621597647666931
1761914682451976200,1.61297607421875,-1.3188793659210205,-0.9934055805206299,0.4030338227748871
1761914682462032400,1.623032470703125,-1.3774601221084595,-0.6310391426086426,0.016749253496527672
1761914682472087300,1.63308740234375,-1.3846861124038696,-0.27822545170783997,-0.3407387435436249
1761914682482143500,1.6431435546875,-1.3487709760665894,0.0133704524487257,-0.6518548130989075
1761914682492199400,1.653199462890625,-1.2892624139785767,0.2616763710975647,-0.8910618424415588
1761914682502255400,1.66325537109375,-1.166857361793518,0.4565073847770691,-1.0211261510849
1761914682512310300,1.673310302734375,-0.9421976804733276,0.587791919708252,-1.0258456468582153
1761914682522366200,1.6833662109375,-0.6487753391265869,0.657426118850708,-0.9197360873222351
1761914682532422400,1.69342236328125,-0.32433924078941345,0.6505264043807983,-0.7661972641944885
1761914682542478300,1.703478271484375,-0.006286452524363995,0.6043058633804321,-0.6138609647750854
1761914682552533500,1.713533447265625,0.2920742630958557,0.5976763963699341,-0.49977028369903564
1761914682562589400,1.72358935546875,0.5550132393836975,0.5967627167701721,-0.453873872756958
1761914682572645400,1.733645263671875,0.7626026272773743,0.53647780418396,-0.4835270047187805
1761914682582701600,1.74370166015625,0.9102919101715088,0.4457564055919647,-0.5698946714401245
1761914682592756200,1.753756103515625,0.9993358850479126,0.36741217970848083,-0.6824789643287659
1761914682602812400,1.7638125,1.0419973134994507,0.29433903098106384,-0.8080688714981079
1761914682612868400,1.773868408203125,1.057759404182434,0.21678420901298523,-0.9276687502861023
1761914682622924300,1.78392431640625,1.05005943775177,0.14846506714820862,-1.025944471359253
1761914682632979500,1.7939794921875,1.0352665185928345,0.1013505682349205,-1.0907164812088013
1761914682643035400,1.804035400390625,1.0179696083068848,0.08343228697776794,-1.0991096496582031
1761914682653091300,1.81409130859375,1.012597918510437,0.08487366884946823,-1.0624314546585083
1761914682663147500,1.8241474609375,1.0176674127578735,0.12193901836872101,-0.9764408469200134
1761914682673203200,1.834203125,1.0180597305297852,0.2036592960357666,-0.8562195301055908
1761914682683258400,1.84425830078125,0.9998053908348083,0.2955966591835022,-0.7212066054344177
1761914682693314300,1.854314208984375,0.9588164687156677,0.3528798520565033,-0.5858593583106995
1761914682703370200,1.864370361328125,0.9030051231384277,0.3525131344795227,-0.47326916456222534
1761914682713426400,1.874426513671875,0.8358678817749023,0.32984134554862976,-0.3679049611091614
1761914682723481300,1.8844814453125,0.7520574331283569,0.3139294981956482,-0.24861879646778107
1761914682733537500,1.89453759765625,0.6544831991195679,0.30104899406433105,-0.13204355537891388
1761914682743593500,1.904593505859375,0.5485474467277527,0.27982333302497864,-0.012897450476884842
1761914682753649200,1.914649169921875,0.4421093165874481,0.23896682262420654,0.10763411223888397
1761914682763704300,1.924704345703125,0.3502848744392395,0.16707372665405273,0.23006735742092133
1761914682773760300,1.93476025390625,0.25703099370002747,0.033269044011831284,0.35112133622169495
1761914682783816400,1.94481640625,0.15889805555343628,-0.13689656555652618,0.4686785936355591
1761914682793872400,1.954872314453125,0.06458299607038498,-0.3053704500198364,0.5767382979393005
1761914682803927300,1.96492724609375,-0.02175082080066204,-0.4429331123828888,0.6594776511192322
1761914682813983500,1.9749833984375,-0.09921707212924957,-0.5393645167350769,0.6983425617218018
1761914682824039200,1.9850390625,-0.17709004878997803,-0.553993821144104,0.6993412375450134
1761914682834095400,1.995095458984375,-0.24730604887008667,-0.5012608766555786,0.6701567769050598
1761914682844150300,2.005150390625,-0.30331045389175415,-0.4727237820625305,0.5922718048095703
1761914682854206200,2.015206298828125,-0.3647095859050751,-0.5121921896934509,0.467862069606781
1761914682864262400,2.025262451171875,-0.43466177582740784,-0.591834545135498,0.3131779432296753
1761914682874318300,2.035318359375,-0.5125654935836792,-0.6377436518669128,0.18498316407203674
1761914682884373500,2.04537353515625,-0.5713217854499817,-0.6095612645149231,0.12078232318162918
1761914682894429400,2.055429443359375,-0.6065136790275574,-0.5282860398292542,0.12225847691297531
1761914682904485000,2.065485107421875,-0.6333343386650085,-0.4111996293067932,0.1901767998933792
1761914682914541300,2.075541259765625,-0.6557576060295105,-0.27247920632362366,0.3129214346408844
1761914682924596200,2.08559619140625,-0.6789960861206055,-0.11914823204278946,0.486933171749115
1761914682934652400,2.09565234375,-0.6759937405586243,-0.001498222234658897,0.6834076046943665
1761914682944708400,2.105708251953125,-0.6298028230667114,0.025365082547068596,0.8327043652534485
1761914682954764300,2.115764404296875,-0.5698722004890442,-0.009533451870083809,0.8967721462249756
1761914682964819500,2.1258193359375,-0.5431599020957947,-0.011978233233094215,0.8691519498825073
1761914682974875400,2.13587548828125,-0.5381896495819092,0.06755223870277405,0.7711888551712036
1761914682984931300,2.145931396484375,-0.5326164364814758,0.20208849012851715,0.5877037048339844
1761914682994987300,2.1559873046875,-0.5301927924156189,0.3358185291290283,0.3354290723800659
1761914683005042400,2.16604248046875,-0.5439701676368713,0.4353669583797455,0.06725539267063141
1761914683015098400,2.176098388671875,-0.5765613317489624,0.4698178172111511,-0.16509707272052765
1761914683025154300,2.186154296875,-0.6251392364501953,0.4344627559185028,-0.3199012875556946
1761914683035210500,2.19621044921875,-0.688340425491333,0.30280545353889465,-0.4090827703475952
1761914683045266400,2.206266357421875,-0.735802173614502,0.0950314998626709,-0.4466719329357147
1761914683055321300,2.2163212890625,-0.7456552386283875,-0.13969890773296356,-0.4471341669559479
1761914683065377300,2.226377197265625,-0.7394055724143982,-0.35432490706443787,-0.41819891333580017
1761914683075433200,2.23643310546875,-0.7349430918693542,-0.5323815941810608,-0.3617369830608368
1761914683085489200,2.2464892578125,-0.7532486319541931,-0.6611294746398926,-0.2874308228492737
1761914683095544000,2.2565439453125,-0.7745534777641296,-0.7316573262214661,-0.2010488510131836
1761914683105600000,2.26660009765625,-0.793210506439209,-0.7627580165863037,-0.11327745765447617
1761914683115656200,2.27665625,-0.7926660180091858,-0.7483327388763428,-0.03569971024990082
1761914683125712100,2.286712158203125,-0.784504234790802,-0.7221485376358032,0.02090657502412796
1761914683135767000,2.29676708984375,-0.7672273516654968,-0.7030168771743774,0.036737535148859024
1761914683145823000,2.306822998046875,-0.7498387694358826,-0.7234382629394531,0.0028980812057852745
1761914683155879000,2.31687890625,-0.7262776494026184,-0.7859811186790466,-0.07111206650733948
1761914683165935000,2.32693505859375,-0.7107226252555847,-0.8388696312904358,-0.15202397108078003
1761914683175990000,2.336989990234375,-0.6940137147903442,-0.8775482177734375,-0.2396199256181717
1761914683186046200,2.347046142578125,-0.6833091378211975,-0.9027798175811768,-0.3111782670021057
1761914683196102100,2.35710205078125,-0.6764781475067139,-0.8984537720680237,-0.3604777455329895
1761914683206158000,2.367157958984375,-0.6689895987510681,-0.8709113597869873,-0.37988951802253723
1761914683216213000,2.377212890625,-0.6492637395858765,-0.8396576642990112,-0.37446531653404236
1761914683226269000,2.38726904296875,-0.6383721828460693,-0.7974917888641357,-0.3412759304046631
1761914683236325000,2.3973251953125,-0.6469377875328064,-0.7697626948356628,-0.2976381480693817
1761914683246381000,2.407381103515625,-0.675422728061676,-0.7940645813941956,-0.2503302991390228
1761914683256436200,2.417436279296875,-0.7112681269645691,-0.8571972250938416,-0.21605172753334045
1761914683266492200,2.4274921875,-0.7555181384086609,-0.9483223557472229,-0.20662333071231842
1761914683276548000,2.437548095703125,-0.8046436905860901,-0.9961063265800476,-0.210964173078537
1761914683286604300,2.447604248046875,-0.8596755266189575,-1.0057413578033447,-0.22956769168376923
1761914683296659000,2.457658935546875,-0.9254246950149536,-0.9841643571853638,-0.26073381304740906
1761914683306715100,2.467715087890625,-0.9837518930435181,-0.934535026550293,-0.2958497107028961
1761914683316771000,2.47777099609375,-1.0299433469772339,-0.8672567009925842,-0.3237836956977844
1761914683326827000,2.487826904296875,-1.0709894895553589,-0.7837445139884949,-0.34958332777023315
1761914683336882200,2.497882080078125,-1.0906388759613037,-0.6979591250419617,-0.36587610840797424
1761914683346938000,2.507938232421875,-1.0815162658691406,-0.6545490622520447,-0.3787093460559845
1761914683356994000,2.517994140625,-1.0461931228637695,-0.6317816376686096,-0.384970486164093
1761914683367050000,2.528050048828125,-0.974888801574707,-0.5735161900520325,-0.36560186743736267
1761914683377106000,2.53810595703125,-0.8808898329734802,-0.47456055879592896,-0.3166726231575012
1761914683387161000,2.5481611328125,-0.7685909867286682,-0.33331024646759033,-0.23553703725337982
1761914683397217000,2.558217041015625,-0.6329008936882019,-0.1600615382194519,-0.13753610849380493
1761914683407273000,2.56827294921875,-0.4946269094944,-0.011736785992980003,-0.033404115587472916
1761914683417329200,2.5783291015625,-0.38601651787757874,0.10355859994888306,0.061760302633047104
1761914683427384000,2.588384033203125,-0.30209019780158997,0.20380212366580963,0.15057513117790222
1761914683437440300,2.598440185546875,-0.22090023756027222,0.266409695148468,0.22121495008468628
1761914683447496000,2.608495849609375,-0.14442117512226105,0.28398603200912476,0.27004772424697876
1761914683457552000,2.6185517578125,-0.08110298961400986,0.2578671872615814,0.294877290725708
1761914683467607000,2.62860693359375,-0.030502930283546448,0.20074185729026794,0.3251962959766388
1761914683477663000,2.6386630859375,-0.009139339439570904,0.12935370206832886,0.35157346725463867
1761914683487719200,2.64871923828125,-0.014658474363386631,0.07623429596424103,0.37695950269699097
1761914683497775000,2.658775146484375,-0.04043373093008995,0.040087372064590454,0.40773412585258484
1761914683507830000,2.668830078125,-0.073206327855587,0.022026343271136284,0.4340173900127411
1761914683517886200,2.67888623046875,-0.09459734708070755,0.008237475529313087,0.4470546543598175
1761914683527942000,2.68894189453125,-0.11109856516122818,-0.0017760101472958922,0.4529511630535126
1761914683537998000,2.698998046875,-0.13743562996387482,0.0014581326395273209,0.44951462745666504
1761914683548053000,2.709052978515625,-0.1721898913383484,0.02834594063460827,0.4515993595123291
1761914683558109000,2.71910888671875,-0.20202656090259552,0.05096454173326492,0.44492107629776
1761914683568165000,2.7291650390625,-0.2351379096508026,0.05670977756381035,0.4268169105052948
1761914683578221000,2.739220947265625,-0.28350892663002014,0.03247654438018799,0.3810088336467743
1761914683588276200,2.749276123046875,-0.34246090054512024,-0.050770942121744156,0.2902456521987915
1761914683598332000,2.759331787109375,-0.4019716680049896,-0.19606532156467438,0.16145700216293335
1761914683608387800,2.769387939453125,-0.4512084722518921,-0.3695968985557556,-0.0015830453485250473
1761914683618444000,2.779444091796875,-0.48358726501464844,-0.5560594797134399,-0.1753268837928772
1761914683628499000,2.7894990234375,-0.49653369188308716,-0.7225896120071411,-0.34652233123779297
1761914683638555100,2.79955517578125,-0.5000314712524414,-0.8172592520713806,-0.4885059893131256
1761914683648611000,2.809611083984375,-0.5121009349822998,-0.828424334526062,-0.5775842070579529
1761914683658667000,2.8196669921875,-0.5302999019622803,-0.7607455253601074,-0.6069937348365784
1761914683668722200,2.82972216796875,-0.5500677227973938,-0.6630985736846924,-0.598501980304718
1761914683678777900,2.83977783203125,-0.5625327825546265,-0.5495080351829529,-0.5483605861663818
1761914683688834000,2.849833984375,-0.5704817771911621,-0.43668508529663086,-0.45636171102523804
1761914683698890000,2.859889892578125,-0.5668339133262634,-0.34131863713264465,-0.33537641167640686
1761914683708945200,2.869945068359375,-0.5693223476409912,-0.27192091941833496,-0.19321395456790924
1761914683719001000,2.8800009765625,-0.5789352059364319,-0.21697057783603668,-0.028534604236483574
1761914683729057000,2.89005712890625,-0.6128585934638977,-0.13843289017677307,0.14782099425792694
1761914683739113200,2.90011328125,-0.6866150498390198,-0.025732912123203278,0.33846479654312134
1761914683749169200,2.910169189453125,-0.7907941937446594,0.07206396013498306,0.5206987857818604
1761914683759224000,2.92022412109375,-0.9148955345153809,0.1029413565993309,0.6688585877418518
1761914683769280000,2.930280029296875,-1.0317984819412231,0.040177036076784134,0.7809408903121948
1761914683779336000,2.9403359375,-1.1446290016174316,-0.11414030939340591,0.8454460501670837
1761914683789392000,2.950391845703125,-1.2566580772399902,-0.33303165435791016,0.8629858493804932
1761914683799447000,2.960447021484375,-1.3731703758239746,-0.5843511819839478,0.8540129065513611
1761914683809503000,2.9705029296875,-1.4895884990692139,-0.8185495734214783,0.8228036165237427
1761914683819559200,2.98055908203125,-1.6055705547332764,-1.0102180242538452,0.7691939473152161
1761914683829615000,2.990614990234375,-1.7085907459259033,-1.1811437606811523,0.6915712952613831
1761914683839670000,3.000669921875,-1.7797410488128662,-1.3340001106262207,0.5940498113632202
1761914683849726000,3.010725830078125,-1.8128976821899414,-1.4484270811080933,0.47097155451774597
1761914683859782000,3.020781982421875,-1.8086295127868652,-1.5015569925308228,0.31873831152915955
1761914683869838000,3.030838134765625,-1.794743537902832,-1.4735502004623413,0.15462955832481384
1761914683879893000,3.04089306640625,-1.7821111679077148,-1.391197681427002,-0.024870583787560463
1761914683889949200,3.05094921875,-1.748794436454773,-1.2806527614593506,-0.20330610871315002
1761914683900005000,3.061005126953125,-1.668757677078247,-1.1961685419082642,-0.36587485671043396
1761914683910061000,3.07106103515625,-1.5467181205749512,-1.1596547365188599,-0.49307355284690857
1761914683920116000,3.081115966796875,-1.3991779088974,-1.1554774045944214,-0.5581610202789307
1761914683930172000,3.091171875,-1.2406641244888306,-1.1728545427322388,-0.5661249160766602
1761914683940228000,3.10122802734375,-1.084383249282837,-1.1795028448104858,-0.5307881832122803
1761914683950284000,3.111283935546875,-0.9370332360267639,-1.152449369430542,-0.4718515872955322
1761914683960339000,3.1213388671875,-0.8101631999015808,-1.0808916091918945,-0.4101337790489197
1761914683970395100,3.13139501953125,-0.7321019768714905,-0.9844867587089539,-0.34974634647369385
1761914683980451000,3.141451171875,-0.6984869837760925,-0.8830782175064087,-0.2976008653640747
1761914683990507000,3.151507080078125,-0.6837975382804871,-0.8033093810081482,-0.24997209012508392
1761914684000562000,3.16156201171875,-0.6971291303634644,-0.7378502488136292,-0.22002902626991272
1761914684010617900,3.171617919921875,-0.7440300583839417,-0.6964762210845947,-0.1974472850561142
1761914684020674000,3.181674072265625,-0.797996461391449,-0.6772015690803528,-0.18399012088775635
1761914684030730000,3.19172998046875,-0.8656609654426575,-0.6761139035224915,-0.17284585535526276
1761914684040786000,3.201785888671875,-0.9378716945648193,-0.6916624903678894,-0.1580619066953659
1761914684050841000,3.211841064453125,-1.0177513360977173,-0.7097967267036438,-0.13632439076900482
1761914684060897000,3.22189697265625,-1.1063929796218872,-0.7318005561828613,-0.11427143216133118
1761914684070953200,3.231953125,-1.2010589838027954,-0.7574968934059143,-0.09343698620796204
1761914684081009200,3.242009033203125,-1.3029638528823853,-0.7523818016052246,-0.07367489486932755
1761914684091063800,3.252063720703125,-1.398547887802124,-0.7315723896026611,-0.06497514992952347
1761914684101119700,3.26211962890625,-1.4731802940368652,-0.6994199752807617,-0.06665090471506119
1761914684111175700,3.27217578125,-1.5303431749343872,-0.6716645359992981,-0.07560471445322037
1761914684121232000,3.28223193359375,-1.5812112092971802,-0.6437986493110657,-0.09629891812801361
1761914684131286800,3.292286865234375,-1.6247597932815552,-0.6258052587509155,-0.1205856055021286
1761914684141343000,3.302343017578125,-1.657495379447937,-0.6249891519546509,-0.13961713016033173
1761914684151399000,3.31239892578125,-1.664523720741272,-0.652470588684082,-0.14806866645812988
1761914684161454800,3.322454833984375,-1.6496599912643433,-0.7023322582244873,-0.1384781002998352
1761914684171509800,3.332509765625,-1.6175625324249268,-0.7543185353279114,-0.11896377801895142
1761914684181565700,3.342565673828125,-1.5603446960449219,-0.7991341352462769,-0.09363994747400284
1761914684191622000,3.352621826171875,-1.486221194267273,-0.8270350098609924,-0.07602500170469284
1761914684201677800,3.362677734375,-1.4104292392730713,-0.8334619998931885,-0.06434544175863266
1761914684211733000,3.37273291015625,-1.3427507877349854,-0.8182420134544373,-0.062053557485342026
1761914684221789000,3.382788818359375,-1.2761504650115967,-0.8035898804664612,-0.06276143342256546
1761914684231844900,3.392844970703125,-1.2163480520248413,-0.7856835722923279,-0.07308970391750336
1761914684241900800,3.40290087890625,-1.1589072942733765,-0.7794783711433411,-0.07933307439088821
1761914684251955700,3.412955810546875,-1.0993139743804932,-0.7904301285743713,-0.09133141487836838
1761914684262011600,3.42301171875,-1.042386770248413,-0.8021144270896912,-0.10294660180807114
1761914684272067800,3.43306787109375,-1.0009549856185913,-0.800945520401001,-0.11497476696968079
1761914684282123800,3.443123779296875,-0.970695436000824,-0.7810759544372559,-0.12175824493169785
1761914684292179700,3.4531796875,-0.9628750681877136,-0.7510552406311035,-0.12242057919502258
1761914684302235000,3.46323486328125,-0.9646143317222595,-0.7221671938896179,-0.11323992908000946
1761914684312290800,3.473290771484375,-0.9767048358917236,-0.7167540192604065,-0.09379085898399353
1761914684322346800,3.4833466796875,-1.0003845691680908,-0.7125329375267029,-0.06288313120603561
1761914684332402700,3.493402587890625,-1.0233405828475952,-0.7017551064491272,-0.012054837308824062
1761914684342457900,3.503457763671875,-1.0432504415512085,-0.7086606025695801,0.04652544483542442
1761914684352513800,3.513513671875,-1.06008780002594,-0.750415027141571,0.1084897443652153
1761914684362569700,3.52356982421875,-1.0597602128982544,-0.7926301956176758,0.17524577677249908
1761914684372626000,3.5336259765625,-1.0419375896453857,-0.8344578146934509,0.24832798540592194
1761914684382680800,3.543680908203125,-1.016611099243164,-0.8200535178184509,0.3565727472305298
1761914684392737000,3.553737060546875,-1.00751531124115,-0.7527466416358948,0.5019999742507935
1761914684402792700,3.563792724609375,-1.0378090143203735,-0.6662093997001648,0.6642547845840454
1761914684412848600,3.5738486328125,-1.0883022546768188,-0.6147947311401367,0.8089208602905273
1761914684422903800,3.58390380859375,-1.1485544443130493,-0.655811607837677,0.9098785519599915
1761914684432959700,3.593959716796875,-1.1922636032104492,-0.7600354552268982,0.9513782858848572
1761914684443016000,3.604015869140625,-1.1926840543746948,-0.9234297871589661,0.9324045777320862
1761914684453072000,3.61407177734375,-1.1539905071258545,-1.1066027879714966,0.8471344113349915
1761914684463127800,3.6241279296875,-1.1163157224655151,-1.1693017482757568,0.7071617841720581
1761914684473182700,3.6341826171875,-1.1084489822387695,-1.079705834388733,0.515745222568512
1761914684483238700,3.64423876953125,-1.1263997554779053,-0.9516400694847107,0.2773037552833557
1761914684493294600,3.654294677734375,-1.1341922283172607,-0.8162305355072021,0.03722189739346504
1761914684503350800,3.664350830078125,-1.0986777544021606,-0.690466046333313,-0.15996870398521423
1761914684513405700,3.67440576171875,-1.0210849046707153,-0.6010171175003052,-0.286659836769104
1761914684523462000,3.6844619140625,-0.9440600275993347,-0.5766198039054871,-0.3331905007362366
1761914684533517800,3.694517822265625,-0.8741733431816101,-0.61562579870224,-0.3111368715763092
1761914684543573800,3.70457373046875,-0.818360447883606,-0.7193663120269775,-0.24744988977909088
1761914684553628700,3.714628662109375,-0.7759381532669067,-0.8242932558059692,-0.1547662913799286
1761914684563684600,3.7246845703125,-0.7642348408699036,-0.8766498565673828,-0.04996342957019806
1761914684573740800,3.73474072265625,-0.8009529113769531,-0.8675003051757812,0.06480203568935394
1761914684583796700,3.744796630859375,-0.8748845458030701,-0.8318992853164673,0.18089652061462402
1761914684593852000,3.754851806640625,-0.9803654551506042,-0.8314539790153503,0.28897079825401306
1761914684603907800,3.764907958984375,-1.100753903388977,-0.8780366778373718,0.3785068094730377
1761914684613963800,3.7749638671875,-1.23412024974823,-0.9877594113349915,0.4337173402309418
1761914684624020000,3.78502001953125,-1.3549751043319702,-1.1317490339279175,0.45564237236976624
1761914684634074600,3.79507470703125,-1.4591315984725952,-1.2641475200653076,0.4473993480205536
1761914684644130800,3.805130859375,-1.543148159980774,-1.3683037757873535,0.40920695662498474
1761914684654186800,3.815186767578125,-1.6064344644546509,-1.4445914030075073,0.3391849994659424
1761914684664242700,3.82524267578125,-1.6530252695083618,-1.4835184812545776,0.24086257815361023
1761914684674299000,3.835298828125,-1.6741609573364258,-1.474353313446045,0.12607048451900482
1761914684684353800,3.845353759765625,-1.6628881692886353,-1.4074366092681885,0.007203754037618637
1761914684694409700,3.85540966796875,-1.6185004711151123,-1.3073817491531372,-0.11311626434326172
1761914684704466000,3.8654658203125,-1.547922968864441,-1.1735377311706543,-0.22673004865646362
1761914684714521900,3.87552197265625,-1.4614653587341309,-1.0170621871948242,-0.31897878646850586
1761914684724576800,3.88557666015625,-1.3624393939971924,-0.8382051587104797,-0.38811296224594116
1761914684734632700,3.8956328125,-1.25368332862854,-0.6478407979011536,-0.4386690557003021
1761914684744688600,3.905688720703125,-1.1584113836288452,-0.4761451482772827,-0.4699377119541168
1761914684754744800,3.915744873046875,-1.0857079029083252,-0.3357592821121216,-0.4960893988609314
1761914684764799700,3.9257998046875,-1.0301077365875244,-0.23681801557540894,-0.5059704780578613
1761914684774856000,3.93585595703125,-0.9922916889190674,-0.166172593832016,-0.509722888469696
1761914684784912000,3.945911865234375,-0.9664256572723389,-0.11952299624681473,-0.5191240310668945
1761914684794967800,3.9559677734375,-0.9508069753646851,-0.10578614473342896,-0.5365464687347412
1761914684805022700,3.966022705078125,-0.941584050655365,-0.09864149987697601,-0.5547422766685486
1761914684815078700,3.97607861328125,-0.9322059750556946,-0.08064998686313629,-0.5513331890106201
1761914684825134800,3.986134765625,-0.9072603583335876,-0.052211180329322815,-0.5235287547111511
1761914684835190800,3.996190673828125,-0.868896484375,-0.020671097561717033,-0.45143193006515503
1761914684845246000,4.006245849609375,-0.7910775542259216,-0.006717942655086517,-0.3636608421802521
1761914684855302000,4.016302001953125,-0.6811622381210327,-0.008125422522425652,-0.2833750545978546
1761914684865357800,4.02635791015625,-0.5410739779472351,-0.005409089382737875,-0.22516407072544098
1761914684875414000,4.0364140625,-0.3877488672733307,-0.0039438181556761265,-0.18776875734329224
1761914684885470000,4.046469970703125,-0.23597067594528198,-0.007087981328368187,-0.1717904955148697
1761914684895524900,4.05652490234375,-0.10293327271938324,-0.004236535169184208,-0.17035186290740967
1761914684905580800,4.066580810546875,0.005988777615129948,-0.001956004649400711,-0.17447581887245178
1761914684915636700,4.07663671875,0.08676058799028397,0.006283283233642578,-0.1739213466644287
1761914684925692700,4.086692626953125,0.14006072282791138,0.005914258770644665,-0.16814830899238586
1761914684935747800,4.096747802734375,0.1796502023935318,-0.002610785886645317,-0.1454794853925705
1761914684945803800,4.1068037109375,0.19575147330760956,-0.015941563993692398,-0.095726378262043
1761914684955860000,4.11685986328125,0.1974084973335266,-0.03653046488761902,-0.018825208768248558
1761914684965915600,4.12691552734375,0.18982088565826416,-0.05434853956103325,0.09227821975946426
1761914684975970800,4.136970703125,0.18262076377868652,-0.08518661558628082,0.22342000901699066
1761914684986026800,4.14702685546875,0.18595217168331146,-0.11188305169343948,0.365713506937027
1761914684996082700,4.157082763671875,0.18226289749145508,-0.14677472412586212,0.495539128780365
1761914685006139000,4.167138916015625,0.1776580810546875,-0.16833937168121338,0.5955886244773865
1761914685016193800,4.17719384765625,0.16220562160015106,-0.1966453194618225,0.6646430492401123
1761914685026250000,4.18725,0.16036470234394073,-0.26367172598838806,0.6921348571777344
1761914685036306000,4.197305908203125,0.1831563115119934,-0.3634971082210541,0.6688228249549866
1761914685046361600,4.207361572265625,0.21313367784023285,-0.44932928681373596,0.5907315015792847
1761914685056417800,4.217417724609375,0.23835992813110352,-0.5026223659515381,0.47163257002830505
1761914685066472700,4.22747265625,0.2488541454076767,-0.5329226851463318,0.32200440764427185
1761914685076529000,4.23752880859375,0.2602948248386383,-0.556216299533844,0.14835430681705475
1761914685086584800,4.247584716796875,0.27426454424858093,-0.5654451251029968,-0.021623749285936356
1761914685096640800,4.257640869140625,0.29089412093162537,-0.5457790493965149,-0.18601110577583313
1761914685106696000,4.267696044921875,0.3066934049129486,-0.4903312921524048,-0.30401545763015747
1761914685116752000,4.277751953125,0.31397876143455505,-0.38932716846466064,-0.3596805930137634
1761914685126807800,4.287807861328125,0.307845801115036,-0.2529585659503937,-0.33677005767822266
1761914685136863700,4.29786376953125,0.30183160305023193,-0.10144787281751633,-0.2381068766117096
1761914685146918700,4.307918701171875,0.29523763060569763,0.05528498440980911,-0.07870474457740784
1761914685156974800,4.317974853515625,0.27358588576316833,0.21499209105968475,0.12494424730539322
1761914685167030800,4.32803076171875,0.22314371168613434,0.33641761541366577,0.3374955654144287
1761914685177086700,4.338086669921875,0.14346273243427277,0.40102002024650574,0.5121991634368896
1761914685187142000,4.348141845703125,0.052488502115011215,0.4008316993713379,0.6351463794708252
1761914685197197800,4.35819775390625,-0.03462855890393257,0.32641205191612244,0.7006769180297852
1761914685207253800,4.368253662109375,-0.14316017925739288,0.17615152895450592,0.7298256754875183
1761914685217309700,4.378309814453125,-0.27100977301597595,-0.03488614782691002,0.7359586954116821
1761914685227365600,4.38836572265625,-0.410148561000824,-0.2832808494567871,0.7208824157714844
1761914685237420800,4.3984208984375,-0.5422818064689636,-0.570504367351532,0.6743268966674805
1761914685247476700,4.408476806640625,-0.6546012163162231,-0.8650516271591187,0.5923583507537842
1761914685257533000,4.418532958984375,-0.7190126776695251,-1.1232335567474365,0.46112924814224243
1761914685267588900,4.4285888671875,-0.7151294350624084,-1.2695106267929077,0.2860562205314636
1761914685277643800,4.438643798828125,-0.6576064825057983,-1.286311149597168,0.09266892820596695
1761914685287699700,4.44869970703125,-0.5730051398277283,-1.1952414512634277,-0.09408344328403473
1761914685297755600,4.458755615234375,-0.44931358098983765,-1.0222043991088867,-0.2545889616012573
1761914685307811800,4.468811767578125,-0.296958327293396,-0.786081850528717,-0.35972079634666443
1761914685317866800,4.47886669921875,-0.1278739720582962,-0.4741373062133789,-0.41129690408706665
1761914685327923000,4.4889228515625,0.046704381704330444,-0.17301799356937408,-0.42815667390823364
1761914685337979000,4.498978759765625,0.22299312055110931,0.08465907722711563,-0.44124823808670044
1761914685348034800,4.509034912109375,0.3892773687839508,0.29469987750053406,-0.4526810944080353
1761914685358090800,4.5190908203125,0.523719847202301,0.47391968965530396,-0.46031931042671204
1761914685368145700,4.529145751953125,0.6153698563575745,0.5753225088119507,-0.46042993664741516
1761914685378201600,4.53920166015625,0.6768859624862671,0.6038047671318054,-0.4449620544910431
1761914685388257800,4.5492578125,0.7215725779533386,0.5890052914619446,-0.41410836577415466
1761914685398313700,4.559313720703125,0.7377992272377014,0.5717583894729614,-0.3709244132041931
1761914685408369000,4.569368896484375,0.7072675228118896,0.5325836539268494,-0.3192804455757141
1761914685418424800,4.5794248046875,0.6508633494377136,0.4653300344944,-0.2590879499912262
1761914685428483800,4.58948388671875,0.5652123689651489,0.3654089868068695,-0.19400116801261902
1761914685438539800,4.599539794921875,0.4663342535495758,0.2431134134531021,-0.12016849219799042
1761914685448594700,4.6095947265625,0.35853803157806396,0.09269095957279205,-0.05126470699906349
1761914685458651000,4.61965087890625,0.2659439146518707,-0.07912181317806244,0.01309750322252512
1761914685468706800,4.629706787109375,0.19156144559383392,-0.2557019591331482,0.06414423137903214
1761914685478762800,4.6397626953125,0.13978347182273865,-0.4149685800075531,0.10837454348802567
1761914685488817700,4.649817626953125,0.09174834936857224,-0.5438410639762878,0.13060559332370758
1761914685498873600,4.65987353515625,0.05934832990169525,-0.6190793514251709,0.13016749918460846
1761914685508929800,4.6699296875,0.014592577703297138,-0.645891547203064,0.11049739271402359
1761914685518985700,4.67998583984375,-0.03704797849059105,-0.625653862953186,0.07849898189306259
1761914685529041000,4.690041015625,-0.09759946912527084,-0.5837458372116089,0.0419609434902668
1761914685539096800,4.700096923828125,-0.14201967418193817,-0.5222681164741516,0.015891529619693756
1761914685549152800,4.71015283203125,-0.17484334111213684,-0.44995394349098206,0.0020565688610076904
1761914685559209000,4.720208984375,-0.21233852207660675,-0.36440494656562805,-0.007550251670181751
1761914685569265000,4.730264892578125,-0.24462315440177917,-0.2678849697113037,0.004515709355473518
1761914685579319800,4.74031982421875,-0.280055433511734,-0.16696475446224213,0.021170584484934807
1761914685589375700,4.750375732421875,-0.3116084635257721,-0.06980347633361816,0.047535695135593414
1761914685599431700,4.760431640625,-0.34572967886924744,0.025628771632909775,0.07974902540445328
1761914685609488000,4.77048779296875,-0.3874260485172272,0.11139079183340073,0.12246383726596832
1761914685619542800,4.780542724609375,-0.4286387264728546,0.17901617288589478,0.1722218096256256
1761914685629599000,4.790598876953125,-0.4575866162776947,0.22575287520885468,0.23032036423683167
1761914685639655000,4.800655029296875,-0.4755592346191406,0.23989185690879822,0.2791893780231476
1761914685649710800,4.8107109375,-0.47356119751930237,0.20712216198444366,0.32687094807624817
1761914685659765800,4.820765869140625,-0.4405933916568756,0.14694377779960632,0.3797528147697449
1761914685669821700,4.83082177734375,-0.3909284174442291,0.08896572142839432,0.4417531192302704
1761914685679877600,4.840877685546875,-0.34176966547966003,0.06798853725194931,0.5100847482681274
1761914685689933800,4.850933837890625,-0.2928871512413025,0.04606087505817413,0.5721463561058044
1761914685699989800,4.86098974609375,-0.22629640996456146,-0.0007063643424771726,0.5981289744377136
1761914685710045000,4.871044921875,-0.16849836707115173,-0.016385991126298904,0.5866073369979858
1761914685720100900,4.881100830078125,-0.12632693350315094,0.009881565347313881,0.5365292429924011
1761914685730156800,4.89115673828125,-0.10302635282278061,0.06705746054649353,0.4636586308479309
1761914685740212700,4.901212646484375,-0.09058326482772827,0.13467484712600708,0.3748246431350708
1761914685750267600,4.911267578125,-0.08835829794406891,0.2085632085800171,0.26925936341285706
1761914685760323800,4.92132373046875,-0.10433034598827362,0.28785350918769836,0.15481185913085938
1761914685770379800,4.9313798828125,-0.15985091030597687,0.3609239459037781,0.04685153067111969
1761914685780435700,4.941435791015625,-0.23646552860736847,0.424289345741272,-0.04764328524470329
1761914685790491000,4.951490966796875,-0.3147558569908142,0.45513996481895447,-0.10182244330644608
1761914685800546800,4.961546875,-0.3574860095977783,0.44036367535591125,-0.1051173061132431
1761914685810603000,4.97160302734375,-0.3652183413505554,0.3924342691898346,-0.06309180706739426
1761914685820658700,4.98165869140625,-0.3583527207374573,0.32403868436813354,0.019183624535799026
1761914685830714600,4.991714599609375,-0.3501910865306854,0.20876988768577576,0.11441797763109207
1761914685840769800,5.001769775390625,-0.32327955961227417,0.04954693466424942,0.21347184479236603
1761914685850825700,5.01182568359375,-0.27919065952301025,-0.10016685724258423,0.29132357239723206
1761914685860882000,5.0218818359375,-0.24155566096305847,-0.19688674807548523,0.3499069809913635
1761914685870937900,5.031937744140625,-0.21850112080574036,-0.2213057428598404,0.38013431429862976
1761914685880992800,5.04199267578125,-0.20398876070976257,-0.19947580993175507,0.3854702115058899
1761914685891049000,5.052049072265625,-0.19946080446243286,-0.19680769741535187,0.34719640016555786
1761914685901104600,5.062104736328125,-0.19939875602722168,-0.2087884545326233,0.2743879556655884
1761914685911160800,5.072160888671875,-0.20382438600063324,-0.2112540900707245,0.16676181554794312
1761914685921215700,5.0822158203125,-0.2032555341720581,-0.1780063807964325,0.03844299167394638
1761914685931271700,5.092271728515625,-0.20108267664909363,-0.14169304072856903,-0.10191190987825394
1761914685941328000,5.102327880859375,-0.20684123039245605,-0.10790711641311646,-0.2474754899740219
1761914685951383800,5.1123837890625,-0.22287936508655548,-0.09096883982419968,-0.3819100856781006
1761914685961439700,5.122439697265625,-0.22653774917125702,-0.08437538146972656,-0.5037379860877991
1761914685971495000,5.132494873046875,-0.2148045301437378,-0.08048905432224274,-0.6046484112739563
1761914685981550600,5.142550537109375,-0.18728449940681458,-0.07476405799388885,-0.6632243394851685
1761914685991606800,5.152606689453125,-0.1487625241279602,-0.0789165049791336,-0.6864529848098755
1761914686001662700,5.162662841796875,-0.12251147627830505,-0.0894937813282013,-0.6808595657348633
1761914686011718000,5.1727177734375,-0.09807486832141876,-0.1132979691028595,-0.6609097719192505
1761914686021773800,5.18277392578125,-0.08416970074176788,-0.12737996876239777,-0.6356036067008972
1761914686031829800,5.192829833984375,-0.07500553876161575,-0.1471080332994461,-0.6168681383132935
1761914686041886000,5.202885986328125,-0.07826843857765198,-0.14450585842132568,-0.5992431044578552
1761914686051940600,5.212940673828125,-0.09512938559055328,-0.11283905059099197,-0.5850867033004761
1761914686061996800,5.222996826171875,-0.11260025948286057,-0.07563761621713638,-0.5615153312683105
1761914686072052700,5.233052734375,-0.14415031671524048,-0.03150882571935654,-0.5265966057777405
1761914686082108700,5.243108642578125,-0.1809360235929489,0.007757619023323059,-0.47588837146759033
1761914686092168400,5.25316845703125,-0.2084658294916153,0.04161080718040466,-0.40625399351119995
1761914686102223600,5.2632236328125,-0.22336195409297943,0.06517578661441803,-0.31879764795303345
1761914686112279600,5.273279541015625,-0.23405569791793823,0.09793225675821304,-0.21110865473747253
1761914686122335700,5.283335693359375,-0.22360971570014954,0.14638687670230865,-0.10627944022417068
1761914686132391700,5.2933916015625,-0.18814218044281006,0.2090601623058319,-0.000561063177883625
1761914686142446600,5.303446533203125,-0.12938858568668365,0.2632211446762085,0.09038109332323074
1761914686152502500,5.31350244140625,-0.05530133843421936,0.30245059728622437,0.17076492309570312
1761914686162558500,5.323558349609375,0.02394608035683632,0.3429887294769287,0.24203245341777802
1761914686172614700,5.33361474609375,0.11133146286010742,0.3878036141395569,0.302788645029068
1761914686182670600,5.343670654296875,0.20797836780548096,0.43878716230392456,0.3501755893230438
1761914686192725800,5.353725830078125,0.30749186873435974,0.4727279841899872,0.37987905740737915
1761914686202781700,5.36378173828125,0.401169091463089,0.4624897241592407,0.37529948353767395
1761914686212837600,5.373837646484375,0.48954954743385315,0.4306807518005371,0.34992679953575134
1761914686222893600,5.3838935546875,0.5502911806106567,0.39436641335487366,0.3113655745983124
1761914686232948500,5.393948486328125,0.583346426486969,0.35112062096595764,0.2619990110397339
1761914686243004700,5.404004638671875,0.5911949872970581,0.2827596664428711,0.2140147089958191
1761914686253060600,5.414060546875,0.5673484206199646,0.18103919923305511,0.17364683747291565
1761914686263116500,5.424116455078125,0.5253431797027588,0.049693696200847626,0.1357564479112625
1761914686273171700,5.434171630859375,0.46199899911880493,-0.10181088745594025,0.1029319167137146
1761914686283227600,5.4442275390625,0.41108226776123047,-0.23476466536521912,0.0903540700674057
1761914686293283600,5.45428369140625,0.40093132853507996,-0.365950345993042,0.08705726265907288
1761914686303339500,5.464339599609375,0.39804980158805847,-0.48349377512931824,0.095892034471035
1761914686313395500,5.4743955078125,0.38579875230789185,-0.5464426875114441,0.12060811370611191
1761914686323450600,5.48445068359375,0.3635523021221161,-0.5356249213218689,0.16652846336364746
1761914686333506600,5.494506591796875,0.3425412178039551,-0.4962974488735199,0.22309429943561554
1761914686343562500,5.5045625,0.31900686025619507,-0.4686378538608551,0.2665272653102875
1761914686353618700,5.51461865234375,0.26208019256591797,-0.4645083546638489,0.2778685986995697
1761914686363673600,5.524673583984375,0.1586693674325943,-0.4962284564971924,0.25118398666381836
1761914686373729800,5.534729736328125,0.06318395584821701,-0.6149460673332214,0.16543804109096527
1761914686383785500,5.544785400390625,0.0017256515566259623,-0.7779989242553711,0.02361966297030449
1761914686393841400,5.55484130859375,-0.047167450189590454,-0.8778549432754517,-0.1399696171283722
1761914686403896600,5.564896484375,-0.1277475208044052,-0.8504976034164429,-0.27660736441612244
1761914686413952500,5.574952392578125,-0.2251376360654831,-0.7592483758926392,-0.3736332356929779
1761914686424008700,5.5850087890625,-0.3063235878944397,-0.5964440107345581,-0.3975990116596222
1761914686434064600,5.595064697265625,-0.3610433340072632,-0.37765446305274963,-0.3489084243774414
1761914686444120600,5.60512060546875,-0.4136926829814911,-0.10153740644454956,-0.227650448679924
1761914686454175500,5.615175537109375,-0.4596499800682068,0.17097248136997223,-0.06773167103528976
1761914686464231400,5.6252314453125,-0.507746696472168,0.3474481701850891,0.09780430048704147
1761914686474287600,5.63528759765625,-0.5565009117126465,0.4192555248737335,0.24063414335250854
1761914686484343600,5.645343505859375,-0.5928463935852051,0.42428383231163025,0.3381465971469879
1761914686494398700,5.655398681640625,-0.6113597750663757,0.3889724314212799,0.39497536420822144
1761914686504454700,5.66545458984375,-0.6363175511360168,0.34458231925964355,0.4254437983036041
1761914686514510600,5.675510498046875,-0.6840827465057373,0.29924699664115906,0.4385528564453125
1761914686524566500,5.68556640625,-0.7357184886932373,0.21657849848270416,0.4235883057117462
1761914686534621400,5.695621337890625,-0.7675753235816956,0.07472526282072067,0.37655866146087646
1761914686544677400,5.705677490234375,-0.7551367878913879,-0.07302265614271164,0.3063766360282898
1761914686554733600,5.715733642578125,-0.705057680606842,-0.18597152829170227,0.2289709746837616
1761914686564789500,5.72578955078125,-0.6391063332557678,-0.21796542406082153,0.14742179214954376
1761914686574845400,5.735845458984375,-0.5565807223320007,-0.1786275953054428,0.06453210860490799
1761914686584900600,5.745900634765625,-0.4412005841732025,-0.08315300196409225,-0.036187317222356796
1761914686594956500,5.75595654296875,-0.3009897768497467,0.04174020141363144,-0.14361697435379028
1761914686605012700,5.7660126953125,-0.1391548067331314,0.1720670461654663,-0.24829703569412231
1761914686615068700,5.776068603515625,0.024372167885303497,0.2811437249183655,-0.3397085964679718
1761914686625123600,5.78612353515625,0.17507539689540863,0.35736072063446045,-0.4022550582885742
1761914686635179500,5.796179443359375,0.30581381916999817,0.3888091742992401,-0.4359934628009796
1761914686645235500,5.8062353515625,0.42489707469940186,0.375517338514328,-0.4488253891468048
1761914686655291600,5.816291748046875,0.5219880938529968,0.34462231397628784,-0.44671568274497986
1761914686665346600,5.8263466796875,0.621651291847229,0.3237074613571167,-0.42143189907073975
1761914686675402800,5.83640283203125,0.7071052193641663,0.322055459022522,-0.38362160325050354
1761914686685458700,5.846458740234375,0.7694253325462341,0.3158378005027771,-0.339573472738266
1761914686695514600,5.8565146484375,0.8014065623283386,0.2847225069999695,-0.29120761156082153
1761914686705570800,5.86657080078125,0.7946674227714539,0.22005537152290344,-0.24359826743602753
1761914686715625500,5.87662548828125,0.7417325377464294,0.12260700762271881,-0.19742436707019806
1761914686725681700,5.886681640625,0.6521874666213989,0.0022023003548383713,-0.14197148382663727
1761914686735737600,5.896737548828125,0.5381789803504944,-0.12000458687543869,-0.09264098107814789
1761914686745793500,5.90679345703125,0.42093753814697266,-0.2311478853225708,-0.043047331273555756
1761914686755848700,5.9168486328125,0.31201601028442383,-0.31158366799354553,0.009030196815729141
1761914686765904600,5.926904541015625,0.21462476253509521,-0.3533167243003845,0.05918443948030472
1761914686775960600,5.936960693359375,0.12536120414733887,-0.3759813606739044,0.09818987548351288
1761914686786016800,5.947016845703125,0.04084153100848198,-0.3957654535770416,0.12929266691207886
1761914686796072400,5.957072509765625,-0.03443704918026924,-0.42441341280937195,0.13333190977573395
1761914686806127600,5.967127685546875,-0.09530573338270187,-0.4394158124923706,0.11907334625720978
1761914686816183600,5.97718359375,-0.1578442007303238,-0.43582090735435486,0.08942466974258423
1761914686826239500,5.987239501953125,-0.21387843787670135,-0.4105991721153259,0.0516384094953537
1761914686836295700,5.997295654296875,-0.25793635845184326,-0.37079277634620667,0.02131110616028309
1761914686846350600,6.0073505859375,-0.29341286420822144,-0.30542629957199097,0.0015888018533587456
1761914686856406800,6.01740673828125,-0.31119608879089355,-0.22300416231155396,-0.0015569590032100677
1761914686866462700,6.027462646484375,-0.3296571373939514,-0.1379244178533554,0.010527401231229305
1761914686876518400,6.037518310546875,-0.35336410999298096,-0.04891267791390419,0.0380285307765007
1761914686886573600,6.047573486328125,-0.38450977206230164,0.03706374764442444,0.08588846772909164
1761914686896629500,6.05762939453125,-0.42812758684158325,0.08900652080774307,0.13656024634838104
1761914686906685700,6.067685791015625,-0.47168728709220886,0.10278252512216568,0.18680264055728912
1761914686916741600,6.07774169921875,-0.5043816566467285,0.09239885210990906,0.2290739119052887
1761914686926797600,6.087797607421875,-0.5147222280502319,0.07440892606973648,0.2545928359031677
1761914686936852700,6.097852783203125,-0.5000273585319519,0.046666521579027176,0.2648332715034485
1761914686946908400,6.107908447265625,-0.46418437361717224,0.014087806455790997,0.27701535820961
1761914686956964600,6.117964599609375,-0.4164365530014038,-0.014612114988267422,0.2946743965148926
1761914686967020500,6.1280205078125,-0.3580438196659088,-0.017797254025936127,0.32461872696876526
1761914686977075500,6.138075439453125,-0.29520976543426514,-0.02036289870738983,0.3623601496219635
1761914686987131600,6.148131591796875,-0.22392894327640533,-0.06631281226873398,0.37867575883865356
1761914686997187600,6.1581875,-0.1540510356426239,-0.12118387222290039,0.35687512159347534
1761914687007243500,6.168243408203125,-0.10105625540018082,-0.15101952850818634,0.30414560437202454
1761914687017299700,6.1782998046875,-0.08279617130756378,-0.17052040994167328,0.22572045028209686
1761914687027354400,6.188354248046875,-0.09359422326087952,-0.18685011565685272,0.12053597718477249
1761914687037410600,6.19841064453125,-0.13954780995845795,-0.18201811611652374,0.01655958779156208
1761914687047466500,6.208466552734375,-0.19032683968544006,-0.1669350415468216,-0.07908570766448975
1761914687057522400,6.2185224609375,-0.24600495398044586,-0.14149881899356842,-0.157500222325325
1761914687067577600,6.22857763671875,-0.3048352599143982,-0.08200672268867493,-0.18062977492809296
1761914687077633500,6.238633544921875,-0.3749227225780487,0.015590770170092583,-0.13041554391384125
1761914687087689700,6.248689697265625,-0.4594186842441559,0.11671046167612076,0.00525679811835289
1761914687097745700,6.25874560546875,-0.5521945357322693,0.18665681779384613,0.20849063992500305
1761914687107800600,6.268800537109375,-0.6397705078125,0.1760166883468628,0.44113612174987793
1761914687117856500,6.2788564453125,-0.6879095435142517,0.06577647477388382,0.6584741473197937
1761914687127912400,6.288912353515625,-0.689225435256958,-0.11874409765005112,0.836195170879364
1761914687137968600,6.29896875,-0.6605596542358398,-0.3423212170600891,0.9417051076889038
1761914687148024600,6.309024658203125,-0.6247955560684204,-0.5314200520515442,0.9791725873947144
1761914687158079700,6.319079833984375,-0.5755452513694763,-0.6670710444450378,0.9310160279273987
1761914687168135700,6.3291357421875,-0.5149186849594116,-0.745370090007782,0.7957066297531128
1761914687178191600,6.339191650390625,-0.4461596608161926,-0.754711389541626,0.589964747428894
1761914687188247800,6.349247802734375,-0.3611539602279663,-0.7002353668212891,0.3283701241016388
1761914687198302500,6.359302490234375,-0.28214946389198303,-0.5859277844429016,0.04658341780304909
1761914687208358400,6.3693583984375,-0.2055947631597519,-0.4194311797618866,-0.2351212352514267
1761914687218414600,6.37941455078125,-0.1279095709323883,-0.24138952791690826,-0.47826290130615234
1761914687228470500,6.389470458984375,-0.042537152767181396,-0.07596568763256073,-0.658063530921936
1761914687238526500,6.3995263671875,0.035597674548625946,0.07062536478042603,-0.763200044631958
1761914687248581600,6.40958154296875,0.10126004368066788,0.183302640914917,-0.8056820034980774
1761914687258637600,6.419637451171875,0.15541087090969086,0.2502451241016388,-0.7903107404708862
1761914687268693800,6.42969384765625,0.20287878811359406,0.2811886668205261,-0.728832483291626
1761914687278749700,6.439749755859375,0.22659176588058472,0.29108738899230957,-0.6296752691268921
1761914687288804600,6.4498046875,0.2252735048532486,0.2706047296524048,-0.5020515322685242
1761914687298860500,6.459860595703125,0.17485521733760834,0.2277095466852188,-0.3666163384914398
1761914687308916500,6.46991650390625,0.09679584950208664,0.17625008523464203,-0.23374643921852112
1761914687318972700,6.47997265625,-0.002169547602534294,0.10430791974067688,-0.11132047325372696
1761914687329027600,6.490027587890625,-0.1089460626244545,0.014383623376488686,-0.01143968291580677
1761914687339083800,6.500083740234375,-0.23310475051403046,-0.08561214804649353,0.06322024762630463
1761914687349139700,6.5101396484375,-0.36572566628456116,-0.18089471757411957,0.11043250560760498
1761914687359195400,6.5201953125,-0.47655269503593445,-0.25732675194740295,0.13627636432647705
1761914687369251600,6.53025146484375,-0.5634654760360718,-0.29322350025177,0.14363068342208862
1761914687379306500,6.540306396484375,-0.6323586702346802,-0.30689871311187744,0.14483270049095154
1761914687389362700,6.55036279296875,-0.6834703087806702,-0.269682914018631,0.12750165164470673
1761914687399418600,6.560418701171875,-0.7084852457046509,-0.18881267309188843,0.1089310273528099
1761914687409474600,6.570474609375,-0.6971801519393921,-0.06769557297229767,0.08012548089027405
1761914687419529700,6.58052978515625,-0.6498995423316956,0.0798686072230339,0.04565221443772316
1761914687429585700,6.590585693359375,-0.56923508644104,0.24283915758132935,0.019258424639701843
1761914687439641600,6.6006416015625,-0.45164453983306885,0.4412790536880493,0.0051453495398163795
1761914687449697500,6.610697509765625,-0.30841678380966187,0.6387508511543274,0.013003273867070675
1761914687459753500,6.62075341796875,-0.14640189707279205,0.800234854221344,0.029981061816215515
1761914687469808600,6.63080859375,0.03769391030073166,0.9047463536262512,0.06089477241039276
1761914687479864600,6.640864501953125,0.2105443924665451,0.9526211023330688,0.08736254274845123
1761914687489920500,6.65092041015625,0.36085638403892517,0.9303267002105713,0.11001752316951752
1761914687499976700,6.660976806640625,0.5057371258735657,0.8494537472724915,0.11710461229085922
1761914687510031600,6.671031494140625,0.6325398087501526,0.7208372354507446,0.10915613919496536
1761914687520087600,6.681087646484375,0.7232366800308228,0.5613607168197632,0.10068640112876892
1761914687530143500,6.6911435546875,0.7664526104927063,0.3612827956676483,0.08242671191692352
1761914687540199400,6.701199462890625,0.7771952748298645,0.13683073222637177,0.06531678140163422
1761914687550255600,6.711255615234375,0.7663543224334717,-0.08532191067934036,0.039233241230249405
1761914687560310500,6.721310546875,0.7487454414367676,-0.29796281456947327,-0.0035128993913531303
1761914687570366700,6.73136669921875,0.7325371503829956,-0.4849492013454437,-0.07153642922639847
1761914687580422700,6.741422607421875,0.7259163856506348,-0.6304853558540344,-0.15216277539730072
1761914687590478600,6.751478515625,0.7227720022201538,-0.713596761226654,-0.2186208814382553
1761914687600533500,6.761533447265625,0.702165961265564,-0.6979564428329468,-0.2501266598701477
1761914687610589400,6.77158935546875,0.645610511302948,-0.6058276295661926,-0.22450679540634155
1761914687620645600,6.781645751953125,0.5628777146339417,-0.4986274540424347,-0.1681264340877533
1761914687630701600,6.79170166015625,0.4837368130683899,-0.394377738237381,-0.09439709037542343
1761914687640756500,6.801756591796875,0.4096156656742096,-0.28810325264930725,-0.016371846199035645
1761914687650812700,6.811812744140625,0.3294239044189453,-0.21805493533611298,0.045125335454940796
1761914687660868600,6.82186865234375,0.23848271369934082,-0.23667095601558685,0.05957339331507683
1761914687670924500,6.831924560546875,0.15704858303070068,-0.30091172456741333,0.038427360355854034
1761914687680980700,6.841980712890625,0.09926795959472656,-0.3678223490715027,-0.008938048034906387
1761914687691035400,6.852035400390625,0.04480151832103729,-0.4036458730697632,-0.06382846087217331
1761914687701091600,6.862091552734375,-0.0034306063316762447,-0.3810163736343384,-0.1166071966290474
1761914687711147500,6.8721474609375,-0.05203302949666977,-0.33185282349586487,-0.16333740949630737
1761914687721203500,6.882203369140625,-0.09319821000099182,-0.25389865040779114,-0.20180931687355042
1761914687731258600,6.892258544921875,-0.1344154179096222,-0.13288381695747375,-0.21972520649433136
1761914687741314600,6.902314453125,-0.18758699297904968,-0.0022041311021894217,-0.21881550550460815
1761914687751370800,6.912370849609375,-0.23415902256965637,0.11069072782993317,-0.18991780281066895
1761914687761426700,6.9224267578125,-0.2522793412208557,0.1911803036928177,-0.1363222748041153
1761914687771482600,6.932482666015625,-0.25704720616340637,0.225134015083313,-0.0841943621635437
1761914687781537500,6.94253759765625,-0.2564924955368042,0.22711321711540222,-0.0399772971868515
1761914687791593500,6.952593505859375,-0.2660292685031891,0.22800403833389282,0.004279382526874542
1761914687801649700,6.962649658203125,-0.26956838369369507,0.2226584404706955,0.04978415369987488
1761914687811705600,6.97270556640625,-0.2610204517841339,0.18887092173099518,0.08286647498607635
1761914687821760800,6.9827607421875,-0.22766053676605225,0.15286646783351898,0.08841188251972198
1761914687831816700,6.992816650390625,-0.17203642427921295,0.11755667626857758,0.056157007813453674
1761914687841872600,7.00287255859375,-0.1089668720960617,0.09037689119577408,-0.009242888540029526
1761914687851928600,7.012928466796875,-0.045596424490213394,0.07775483280420303,-0.11045312881469727
1761914687861984500,7.022984619140625,0.021351249888539314,0.09789960831403732,-0.23332688212394714
1761914687872039700,7.033039794921875,0.10020612180233002,0.13825689256191254,-0.36103904247283936
1761914687882095600,7.043095703125,0.18594421446323395,0.18632987141609192,-0.4777953624725342
1761914687892151600,7.053151611328125,0.27425646781921387,0.2428160458803177,-0.5745804905891418
1761914687902207500,7.06320751953125,0.36461278796195984,0.31136736273765564,-0.6355448365211487
1761914687912262700,7.0732626953125,0.46266263723373413,0.36866527795791626,-0.6681837439537048
1761914687922318600,7.083318603515625,0.5590605735778809,0.39597734808921814,-0.6673089861869812
1761914687932374500,7.09337451171875,0.656419038772583,0.40753865242004395,-0.6458508372306824
1761914687942430500,7.103430419921875,0.732667088508606,0.40090280771255493,-0.6076475381851196
1761914687952485600,7.113485595703125,0.7890382409095764,0.3918938934803009,-0.5625844597816467
1761914687962541600,7.12354150390625,0.8083088994026184,0.3753522038459778,-0.5047613978385925
1761914687972597500,7.133597412109375,0.8014541864395142,0.3545321524143219,-0.44628074765205383
1761914687982653700,7.14365380859375,0.790916383266449,0.32038843631744385,-0.3812340795993805
1761914687992709600,7.153709716796875,0.770957887172699,0.2718326151371002,-0.317796528339386
1761914688002764800,7.163764892578125,0.7337344288825989,0.19597817957401276,-0.2530345916748047
1761914688012820500,7.173820556640625,0.674616277217865,0.09540791064500809,-0.17350541055202484
1761914688022876400,7.18387646484375,0.5997262597084045,-0.012299420312047005,-0.09138928353786469
1761914688032932600,7.1939326171875,0.5180066823959351,-0.1250443458557129,-0.007113550323992968
1761914688042988500,7.203988525390625,0.4477689564228058,-0.25037795305252075,0.06454674899578094
1761914688053043700,7.214043701171875,0.38666486740112305,-0.36644622683525085,0.1251608282327652
1761914688063099600,7.224099609375,0.32073676586151123,-0.44366246461868286,0.1685590147972107
1761914688073155600,7.234155517578125,0.2559119462966919,-0.5224539637565613,0.18894711136817932
1761914688083211800,7.244211669921875,0.1806662380695343,-0.5678791999816895,0.1911846101284027
1761914688093266400,7.254266357421875,0.09514468908309937,-0.5862339735031128,0.1820523589849472
1761914688103322600,7.264322509765625,0.013714713044464588,-0.5838589668273926,0.17386673390865326
1761914688113378600,7.274378662109375,-0.05675332993268967,-0.5728704929351807,0.18049907684326172
1761914688123434500,7.2844345703125,-0.12777113914489746,-0.5293334126472473,0.2093803882598877
1761914688133490700,7.29449072265625,-0.19766606390476227,-0.47101467847824097,0.2537081837654114
1761914688143545300,7.30454541015625,-0.2764450013637543,-0.40177997946739197,0.31590840220451355
1761914688153601500,7.3146015625,-0.35589855909347534,-0.3417571187019348,0.3886113464832306
1761914688163657500,7.324657470703125,-0.43973875045776367,-0.2879737913608551,0.46125826239585876
1761914688173713400,7.33471337890625,-0.516302764415741,-0.2409149557352066,0.5233125686645508
1761914688183768600,7.3447685546875,-0.5871233344078064,-0.18896819651126862,0.5607616305351257
1761914688193824500,7.354824462890625,-0.6266055107116699,-0.1395825296640396,0.5720803141593933
1761914688203880400,7.36488037109375,-0.6255465149879456,-0.08531354367733002,0.5544212460517883
1761914688213936600,7.3749365234375,-0.5852662324905396,-0.026087766513228416,0.5208057761192322
1761914688223991300,7.3849912109375,-0.517214298248291,0.04230186715722084,0.48433950543403625
1761914688234047500,7.395047607421875,-0.4329867660999298,0.12596134841442108,0.4410732686519623
1761914688244103400,7.405103515625,-0.34251585602760315,0.1952112764120102,0.3921635150909424
1761914688254159400,7.415159423828125,-0.2585296034812927,0.24506564438343048,0.3467496931552887
1761914688264215600,7.425215576171875,-0.16386404633522034,0.23010790348052979,0.2825659215450287
1761914688274270500,7.4352705078125,-0.04279673844575882,0.16111791133880615,0.1971418559551239
1761914688284326700,7.44532666015625,0.06295283138751984,0.10387469083070755,0.09301716089248657
1761914688294382600,7.455382568359375,0.11851862072944641,0.09213041514158249,0.0008651288226246834
1761914688304438300,7.465438232421875,0.15228603780269623,0.1057293638586998,-0.0736207664012909
1761914688314493400,7.475493408203125,0.1645328402519226,0.12328225374221802,-0.14133404195308685
1761914688324549400,7.48554931640625,0.15192215144634247,0.12318523973226547,-0.2050079107284546
1761914688334605600,7.49560546875,0.11625363677740097,0.13575562834739685,-0.25245213508605957
1761914688344661500,7.50566162109375,0.04337204992771149,0.15551239252090454,-0.29065412282943726
1761914688354717400,7.515717529296875,-0.04949770122766495,0.18468305468559265,-0.3052256107330322
1761914688364772600,7.525772705078125,-0.15072980523109436,0.2096700817346573,-0.2835147976875305
1761914688374828500,7.53582861328125,-0.23358473181724548,0.22324688732624054,-0.20757023990154266
1761914688384884500,7.545884521484375,-0.2660146653652191,0.2138318121433258,-0.09700444340705872
1761914688394940400,7.5559404296875,-0.2760494351387024,0.1918407529592514,0.04016966000199318
1761914688404995300,7.565995361328125,-0.2840389907360077,0.15654264390468597,0.20411817729473114
1761914688415051500,7.576051513671875,-0.2902792990207672,0.08979849517345428,0.3639190196990967
1761914688425107500,7.586107421875,-0.27379193902015686,-0.0012973247794434428,0.5010854005813599
1761914688435163400,7.596163330078125,-0.24892759323120117,-0.0886777713894844,0.5913873314857483
1761914688445219600,7.606219482421875,-0.21648800373077393,-0.14846083521842957,0.6194431781768799
1761914688455274500,7.6162744140625,-0.19227774441242218,-0.1699080616235733,0.5977922081947327
1761914688465330400,7.626330322265625,-0.19218409061431885,-0.14502190053462982,0.5259807705879211
1761914688475386400,7.636386474609375,-0.21383905410766602,-0.12443752586841583,0.41680529713630676
1761914688485442300,7.6464423828125,-0.22742895781993866,-0.08906251192092896,0.2796885371208191
1761914688495497500,7.65649755859375,-0.2300335317850113,-0.04865996167063713,0.11864106357097626
1761914688505553400,7.666553466796875,-0.22713254392147064,-0.007679521571844816,-0.037107400596141815
1761914688515609600,7.676609619140625,-0.21264787018299103,0.02970327064394951,-0.17428842186927795
1761914688525665500,7.68666552734375,-0.18157745897769928,0.04249334707856178,-0.2950018048286438
1761914688535721500,7.696721435546875,-0.1327793002128601,0.015907544642686844,-0.3892337679862976
1761914688545776400,7.7067763671875,-0.07997839897871017,-0.02989996038377285,-0.45863181352615356
1761914688555832300,7.716832275390625,-0.04435036703944206,-0.08382044732570648,-0.508646547794342
1761914688565888500,7.726888427734375,-0.014035673812031746,-0.123707614839077,-0.5463941097259521
1761914688575944400,7.7369443359375,0.015755243599414825,-0.12926031649112701,-0.5623717308044434
1761914688585999600,7.74699951171875,0.03609389811754227,-0.11850105971097946,-0.5705369114875793
1761914688596055600,7.7570556640625,0.03316495195031166,-0.09215228259563446,-0.5732906460762024
1761914688606111500,7.767111572265625,-0.004218867048621178,-0.045206453651189804,-0.5674870610237122
1761914688616167400,7.77716748046875,-0.06699569523334503,-0.003512803465127945,-0.5625514388084412
1761914688626222300,7.787222412109375,-0.14391036331653595,0.023925289511680603,-0.545565128326416
1761914688636278300,7.7972783203125,-0.23280242085456848,0.027182869613170624,-0.5218451619148254
1761914688646334500,7.80733447265625,-0.3213381767272949,0.005913828499615192,-0.48280400037765503
1761914688656390400,7.817390380859375,-0.403225839138031,-0.03932901471853256,-0.42827898263931274
1761914688666446300,7.8274462890625,-0.46680164337158203,-0.1004859209060669,-0.363268107175827
1761914688676501500,7.83750146484375,-0.5077954530715942,-0.1678609549999237,-0.26816582679748535
1761914688686557400,7.847557373046875,-0.5347977876663208,-0.22788351774215698,-0.1578001230955124
1761914688696613600,7.857613525390625,-0.5310896039009094,-0.2919570505619049,-0.03354182094335556
1761914688706669600,7.867669677734375,-0.5166816115379333,-0.34402674436569214,0.09211570769548416
1761914688716724500,7.877724365234375,-0.4776872992515564,-0.3633977770805359,0.2015540450811386
1761914688726780400,7.887780517578125,-0.4079781472682953,-0.34641313552856445,0.29451799392700195
1761914688736836400,7.89783642578125,-0.31805145740509033,-0.2873210608959198,0.34890374541282654
1761914688746892500,7.907892578125,-0.22583027184009552,-0.19768039882183075,0.3745095133781433
1761914688756948500,7.917948486328125,-0.1383209377527237,-0.1037784144282341,0.36133885383605957
1761914688767003600,7.928003662109375,-0.05454999953508377,-0.012659385800361633,0.3223138749599457
1761914688777059600,7.9380595703125,0.03181471675634384,0.07049595564603806,0.27431997656822205
1761914688787115500,7.948115478515625,0.1188202053308487,0.12594269216060638,0.22559276223182678
1761914688797171500,7.95817138671875,0.20773302018642426,0.15505263209342957,0.19206303358078003
1761914688807226400,7.968226318359375,0.28815895318984985,0.15847526490688324,0.17932265996932983
1761914688817282600,7.978282470703125,0.34796395897865295,0.1336231827735901,0.17896154522895813
1761914688827338500,7.98833837890625,0.39059579372406006,0.0861484557390213,0.20063194632530212
1761914688837394400,7.99839453125,0.4085457921028137,0.009610538370907307,0.22505313158035278
1761914688847447300,8.008447265625,0.42045941948890686,-0.08079978823661804,0.24533337354660034
1761914688857502500,8.01850244140625,0.4274578392505646,-0.17250806093215942,0.2604258060455322
1761914688867558400,8.028558349609375,0.4266795217990875,-0.2561867833137512,0.25164932012557983
1761914688877614600,8.038614501953125,0.43359148502349854,-0.3191031515598297,0.221845343708992
1761914688887670500,8.04867041015625,0.441051721572876,-0.34889543056488037,0.1793929636478424
1761914688897726500,8.0587265625,0.4463847279548645,-0.34330040216445923,0.1326451599597931
1761914688907781400,8.068781494140625,0.4348580837249756,-0.3063379228115082,0.09975649416446686
1761914688917837300,8.07883740234375,0.39906466007232666,-0.22642071545124054,0.08728916943073273
1761914688927893500,8.0888935546875,0.33703938126564026,-0.14377164840698242,0.10303404927253723
1761914688937949400,8.098949462890625,0.27554699778556824,-0.1253468245267868,0.14038488268852234
1761914688948004600,8.109004638671875,0.22899223864078522,-0.1808614581823349,0.1882118284702301
1761914688958060500,8.119060546875,0.18085508048534393,-0.28433218598365784,0.23911577463150024
1761914688968116500,8.129116455078124,0.09248099476099014,-0.3980156183242798,0.28507062792778015
1761914688978172400,8.13917236328125,-0.004342755768448114,-0.5169335007667542,0.31087613105773926
1761914688988228600,8.149228515625,-0.07599296420812607,-0.6361789703369141,0.3022075593471527
1761914688998283300,8.159283203125,-0.11820246279239655,-0.7286795973777771,0.2561284899711609
1761914689008339500,8.16933935546875,-0.1616365760564804,-0.7893376350402832,0.1718340814113617
1761914689018395400,8.1793955078125,-0.20475926995277405,-0.8159886598587036,0.06477075815200806
1761914689028451300,8.189451416015626,-0.23513256013393402,-0.7957792282104492,-0.05613917484879494
1761914689038506500,8.199506591796874,-0.25202178955078125,-0.7058048844337463,-0.16988810896873474
1761914689048562400,8.2095625,-0.2510790228843689,-0.5460490584373474,-0.26947537064552307
1761914689058618600,8.21961865234375,-0.25313523411750793,-0.3164081573486328,-0.33770981431007385
1761914689068674600,8.229674560546876,-0.2555752992630005,-0.015649089589715004,-0.3634200692176819
1761914689078729500,8.2397294921875,-0.2555803656578064,0.26239609718322754,-0.3535599708557129
1761914689088785400,8.249785400390625,-0.25387364625930786,0.4440535604953766,-0.33380863070487976
1761914689098842000,8.259842041015625,-0.2353510856628418,0.5335631966590881,-0.3075474798679352
1761914689108898000,8.26989794921875,-0.184781014919281,0.5555210113525391,-0.2672945261001587
1761914689118954200,8.279954345703125,-0.11819585412740707,0.5215033888816833,-0.21407949924468994
1761914689129009200,8.290009033203125,-0.04367848485708237,0.4293060004711151,-0.14625659584999084
1761914689139065300,8.3000654296875,0.01568044349551201,0.31794777512550354,-0.08853497356176376
1761914689149121300,8.310121337890624,0.05201430991292,0.23808330297470093,-0.043042466044425964
1761914689159177000,8.320177001953125,0.08536268025636673,0.18747153878211975,-0.02850719913840294
1761914689169233200,8.330233154296875,0.12336821854114532,0.1620226949453354,-0.04418767988681793
1761914689179288000,8.3402880859375,0.18751445412635803,0.16533486545085907,-0.08134569972753525
1761914689189344300,8.35034423828125,0.26826903223991394,0.2004324048757553,-0.13043494522571564
1761914689199400200,8.360400146484375,0.3558494746685028,0.25348231196403503,-0.19344399869441986
1761914689209456000,8.3704560546875,0.4409095048904419,0.3098062574863434,-0.2559105157852173
1761914689219511300,8.38051123046875,0.5185579657554626,0.3628918528556824,-0.30352118611335754
1761914689229567200,8.390567138671875,0.5793812274932861,0.3917647898197174,-0.3496520519256592
1761914689239623200,8.400623046875,0.6447754502296448,0.4192187786102295,-0.3891858756542206
1761914689249679000,8.41067919921875,0.7050848603248596,0.45134103298187256,-0.4198143482208252
1761914689259734300,8.420734375,0.7582242488861084,0.47991248965263367,-0.44691920280456543
1761914689269790200,8.430790283203125,0.7907503843307495,0.5054153800010681,-0.4541904628276825
1761914689279846100,8.44084619140625,0.8146415948867798,0.5317420363426208,-0.4364895224571228
1761914689289902300,8.45090234375,0.8203290700912476,0.548151969909668,-0.3861629068851471
1761914689299958300,8.460958251953125,0.7979539632797241,0.5554141402244568,-0.31771862506866455
1761914689310013000,8.471012939453125,0.7458186745643616,0.5324268341064453,-0.22563380002975464
1761914689320069000,8.481069091796876,0.6815941333770752,0.49600064754486084,-0.11903518438339233
1761914689330125000,8.491125,0.6179367303848267,0.43518632650375366,-0.004641327075660229
1761914689340181000,8.501180908203125,0.5445725321769714,0.33415505290031433,0.10561726987361908
1761914689350236200,8.511236083984375,0.4714096486568451,0.2065078765153885,0.20966671407222748
1761914689360292000,8.5212919921875,0.38859352469444275,0.0762413740158081,0.3079526722431183
1761914689370348300,8.531348388671875,0.31707364320755005,-0.03949873894453049,0.39399802684783936
1761914689380404200,8.541404296875,0.24942508339881897,-0.1335085928440094,0.4639568626880646
1761914689390460200,8.551460205078126,0.18499964475631714,-0.22628937661647797,0.5126544237136841
1761914689400515000,8.56151513671875,0.12042411416769028,-0.3370624780654907,0.5247845649719238
1761914689410571000,8.571571044921875,0.05095846205949783,-0.4415886700153351,0.5005335807800293
1761914689420627200,8.581627197265625,-0.008419908583164215,-0.5274839401245117,0.43718019127845764
1761914689430683100,8.59168310546875,-0.06997484713792801,-0.5897736549377441,0.3427375555038452
1761914689440738300,8.60173828125,-0.1282341629266739,-0.6209172010421753,0.21832025051116943
1761914689450794200,8.611794189453125,-0.18840105831623077,-0.6173961758613586,0.07503477483987808
1761914689460850200,8.62185009765625,-0.24954962730407715,-0.56573086977005,-0.06310764700174332
1761914689470906400,8.63190625,-0.3173789083957672,-0.4577934443950653,-0.17284850776195526
1761914689480962300,8.64196240234375,-0.36687377095222473,-0.296835720539093,-0.2291613221168518
1761914689491017200,8.652017333984375,-0.4105883240699768,-0.1083206832408905,-0.23684866726398468
1761914689501073200,8.6620732421875,-0.4394764304161072,0.06573472917079926,-0.20372693240642548
1761914689511129000,8.672129150390624,-0.45257073640823364,0.1881149709224701,-0.1456764191389084
1761914689521185300,8.682185302734375,-0.4427756369113922,0.2527235150337219,-0.06896433234214783
1761914689531240200,8.692240234375,-0.4103660583496094,0.2688828110694885,0.007532455958425999
1761914689541296000,8.702296142578126,-0.36098653078079224,0.25767087936401367,0.08706589788198471
1761914689551352300,8.712352294921875,-0.303631991147995,0.2389775663614273,0.16322824358940125
1761914689561408300,8.722408203125,-0.23686149716377258,0.2372632920742035,0.2311316728591919
1761914689571464000,8.7324638671875,-0.1703941822052002,0.264128178358078,0.29604339599609375
1761914689581519000,8.74251904296875,-0.11548992246389389,0.32554253935813904,0.36215662956237793
1761914689591575000,8.752574951171875,-0.08151911944150925,0.36455535888671875,0.4264146685600281
1761914689601631200,8.76263134765625,-0.05258466675877571,0.33009111881256104,0.4579438269138336
1761914689611687200,8.772687255859376,-0.01210310123860836,0.2435946762561798,0.4367242157459259
1761914689621742300,8.782742431640624,0.013038204051554203,0.15493857860565186,0.3780031204223633
1761914689631798300,8.79279833984375,0.0008622981840744615,0.07634000480175018,0.294127881526947
1761914689641854200,8.802854248046875,-0.023576198145747185,-0.014034903608262539,0.19989007711410522
1761914689651910100,8.81291015625,-0.03701106458902359,-0.12771432101726532,0.0919770821928978
1761914689661965000,8.822965087890625,-0.055688079446554184,-0.1981421411037445,-0.019606705754995346
1761914689672021200,8.833021240234375,-0.10182236135005951,-0.16944313049316406,-0.1150038093328476
1761914689682077200,8.8430771484375,-0.1656964123249054,-0.08973924815654755,-0.17716865241527557
1761914689692133000,8.853133056640624,-0.22845856845378876,-0.005943923257291317,-0.18203824758529663
1761914689702189300,8.863189208984375,-0.27391180396080017,0.05140165612101555,-0.13412797451019287
1761914689712244200,8.873244140625,-0.30316972732543945,0.08271817117929459,-0.0231282040476799
1761914689722300400,8.883300537109376,-0.3294796347618103,0.06667608767747879,0.12581974267959595
1761914689732356000,8.893356201171875,-0.31706464290618896,-0.032607052475214005,0.2821091115474701
1761914689742412000,8.903412109375,-0.26959753036499023,-0.1690724939107895,0.41888612508773804
1761914689752467200,8.91346728515625,-0.19999629259109497,-0.2618127763271332,0.5189787149429321
1761914689762523100,8.923523193359374,-0.14515382051467896,-0.28849631547927856,0.5667368769645691
1761914689772579000,8.9335791015625,-0.11056534200906754,-0.25889912247657776,0.5508968234062195
1761914689782635300,8.94363525390625,-0.08866164088249207,-0.20013967156410217,0.48373082280158997
1761914689792691200,8.953691162109376,-0.0792493000626564,-0.14980792999267578,0.36409881711006165
1761914689802746000,8.96374609375,-0.08515432476997375,-0.10205904394388199,0.2001115083694458
1761914689812802000,8.973802001953125,-0.10253003239631653,-0.058003321290016174,0.00021087191998958588
1761914689822858000,8.98385791015625,-0.1303001344203949,-0.009681593626737595,-0.21118365228176117
1761914689832914200,8.9939140625,-0.16739439964294434,0.037130773067474365,-0.4122236967086792
1761914689842969000,9.003968994140624,-0.19684070348739624,0.07794105261564255,-0.5771199464797974
1761914689853025300,9.014025390625,-0.21493299305438995,0.10250286012887955,-0.7031717896461487
1761914689863081200,9.024081298828126,-0.21247196197509766,0.10753224045038223,-0.791621208190918
1761914689873137200,9.03413720703125,-0.20274586975574493,0.11241097003221512,-0.84877610206604
1761914689883193300,9.044193359375,-0.18078038096427917,0.12130193412303925,-0.8736894130706787
1761914689893248000,9.054248046875,-0.1522841602563858,0.138922318816185,-0.8741610646247864
1761914689903304200,9.06430419921875,-0.12876631319522858,0.15627866983413696,-0.8530896306037903
1761914689913360100,9.074360107421874,-0.10809604823589325,0.16965024173259735,-0.8007278442382812
1761914689923416000,9.084416015625,-0.11447165906429291,0.190169095993042,-0.7217869758605957
1761914689933471200,9.09447119140625,-0.1402314007282257,0.21136242151260376,-0.6248586773872375
1761914689943527200,9.104527099609374,-0.18011249601840973,0.22129787504673004,-0.5350803136825562
1761914689953583400,9.114583251953125,-0.22113056480884552,0.24493613839149475,-0.4512891173362732
1761914689963639300,9.124639404296875,-0.26040154695510864,0.2827242612838745,-0.3776811957359314
1761914689973695200,9.1346953125,-0.29682260751724243,0.29449400305747986,-0.31194090843200684
1761914689983750100,9.144750244140624,-0.3183537423610687,0.3033333122730255,-0.24043983221054077
1761914689993806000,9.15480615234375,-0.3251326084136963,0.3269776701927185,-0.16644984483718872
1761914690003862000,9.164862060546875,-0.3221434950828552,0.33898958563804626,-0.0948648676276207
1761914690013918200,9.174918212890624,-0.30515986680984497,0.3515012264251709,-0.03824186325073242
1761914690023973000,9.18497314453125,-0.2790781855583191,0.37175774574279785,0.006556500680744648
1761914690034029300,9.195029296875,-0.24443674087524414,0.39623430371284485,0.026242149993777275
1761914690044085200,9.205085205078126,-0.20180273056030273,0.43278512358665466,0.020811697468161583
1761914690054141200,9.21514111328125,-0.1439693719148636,0.471280038356781,0.010070125572383404
1761914690064196000,9.225196044921875,-0.0731242224574089,0.5081232786178589,0.008084471337497234
1761914690074252000,9.235251953125,0.008147021755576134,0.5064355731010437,0.01036951132118702
1761914690084308200,9.24530810546875,0.10873674601316452,0.4893628656864166,0.019912149757146835
1761914690094364200,9.2553642578125,0.2146228402853012,0.4686179757118225,0.016023389995098114
1761914690104419800,9.265419921875,0.3202744424343109,0.44593051075935364,0.002664707601070404
1761914690114475000,9.27547509765625,0.4153681695461273,0.4398997128009796,-0.015277736820280552
1761914690124531000,9.285531005859376,0.49083149433135986,0.4372972846031189,-0.037892237305641174
1761914690134587100,9.295587158203125,0.5466748476028442,0.43504002690315247,-0.07763803750276566
1761914690144643000,9.30564306640625,0.595317006111145,0.4044608175754547,-0.11740436404943466
1761914690154698200,9.3156982421875,0.6398561596870422,0.3181559443473816,-0.15614156424999237
1761914690164754200,9.325754150390624,0.6864074468612671,0.19311894476413727,-0.17857229709625244
1761914690174809900,9.335809814453125,0.7219683527946472,0.036652397364377975,-0.17498740553855896
1761914690184866000,9.345865966796875,0.7434477806091309,-0.12186454981565475,-0.14825299382209778
1761914690194922000,9.355921875,0.7615554332733154,-0.24249082803726196,-0.08458985388278961
1761914690204977200,9.36597705078125,0.7582626938819885,-0.28835684061050415,0.011613113805651665
1761914690215033000,9.376033203125,0.7140622735023499,-0.2685341238975525,0.12872497737407684
1761914690225089000,9.386089111328126,0.6517698764801025,-0.2432229071855545,0.23473158478736877
1761914690235145200,9.396145263671874,0.5782753229141235,-0.23621606826782227,0.30767348408699036
1761914690245200100,9.4062001953125,0.5089588761329651,-0.2591285705566406,0.34205517172813416
1761914690255256000,9.416256103515625,0.4581119418144226,-0.3671261966228485,0.3275192081928253
1761914690265312000,9.42631201171875,0.40661147236824036,-0.5395144820213318,0.27304449677467346
1761914690275368000,9.436367919921874,0.3390394151210785,-0.6817103028297424,0.18792952597141266
1761914690285423000,9.446423095703125,0.22691476345062256,-0.7619752883911133,0.08844022452831268
1761914690295479000,9.45647900390625,0.08903616666793823,-0.7828778624534607,-0.012239556759595871
1761914690305535000,9.466534912109376,-0.03216029703617096,-0.7259693145751953,-0.08803711831569672
1761914690315591200,9.476591064453125,-0.11522633582353592,-0.5724067091941833,-0.1300649493932724
1761914690325647000,9.486647216796875,-0.1743602156639099,-0.3410238027572632,-0.11203880608081818
1761914690335702000,9.496701904296875,-0.22768548130989075,-0.09619135409593582,-0.05320923402905464
1761914690345758000,9.506758056640624,-0.25904980301856995,0.1122172400355339,0.019773628562688828
1761914690355814000,9.51681396484375,-0.2626749575138092,0.24517586827278137,0.08406678587198257
1761914690365870000,9.5268701171875,-0.26332956552505493,0.3134787678718567,0.12559399008750916
1761914690375925000,9.536925048828126,-0.27578204870224,0.34177929162979126,0.13749688863754272
1761914690385981200,9.546981201171874,-0.2895106375217438,0.345833957195282,0.1307756006717682
1761914690396037000,9.557037109375,-0.2979673743247986,0.3318893313407898,0.10599856078624725
1761914690406093000,9.567093017578125,-0.30598586797714233,0.2964075207710266,0.05569997802376747
1761914690416148000,9.57714794921875,-0.29030856490135193,0.24873299896717072,-0.013268765062093735
1761914690426204000,9.587203857421875,-0.2563551366329193,0.21246419847011566,-0.08971426635980606
1761914690436260000,9.597260009765625,-0.21851681172847748,0.18495212495326996,-0.15072785317897797
1761914690446316000,9.60731591796875,-0.19251157343387604,0.17297722399234772,-0.18299204111099243
1761914690456372000,9.6173720703125,-0.15670597553253174,0.1636095494031906,-0.19720855355262756
1761914690466427100,9.62742724609375,-0.11078163236379623,0.15457716584205627,-0.21738624572753906
1761914690476483000,9.637483154296875,-0.04804147034883499,0.17392130196094513,-0.24460534751415253
1761914690486539000,9.6475390625,0.03237533941864967,0.19888444244861603,-0.2955321669578552
1761914690496595200,9.65759521484375,0.12461559474468231,0.21583780646324158,-0.35226741433143616
1761914690506649900,9.66764990234375,0.2137603908777237,0.22850726544857025,-0.4142061471939087
1761914690516706000,9.6777060546875,0.2935863733291626,0.23487579822540283,-0.46639490127563477
1761914690526762000,9.687761962890624,0.36223334074020386,0.23517273366451263,-0.5052816271781921
1761914690536818000,9.69781787109375,0.4299222528934479,0.23288682103157043,-0.5225402116775513
1761914690546874000,9.7078740234375,0.4723307192325592,0.24900665879249573,-0.5156700611114502
1761914690556929000,9.717928955078126,0.4980805814266205,0.27224791049957275,-0.48627227544784546
1761914690566985200,9.727985107421874,0.503973662853241,0.28603270649909973,-0.4349195957183838
1761914690577041200,9.738041259765625,0.4990658760070801,0.28095585107803345,-0.36587414145469666
1761914690587096800,9.748096923828125,0.4843106269836426,0.251104474067688,-0.28349432349205017
1761914690597152000,9.758152099609376,0.4597264528274536,0.20175503194332123,-0.19933658838272095
1761914690607208000,9.7682080078125,0.41302794218063354,0.13700932264328003,-0.11778393387794495
1761914690617264000,9.77826416015625,0.35004132986068726,0.05944535508751869,-0.04651246964931488
1761914690627320000,9.788320068359376,0.27365654706954956,-0.015821969136595726,0.029282690957188606
1761914690637375200,9.798375244140624,0.1926886886358261,-0.10424374788999557,0.09116944670677185
1761914690647431200,9.80843115234375,0.1264715939760208,-0.20461083948612213,0.14562682807445526
1761914690657487000,9.818487060546875,0.07379467040300369,-0.29967498779296875,0.1954353004693985
1761914690667543000,9.82854296875,0.028121720999479294,-0.3875851333141327,0.2444997876882553
1761914690677599000,9.838598876953125,-0.035578448325395584,-0.46222588419914246,0.26962170004844666
1761914690687654100,9.848654052734375,-0.09852012991905212,-0.5384708642959595,0.2697135806083679
1761914690697710000,9.8587099609375,-0.15261870622634888,-0.5856232047080994,0.23905344307422638
1761914690707766000,9.86876611328125,-0.19114771485328674,-0.5844636559486389,0.16956624388694763
1761914690717822000,9.878822021484375,-0.2310771644115448,-0.5320557355880737,0.07678907364606857
1761914690727877000,9.888877197265625,-0.2724381983280182,-0.4406225383281708,-0.019728679209947586
1761914690737933000,9.89893310546875,-0.31139081716537476,-0.33968207240104675,-0.08792225271463394
1761914690747989000,9.908989013671874,-0.32801613211631775,-0.24941077828407288,-0.13028942048549652
1761914690758045000,9.919044921875,-0.33897683024406433,-0.16620030999183655,-0.14729516208171844
1761914690768100900,9.929100830078125,-0.3450927734375,-0.071741983294487,-0.15798430144786835
1761914690778156000,9.939156005859376,-0.34480494260787964,0.02351350151002407,-0.15043161809444427
1761914690788212000,9.9492119140625,-0.3259172737598419,0.09284410625696182,-0.1306174397468567
1761914690798268200,9.95926806640625,-0.29044678807258606,0.13663895428180695,-0.08276475220918655
1761914690808324000,9.969323974609376,-0.2464287132024765,0.1830810159444809,-0.015060806646943092
1761914690818379300,9.979379150390624,-0.1902938187122345,0.24684329330921173,0.08381407707929611
1761914690828435000,9.98943505859375,-0.11518148332834244,0.2902379035949707,0.16661681234836578
1761914690838491000,9.999490966796875,-0.0333552248775959,0.3335954248905182,0.2051670253276825
1761914690848547000,10.009547119140626,0.022118423134088516,0.4087572693824768,0.19330157339572906
1761914690858602000,10.01960205078125,0.04862946644425392,0.5023252367973328,0.15949001908302307
1761914690868658200,10.029658203125,0.06575599312782288,0.5572396516799927,0.10938078165054321
1761914690878714000,10.039714111328125,0.08083172887563705,0.5530833005905151,0.05662628263235092
1761914690888770000,10.04977001953125,0.07820025831460953,0.5105757713317871,0.006879497319459915
1761914690898826200,10.059826171875,0.06860838830471039,0.45916420221328735,-0.04106702655553818
1761914690908881000,10.069880859375,0.03517479449510574,0.43394726514816284,-0.08972564339637756
1761914690918937000,10.07993701171875,-0.028521927073597908,0.42893922328948975,-0.141299307346344
1761914690928993000,10.089992919921874,-0.09101113677024841,0.42264431715011597,-0.1613771617412567
1761914690939049000,10.100049072265625,-0.13896320760250092,0.4122534394264221,-0.14022406935691833
1761914690949104000,10.110104248046875,-0.18105073273181915,0.37000054121017456,-0.07861211895942688
1761914690959160000,10.12016015625,-0.2208370417356491,0.30059322714805603,0.027994368225336075
1761914690969216000,10.130216064453125,-0.2665017247200012,0.2037082463502884,0.1448805034160614
1761914690979272200,10.140272216796875,-0.3116875886917114,0.04376571252942085,0.27320677042007446
1761914690989328100,10.150328125,-0.3484986126422882,-0.14222092926502228,0.3908087909221649
1761914690999383000,10.160383056640624,-0.36675921082496643,-0.28714025020599365,0.47874122858047485
1761914691009439000,10.17043896484375,-0.3660585284233093,-0.37838149070739746,0.5118277668952942
1761914691019495000,10.180494873046875,-0.35559746623039246,-0.4286727011203766,0.503648042678833
1761914691029551000,10.190551025390626,-0.3337368965148926,-0.45512455701828003,0.45046019554138184
1761914691039606000,10.20060595703125,-0.3100237250328064,-0.4536854028701782,0.38131266832351685
1761914691049662200,10.210662109375,-0.28680574893951416,-0.449886679649353,0.2935897409915924
1761914691059718100,10.22071826171875,-0.26288577914237976,-0.4317252039909363,0.19541025161743164
1761914691069774000,10.230774169921874,-0.23244823515415192,-0.3895822763442993,0.10602178424596786
1761914691079829000,10.2408291015625,-0.19835111498832703,-0.3202636241912842,0.04002855718135834
1761914691089885000,10.250885009765625,-0.1562955528497696,-0.26064369082450867,-0.013379274867475033
1761914691099936500,10.2609365234375,-0.10823526978492737,-0.216012105345726,-0.04989953711628914
1761914691109992400,10.270992431640625,-0.05881578475236893,-0.18907476961612701,-0.07056380808353424
1761914691120048600,10.281048583984376,-0.0032186745665967464,-0.16704174876213074,-0.0680251494050026
1761914691130103600,10.291103515625,0.029346458613872528,-0.1264735609292984,-0.051311150193214417
1761914691140159500,10.301159423828125,0.03627009689807892,-0.08826588094234467,-0.04113536328077316
1761914691150215700,10.311215576171875,0.028372494503855705,-0.03583675995469093,-0.051975496113300323
1761914691160271600,10.321271728515624,0.013529347255825996,0.009552308358252048,-0.07657762616872787
1761914691170326500,10.331326416015624,-0.010035366751253605,0.05664738267660141,-0.10752062499523163
1761914691180382500,10.341382568359375,-0.048841848969459534,0.08843623846769333,-0.13150393962860107
1761914691190438400,10.3514384765625,-0.09886852651834488,0.11540926992893219,-0.14338216185569763
1761914691200494600,10.36149462890625,-0.16272205114364624,0.1308310180902481,-0.12534669041633606
1761914691210549500,10.371549560546875,-0.22691115736961365,0.1155276969075203,-0.07852005213499069
1761914691220605700,10.381605712890625,-0.29717978835105896,0.06039251387119293,-0.00038333702832460403
1761914691230661600,10.39166162109375,-0.3535671830177307,-0.0018889688653871417,0.1061476320028305
1761914691240717600,10.401717529296874,-0.3815058767795563,-0.032043054699897766,0.22692355513572693
1761914691250773800,10.411773681640625,-0.3995208144187927,-0.05065535753965378,0.34566405415534973
1761914691260828400,10.421828369140625,-0.40743565559387207,-0.08300680667161942,0.4283045530319214
1761914691270884600,10.431884521484376,-0.399703711271286,-0.1043829396367073,0.49099215865135193
1761914691280940500,10.4419404296875,-0.36829474568367004,-0.08876492828130722,0.5367364883422852
1761914691290996500,10.45199658203125,-0.32454219460487366,-0.052427422255277634,0.5727837085723877
1761914691301051600,10.4620517578125,-0.25772809982299805,-0.0006427846383303404,0.6042025685310364
1761914691311107600,10.472107666015624,-0.18189965188503265,0.034285902976989746,0.6271265149116516
1761914691321163800,10.482163818359375,-0.1077585220336914,0.05623756721615791,0.6374887228012085
1761914691331219700,10.4922197265625,-0.03310585394501686,0.07253797352313995,0.6107963919639587
1761914691341274600,10.502274658203126,0.04284696280956268,0.09237925708293915,0.5611646175384521
1761914691351330600,10.51233056640625,0.11283589899539948,0.09113103896379471,0.48787814378738403
1761914691361386500,10.522386474609375,0.17884546518325806,0.04211161658167839,0.4056624472141266
1761914691371442400,10.5324423828125,0.22831767797470093,-0.012456818483769894,0.32828855514526367
1761914691381498600,10.54249853515625,0.2616077661514282,-0.036213576793670654,0.263603538274765
1761914691391553500,10.552553466796875,0.27171364426612854,-0.07697458565235138,0.18494652211666107
1761914691401609700,10.562609619140625,0.2711378335952759,-0.13018064200878143,0.07350098341703415
1761914691411665700,10.572665771484376,0.28344881534576416,-0.15598374605178833,-0.04755593463778496
1761914691421721600,10.5827216796875,0.29863256216049194,-0.16459818184375763,-0.16059036552906036
1761914691431776500,10.592776611328125,0.3282333314418793,-0.1705937534570694,-0.24107110500335693
1761914691441832400,10.60283251953125,0.37305378913879395,-0.16551505029201508,-0.2639230489730835
1761914691451888600,10.612888671875,0.40601015090942383,-0.13990183174610138,-0.2150801718235016
1761914691461944600,10.622944580078125,0.40514612197875977,-0.0957203209400177,-0.09490549564361572
1761914691471999700,10.632999755859375,0.39357414841651917,-0.11141033470630646,0.08134835958480835
1761914691482055700,10.6430556640625,0.37407299876213074,-0.19319038093090057,0.25051039457321167
1761914691492111600,10.653111572265624,0.31986942887306213,-0.26754266023635864,0.3952753245830536
1761914691502167800,10.663167724609375,0.26059991121292114,-0.3561616539955139,0.49390286207199097
1761914691512222500,10.673222412109375,0.22811120748519897,-0.45587068796157837,0.5346822738647461
1761914691522278700,10.683278564453126,0.2004842609167099,-0.5001183748245239,0.511772871017456
1761914691532334600,10.69333447265625,0.14424122869968414,-0.4713878929615021,0.4588622748851776
1761914691542390500,10.703390625,0.05234214663505554,-0.38716670870780945,0.3995261788368225
1761914691552446700,10.71344677734375,-0.03991454839706421,-0.27739042043685913,0.36217135190963745
1761914691562501600,10.723501708984376,-0.10312999039888382,-0.1109386757016182,0.36600714921951294
1761914691572557600,10.7335576171875,-0.13379015028476715,0.06622438132762909,0.3884091079235077
1761914691582613800,10.74361376953125,-0.12665599584579468,0.22742854058742523,0.419889360666275
1761914691592669400,10.75366943359375,-0.11275935918092728,0.3489648103713989,0.4587664306163788
1761914691602724600,10.763724609375,-0.11305977404117584,0.3984558582305908,0.4764934480190277
1761914691612780500,10.773780517578125,-0.13624125719070435,0.3966238498687744,0.48764729499816895
1761914691622836500,10.78383642578125,-0.16391988098621368,0.3826214671134949,0.4736391305923462
1761914691632892700,10.793892578125,-0.15776266157627106,0.35414934158325195,0.4284266531467438
1761914691642947600,10.803947509765624,-0.12115507572889328,0.2763842046260834,0.351795494556427
1761914691653003800,10.814003662109375,-0.08578164130449295,0.17800652980804443,0.2597939372062683
1761914691663059500,10.8240595703125,-0.07869728654623032,0.13973769545555115,0.15472131967544556
1761914691673115400,10.834115478515624,-0.08399191498756409,0.12518858909606934,0.03266919031739235
1761914691683171600,10.844171630859375,-0.06752410531044006,0.10608222335577011,-0.08052373677492142
1761914691693226500,10.8542265625,-0.015406576916575432,0.13162672519683838,-0.16348972916603088
1761914691703282700,10.86428271484375,0.044952213764190674,0.24089962244033813,-0.1820327341556549
1761914691713338600,10.874338623046874,0.0799192488193512,0.30119410157203674,-0.19192558526992798
1761914691723394600,10.88439453125,0.1473883092403412,0.3396114110946655,-0.3032473027706146
1761914691733449700,10.89444970703125,0.21676312386989594,0.42230311036109924,-0.4315221607685089
1761914691743505400,10.90450537109375,0.26882120966911316,0.42911896109580994,-0.5448340177536011
1761914691753561600,10.9145615234375,0.3092283010482788,0.44509419798851013,-0.6256213188171387
1761914691763617500,10.924617431640625,0.3118022084236145,0.41540881991386414,-0.6582942008972168
1761914691773672700,10.934672607421875,0.28849607706069946,0.3442366421222687,-0.6359095573425293
