time,seconds_elapsed,z,y,x
1761916189225418500,0.07141845703125,-0.9785614013671875,0.003448486328125,-0.0753021240234375
1761916189235474700,0.081474609375,-0.9896240234375,0.0014190673828125,-0.0731353759765625
1761916189245529600,0.091529541015625,-0.9932861328125,0.0032501220703125,-0.0728607177734375
1761916189255584500,0.10158447265625,-0.9875640869140625,0.0033721923828125,-0.0753173828125
1761916189265639400,0.111639404296875,-0.97509765625,0.0021820068359375,-0.0771636962890625
1761916189275694600,0.121694580078125,-0.9836273193359375,0.0017852783203125,-0.0760955810546875
1761916189285749500,0.13174951171875,-0.99200439453125,0.0019989013671875,-0.07513427734375
1761916189295805400,0.141805419921875,-0.97882080078125,0.0034027099609375,-0.0780792236328125
1761916189305860600,0.151860595703125,-0.9370269775390625,0.0045623779296875,-0.0894927978515625
1761916189315915500,0.16191552734375,-0.9592742919921875,0.0053253173828125,-0.079803466796875
1761916189325970700,0.171970703125,-1.0421600341796875,-0.0021209716796875,-0.0585174560546875
1761916189336025600,0.182025634765625,-0.965728759765625,0.0032501220703125,-0.0749664306640625
1761916189346080500,0.19208056640625,-0.9221649169921875,0.0075225830078125,-0.0893402099609375
1761916189356135700,0.2021357421875,-1.060943603515625,-0.000946044921875,-0.0528564453125
1761916189366191600,0.212191650390625,-1.0911102294921875,-0.005340576171875,-0.0369415283203125
1761916189376246500,0.22224658203125,-0.97662353515625,0.003448486328125,-0.0648193359375
1761916189386301400,0.232301513671875,-0.91485595703125,0.0060882568359375,-0.089599609375
1761916189396356600,0.242356689453125,-0.973114013671875,0.0004119873046875,-0.07928466796875
1761916189406411500,0.25241162109375,-1.0371856689453125,0.001373291015625,-0.0548248291015625
1761916189416466400,0.262466552734375,-1.011932373046875,0.0028533935546875,-0.052734375
1761916189426522400,0.2725224609375,-0.965576171875,0.00140380859375,-0.0746612548828125
1761916189436577500,0.28257763671875,-0.9667816162109375,0.000885009765625,-0.0803680419921875
1761916189446632700,0.2926328125,-0.9926605224609375,0.0018310546875,-0.067169189453125
1761916189456687400,0.302687255859375,-1.0067901611328125,0.0024871826171875,-0.055755615234375
1761916189466742500,0.312742431640625,-0.9966278076171875,0.002288818359375,-0.064788818359375
1761916189476797700,0.322797607421875,-0.9739227294921875,0.0010223388671875,-0.07611083984375
1761916189486852600,0.3328525390625,-0.972747802734375,0.0008544921875,-0.073211669921875
1761916189496908500,0.342908447265625,-0.999481201171875,0.001708984375,-0.0629730224609375
1761916189506963500,0.35296337890625,-1.005462646484375,0.000732421875,-0.0612030029296875
1761916189517018600,0.3630185546875,-0.9831695556640625,0.0006561279296875,-0.070343017578125
1761916189527073500,0.373073486328125,-0.9724273681640625,0.002532958984375,-0.0746002197265625
1761916189537128400,0.38312841796875,-0.9908447265625,0.002349853515625,-0.0662689208984375
1761916189547183600,0.39318359375,-1.00274658203125,0.0021514892578125,-0.0611572265625
1761916189557239600,0.403239501953125,-0.9882659912109375,0.0021514892578125,-0.06707763671875
1761916189567294700,0.413294677734375,-0.9754638671875,0.000946044921875,-0.072113037109375
1761916189577349400,0.423349365234375,-0.986541748046875,0.0004119873046875,-0.0689239501953125
1761916189587404500,0.433404541015625,-0.999603271484375,0.001190185546875,-0.0633697509765625
1761916189597459500,0.44345947265625,-0.9925537109375,0.00140380859375,-0.0651397705078125
1761916189607514600,0.4535146484375,-0.98040771484375,0.0016632080078125,-0.070343017578125
1761916189617569500,0.463569580078125,-0.9832000732421875,0.00042724609375,-0.0694122314453125
1761916189627628300,0.473628173828125,-0.9936676025390625,0.000640869140625,-0.0653228759765625
1761916189637683200,0.48368310546875,-0.9941253662109375,0.0010833740234375,-0.06512451171875
1761916189647738000,0.493738037109375,-0.987762451171875,0.001922607421875,-0.06671142578125
1761916189657793300,0.503793212890625,-0.984832763671875,-0.0000457763671875,-0.0687408447265625
1761916189667848200,0.51384814453125,-0.99005126953125,0.00140380859375,-0.0665283203125
1761916189677903000,0.523903076171875,-0.991668701171875,0.00244140625,-0.0662841796875
1761916189687959300,0.533959228515625,-0.98431396484375,0.0021820068359375,-0.067535400390625
1761916189698014200,0.54401416015625,-0.9860382080078125,0.0011749267578125,-0.0682830810546875
1761916189708069400,0.5540693359375,-0.992095947265625,0.00201416015625,-0.0672454833984375
1761916189718124000,0.5641240234375,-0.9902496337890625,0.0018310546875,-0.0667572021484375
1761916189728179200,0.57417919921875,-0.986083984375,0.0019073486328125,-0.067413330078125
1761916189738234400,0.584234375,-0.98828125,0.0022735595703125,-0.0677032470703125
1761916189748289000,0.5942890625,-0.9889373779296875,0.0016021728515625,-0.0681915283203125
1761916189758345200,0.60434521484375,-0.9864501953125,0.0023345947265625,-0.0672760009765625
1761916189768400100,0.614400146484375,-0.986663818359375,0.001800537109375,-0.067047119140625
1761916189778455300,0.624455322265625,-0.9892578125,0.003204345703125,-0.067657470703125
1761916189788510200,0.63451025390625,-0.988616943359375,0.00225830078125,-0.06787109375
1761916189798565000,0.644565185546875,-0.9865264892578125,0.003204345703125,-0.067657470703125
1761916189808620300,0.654620361328125,-0.9824981689453125,0.0112762451171875,-0.0603790283203125
1761916189818676200,0.66467626953125,-0.978424072265625,0.0078277587890625,-0.075103759765625
1761916189828731400,0.6747314453125,-0.97265625,-0.01190185546875,-0.08221435546875
1761916189838786000,0.6847861328125,-1.0098419189453125,-0.0078887939453125,-0.0610504150390625
1761916189848841200,0.69484130859375,-1.033843994140625,-0.0092926025390625,-0.0589599609375
1761916189858896100,0.704896240234375,-0.9782257080078125,0.0024566650390625,-0.0639190673828125
1761916189868951300,0.714951416015625,-0.963043212890625,0.01409912109375,-0.068695068359375
1761916189879006200,0.725006103515625,-0.9908599853515625,0.009429931640625,-0.0722503662109375
1761916189889062100,0.735062255859375,-0.9911956787109375,-0.0001220703125,-0.06378173828125
1761916189899117300,0.745117431640625,-0.992828369140625,0.0005950927734375,-0.0621337890625
1761916189909172200,0.755172119140625,-0.989288330078125,0.0035400390625,-0.0690460205078125
1761916189919227100,0.76522705078125,-0.975341796875,-0.0008544921875,-0.0720367431640625
1761916189929282300,0.7752822265625,-0.9868927001953125,-0.0039215087890625,-0.0694580078125
1761916189939337200,0.785337158203125,-0.9975433349609375,0.0009613037109375,-0.0640869140625
1761916189949393200,0.79539306640625,-0.989654541015625,0.00396728515625,-0.064727783203125
1761916189959448000,0.805447998046875,-0.9862213134765625,0.008453369140625,-0.0693817138671875
1761916189969503200,0.815503173828125,-0.98260498046875,0.0035552978515625,-0.068145751953125
1761916189979558100,0.82555810546875,-0.9907379150390625,-0.001434326171875,-0.0643310546875
1761916189989613300,0.83561328125,-1.0010833740234375,-0.0016937255859375,-0.0645904541015625
1761916189999668200,0.845668212890625,-0.9860992431640625,0.002410888671875,-0.06719970703125
1761916190009724200,0.85572412109375,-0.9773712158203125,0.0033721923828125,-0.070465087890625
1761916190019779300,0.865779296875,-0.988525390625,0.00177001953125,-0.068115234375
1761916190029834200,0.875834228515625,-0.9967041015625,-0.0003662109375,-0.065277099609375
1761916190039889200,0.88588916015625,-0.987701416015625,-0.0001068115234375,-0.0669403076171875
1761916190049944000,0.895944091796875,-0.981536865234375,0.001373291015625,-0.0691680908203125
1761916190059999200,0.905999267578125,-0.98712158203125,0.0018768310546875,-0.068145751953125
1761916190070054400,0.916054443359375,-0.9934539794921875,0.0012664794921875,-0.066436767578125
1761916190080110300,0.9261103515625,-0.99176025390625,0.0015716552734375,-0.065704345703125
1761916190090165200,0.936165283203125,-0.9862823486328125,0.00360107421875,-0.06707763671875
1761916190100220200,0.94622021484375,-0.9858551025390625,0.002227783203125,-0.068267822265625
1761916190110275300,0.956275390625,-0.9898681640625,0.00103759765625,-0.0675201416015625
1761916190120330000,0.966330078125,-0.991363525390625,0.000579833984375,-0.067138671875
1761916190130385200,0.97638525390625,-0.987091064453125,-0.00030517578125,-0.0684661865234375
1761916190140441000,0.986441162109375,-0.9849395751953125,0.002410888671875,-0.06744384765625
1761916190150496300,0.996496337890625,-0.9873199462890625,0.0032501220703125,-0.0672454833984375
1761916190160551400,1.006551513671875,-0.989532470703125,0.002044677734375,-0.0665435791015625
1761916190170606000,1.016606201171875,-0.9882965087890625,0.0013885498046875,-0.0667724609375
1761916190180661200,1.0266611328125,-0.9867095947265625,0.00189208984375,-0.0673980712890625
1761916190190716200,1.036716064453125,-0.98736572265625,0.0016632080078125,-0.067413330078125
1761916190200771000,1.04677099609375,-0.9899139404296875,0.0011444091796875,-0.0669097900390625
1761916190210827000,1.056826904296875,-0.9901275634765625,0.00146484375,-0.06732177734375
1761916190220882200,1.066882080078125,-0.9859619140625,0.002685546875,-0.066741943359375
1761916190230937300,1.076937255859375,-0.985992431640625,0.002593994140625,-0.06756591796875
1761916190240992300,1.0869921875,-0.9896697998046875,0.002227783203125,-0.067230224609375
1761916190251047200,1.097047119140625,-0.9895782470703125,0.001220703125,-0.0667572021484375
1761916190261102000,1.10710205078125,-0.9881744384765625,0.0013885498046875,-0.06768798828125
1761916190271158300,1.117158203125,-0.98504638671875,0.0025787353515625,-0.067047119140625
1761916190281213200,1.127213134765625,-0.986663818359375,0.0021209716796875,-0.0671234130859375
1761916190291268000,1.13726806640625,-0.9882965087890625,0.0008087158203125,-0.0668487548828125
1761916190301323300,1.1473232421875,-0.9879302978515625,0.0011138916015625,-0.0669403076171875
1761916190311378200,1.157378173828125,-0.9869537353515625,0.001068115234375,-0.0676116943359375
1761916190321433300,1.167433349609375,-0.986419677734375,0.001556396484375,-0.0670928955078125
1761916190331489300,1.1774892578125,-0.9888916015625,0.00128173828125,-0.0662841796875
1761916190341544200,1.187544189453125,-0.9884796142578125,0.0009613037109375,-0.0664825439453125
1761916190351599000,1.19759912109375,-0.986602783203125,0.0017242431640625,-0.06719970703125
1761916190361654300,1.207654296875,-0.9874420166015625,0.001373291015625,-0.0675506591796875
1761916190371709200,1.217709228515625,-0.9866943359375,0.002166748046875,-0.06640625
1761916190381764000,1.22776416015625,-0.98724365234375,0.0022430419921875,-0.0667266845703125
1761916190391820300,1.2378203125,-0.987640380859375,0.0022430419921875,-0.0681915283203125
1761916190401875200,1.247875244140625,-0.986541748046875,0.0021820068359375,-0.0670623779296875
1761916190411930400,1.257930419921875,-0.9867706298828125,0.0025177001953125,-0.0669097900390625
1761916190421985000,1.267985107421875,-0.988311767578125,0.0028839111328125,-0.06756591796875
1761916190432040200,1.278040283203125,-0.9881439208984375,0.002166748046875,-0.0672760009765625
1761916190442095400,1.288095458984375,-0.987548828125,0.0013275146484375,-0.0677337646484375
1761916190452151300,1.2981513671875,-0.9876556396484375,0.001953125,-0.0680389404296875
1761916190462206200,1.308206298828125,-0.9879302978515625,0.0020599365234375,-0.0675811767578125
1761916190472261000,1.31826123046875,-0.98712158203125,0.002410888671875,-0.0664520263671875
1761916190482316300,1.32831640625,-0.987823486328125,0.0010223388671875,-0.0682373046875
1761916190492371200,1.33837109375,-0.9868927001953125,0.002227783203125,-0.0679473876953125
1761916190502426000,1.348426025390625,-0.9864349365234375,0.0019378662109375,-0.067169189453125
1761916190512482000,1.35848193359375,-0.9884185791015625,0.001373291015625,-0.0678863525390625
1761916190522537200,1.368537109375,-0.989013671875,0.0019378662109375,-0.0678253173828125
1761916190532592400,1.37859228515625,-0.988067626953125,0.001739501953125,-0.0676116943359375
1761916190542647000,1.38864697265625,-0.9871826171875,0.00146484375,-0.0670318603515625
1761916190552702200,1.3987021484375,-0.9877166748046875,0.0015869140625,-0.0673828125
1761916190562757400,1.40875732421875,-0.9886627197265625,0.0009002685546875,-0.0669403076171875
1761916190572813300,1.418813232421875,-0.989013671875,0.001434326171875,-0.066741943359375
1761916190582868200,1.4288681640625,-0.9879913330078125,0.0008087158203125,-0.067230224609375
1761916190592923100,1.438923095703125,-0.9873199462890625,0.0014801025390625,-0.0677032470703125
1761916190602978300,1.448978271484375,-0.987640380859375,0.000823974609375,-0.0674285888671875
1761916190613033200,1.459033203125,-0.9883880615234375,0.0011444091796875,-0.0684051513671875
1761916190623088000,1.469088134765625,-0.985260009765625,0.000823974609375,-0.0676422119140625
1761916190633147000,1.47914697265625,-0.987548828125,0.0019683837890625,-0.0670928955078125
1761916190643201500,1.489201416015625,-0.9891510009765625,0.0015716552734375,-0.066619873046875
1761916190653256700,1.499256591796875,-0.9879150390625,0.0022125244140625,-0.06573486328125
1761916190663311600,1.5093115234375,-0.9871826171875,0.001800537109375,-0.0664825439453125
1761916190673366800,1.51936669921875,-0.98651123046875,0.0019683837890625,-0.0671539306640625
1761916190683421700,1.529421630859375,-0.9890289306640625,0.0024261474609375,-0.067413330078125
1761916190693477600,1.5394775390625,-0.988037109375,0.0024261474609375,-0.0670318603515625
1761916190703532800,1.54953271484375,-0.9875335693359375,0.0011749267578125,-0.067291259765625
1761916190713587700,1.559587646484375,-0.9876861572265625,0.001739501953125,-0.0675506591796875
1761916190723642600,1.569642578125,-0.9879913330078125,0.0020751953125,-0.06787109375
1761916190733697500,1.579697509765625,-0.9874725341796875,0.001983642578125,-0.0670318603515625
1761916190743753700,1.589753662109375,-0.9866943359375,0.002655029296875,-0.0671234130859375
1761916190753808600,1.59980859375,-0.98828125,0.0031890869140625,-0.06732177734375
1761916190763863600,1.609863525390625,-0.988128662109375,0.003570556640625,-0.0670318603515625
1761916190773918700,1.619918701171875,-0.985687255859375,0.00299072265625,-0.0667724609375
1761916190783973600,1.6299736328125,-0.9872589111328125,0.0025177001953125,-0.06689453125
1761916190794028800,1.64002880859375,-0.987579345703125,0.002593994140625,-0.06768798828125
1761916190804084700,1.650084716796875,-0.98736572265625,0.0030364990234375,-0.06829833984375
1761916190814139600,1.6601396484375,-0.98834228515625,0.0028228759765625,-0.0677947998046875
1761916190824194600,1.670194580078125,-0.9886627197265625,0.0015869140625,-0.06793212890625
1761916190834249700,1.680249755859375,-0.9887847900390625,0.0021820068359375,-0.0683441162109375
1761916190844304600,1.6903046875,-0.9874114990234375,0.0018157958984375,-0.06732177734375
1761916190854359600,1.700359619140625,-0.987579345703125,0.00103759765625,-0.066558837890625
1761916190864415700,1.710415771484375,-0.988189697265625,0.00140380859375,-0.066802978515625
1761916190874470700,1.720470703125,-0.9882965087890625,0.001556396484375,-0.0672607421875
1761916190884525800,1.73052587890625,-0.9861907958984375,0.0021209716796875,-0.0677337646484375
1761916190894580500,1.74058056640625,-0.986663818359375,0.001068115234375,-0.066253662109375
1761916190904635600,1.7506357421875,-0.9880523681640625,0.00115966796875,-0.066009521484375
1761916190914691600,1.760691650390625,-0.988250732421875,0.00146484375,-0.066741943359375
1761916190924746800,1.770746826171875,-0.9867095947265625,0.0012359619140625,-0.0670166015625
1761916190934801700,1.7808017578125,-0.987396240234375,0.001556396484375,-0.067138671875
1761916190944856600,1.790856689453125,-0.9890594482421875,0.0019989013671875,-0.0663909912109375
1761916190954911700,1.800911865234375,-0.98834228515625,0.002593994140625,-0.066375732421875
1761916190964966700,1.810966552734375,-0.987274169921875,0.0015716552734375,-0.0669403076171875
1761916190975022600,1.821022705078125,-0.9871063232421875,-0.0001068115234375,-0.067138671875
1761916190985077500,1.831077392578125,-0.9875640869140625,0.00213623046875,-0.0655517578125
1761916190995132700,1.841132568359375,-0.98834228515625,0.0018310546875,-0.066741943359375
1761916191005187800,1.851187744140625,-0.987152099609375,0.0014190673828125,-0.067291259765625
1761916191015242500,1.861242431640625,-0.987335205078125,0.0014801025390625,-0.0678558349609375
1761916191025298700,1.871298583984375,-0.988189697265625,0.0016632080078125,-0.06695556640625
1761916191035353600,1.881353515625,-0.9871826171875,0.0012664794921875,-0.0677490234375
1761916191045408800,1.89140869140625,-0.98736572265625,0.0015411376953125,-0.067657470703125
1761916191055463700,1.901463623046875,-0.987213134765625,0.000823974609375,-0.0680084228515625
1761916191065518600,1.9115185546875,-0.9879150390625,0.001068115234375,-0.067626953125
1761916191075573800,1.92157373046875,-0.988861083984375,0.002166748046875,-0.0671539306640625
1761916191085629700,1.931629638671875,-0.9880523681640625,0.00335693359375,-0.0671539306640625
1761916191095684900,1.941684814453125,-0.9881744384765625,0.0024871826171875,-0.0673370361328125
1761916191105739500,1.951739501953125,-0.988525390625,0.0016021728515625,-0.0678558349609375
1761916191115794700,1.961794677734375,-0.987457275390625,0.0013885498046875,-0.0682220458984375
1761916191125849600,1.971849609375,-0.9871673583984375,0.0026092529296875,-0.0677337646484375
1761916191135905800,1.98190576171875,-0.989410400390625,0.002471923828125,-0.067108154296875
1761916191145960400,1.99196044921875,-0.9886627197265625,0.000885009765625,-0.067840576171875
1761916191156015600,2.002015625,-0.9869537353515625,0.001953125,-0.06695556640625
1761916191166070800,2.01207080078125,-0.987030029296875,0.00262451171875,-0.06781005859375
1761916191176125700,2.022125732421875,-0.98834228515625,0.0020751953125,-0.0670013427734375
1761916191186182000,2.032181884765625,-0.98870849609375,0.00213623046875,-0.0660552978515625
1761916191196236500,2.042236572265625,-0.9874420166015625,0.0018463134765625,-0.0664825439453125
1761916191206291700,2.052291748046875,-0.9858551025390625,0.0020294189453125,-0.067108154296875
1761916191216346600,2.0623466796875,-0.9876251220703125,0.0019378662109375,-0.067718505859375
1761916191226401500,2.072401611328125,-0.9887237548828125,0.002197265625,-0.067047119140625
1761916191236456700,2.082456787109375,-0.9876251220703125,0.0013427734375,-0.06695556640625
1761916191246512600,2.0925126953125,-0.987762451171875,0.0011444091796875,-0.0674896240234375
1761916191256567800,2.10256787109375,-0.988128662109375,0.0008392333984375,-0.0678863525390625
1761916191266622700,2.112622802734375,-0.987640380859375,0.0019073486328125,-0.067352294921875
1761916191276677600,2.122677734375,-0.988372802734375,0.001068115234375,-0.0670623779296875
1761916191286732800,2.13273291015625,-0.987548828125,0.0007476806640625,-0.0669403076171875
1761916191296788700,2.142788818359375,-0.987030029296875,0.0017852783203125,-0.067352294921875
1761916191306843600,2.15284375,-0.9869537353515625,0.002044677734375,-0.0673828125
1761916191316898600,2.162898681640625,-0.987457275390625,0.001434326171875,-0.0670318603515625
1761916191326953700,2.17295361328125,-0.9890289306640625,0.0024566650390625,-0.0665435791015625
1761916191337008600,2.183008544921875,-0.988311767578125,0.0020294189453125,-0.067169189453125
1761916191347064800,2.19306494140625,-0.9882049560546875,0.001251220703125,-0.0665283203125
1761916191357119500,2.203119384765625,-0.9880218505859375,0.00213623046875,-0.067474365234375
1761916191367174700,2.213174560546875,-0.9898681640625,0.0014495849609375,-0.06744384765625
1761916191377229600,2.2232294921875,-0.9890899658203125,0.00146484375,-0.06707763671875
1761916191387284700,2.23328466796875,-0.988189697265625,0.0014801025390625,-0.067352294921875
1761916191397339600,2.243339599609375,-0.9884185791015625,0.0009307861328125,-0.067138671875
1761916191407395600,2.2533955078125,-0.987701416015625,0.001129150390625,-0.0669708251953125
1761916191417450800,2.26345068359375,-0.9888458251953125,0.0019073486328125,-0.0677032470703125
1761916191427505700,2.273505615234375,-0.988739013671875,0.0019073486328125,-0.0672454833984375
1761916191437560600,2.283560546875,-0.9881439208984375,0.000701904296875,-0.0667572021484375
1761916191447615700,2.29361572265625,-0.9888153076171875,0.001708984375,-0.0668182373046875
1761916191457671700,2.303671630859375,-0.987701416015625,0.00390625,-0.066375732421875
1761916191467726600,2.3137265625,-0.987640380859375,0.0028228759765625,-0.067230224609375
1761916191477781800,2.32378173828125,-0.98681640625,0.0023345947265625,-0.066986083984375
1761916191487836700,2.333836669921875,-0.9878082275390625,0.0023040771484375,-0.067169189453125
1761916191497891600,2.3438916015625,-0.9875946044921875,0.001953125,-0.066986083984375
1761916191507947800,2.35394775390625,-0.9884796142578125,0.00164794921875,-0.0672760009765625
1761916191518002700,2.364002685546875,-0.988067626953125,0.0024871826171875,-0.0670166015625
1761916191528057600,2.3740576171875,-0.988494873046875,0.001678466796875,-0.0659637451171875
1761916191538112800,2.38411279296875,-0.9886016845703125,0.00103759765625,-0.0665435791015625
1761916191548167700,2.394167724609375,-0.9878997802734375,0.00091552734375,-0.0673980712890625
1761916191558223600,2.4042236328125,-0.986907958984375,0.0007781982421875,-0.0676727294921875
1761916191568278500,2.414278564453125,-0.9876251220703125,0.0016021728515625,-0.068267822265625
1761916191578333700,2.424333740234375,-0.988128662109375,0.001251220703125,-0.0675506591796875
1761916191588388600,2.434388671875,-0.988616943359375,0.0009765625,-0.0667266845703125
1761916191598443800,2.44444384765625,-0.987457275390625,0.001556396484375,-0.067535400390625
1761916191608499700,2.454499755859375,-0.9869842529296875,0.0013885498046875,-0.06744384765625
1761916191618554600,2.4645546875,-0.9872283935546875,0.0023956298828125,-0.0669708251953125
1761916191628603100,2.47460302734375,-0.9871978759765625,0.0018463134765625,-0.0662384033203125
1761916191638658300,2.484658203125,-0.98834228515625,0.001190185546875,-0.0672607421875
1761916191648713200,2.494713134765625,-0.987945556640625,0.00152587890625,-0.0673675537109375
1761916191658769200,2.50476904296875,-0.9877471923828125,0.0022735595703125,-0.0667877197265625
1761916191668824300,2.51482421875,-0.9882659912109375,0.0015869140625,-0.0676727294921875
1761916191678879200,2.524879150390625,-0.988739013671875,0.0019073486328125,-0.0666046142578125
1761916191688934400,2.534934326171875,-0.98834228515625,0.00201416015625,-0.0666046142578125
1761916191698989000,2.544989013671875,-0.9885711669921875,0.0013885498046875,-0.0675048828125
1761916191709044200,2.555044189453125,-0.98760986328125,0.001983642578125,-0.0668487548828125
1761916191719100200,2.56510009765625,-0.9885406494140625,0.0020904541015625,-0.0664215087890625
1761916191729155300,2.5751552734375,-0.9878387451171875,0.002288818359375,-0.0665283203125
1761916191739210200,2.585210205078125,-0.986785888671875,0.00201416015625,-0.066558837890625
1761916191749265200,2.59526513671875,-0.987640380859375,0.0018157958984375,-0.0666656494140625
1761916191759320300,2.6053203125,-0.988067626953125,0.0016326904296875,-0.0674285888671875
1761916191769376300,2.615376220703125,-0.989288330078125,0.00201416015625,-0.06622314453125
1761916191779431200,2.62543115234375,-0.988616943359375,0.0014801025390625,-0.067413330078125
1761916191789486000,2.635486083984375,-0.9879302978515625,0.0007781982421875,-0.0670623779296875
1761916191799541200,2.645541259765625,-0.9883270263671875,0.00042724609375,-0.06695556640625
1761916191809596400,2.655596435546875,-0.989105224609375,0.0017242431640625,-0.0665130615234375
1761916191819652400,2.66565234375,-0.987579345703125,0.0011138916015625,-0.066925048828125
1761916191829707300,2.675707275390625,-0.9875335693359375,0.0006256103515625,-0.0666351318359375
1761916191839762200,2.68576220703125,-0.987396240234375,0.0004119873046875,-0.0670013427734375
1761916191849817300,2.6958173828125,-0.9886474609375,0.00140380859375,-0.06689453125
1761916191859872000,2.7058720703125,-0.9881134033203125,0.001434326171875,-0.066558837890625
1761916191869928200,2.71592822265625,-0.9870147705078125,0.00213623046875,-0.0671844482421875
1761916191879983000,2.725983154296875,-0.9864501953125,0.002227783203125,-0.0665740966796875
1761916191890038300,2.736038330078125,-0.988677978515625,0.002716064453125,-0.0660400390625
1761916191900093400,2.746093505859375,-0.9893951416015625,0.0019073486328125,-0.0664520263671875
1761916191910148000,2.756148193359375,-0.9888153076171875,0.001251220703125,-0.0675201416015625
1761916191920204300,2.766204345703125,-0.9874725341796875,0.0010833740234375,-0.067169189453125
1761916191930259200,2.77625927734375,-0.98760986328125,0.00286865234375,-0.0672760009765625
1761916191940314400,2.786314453125,-0.9886016845703125,0.00152587890625,-0.066558837890625
1761916191950369000,2.796369140625,-0.9870758056640625,0.0019683837890625,-0.06689453125
1761916191960424200,2.806424072265625,-0.986541748046875,0.0023956298828125,-0.0661773681640625
1761916191970480000,2.816480224609375,-0.9876556396484375,0.0017852783203125,-0.0660400390625
1761916191980535300,2.826535400390625,-0.987945556640625,0.0024261474609375,-0.0674896240234375
1761916191990590200,2.836590087890625,-0.9884185791015625,0.0016326904296875,-0.0670623779296875
1761916192000645000,2.84664501953125,-0.9879150390625,0.001251220703125,-0.06671142578125
1761916192010701000,2.856701171875,-0.987213134765625,0.001800537109375,-0.0672607421875
1761916192020756200,2.866756103515625,-0.9881744384765625,0.001007080078125,-0.066680908203125
1761916192030811400,2.876811279296875,-0.9890899658203125,0.001617431640625,-0.0668182373046875
1761916192040866000,2.886865966796875,-0.9878082275390625,0.0016021728515625,-0.066680908203125
1761916192050921200,2.896921142578125,-0.9866485595703125,0.0013580322265625,-0.0666961669921875
1761916192060977200,2.90697705078125,-0.987335205078125,0.0016326904296875,-0.0671844482421875
1761916192071032300,2.9170322265625,-0.988372802734375,0.0020751953125,-0.067047119140625
1761916192081087200,2.927087158203125,-0.9881439208984375,0.0023345947265625,-0.0666656494140625
1761916192091142100,2.93714208984375,-0.9878082275390625,0.0011444091796875,-0.0666656494140625
1761916192101197300,2.947197265625,-0.9875946044921875,0.0011749267578125,-0.067535400390625
1761916192111253200,2.957253173828125,-0.9873199462890625,0.00079345703125,-0.0673980712890625
1761916192121308400,2.967308349609375,-0.9881744384765625,0.0019989013671875,-0.0671844482421875
1761916192131363000,2.977363037109375,-0.98846435546875,0.00244140625,-0.0665283203125
1761916192141418200,2.987418212890625,-0.98773193359375,0.0008392333984375,-0.066680908203125
1761916192151473400,2.997473388671875,-0.9873046875,0.0011444091796875,-0.066314697265625
1761916192161529300,3.007529296875,-0.9889068603515625,0.000579833984375,-0.0663909912109375
1761916192171584300,3.017584228515625,-0.98773193359375,0.0009765625,-0.067108154296875
1761916192181639200,3.02763916015625,-0.98834228515625,-0.0002288818359375,-0.066802978515625
1761916192191694300,3.0376943359375,-0.9873046875,-0.00048828125,-0.0672149658203125
1761916192201749200,3.047749267578125,-0.9881591796875,0.000701904296875,-0.0680999755859375
1761916192211805200,3.05780517578125,-0.988861083984375,0.000457763671875,-0.06787109375
1761916192221860000,3.067860107421875,-0.987640380859375,0.0026092529296875,-0.0677337646484375
1761916192231915300,3.077915283203125,-0.988037109375,0.0020599365234375,-0.067596435546875
1761916192241970200,3.08797021484375,-0.988800048828125,0.0014801025390625,-0.0671234130859375
1761916192252025000,3.098025146484375,-0.9896392822265625,0.0021514892578125,-0.066741943359375
1761916192262081000,3.1080810546875,-0.9892425537109375,0.002044677734375,-0.067718505859375
1761916192272136200,3.11813623046875,-0.9876708984375,0.0015716552734375,-0.0666961669921875
1761916192282191400,3.12819140625,-0.9875030517578125,0.0022735595703125,-0.06683349609375
1761916192292246000,3.13824609375,-0.989105224609375,0.0011444091796875,-0.0670013427734375
1761916192302301200,3.14830126953125,-0.9879608154296875,0.001953125,-0.0662078857421875
1761916192312357000,3.158357177734375,-0.987762451171875,0.0020751953125,-0.066436767578125
1761916192322412300,3.168412353515625,-0.9883270263671875,0.0021820068359375,-0.067169189453125
1761916192332467200,3.17846728515625,-0.9897308349609375,0.002349853515625,-0.066162109375
1761916192342522000,3.188522216796875,-0.9895782470703125,0.0013275146484375,-0.066680908203125
1761916192352577300,3.198577392578125,-0.9881134033203125,0.0033111572265625,-0.0664520263671875
1761916192362633200,3.20863330078125,-0.9875030517578125,0.00286865234375,-0.0663909912109375
1761916192372688400,3.2186884765625,-0.9876861572265625,0.0024261474609375,-0.066436767578125
1761916192382743000,3.228742919921875,-0.988372802734375,0.0020294189453125,-0.0666656494140625
1761916192392798200,3.238798095703125,-0.9887542724609375,0.0011138916015625,-0.06744384765625
1761916192402853400,3.248853271484375,-0.9887237548828125,0.0018463134765625,-0.0670166015625
1761916192412909300,3.258909423828125,-0.987640380859375,0.0021820068359375,-0.0675048828125
1761916192422964200,3.268964111328125,-0.9888916015625,0.001251220703125,-0.0666961669921875
1761916192433019100,3.27901904296875,-0.9891204833984375,0.002044677734375,-0.0662994384765625
1761916192443074300,3.28907421875,-0.9893951416015625,0.001922607421875,-0.067138671875
1761916192453129200,3.299129150390625,-0.9875946044921875,0.0023651123046875,-0.0677642822265625
1761916192463185400,3.309185302734375,-0.987396240234375,0.0019378662109375,-0.06658935546875
1761916192473240000,3.319239990234375,-0.988800048828125,0.0019073486328125,-0.0657958984375
1761916192483295200,3.329295166015625,-0.9881591796875,0.0003662109375,-0.0660247802734375
1761916192493350100,3.33935009765625,-0.9870452880859375,0.0012359619140625,-0.0673675537109375
1761916192503406300,3.34940625,-0.98828125,0.002349853515625,-0.0675201416015625
1761916192513461000,3.3594609375,-0.9880828857421875,0.0014190673828125,-0.0668487548828125
1761916192523516200,3.36951611328125,-0.98895263671875,0.00201416015625,-0.06597900390625
1761916192533571300,3.3795712890625,-0.9878387451171875,0.0008544921875,-0.0669097900390625
1761916192543626200,3.389626220703125,-0.9881744384765625,0.0021514892578125,-0.067047119140625
1761916192553682400,3.399682373046875,-0.9886474609375,0.002685546875,-0.0666046142578125
1761916192563737000,3.409737060546875,-0.98883056640625,0.0029754638671875,-0.06640625
1761916192573792300,3.419792236328125,-0.9874725341796875,0.002227783203125,-0.0670623779296875
1761916192583847200,3.42984716796875,-0.988372802734375,0.001373291015625,-0.0675506591796875
1761916192593902000,3.439902099609375,-0.9886474609375,0.0020751953125,-0.0666961669921875
1761916192603958000,3.4499580078125,-0.988433837890625,0.0023193359375,-0.066741943359375
1761916192614013200,3.46001318359375,-0.9880828857421875,0.00146484375,-0.0673675537109375
1761916192624068400,3.470068359375,-0.9884033203125,0.0010528564453125,-0.0666351318359375
1761916192634124800,3.480124755859375,-0.9871826171875,0.0019683837890625,-0.06719970703125
1761916192644179700,3.4901796875,-0.9879150390625,0.00177001953125,-0.067047119140625
1761916192654235600,3.500235595703125,-0.98907470703125,0.0012359619140625,-0.0667266845703125
1761916192664290600,3.51029052734375,-0.9876861572265625,0.00103759765625,-0.06695556640625
1761916192674345700,3.520345703125,-0.9883575439453125,0.001373291015625,-0.067718505859375
1761916192684401000,3.53040087890625,-0.9877166748046875,0.000732421875,-0.067291259765625
1761916192694455600,3.54045556640625,-0.987457275390625,0.0013427734375,-0.0672454833984375
1761916192704511700,3.55051171875,-0.986968994140625,0.0004425048828125,-0.06732177734375
1761916192714566700,3.560566650390625,-0.9878997802734375,0.0000457763671875,-0.066986083984375
1761916192724621800,3.570621826171875,-0.988739013671875,0.00152587890625,-0.067474365234375
1761916192734676500,3.580676513671875,-0.98748779296875,0.002349853515625,-0.068267822265625
1761916192744731600,3.590731689453125,-0.98773193359375,0.0012664794921875,-0.06646728515625
1761916192754787600,3.60078759765625,-0.987640380859375,0.001708984375,-0.066741943359375
1761916192764842800,3.6108427734375,-0.988800048828125,0.001922607421875,-0.0666961669921875
1761916192774898000,3.62089794921875,-0.9891204833984375,0.00189208984375,-0.0662841796875
1761916192784952600,3.63095263671875,-0.9875335693359375,0.0012359619140625,-0.0672607421875
1761916192795008800,3.6410087890625,-0.9871368408203125,0.0015869140625,-0.0665740966796875
1761916192805063700,3.651063720703125,-0.9877777099609375,0.00201416015625,-0.0662841796875
1761916192815118800,3.661118896484375,-0.9878387451171875,0.002655029296875,-0.0661163330078125
1761916192825173500,3.671173583984375,-0.9882354736328125,0.002471923828125,-0.0663299560546875
1761916192835228700,3.681228759765625,-0.9878082275390625,0.002532958984375,-0.0669708251953125
1761916192845284600,3.69128466796875,-0.9886016845703125,0.0023345947265625,-0.0668792724609375
1761916192855339800,3.70133984375,-0.9877166748046875,0.0025177001953125,-0.067108154296875
1761916192865394700,3.711394775390625,-0.9877166748046875,0.0031585693359375,-0.0673065185546875
1761916192875449600,3.72144970703125,-0.98760986328125,0.0025787353515625,-0.0669403076171875
1761916192885504800,3.7315048828125,-0.9885101318359375,0.0014495849609375,-0.068023681640625
1761916192895560700,3.741560791015625,-0.988922119140625,0.002105712890625,-0.06707763671875
1761916192905616000,3.751615966796875,-0.987762451171875,0.001953125,-0.0666046142578125
1761916192915670500,3.76167041015625,-0.9872894287109375,0.0019073486328125,-0.06707763671875
1761916192925725700,3.7717255859375,-0.9884796142578125,0.002655029296875,-0.066986083984375
1761916192935780900,3.78178076171875,-0.988555908203125,0.0020904541015625,-0.0670928955078125
1761916192945836800,3.7918369140625,-0.9884796142578125,0.001708984375,-0.0667572021484375
1761916192955891700,3.8018916015625,-0.9887237548828125,0.0005035400390625,-0.067352294921875
1761916192965946600,3.811946533203125,-0.9882965087890625,0.001617431640625,-0.067657470703125
1761916192976001800,3.822001708984375,-0.9887237548828125,0.0016326904296875,-0.0677642822265625
1761916192986056700,3.832056640625,-0.9886322021484375,0.0011749267578125,-0.06787109375
1761916192996113000,3.84211279296875,-0.9877166748046875,0.0015869140625,-0.0666961669921875
1761916193006167600,3.85216748046875,-0.9885406494140625,0.0010528564453125,-0.066558837890625
1761916193016222700,3.86222265625,-0.98870849609375,0.001190185546875,-0.066619873046875
1761916193026278000,3.87227783203125,-0.9887237548828125,0.0008697509765625,-0.066650390625
1761916193036333800,3.882333740234375,-0.9874114990234375,0.0017852783203125,-0.0664520263671875
1761916193046388700,3.892388671875,-0.9880523681640625,0.002471923828125,-0.0672149658203125
1761916193056443600,3.902443603515625,-0.98822021484375,0.00164794921875,-0.0667572021484375
1761916193066498800,3.912498779296875,-0.989410400390625,0.0010223388671875,-0.06719970703125
1761916193076553700,3.9225537109375,-0.9876556396484375,0.00152587890625,-0.0673828125
1761916193086609700,3.932609619140625,-0.9871063232421875,0.002288818359375,-0.067108154296875
1761916193096664600,3.94266455078125,-0.988555908203125,0.002166748046875,-0.06671142578125
1761916193106719700,3.9527197265625,-0.988739013671875,0.0016021728515625,-0.0678863525390625
1761916193116775000,3.96277490234375,-0.987152099609375,0.0009613037109375,-0.066925048828125
1761916193126829600,3.97282958984375,-0.9881744384765625,0.0024261474609375,-0.06695556640625
1761916193136885800,3.9828857421875,-0.9877471923828125,0.0027008056640625,-0.067169189453125
1761916193146940700,3.992940673828125,-0.988250732421875,0.0021514892578125,-0.066986083984375
1761916193156995800,4.002995849609375,-0.9887847900390625,0.001708984375,-0.0672760009765625
1761916193167050500,4.013050537109375,-0.9880828857421875,0.001861572265625,-0.0667266845703125
1761916193177104000,4.023103759765625,-0.987213134765625,0.0018157958984375,-0.0667877197265625
1761916193187158800,4.03315869140625,-0.9884033203125,0.00146484375,-0.066497802734375
1761916193197213700,4.043213623046875,-0.9890594482421875,0.0003509521484375,-0.067291259765625
1761916193207268600,4.0532685546875,-0.98748779296875,0.0014801025390625,-0.068023681640625
1761916193217324800,4.06332470703125,-0.9879913330078125,0.0005340576171875,-0.06732177734375
1761916193227379700,4.073379638671875,-0.989166259765625,0.001251220703125,-0.067138671875
1761916193237434600,4.0834345703125,-0.9877777099609375,0.0002288818359375,-0.0660247802734375
1761916193247489800,4.09348974609375,-0.9880828857421875,0.0009613037109375,-0.0667572021484375
1761916193257544700,4.103544677734375,-0.9896087646484375,0.0005340576171875,-0.0671844482421875
1761916193267601000,4.113600830078125,-0.98828125,0.0012054443359375,-0.0675201416015625
1761916193277655600,4.123655517578125,-0.9873199462890625,0.0018310546875,-0.06683349609375
1761916193287710700,4.133710693359375,-0.987823486328125,0.002197265625,-0.0665130615234375
1761916193297765600,4.143765625,-0.988494873046875,0.0019378662109375,-0.066650390625
1761916193307821800,4.15382177734375,-0.9888153076171875,0.00048828125,-0.0667266845703125
1761916193317876700,4.163876708984375,-0.98907470703125,0.0005035400390625,-0.0666961669921875
1761916193327931600,4.173931640625,-0.9896392822265625,0.0021820068359375,-0.0661773681640625
1761916193337986800,4.18398681640625,-0.9890289306640625,0.0039825439453125,-0.06768798828125
1761916193348041700,4.194041748046875,-0.9864959716796875,-0.000457763671875,-0.0672607421875
1761916193358097700,4.20409765625,-0.9891204833984375,0.0011444091796875,-0.0655975341796875
1761916193368152600,4.214152587890625,-0.989990234375,0.0018768310546875,-0.0670928955078125
1761916193378207700,4.224207763671875,-0.9850006103515625,0.0023193359375,-0.067108154296875
1761916193388262700,4.2342626953125,-0.9881591796875,0.00250244140625,-0.0668182373046875
1761916193398317800,4.24431787109375,-0.991058349609375,0.0005340576171875,-0.0666961669921875
1761916193408373500,4.25437353515625,-0.98760986328125,-0.000274658203125,-0.067169189453125
1761916193418428700,4.2644287109375,-0.986541748046875,0.0007476806640625,-0.06634521484375
1761916193428483800,4.27448388671875,-0.9893951416015625,0.0027923583984375,-0.0668182373046875
1761916193438538800,4.284538818359375,-0.991119384765625,0.00286865234375,-0.06658935546875
1761916193448594700,4.2945947265625,-0.987701416015625,0.0016632080078125,-0.0654296875
1761916193458649600,4.304649658203125,-0.9875030517578125,0.0022430419921875,-0.0657501220703125
1761916193468704800,4.314704833984375,-0.9877166748046875,0.0019683837890625,-0.0666961669921875
1761916193478759700,4.324759765625,-0.987701416015625,0.0030975341796875,-0.06622314453125
1761916193488814600,4.334814697265625,-0.9891357421875,0.0032958984375,-0.0667877197265625
1761916193498870500,4.34487060546875,-0.9878387451171875,0.00128173828125,-0.066131591796875
1761916193508925700,4.35492578125,-0.9886016845703125,0.0011749267578125,-0.065948486328125
1761916193518980900,4.36498095703125,-0.9898834228515625,0.002471923828125,-0.0659637451171875
1761916193529035800,4.375035888671875,-0.98809814453125,0.0009307861328125,-0.067108154296875
1761916193539090700,4.385090576171875,-0.986572265625,0.0014495849609375,-0.06768798828125
1761916193549146600,4.395146728515625,-0.9872283935546875,0.0008392333984375,-0.0669097900390625
1761916193559201800,4.405201904296875,-0.9875335693359375,0.0002899169921875,-0.0659942626953125
1761916193569256700,4.415256591796875,-0.9908294677734375,0.0019989013671875,-0.0654144287109375
1761916193579311600,4.4253115234375,-0.989837646484375,0.0022430419921875,-0.0658721923828125
1761916193589367600,4.435367431640625,-0.984161376953125,0.0013885498046875,-0.0671844482421875
1761916193599422700,4.445422607421875,-0.987152099609375,0.001251220703125,-0.0672607421875
1761916193609477600,4.4554775390625,-0.989837646484375,0.0013885498046875,-0.0666351318359375
1761916193619532800,4.46553271484375,-0.98919677734375,0.0005950927734375,-0.0655059814453125
1761916193629587700,4.475587646484375,-0.9897003173828125,0.0007171630859375,-0.0675201416015625
1761916193639643000,4.485642822265625,-0.98638916015625,0.00091552734375,-0.065948486328125
1761916193649698000,4.495697998046875,-0.988555908203125,0.0013580322265625,-0.0668792724609375
1761916193659753000,4.5057529296875,-0.9903106689453125,0.001434326171875,-0.0655670166015625
1761916193669807900,4.515807861328125,-0.988311767578125,0.0022125244140625,-0.066680908203125
1761916193679863000,4.525863037109375,-0.988616943359375,0.001312255859375,-0.0666046142578125
1761916193689919000,4.5359189453125,-0.98760986328125,0.0010986328125,-0.06695556640625
1761916193699974000,4.545973876953125,-0.9877166748046875,0.0010986328125,-0.0662689208984375
1761916193710029800,4.55602978515625,-0.99041748046875,0.00189208984375,-0.0670623779296875
1761916193720085000,4.5660849609375,-0.9884185791015625,0.001220703125,-0.0671234130859375
1761916193730140000,4.576139892578125,-0.9864044189453125,0.001434326171875,-0.0675048828125
1761916193740196000,4.586196044921875,-0.9878997802734375,0.0003204345703125,-0.06768798828125
1761916193750250800,4.596250732421875,-0.9890594482421875,0.0015106201171875,-0.066314697265625
1761916193760306000,4.606305908203125,-0.9890289306640625,0.0017852783203125,-0.06634521484375
1761916193770360800,4.61636083984375,-0.9886016845703125,0.0018310546875,-0.0664520263671875
1761916193780416000,4.626416015625,-0.988250732421875,0.0016632080078125,-0.066650390625
1761916193790472000,4.636471923828125,-0.9897613525390625,0.000091552734375,-0.06658935546875
1761916193800526800,4.64652685546875,-0.9898529052734375,0.0004730224609375,-0.0660858154296875
1761916193810582000,4.65658203125,-0.986297607421875,0.0009918212890625,-0.066986083984375
1761916193820637000,4.666636962890625,-0.9878082275390625,0.0021514892578125,-0.0665130615234375
1761916193830693000,4.676693115234375,-0.9899139404296875,0.0009307861328125,-0.065155029296875
1761916193840747800,4.686747802734375,-0.9898834228515625,0.001190185546875,-0.0665435791015625
1761916193850803000,4.696802978515625,-0.987823486328125,0.001190185546875,-0.06695556640625
1761916193860857900,4.70685791015625,-0.9873504638671875,0.00140380859375,-0.066650390625
1761916193870913000,4.7169130859375,-0.9868927001953125,0.0021820068359375,-0.06646728515625
1761916193880968700,4.72696875,-0.9889373779296875,0.00238037109375,-0.06634521484375
1761916193891024000,4.73702392578125,-0.989532470703125,0.0024261474609375,-0.0660400390625
1761916193901079000,4.7470791015625,-0.98773193359375,0.0014495849609375,-0.0664825439453125
1761916193911134000,4.757134033203125,-0.9869384765625,0.00140380859375,-0.066131591796875
1761916193921190100,4.767190185546875,-0.988739013671875,0.0016937255859375,-0.0653228759765625
1761916193931244800,4.777244873046875,-0.9891815185546875,0.00079345703125,-0.0667724609375
1761916193941300000,4.787300048828125,-0.98858642578125,0.001495361328125,-0.0667572021484375
1761916193951355000,4.79735498046875,-0.9873046875,0.0023193359375,-0.0671539306640625
1761916193961409800,4.807409912109375,-0.9884490966796875,0.0017852783203125,-0.06573486328125
1761916193971465700,4.8174658203125,-0.9889068603515625,0.0012664794921875,-0.0664520263671875
1761916193981521000,4.82752099609375,-0.9886016845703125,0.002044677734375,-0.06591796875
1761916193991576000,4.837576171875,-0.987579345703125,0.002288818359375,-0.066131591796875
1761916194001631000,4.847630859375,-0.987457275390625,0.00164794921875,-0.066314697265625
1761916194011686000,4.857685791015625,-0.9886322021484375,0.001678466796875,-0.0664825439453125
1761916194021741800,4.867741943359375,-0.9893646240234375,0.0014190673828125,-0.0674591064453125
1761916194031797000,4.877796875,-0.988433837890625,0.0013275146484375,-0.06634521484375
1761916194041852000,4.887851806640625,-0.98760986328125,0.0013427734375,-0.065643310546875
1761916194051906800,4.89790673828125,-0.9878692626953125,0.000213623046875,-0.06634521484375
1761916194061962800,4.907962646484375,-0.9891357421875,0.0003814697265625,-0.06610107421875
1761916194072018000,4.918017822265625,-0.9891815185546875,0.001861572265625,-0.06689453125
1761916194082073000,4.928072998046875,-0.9862518310546875,0.0025634765625,-0.065460205078125
1761916194092127700,4.938127685546875,-0.987640380859375,0.0008544921875,-0.0677337646484375
1761916194102183000,4.948182861328125,-0.9893035888671875,0.0018463134765625,-0.06622314453125
1761916194112238800,4.95823876953125,-0.9885101318359375,0.0003814697265625,-0.0665435791015625
1761916194122294000,4.9682939453125,-0.9868621826171875,0.0007781982421875,-0.0664520263671875
1761916194132349000,4.978348876953125,-0.9867706298828125,0.0021209716796875,-0.0670318603515625
1761916194142403800,4.98840380859375,-0.9889984130859375,0.0001220703125,-0.0667724609375
1761916194152459800,4.998459716796875,-0.9891510009765625,0.000701904296875,-0.0655364990234375
1761916194162515000,5.008514892578125,-0.9886932373046875,0.0000762939453125,-0.065826416015625
1761916194172570000,5.018570068359375,-0.9874267578125,0.000579833984375,-0.066497802734375
1761916194182624800,5.028624755859375,-0.9891357421875,0.0005950927734375,-0.0664825439453125
1761916194192680000,5.038679931640625,-0.989776611328125,0.0011138916015625,-0.0661773681640625
1761916194202735900,5.04873583984375,-0.9887237548828125,0.0014801025390625,-0.0662994384765625
1761916194212791000,5.058791015625,-0.9880828857421875,0.001556396484375,-0.0658416748046875
1761916194222846000,5.068845947265625,-0.9897308349609375,0.0021209716796875,-0.06622314453125
1761916194232900900,5.07890087890625,-0.9893035888671875,0.001312255859375,-0.0659027099609375
1761916194242956000,5.0889560546875,-0.9880523681640625,0.00079345703125,-0.0662841796875
1761916194253012000,5.099011962890625,-0.9876861572265625,0.0009918212890625,-0.06585693359375
1761916194263067000,5.10906689453125,-0.9875946044921875,0.001373291015625,-0.0662078857421875
1761916194273121800,5.119121826171875,-0.9875335693359375,0.0013275146484375,-0.065643310546875
1761916194283177000,5.129177001953125,-0.988922119140625,0.0005340576171875,-0.065521240234375
1761916194293233000,5.13923291015625,-0.9884490966796875,0.0004425048828125,-0.06622314453125
1761916194303288000,5.1492880859375,-0.9886932373046875,0.001434326171875,-0.0662994384765625
1761916194313342700,5.1593427734375,-0.988739013671875,0.0016021728515625,-0.0659332275390625
1761916194323398000,5.16939794921875,-0.98895263671875,0.0003814697265625,-0.0659332275390625
1761916194333453000,5.179453125,-0.988433837890625,0.0006103515625,-0.06597900390625
1761916194343509000,5.189509033203125,-0.987030029296875,0.001678466796875,-0.0668792724609375
1761916194353564000,5.19956396484375,-0.98699951171875,0.001068115234375,-0.0661163330078125
1761916194363618800,5.209618896484375,-0.9885406494140625,0.0012359619140625,-0.065948486328125
1761916194373674000,5.219674072265625,-0.9882965087890625,0.0006561279296875,-0.06549072265625
1761916194383730000,5.22972998046875,-0.9887847900390625,0.0011444091796875,-0.0653228759765625
1761916194393785000,5.23978515625,-0.987945556640625,0.0005950927734375,-0.06622314453125
1761916194403839700,5.24983984375,-0.9874114990234375,0.0016021728515625,-0.06640625
1761916194413895000,5.25989501953125,-0.98797607421875,0.0015716552734375,-0.06573486328125
1761916194423950000,5.2699501953125,-0.989288330078125,0.0007476806640625,-0.0651092529296875
1761916194434006000,5.280006103515625,-0.9886322021484375,0.0011138916015625,-0.0657806396484375
1761916194444061000,5.29006103515625,-0.988494873046875,0.001800537109375,-0.066619873046875
1761916194454115800,5.30011572265625,-0.9882049560546875,0.0016326904296875,-0.066070556640625
1761916194464171000,5.3101708984375,-0.9885711669921875,0.0016326904296875,-0.065582275390625
1761916194474226000,5.320225830078125,-0.9886932373046875,0.00091552734375,-0.065460205078125
1761916194484282000,5.3302822265625,-0.9885101318359375,0.0002899169921875,-0.0654754638671875
1761916194494336800,5.340336669921875,-0.9876556396484375,0.001953125,-0.066314697265625
1761916194504392000,5.350391845703125,-0.9873809814453125,0.001861572265625,-0.06640625
1761916194514446800,5.36044677734375,-0.987640380859375,0.0027008056640625,-0.0655975341796875
1761916194524503000,5.3705029296875,-0.9869842529296875,0.0018310546875,-0.065948486328125
1761916194534557700,5.3805576171875,-0.987274169921875,0.0006561279296875,-0.066070556640625
1761916194544612900,5.39061279296875,-0.9869842529296875,0.0015716552734375,-0.0655517578125
1761916194554668000,5.40066796875,-0.9890289306640625,0.001312255859375,-0.065399169921875
1761916194564723000,5.410722900390625,-0.9878692626953125,0.0012664794921875,-0.06573486328125
1761916194574779100,5.420779052734375,-0.9888458251953125,0.0013580322265625,-0.0655059814453125
1761916194584833800,5.430833740234375,-0.9885406494140625,0.0012969970703125,-0.0657806396484375
1761916194594889000,5.440888916015625,-0.98712158203125,0.000732421875,-0.065887451171875
1761916194604944000,5.45094384765625,-0.9880523681640625,0.00042724609375,-0.0661468505859375
1761916194615000000,5.461,-0.98883056640625,0.00103759765625,-0.0659637451171875
1761916194625054700,5.4710546875,-0.9885406494140625,0.00103759765625,-0.06561279296875
1761916194635109600,5.481109619140625,-0.9885711669921875,0.001617431640625,-0.0660247802734375
1761916194645164800,5.491164794921875,-0.988616943359375,0.00152587890625,-0.0659027099609375
1761916194655219500,5.501219482421875,-0.9865570068359375,0.0020599365234375,-0.0659332275390625
1761916194665275600,5.511275634765625,-0.9877166748046875,0.0008087158203125,-0.0659942626953125
1761916194675330600,5.52133056640625,-0.9879150390625,0.00128173828125,-0.065673828125
1761916194685385700,5.5313857421875,-0.9883880615234375,0.0014801025390625,-0.065765380859375
1761916194695441000,5.54144091796875,-0.988311767578125,0.0009002685546875,-0.0662689208984375
1761916194705496600,5.55149658203125,-0.9880523681640625,0.0009613037109375,-0.0665435791015625
1761916194715551500,5.561551513671875,-0.987884521484375,0.0023040771484375,-0.065826416015625
1761916194725606700,5.571606689453125,-0.989471435546875,0.0013885498046875,-0.0661468505859375
1761916194735661800,5.581661865234375,-0.987548828125,0.0006256103515625,-0.066070556640625
1761916194745716500,5.591716552734375,-0.987823486328125,0.0008544921875,-0.0659027099609375
1761916194755772700,5.601772705078125,-0.988494873046875,0.0008544921875,-0.0670013427734375
1761916194765827600,5.61182763671875,-0.9879302978515625,0.001556396484375,-0.06634521484375
1761916194775882800,5.6218828125,-0.98828125,0.0001678466796875,-0.067108154296875
1761916194785937700,5.631937744140625,-0.987945556640625,0.0009918212890625,-0.0664215087890625
1761916194795993600,5.64199365234375,-0.9875640869140625,0.001007080078125,-0.0661468505859375
1761916194806048500,5.652048583984375,-0.98834228515625,0.0012664794921875,-0.0656890869140625
1761916194816103700,5.662103759765625,-0.98944091796875,0.0003662109375,-0.0666046142578125
1761916194826158800,5.672158935546875,-0.9884185791015625,0.000885009765625,-0.065887451171875
1761916194836213500,5.682213623046875,-0.9871978759765625,0.001220703125,-0.0648193359375
1761916194846269700,5.692269775390625,-0.988250732421875,0.001708984375,-0.065765380859375
1761916194856324600,5.70232470703125,-0.9881591796875,0.0011138916015625,-0.0654296875
1761916194866379800,5.7123798828125,-0.98846435546875,0.0009613037109375,-0.0652923583984375
1761916194876434700,5.7224345703125,-0.9889984130859375,-0.0003662109375,-0.06622314453125
1761916194886489600,5.732489501953125,-0.989166259765625,0.0006256103515625,-0.0660552978515625
1761916194896545500,5.742545654296875,-0.988739013671875,0.001861572265625,-0.0660552978515625
1761916194906600700,5.7526005859375,-0.9874725341796875,0.0024261474609375,-0.0654296875
1761916194916655900,5.76265576171875,-0.9874267578125,0.0009002685546875,-0.0659637451171875
1761916194926710500,5.77271044921875,-0.988311767578125,0.0013885498046875,-0.0660400390625
1761916194936766700,5.7827666015625,-0.9889068603515625,0.001678466796875,-0.0650634765625
1761916194946821600,5.792821533203125,-0.9874267578125,0.00177001953125,-0.065185546875
1761916194956876800,5.802876708984375,-0.987701416015625,0.002197265625,-0.0655975341796875
1761916194966931500,5.812931396484375,-0.9889373779296875,0.00054931640625,-0.0660552978515625
1761916194976986600,5.822986572265625,-0.987701416015625,0.0009307861328125,-0.066192626953125
1761916194987042600,5.83304248046875,-0.9879608154296875,0.000579833984375,-0.065399169921875
1761916194997097700,5.84309765625,-0.9873809814453125,0.001373291015625,-0.0659942626953125
1761916195007152600,5.853152587890625,-0.9886474609375,0.0009918212890625,-0.0659637451171875
1761916195017207600,5.86320751953125,-0.9879913330078125,0.00164794921875,-0.065399169921875
1761916195027263700,5.873263671875,-0.988861083984375,0.001556396484375,-0.0661773681640625
1761916195037318700,5.883318603515625,-0.98876953125,0.0017242431640625,-0.0670166015625
1761916195047373800,5.893373779296875,-0.987518310546875,0.00103759765625,-0.066558837890625
1761916195057428500,5.903428466796875,-0.9888763427734375,0.00115966796875,-0.0657501220703125
1761916195067483600,5.913483642578125,-0.9892730712890625,0.0013885498046875,-0.0655517578125
1761916195077539600,5.92353955078125,-0.9888763427734375,0.0005035400390625,-0.065582275390625
1761916195087594800,5.9335947265625,-0.9864044189453125,0.0009307861328125,-0.065338134765625
1761916195097649700,5.943649658203125,-0.9879302978515625,0.0005645751953125,-0.0663299560546875
1761916195107704600,5.95370458984375,-0.9884490966796875,0.0012969970703125,-0.0656585693359375
1761916195117759700,5.963759765625,-0.9896697998046875,0.0011138916015625,-0.0665283203125
1761916195127815700,5.973815673828125,-0.9889678955078125,0.000335693359375,-0.0660552978515625
1761916195137870600,5.98387060546875,-0.988372802734375,0.0007171630859375,-0.06622314453125
1761916195147925500,5.993925537109375,-0.9883270263671875,0.001861572265625,-0.0664825439453125
1761916195157980700,6.003980712890625,-0.98883056640625,0.001983642578125,-0.0656280517578125
1761916195168036600,6.01403662109375,-0.9880828857421875,0.0007781982421875,-0.0668182373046875
1761916195178091800,6.024091796875,-0.988494873046875,0.0003814697265625,-0.0667877197265625
1761916195188146700,6.034146728515625,-0.987884521484375,0.0001373291015625,-0.066070556640625
1761916195198201600,6.04420166015625,-0.987945556640625,0.0016326904296875,-0.0651092529296875
1761916195208256800,6.0542568359375,-0.9879150390625,0.002166748046875,-0.0655670166015625
1761916195218312700,6.064312744140625,-0.988189697265625,0.0017852783203125,-0.0661773681640625
1761916195228367600,6.07436767578125,-0.98895263671875,0.0016632080078125,-0.0661468505859375
1761916195238422500,6.084422607421875,-0.9884185791015625,0.00079345703125,-0.065338134765625
1761916195248477700,6.094477783203125,-0.9878082275390625,0.0007476806640625,-0.0660247802734375
1761916195258533600,6.10453369140625,-0.988128662109375,0.0014190673828125,-0.066070556640625
1761916195268588800,6.1145888671875,-0.987548828125,0.0018768310546875,-0.066619873046875
1761916195278643700,6.124643798828125,-0.9874267578125,0.00152587890625,-0.06640625
1761916195288698600,6.13469873046875,-0.98785400390625,0.0002899169921875,-0.0659942626953125
1761916195298753800,6.14475390625,-0.9881744384765625,0.0009765625,-0.065399169921875
1761916195308809700,6.154809814453125,-0.9884185791015625,0.00067138671875,-0.0658721923828125
1761916195318864600,6.16486474609375,-0.98797607421875,0.0006103515625,-0.06756591796875
1761916195328919600,6.17491943359375,-0.9878692626953125,0.001800537109375,-0.0662384033203125
1761916195338974700,6.184974609375,-0.9867706298828125,0.0014190673828125,-0.0662841796875
1761916195349030700,6.19503076171875,-0.988800048828125,0.0005035400390625,-0.066497802734375
1761916195359085600,6.20508544921875,-0.9883270263671875,0.0009307861328125,-0.0672607421875
1761916195369140700,6.215140625,-0.987579345703125,0.001495361328125,-0.066375732421875
1761916195379195600,6.225195556640625,-0.9882965087890625,0.0010528564453125,-0.065582275390625
1761916195389250800,6.235250732421875,-0.9882049560546875,0.000946044921875,-0.0655364990234375
1761916195399306800,6.245306640625,-0.988311767578125,0.0008544921875,-0.065582275390625
1761916195409361700,6.255361572265625,-0.9883880615234375,0.000701904296875,-0.0657806396484375
1761916195419416600,6.26541650390625,-0.98797607421875,0.0004730224609375,-0.0664215087890625
1761916195429471700,6.2754716796875,-0.9880218505859375,0.001129150390625,-0.0666351318359375
1761916195439527700,6.285527587890625,-0.9881744384765625,0.001129150390625,-0.0658721923828125
1761916195449582600,6.29558251953125,-0.986968994140625,0.001800537109375,-0.06524658203125
1761916195459637800,6.3056376953125,-0.988006591796875,0.001678466796875,-0.0661773681640625
1761916195469692700,6.315692626953125,-0.9875335693359375,0.0008087158203125,-0.065826416015625
1761916195479747800,6.325747802734375,-0.98724365234375,0.0009307861328125,-0.0653228759765625
1761916195489803500,6.335803466796875,-0.988433837890625,0.0003204345703125,-0.0658111572265625
1761916195499858700,6.345858642578125,-0.9886474609375,0.0006866455078125,-0.0653533935546875
1761916195509913600,6.35591357421875,-0.98785400390625,0.0016021728515625,-0.06573486328125
1761916195519968800,6.36596875,-0.9881134033203125,0.00164794921875,-0.0654144287109375
1761916195530024700,6.376024658203125,-0.9874725341796875,0.00091552734375,-0.0660400390625
1761916195540079600,6.38607958984375,-0.9874114990234375,0.0011138916015625,-0.0668182373046875
1761916195550134800,6.396134765625,-0.9893341064453125,0.0011444091796875,-0.0662689208984375
1761916195560189700,6.406189697265625,-0.988677978515625,0.0006256103515625,-0.0656585693359375
1761916195570244600,6.41624462890625,-0.9888916015625,0.001190185546875,-0.0662841796875
1761916195580300500,6.426300537109375,-0.988525390625,0.00140380859375,-0.065948486328125
1761916195590355700,6.436355712890625,-0.98736572265625,0.0017547607421875,-0.06658935546875
1761916195600410600,6.44641064453125,-0.988494873046875,0.00054931640625,-0.0667266845703125
1761916195610465800,6.4564658203125,-0.9880218505859375,0.001312255859375,-0.0662078857421875
1761916195620521700,6.466521728515625,-0.9871826171875,0.0017852783203125,-0.0655059814453125
1761916195630576600,6.47657666015625,-0.988525390625,0.001129150390625,-0.06573486328125
1761916195640631800,6.4866318359375,-0.9896240234375,0.0009918212890625,-0.066375732421875
1761916195650687000,6.49668701171875,-0.9892425537109375,0.001495361328125,-0.0657958984375
1761916195660742000,6.506741943359375,-0.988006591796875,0.0020751953125,-0.0661468505859375
1761916195670797800,6.5167978515625,-0.986572265625,0.0007781982421875,-0.0656890869140625
1761916195680853000,6.52685302734375,-0.9863433837890625,0.0008697509765625,-0.0663299560546875
1761916195690908000,6.536907958984375,-0.9890289306640625,0.001983642578125,-0.0658416748046875
1761916195700963000,6.546963134765625,-0.9888916015625,0.0019378662109375,-0.06634521484375
1761916195711018800,6.557018798828125,-0.9881744384765625,0.0001068115234375,-0.0658721923828125
1761916195721074000,6.567073974609375,-0.987396240234375,0.0012359619140625,-0.06640625
1761916195731128800,6.57712890625,-0.987945556640625,0.00054931640625,-0.0653533935546875
1761916195741184000,6.58718408203125,-0.98876953125,0.0015716552734375,-0.06561279296875
1761916195751239000,6.597239013671875,-0.9883270263671875,0.0019073486328125,-0.0653533935546875
1761916195761294800,6.607294921875,-0.9874114990234375,0.00042724609375,-0.0662994384765625
1761916195771350000,6.61735009765625,-0.987701416015625,0.001373291015625,-0.0655517578125
1761916195781405000,6.627405029296875,-0.9886627197265625,0.0015106201171875,-0.065643310546875
1761916195791459800,6.6374599609375,-0.988616943359375,0.0016326904296875,-0.065460205078125
1761916195801515800,6.647515869140625,-0.9887847900390625,0.001190185546875,-0.0659332275390625
1761916195811571000,6.657571044921875,-0.98834228515625,0.001861572265625,-0.0662689208984375
1761916195821625900,6.6676259765625,-0.98760986328125,0.0016326904296875,-0.065887451171875
1761916195831681000,6.677680908203125,-0.987884521484375,0.0012664794921875,-0.065582275390625
1761916195841737000,6.687737060546875,-0.98785400390625,0.001312255859375,-0.06683349609375
1761916195851792000,6.6977919921875,-0.98809814453125,0.00115966796875,-0.06689453125
1761916195861847000,6.707846923828125,-0.9879150390625,0.00128173828125,-0.0662841796875
1761916195871902000,6.71790185546875,-0.9891204833984375,0.0004730224609375,-0.06622314453125
1761916195881956900,6.727956787109375,-0.988128662109375,0.0010528564453125,-0.06591796875
1761916195892012800,6.7380126953125,-0.9871673583984375,0.0011444091796875,-0.066650390625
1761916195902068000,6.74806787109375,-0.9877471923828125,0.000579833984375,-0.0671539306640625
1761916195912123000,6.758122802734375,-0.9885101318359375,0.0013427734375,-0.0660400390625
1761916195922178000,6.768177978515625,-0.9885101318359375,0.00103759765625,-0.0669403076171875
1761916195932233700,6.778233642578125,-0.9877777099609375,0.0003814697265625,-0.0658721923828125
1761916195942289000,6.788288818359375,-0.9886932373046875,0.0003814697265625,-0.06622314453125
1761916195952344000,6.798343994140625,-0.98883056640625,0.0009307861328125,-0.066497802734375
1761916195962399000,6.80839892578125,-0.987579345703125,0.0013275146484375,-0.0662841796875
1761916195972454000,6.818453857421875,-0.9886627197265625,0.00054931640625,-0.0667266845703125
1761916195982509800,6.828509765625,-0.9886322021484375,0.0006561279296875,-0.06585693359375
1761916195992565000,6.83856494140625,-0.9880828857421875,0.0010833740234375,-0.0666656494140625
1761916196002620000,6.848619873046875,-0.9883575439453125,0.0010528564453125,-0.0659637451171875
1761916196012674800,6.8586748046875,-0.9884185791015625,0.0007171630859375,-0.0654144287109375
1761916196022730800,6.868730712890625,-0.9886627197265625,0.0009613037109375,-0.0649871826171875
1761916196032786000,6.878785888671875,-0.9886627197265625,0.0015869140625,-0.0661773681640625
1761916196042840800,6.8888408203125,-0.9880218505859375,0.001434326171875,-0.0650787353515625
1761916196052896000,6.89889599609375,-0.9885101318359375,0.0013427734375,-0.0656890869140625
1761916196062951000,6.908950927734375,-0.989013671875,0.0015106201171875,-0.065460205078125
1761916196073006800,6.9190068359375,-0.9866943359375,0.001007080078125,-0.065582275390625
1761916196083062000,6.92906201171875,-0.9878082275390625,0.0008392333984375,-0.0664825439453125
1761916196093117000,6.939116943359375,-0.9878692626953125,0.00140380859375,-0.0662841796875
1761916196103171800,6.949171875,-0.9883880615234375,0.001953125,-0.0663604736328125
1761916196113227800,6.959227783203125,-0.9879913330078125,0.002166748046875,-0.0668487548828125
1761916196123283000,6.969282958984375,-0.9884490966796875,0.001953125,-0.0667572021484375
1761916196133337900,6.979337890625,-0.9879150390625,0.001617431640625,-0.0657958984375
1761916196143392800,6.989392822265625,-0.9894256591796875,0.002105712890625,-0.06671142578125
1761916196153448700,6.99944873046875,-0.9888763427734375,0.00201416015625,-0.06561279296875
1761916196163503900,7.00950390625,-0.987762451171875,0.00091552734375,-0.0659332275390625
1761916196173559000,7.01955908203125,-0.9880523681640625,0.000274658203125,-0.066375732421875
1761916196183614000,7.029614013671875,-0.987884521484375,0.00079345703125,-0.0652923583984375
1761916196193668900,7.0396689453125,-0.9880523681640625,0.001434326171875,-0.0657958984375
1761916196203724800,7.049724853515625,-0.98968505859375,0.0007171630859375,-0.066070556640625
1761916196213780000,7.059780029296875,-0.989410400390625,0.0010223388671875,-0.066497802734375
1761916196223835000,7.0698349609375,-0.9873046875,0.0008392333984375,-0.066802978515625
1761916196233889800,7.079889892578125,-0.986846923828125,0.0005340576171875,-0.0661773681640625
1761916196243945700,7.08994580078125,-0.9878997802734375,0.0017242431640625,-0.06549072265625
1761916196254001000,7.1000009765625,-0.98779296875,0.00128173828125,-0.065338134765625
1761916196264056000,7.11005615234375,-0.98785400390625,-0.000213623046875,-0.0655670166015625
1761916196274111000,7.120111083984375,-0.987701416015625,0.001007080078125,-0.0655364990234375
1761916196284166000,7.130165771484375,-0.9893341064453125,0.0006561279296875,-0.06561279296875
1761916196294221800,7.140221923828125,-0.9893035888671875,0.0009307861328125,-0.0661773681640625
1761916196304277000,7.150277099609375,-0.986846923828125,0.000396728515625,-0.06573486328125
1761916196314332000,7.160331787109375,-0.9871826171875,0.0008544921875,-0.0669097900390625
1761916196324386800,7.17038671875,-0.9884185791015625,0.00115966796875,-0.0664520263671875
1761916196334442800,7.18044287109375,-0.9881744384765625,0.001373291015625,-0.06591796875
1761916196344498000,7.190497802734375,-0.988677978515625,0.00115966796875,-0.0670318603515625
1761916196354553000,7.200552978515625,-0.986907958984375,0.00054931640625,-0.065765380859375
1761916196364607700,7.210607666015625,-0.98870849609375,0.0006561279296875,-0.0655975341796875
1761916196374664000,7.220663818359375,-0.9886016845703125,0.001129150390625,-0.0659942626953125
1761916196384718800,7.23071875,-0.9887847900390625,0.0014495849609375,-0.0658416748046875
1761916196394774000,7.24077392578125,-0.9877777099609375,0.001556396484375,-0.0656585693359375
1761916196404829000,7.250828857421875,-0.98809814453125,0.000823974609375,-0.06591796875
1761916196414883800,7.2608837890625,-0.9877777099609375,0.00115966796875,-0.065338134765625
1761916196424939800,7.270939697265625,-0.9879150390625,0.001495361328125,-0.0656280517578125
1761916196434995000,7.280994873046875,-0.9878997802734375,0.0005950927734375,-0.0662994384765625
1761916196445050000,7.291050048828125,-0.9891510009765625,0.0011138916015625,-0.0664825439453125
1761916196455104800,7.301104736328125,-0.9877777099609375,0.001220703125,-0.06573486328125
1761916196465161000,7.311160888671875,-0.9874267578125,0.0006256103515625,-0.06524658203125
1761916196475216000,7.3212158203125,-0.9891815185546875,0.0010528564453125,-0.0662384033203125
1761916196485271000,7.33127099609375,-0.9884490966796875,0.000335693359375,-0.066497802734375
1761916196495325700,7.34132568359375,-0.988311767578125,0.0010986328125,-0.0668182373046875
1761916196505380900,7.351380859375,-0.9881591796875,0.0013427734375,-0.0666961669921875
1761916196515436800,7.361436767578125,-0.988616943359375,0.0008087158203125,-0.0660552978515625
1761916196525492000,7.371491943359375,-0.9882049560546875,0.002166748046875,-0.0658721923828125
1761916196535547100,7.381547119140625,-0.988739013671875,0.000823974609375,-0.0655364990234375
1761916196545601800,7.391601806640625,-0.9884185791015625,0.0021209716796875,-0.0658721923828125
1761916196555658000,7.401657958984375,-0.987640380859375,0.0017547607421875,-0.0658416748046875
1761916196565713000,7.411712890625,-0.9888916015625,0.001068115234375,-0.0654144287109375
1761916196575768000,7.42176806640625,-0.989288330078125,0.001190185546875,-0.064910888671875
1761916196585822700,7.43182275390625,-0.988311767578125,0.0018310546875,-0.0661773681640625
1761916196595879000,7.44187890625,-0.9872589111328125,0.001708984375,-0.0666656494140625
1761916196605933800,7.451933837890625,-0.987701416015625,0.0010528564453125,-0.0660858154296875
1761916196615989000,7.461989013671875,-0.9871826171875,0.0020904541015625,-0.066192626953125
1761916196626044200,7.472044189453125,-0.9879302978515625,0.001220703125,-0.0654296875
1761916196636099000,7.48209912109375,-0.9876708984375,0.002471923828125,-0.0652618408203125
1761916196646155000,7.492155029296875,-0.98828125,0.0025482177734375,-0.065399169921875
1761916196656210200,7.502210205078125,-0.988311767578125,0.0019989013671875,-0.0657958984375
1761916196666265300,7.512265380859375,-0.98760986328125,0.0015106201171875,-0.0658416748046875
1761916196676320000,7.522320068359375,-0.98687744140625,0.0015716552734375,-0.06622314453125
1761916196686376200,7.532376220703125,-0.9864501953125,0.0010986328125,-0.0662384033203125
1761916196696431000,7.54243115234375,-0.987030029296875,0.001068115234375,-0.0661773681640625
1761916196706486300,7.552486328125,-0.98736572265625,0.001373291015625,-0.065826416015625
1761916196716541000,7.562541015625,-0.986724853515625,0.000579833984375,-0.065826416015625
1761916196726597000,7.57259716796875,-0.986907958984375,0.0011444091796875,-0.066162109375
1761916196736652000,7.582652099609375,-0.9867706298828125,0.0014495849609375,-0.0665130615234375
1761916196746707200,7.592707275390625,-0.9873809814453125,0.0001983642578125,-0.06585693359375
1761916196756762400,7.602762451171875,-0.9885711669921875,0.000823974609375,-0.0660858154296875
1761916196766817000,7.612817138671875,-0.98828125,0.0010986328125,-0.0664520263671875
1761916196776873200,7.622873291015625,-0.9869842529296875,0.001129150390625,-0.0652923583984375
1761916196786928000,7.63292822265625,-0.9878692626953125,0.002105712890625,-0.0652618408203125
1761916196796983300,7.6429833984375,-0.98822021484375,0.00091552734375,-0.0653533935546875
1761916196807038000,7.653037841796875,-0.987274169921875,0.001007080078125,-0.0657196044921875
1761916196817094100,7.66309423828125,-0.987213134765625,0.002227783203125,-0.066009521484375
1761916196827149000,7.673149169921875,-0.98760986328125,0.001312255859375,-0.0661163330078125
1761916196837204200,7.683204345703125,-0.9877471923828125,0.001251220703125,-0.0653533935546875
1761916196847259400,7.69325927734375,-0.98785400390625,0.001251220703125,-0.06573486328125
1761916196857315000,7.703315185546875,-0.9874114990234375,0.00079345703125,-0.066070556640625
1761916196867370200,7.713370361328125,-0.9874267578125,0.000396728515625,-0.0661468505859375
1761916196877425200,7.723425048828125,-0.9888458251953125,0.001190185546875,-0.066436767578125
1761916196887480300,7.733480224609375,-0.9892730712890625,0.0012054443359375,-0.0657501220703125
1761916196897536300,7.743536376953125,-0.98785400390625,0.0018768310546875,-0.0657958984375
1761916196907591200,7.753591064453125,-0.986541748046875,0.001739501953125,-0.0667724609375
1761916196917646000,7.76364599609375,-0.9877471923828125,0.0012054443359375,-0.0658111572265625
1761916196927701200,7.773701171875,-0.98846435546875,0.0010833740234375,-0.0665130615234375
1761916196937757200,7.783757080078125,-0.9874114990234375,0.001251220703125,-0.065765380859375
1761916196947812000,7.79381201171875,-0.9872589111328125,0.0014801025390625,-0.066009521484375
1761916196957867300,7.8038671875,-0.9878082275390625,0.00189208984375,-0.0662994384765625
1761916196967922200,7.813922119140625,-0.98785400390625,0.0019378662109375,-0.0649566650390625
1761916196977978000,7.82397802734375,-0.9879913330078125,0.0015869140625,-0.0665283203125
1761916196988033000,7.834032958984375,-0.98779296875,0.0016021728515625,-0.0669708251953125
1761916196998088200,7.844088134765625,-0.9866790771484375,0.001434326171875,-0.0661163330078125
1761916197008143000,7.85414306640625,-0.9870452880859375,0.0011138916015625,-0.066162109375
1761916197018198300,7.8641982421875,-0.9874725341796875,0.0005950927734375,-0.065643310546875
1761916197028254200,7.874254150390625,-0.9886474609375,0.00048828125,-0.0657196044921875
1761916197038309000,7.88430908203125,-0.9879913330078125,0.0008544921875,-0.0663604736328125
1761916197048364300,7.8943642578125,-0.9870147705078125,0.0009765625,-0.0659332275390625
1761916197058419200,7.904419189453125,-0.987548828125,0.0006103515625,-0.06549072265625
1761916197068475100,7.91447509765625,-0.988525390625,0.0009613037109375,-0.066009521484375
1761916197078530000,7.924530029296875,-0.9878387451171875,0.0017547607421875,-0.066375732421875
1761916197088585200,7.934585205078125,-0.987091064453125,0.001129150390625,-0.0665435791015625
1761916197098640100,7.94464013671875,-0.9878692626953125,0.0006256103515625,-0.0653839111328125
1761916197108696300,7.9546962890625,-0.9881134033203125,0.0006256103515625,-0.066314697265625
1761916197118751000,7.9647509765625,-0.9878997802734375,0.001678466796875,-0.0663299560546875
1761916197128806100,7.97480615234375,-0.987091064453125,0.0017852783203125,-0.0663604736328125
1761916197138861000,7.984861083984375,-0.986602783203125,0.0014495849609375,-0.066009521484375
1761916197148917200,7.994917236328125,-0.987945556640625,0.00054931640625,-0.0653533935546875
1761916197158972200,8.00497216796875,-0.9879150390625,0.0013885498046875,-0.066925048828125
1761916197169027000,8.015027099609375,-0.987945556640625,0.0018310546875,-0.0654754638671875
1761916197179081200,8.025081298828125,-0.988861083984375,0.0012054443359375,-0.0659942626953125
1761916197189137200,8.03513720703125,-0.989013671875,0.001068115234375,-0.065826416015625
1761916197199192300,8.0451923828125,-0.9881439208984375,0.0011749267578125,-0.066131591796875
1761916197209247200,8.055247314453124,-0.9878387451171875,0.0015716552734375,-0.0653533935546875
1761916197219302100,8.06530224609375,-0.9884185791015625,0.00152587890625,-0.0665740966796875
1761916197229358000,8.075358154296875,-0.988006591796875,0.0013885498046875,-0.0666046142578125
1761916197239413200,8.085413330078126,-0.9880523681640625,0.000335693359375,-0.0651092529296875
1761916197249468200,8.09546826171875,-0.9890289306640625,0.000823974609375,-0.065582275390625
1761916197259523000,8.105523193359375,-0.987762451171875,0.0010528564453125,-0.0660552978515625
1761916197269579300,8.115579345703125,-0.989227294921875,0.0013427734375,-0.06622314453125
1761916197279634200,8.12563427734375,-0.9880218505859375,0.000762939453125,-0.0668182373046875
1761916197289689000,8.135689208984376,-0.9883270263671875,0.0010986328125,-0.065155029296875
1761916197299744300,8.145744140625,-0.9890899658203125,0.001708984375,-0.0651092529296875
1761916197309800200,8.15580029296875,-0.987091064453125,0.0006561279296875,-0.0663909912109375
1761916197319855000,8.165855224609375,-0.988525390625,0.001007080078125,-0.0660858154296875
1761916197329910300,8.17591015625,-0.9883880615234375,0.0013580322265625,-0.06640625
1761916197339965200,8.185965087890626,-0.9882965087890625,0.001068115234375,-0.06622314453125
1761916197350021000,8.196021240234375,-0.987823486328125,0.001190185546875,-0.066009521484375
1761916197360076300,8.206076171875,-0.9886627197265625,0.001068115234375,-0.0662689208984375
1761916197370131200,8.216131103515625,-0.98822021484375,0.0009765625,-0.06561279296875
1761916197380186000,8.22618603515625,-0.9879302978515625,0.000274658203125,-0.06573486328125
1761916197390242000,8.236241943359374,-0.9886627197265625,0.00103759765625,-0.066314697265625
1761916197400297200,8.246297119140625,-0.98834228515625,0.0014495849609375,-0.0666046142578125
1761916197410352000,8.25635205078125,-0.989044189453125,-0.000030517578125,-0.0658721923828125
1761916197420407000,8.266406982421875,-0.98834228515625,0.000885009765625,-0.0662841796875
1761916197430463000,8.276462890625,-0.988250732421875,0.0009918212890625,-0.0657806396484375
1761916197440518100,8.28651806640625,-0.98779296875,0.0014495849609375,-0.06640625
1761916197450573300,8.2965732421875,-0.988189697265625,0.0009002685546875,-0.0664825439453125
1761916197460628200,8.306628173828125,-0.9878387451171875,0.0013885498046875,-0.0655670166015625
1761916197470684200,8.31668408203125,-0.98828125,0.0017547607421875,-0.0658111572265625
1761916197480739000,8.326739013671874,-0.98724365234375,0.00079345703125,-0.0659637451171875
1761916197490794200,8.336794189453125,-0.9872894287109375,0.001556396484375,-0.066192626953125
1761916197500849200,8.34684912109375,-0.9879608154296875,0.0017242431640625,-0.06591796875
1761916197510905300,8.3569052734375,-0.9886322021484375,0.001251220703125,-0.06634521484375
1761916197520960000,8.3669599609375,-0.987701416015625,0.0021209716796875,-0.0666961669921875
1761916197531015200,8.37701513671875,-0.9869384765625,0.0010833740234375,-0.0664215087890625
1761916197541070300,8.3870703125,-0.989227294921875,0.0009918212890625,-0.066497802734375
1761916197551126300,8.397126220703125,-0.988616943359375,0.0007171630859375,-0.0659332275390625
1761916197561181200,8.40718115234375,-0.987579345703125,0.0012054443359375,-0.0657196044921875
1761916197571236000,8.417236083984376,-0.9878997802734375,0.0002899169921875,-0.066986083984375
1761916197581291300,8.427291259765624,-0.98846435546875,0.0006103515625,-0.066864013671875
1761916197591347200,8.43734716796875,-0.988922119140625,0.0004730224609375,-0.066864013671875
1761916197601402400,8.44740234375,-0.9890899658203125,0.000732421875,-0.066497802734375
1761916197611457000,8.45745703125,-0.9885101318359375,0.00067138671875,-0.066650390625
1761916197621512200,8.46751220703125,-0.988006591796875,0.0015106201171875,-0.06591796875
1761916197631568100,8.477568115234375,-0.9889068603515625,0.0012969970703125,-0.06536865234375
1761916197641622500,8.48762255859375,-0.988922119140625,0.0015716552734375,-0.06561279296875
1761916197651677700,8.497677734375,-0.9877166748046875,0.0015106201171875,-0.0656585693359375
1761916197661732400,8.507732421875,-0.9888153076171875,0.0012664794921875,-0.066436767578125
1761916197671788500,8.51778857421875,-0.98876953125,0.0017547607421875,-0.0658721923828125
1761916197681843500,8.527843505859375,-0.988128662109375,0.0020599365234375,-0.06646728515625
1761916197691898600,8.537898681640625,-0.987457275390625,0.0010223388671875,-0.0669708251953125
1761916197701953500,8.54795361328125,-0.9886627197265625,0.00079345703125,-0.0664825439453125
1761916197712009500,8.558009521484376,-0.9887542724609375,0.00152587890625,-0.0666351318359375
1761916197722064400,8.568064453125,-0.9876708984375,0.0020904541015625,-0.0662994384765625
1761916197732119600,8.57811962890625,-0.9874420166015625,0.0010833740234375,-0.0649261474609375
1761916197742174700,8.5881748046875,-0.987396240234375,0.0008544921875,-0.066741943359375
1761916197752229400,8.5982294921875,-0.9877166748046875,0.001617431640625,-0.0661163330078125
1761916197762285600,8.60828564453125,-0.989105224609375,0.002410888671875,-0.0658416748046875
1761916197772340500,8.618340576171875,-0.9881439208984375,0.00164794921875,-0.06658935546875
1761916197782395600,8.628395751953125,-0.9879302978515625,0.00146484375,-0.0662841796875
1761916197792450300,8.6384501953125,-0.9883575439453125,0.001495361328125,-0.066009521484375
1761916197802506500,8.648506591796876,-0.987548828125,0.0018768310546875,-0.0653839111328125
1761916197812561400,8.6585615234375,-0.987701416015625,0.0015106201171875,-0.0654296875
1761916197822616600,8.668616455078125,-0.987579345703125,0.0011444091796875,-0.0661163330078125
1761916197832671700,8.678671630859375,-0.9882659912109375,0.0012664794921875,-0.06610107421875
1761916197842727700,8.688727783203126,-0.9881744384765625,0.0011138916015625,-0.0655364990234375
1761916197852782600,8.698782470703126,-0.988128662109375,0.000091552734375,-0.0657196044921875
1761916197862837500,8.70883740234375,-0.9884033203125,0.0000152587890625,-0.0664215087890625
1761916197872892700,8.718892578125,-0.9889068603515625,0.0005645751953125,-0.0663909912109375
1761916197882948600,8.728948486328125,-0.9884185791015625,0.0015106201171875,-0.0655059814453125
1761916197893003500,8.73900341796875,-0.9877471923828125,0.001068115234375,-0.06640625
1761916197903058400,8.749058349609374,-0.9882965087890625,0.001129150390625,-0.0662689208984375
1761916197913113600,8.759113525390624,-0.9880523681640625,0.000823974609375,-0.0655059814453125
1761916197923169500,8.76916943359375,-0.9878387451171875,0.0016021728515625,-0.065338134765625
1761916197933224400,8.779224365234375,-0.987945556640625,0.00091552734375,-0.0663299560546875
1761916197943279600,8.789279541015626,-0.988372802734375,0.0014801025390625,-0.0659332275390625
1761916197953334500,8.79933447265625,-0.9869537353515625,0.0008087158203125,-0.066558837890625
1761916197963390500,8.809390380859375,-0.9888153076171875,0.001190185546875,-0.06610107421875
1761916197973445600,8.819445556640625,-0.9878387451171875,0.0022430419921875,-0.067108154296875
1761916197983500500,8.82950048828125,-0.9881439208984375,0.00201416015625,-0.0663909912109375
1761916197993555500,8.839555419921876,-0.9882354736328125,0.00067138671875,-0.06524658203125
1761916198003611600,8.849611572265625,-0.9887237548828125,0.001373291015625,-0.066253662109375
1761916198013666600,8.85966650390625,-0.988037109375,0.00177001953125,-0.0659637451171875
1761916198023721500,8.869721435546875,-0.988983154296875,0.0012664794921875,-0.065765380859375
1761916198033776600,8.879776611328126,-0.9894561767578125,0.000396728515625,-0.0666961669921875
1761916198043832600,8.88983251953125,-0.9882659912109375,0.001129150390625,-0.06695556640625
1761916198053887500,8.899887451171875,-0.9879608154296875,0.00128173828125,-0.066680908203125
1761916198063942400,8.9099423828125,-0.9871368408203125,0.0016021728515625,-0.06658935546875
1761916198073997600,8.91999755859375,-0.9888458251953125,0.0016937255859375,-0.065399169921875
1761916198084053500,8.930053466796876,-0.988067626953125,0.0000457763671875,-0.066192626953125
1761916198094108700,8.940108642578124,-0.988311767578125,0.0000762939453125,-0.0659027099609375
1761916198104163600,8.95016357421875,-0.9884185791015625,0.0009002685546875,-0.0662689208984375
1761916198114218500,8.960218505859375,-0.98980712890625,0.00030517578125,-0.0671234130859375
1761916198124274400,8.9702744140625,-0.9877166748046875,0.000335693359375,-0.0675811767578125
1761916198134329600,8.98032958984375,-0.98785400390625,0.000518798828125,-0.0670318603515625
1761916198144384500,8.990384521484375,-0.9881744384765625,0.0003814697265625,-0.0669403076171875
1761916198154439400,9.000439453125,-0.9880523681640625,0.0016021728515625,-0.0662689208984375
1761916198164495400,9.010495361328125,-0.9874725341796875,0.0009918212890625,-0.06622314453125
1761916198174550500,9.020550537109376,-0.9876861572265625,0.000396728515625,-0.0664825439453125
1761916198184605700,9.030605712890624,-0.9889068603515625,0.000152587890625,-0.06622314453125
1761916198194660400,9.040660400390625,-0.9875946044921875,0.001708984375,-0.06561279296875
1761916198204716500,9.050716552734375,-0.9871368408203125,0.0012969970703125,-0.065765380859375
1761916198214771500,9.060771484375,-0.9884796142578125,0.0010986328125,-0.065948486328125
1761916198224826600,9.07082666015625,-0.988433837890625,0.0010223388671875,-0.066436767578125
1761916198234881500,9.080881591796874,-0.98956298828125,0.00238037109375,-0.0664825439453125
1761916198244937700,9.090937744140625,-0.98876953125,0.0019989013671875,-0.0664520263671875
1761916198254992400,9.100992431640625,-0.988250732421875,0.001220703125,-0.06591796875
1761916198265047600,9.111047607421876,-0.9885406494140625,0.0006561279296875,-0.0658721923828125
1761916198275102700,9.121102783203124,-0.9878082275390625,0.0010986328125,-0.0655975341796875
1761916198285158700,9.13115869140625,-0.9880828857421875,0.0022430419921875,-0.0659332275390625
1761916198295213600,9.141213623046875,-0.98822021484375,0.0021209716796875,-0.0662384033203125
1761916198305268500,9.1512685546875,-0.989288330078125,0.001800537109375,-0.06597900390625
1761916198315323600,9.16132373046875,-0.98785400390625,0.001739501953125,-0.0656280517578125
1761916198325379600,9.171379638671874,-0.9879608154296875,0.000885009765625,-0.06622314453125
1761916198335434500,9.1814345703125,-0.9877166748046875,0.0014190673828125,-0.0661163330078125
1761916198345489400,9.191489501953125,-0.988067626953125,0.0012359619140625,-0.065826416015625
1761916198355544600,9.201544677734375,-0.988525390625,0.0012359619140625,-0.06658935546875
1761916198365600500,9.2116005859375,-0.9882659912109375,0.001251220703125,-0.06689453125
1761916198375655700,9.22165576171875,-0.987884521484375,0.0013580322265625,-0.066741943359375
1761916198385710600,9.231710693359375,-0.9875335693359375,0.0010986328125,-0.06561279296875
1761916198395765500,9.241765625,-0.9879913330078125,0.0005950927734375,-0.0654449462890625
1761916198405821400,9.251821533203126,-0.9891815185546875,0.00079345703125,-0.065460205078125
1761916198415876600,9.261876708984374,-0.9888916015625,0.0015716552734375,-0.065948486328125
1761916198425931500,9.271931640625,-0.9880523681640625,0.0013427734375,-0.0665130615234375
1761916198435986400,9.281986328125,-0.9880523681640625,0.0011444091796875,-0.066253662109375
1761916198446042600,9.292042724609376,-0.9880218505859375,0.00146484375,-0.0661468505859375
1761916198456097500,9.30209765625,-0.988494873046875,0.0000457763671875,-0.065643310546875
1761916198466152400,9.31215234375,-0.988372802734375,0.0010833740234375,-0.0662841796875
1761916198476207600,9.32220751953125,-0.9892425537109375,0.001434326171875,-0.0653228759765625
1761916198486263600,9.332263671875,-0.9897613525390625,0.0012969970703125,-0.065948486328125
1761916198496318500,9.342318359375,-0.9886932373046875,0.001739501953125,-0.0658416748046875
1761916198506373600,9.35237353515625,-0.987640380859375,0.001312255859375,-0.0665283203125
1761916198516428500,9.362428466796874,-0.98724365234375,0.001708984375,-0.065826416015625
1761916198526484500,9.372484375,-0.9875946044921875,0.0011444091796875,-0.0666351318359375
1761916198536539600,9.38253955078125,-0.9887542724609375,0.00213623046875,-0.066619873046875
1761916198546594600,9.392594482421876,-0.9883880615234375,0.0012054443359375,-0.06591796875
1761916198556649500,9.4026494140625,-0.9871826171875,0.0008392333984375,-0.066192626953125
1761916198566705400,9.412705322265625,-0.9899139404296875,0.00042724609375,-0.065582275390625
1761916198576760600,9.422760498046875,-0.9890289306640625,0.001007080078125,-0.0654296875
1761916198586815500,9.4328154296875,-0.988128662109375,0.0017852783203125,-0.06591796875
1761916198596870700,9.44287060546875,-0.988006591796875,0.0009613037109375,-0.0672454833984375
1761916198606926300,9.45292626953125,-0.98809814453125,0.001007080078125,-0.0662384033203125
1761916198616981500,9.4629814453125,-0.9875640869140625,0.00140380859375,-0.0660247802734375
1761916198627036700,9.47303662109375,-0.987701416015625,0.00140380859375,-0.0659637451171875
1761916198637091600,9.483091552734376,-0.988189697265625,0.00152587890625,-0.0658721923828125
1761916198647147800,9.493147705078124,-0.98785400390625,0.00115966796875,-0.066558837890625
1761916198657202700,9.50320263671875,-0.9878387451171875,0.00079345703125,-0.0665130615234375
1761916198667257900,9.5132578125,-0.9881134033203125,0.0015106201171875,-0.0663604736328125
1761916198677312500,9.5233125,-0.98834228515625,0.0017852783203125,-0.0663909912109375
1761916198687368700,9.53336865234375,-0.98785400390625,0.0011749267578125,-0.0663299560546875
1761916198697423600,9.543423583984374,-0.98846435546875,0.000701904296875,-0.0658416748046875
1761916198707478800,9.553478759765625,-0.9876251220703125,0.0006103515625,-0.06640625
1761916198717534000,9.563533935546875,-0.987762451171875,-0.000396728515625,-0.0666961669921875
1761916198727589600,9.573589599609376,-0.9886627197265625,0.000640869140625,-0.0657501220703125
1761916198737644800,9.583644775390624,-0.987396240234375,0.001434326171875,-0.065826416015625
1761916198747699700,9.59369970703125,-0.9880828857421875,0.0010833740234375,-0.0652313232421875
1761916198757755000,9.6037548828125,-0.987640380859375,0.0020294189453125,-0.0672149658203125
1761916198767810800,9.613810791015625,-0.9878387451171875,0.00146484375,-0.0666351318359375
1761916198777865700,9.62386572265625,-0.989013671875,0.000396728515625,-0.065887451171875
1761916198787920600,9.633920654296874,-0.9884185791015625,0.0004119873046875,-0.066558837890625
1761916198797975800,9.643975830078125,-0.9886932373046875,0.0013427734375,-0.0665130615234375
1761916198808031700,9.65403173828125,-0.988037109375,0.0016632080078125,-0.0664215087890625
1761916198818086700,9.664086669921875,-0.98809814453125,0.00238037109375,-0.0659942626953125
1761916198828141600,9.6741416015625,-0.9878387451171875,0.0018768310546875,-0.0660552978515625
1761916198838196700,9.68419677734375,-0.9878997802734375,0.001800537109375,-0.0655059814453125
1761916198848252700,9.694252685546875,-0.9886474609375,0.002105712890625,-0.0667877197265625
1761916198858307600,9.7043076171875,-0.9879608154296875,0.001312255859375,-0.065948486328125
1761916198868362800,9.71436279296875,-0.988525390625,0.0017852783203125,-0.0659027099609375
1761916198878417700,9.724417724609374,-0.99005126953125,0.0016021728515625,-0.0660552978515625
1761916198888473900,9.734473876953125,-0.988037109375,0.0011138916015625,-0.0659027099609375
1761916198898528800,9.74452880859375,-0.9879608154296875,0.0019989013671875,-0.0653839111328125
1761916198908583700,9.754583740234375,-0.9881591796875,0.001678466796875,-0.065643310546875
1761916198918638600,9.764638671875,-0.9878692626953125,0.0010528564453125,-0.06640625
1761916198928694800,9.77469482421875,-0.9882659912109375,0.0014190673828125,-0.0668792724609375
1761916198938749700,9.784749755859375,-0.987091064453125,0.00115966796875,-0.066650390625
1761916198948804600,9.7948046875,-0.9876556396484375,0.0010528564453125,-0.066436767578125
1761916198958859800,9.80485986328125,-0.9891815185546875,0.0012969970703125,-0.0665283203125
1761916198968915700,9.814915771484374,-0.9881591796875,0.0013275146484375,-0.066253662109375
1761916198978971000,9.824970947265625,-0.9884033203125,0.000579833984375,-0.066253662109375
1761916198989025500,9.835025634765625,-0.9877166748046875,0.0007781982421875,-0.0656585693359375
1761916198999080700,9.845080810546875,-0.9884490966796875,0.000946044921875,-0.0660858154296875
1761916199009136600,9.85513671875,-0.9874725341796875,0.0015411376953125,-0.0656280517578125
1761916199019191800,9.86519189453125,-0.9870452880859375,0.001708984375,-0.06536865234375
1761916199029246700,9.875246826171875,-0.9874267578125,0.0015106201171875,-0.0661773681640625
1761916199039301600,9.885301513671875,-0.98876953125,0.0016326904296875,-0.0654754638671875
1761916199049357600,9.895357666015625,-0.9892578125,0.0004425048828125,-0.064422607421875
1761916199059412700,9.905412841796876,-0.988525390625,0.0006256103515625,-0.066070556640625
1761916199069468000,9.915468017578124,-0.988311767578125,0.0017547607421875,-0.0658111572265625
1761916199079522600,9.9255224609375,-0.9874114990234375,0.0015411376953125,-0.0662994384765625
1761916199089578800,9.935578857421875,-0.98663330078125,0.0015411376953125,-0.064849853515625
1761916199099633700,9.945633544921876,-0.965118408203125,0.002227783203125,-0.070343017578125
1761916199109688800,9.955688720703124,-0.9376373291015625,0.0057373046875,-0.0764007568359375
1761916199119744800,9.965744873046875,-0.9996337890625,-0.00048828125,-0.063140869140625
1761916199129799700,9.975799560546875,-1.039764404296875,-0.0034332275390625,-0.0496826171875
1761916199139854600,9.9858544921875,-1.0163421630859375,-0.0019378662109375,-0.0533599853515625
1761916199149909800,9.99590966796875,-0.989410400390625,-0.00006103515625,-0.063751220703125
1761916199159965700,10.005965576171874,-0.9886322021484375,-0.0005950927734375,-0.06597900390625
1761916199170020900,10.016020751953125,-0.995208740234375,-0.0029754638671875,-0.06231689453125
1761916199180075500,10.026075439453125,-1.0052032470703125,-0.0020904541015625,-0.0569000244140625
1761916199190130700,10.036130615234375,-1.0145721435546875,0.007415771484375,-0.0598297119140625
1761916199200186600,10.0461865234375,-0.9531097412109375,0.0007476806640625,-0.072662353515625
1761916199210241800,10.05624169921875,-0.9102630615234375,0.002166748046875,-0.085174560546875
