time,seconds_elapsed,z,y,x
1761916189276950500,0.122950439453125,0.13154139057695866,-0.018789136483566834,0.006758169023320078
1761916189287005400,0.13300537109375,0.049288639304041856,-0.016370553867402486,0.017523600926622748
1761916189297061400,0.143061279296875,0.1787654985666275,-0.0017297806513844988,-0.01377681561373174
1761916189307116500,0.153116455078125,0.5897732343435287,0.012570732326176948,-0.14068864669390022
1761916189317171500,0.16317138671875,0.3729202894449234,0.022699375579727347,-0.06326477688215673
1761916189327226600,0.1732265625,-0.4392933345407247,-0.04976051743237767,0.13704868275634943
1761916189337281500,0.183281494140625,0.31138299394249913,0.005276015590608586,-0.04004369496628642
1761916189347336400,0.19333642578125,0.7404331668883561,0.05156554842719342,-0.20716500603370366
1761916189357391600,0.2033916015625,-0.6198246737360954,-0.03016905158997979,0.14040179257653654
1761916189367447600,0.213447509765625,-0.9164999278903007,-0.07563544289185666,0.30878209072910245
1761916189377502500,0.22350244140625,0.20538520994484424,0.009918601249041967,0.04758841125741601
1761916189387557600,0.2335576171875,0.8114911549299955,0.03720108053506119,-0.20073921076990664
1761916189397612500,0.243612548828125,0.2409843465924263,-0.01854632928719511,-0.11137070920765399
1761916189407667700,0.253667724609375,-0.3873416135072708,-0.00948647974235937,0.1284537998251617
1761916189417722400,0.263722412109375,-0.14031272605359554,0.005075583947950508,0.15801767489649354
1761916189427778600,0.273778564453125,0.31407530176639553,-0.009407672035240101,-0.05396707944385707
1761916189437833500,0.28383349609375,0.3026882308334112,-0.01435751984482631,-0.116222021696344
1761916189447888600,0.293888671875,0.04922025024294853,-0.005027406557823997,0.008582973297685384
1761916189457943600,0.303943603515625,-0.08959259264171122,0.0012512010709149763,0.12413798245266079
1761916189467998500,0.31399853515625,0.009720014503598213,-0.0005955227743135765,0.04057729038633406
1761916189478053600,0.3240537109375,0.23249299710094928,-0.013020241075789089,-0.0720805360224098
1761916189488108500,0.334108642578125,0.24434125580489635,-0.014638528743293135,-0.04839380935616791
1761916189498164700,0.344164794921875,-0.017827333113551138,-0.006028843251906801,0.05207103656418621
1761916189508219400,0.354219482421875,-0.0767494776815176,-0.015697449511964806,0.07327705233059822
1761916189518274600,0.364274658203125,0.14182371513843536,-0.016500676203228065,-0.01566862070970237
1761916189528329700,0.374329833984375,0.24740765763819217,0.0021792871177080085,-0.06088708796538412
1761916189538384400,0.38438427734375,0.0669067135810852,0.000576872872770764,0.019189707507938147
1761916189548439600,0.394439453125,-0.0499491490393877,-0.0012704058115952648,0.07134250407144427
1761916189558495500,0.40449560546875,0.0919639979481697,-0.0011515309555688873,0.014637085704877971
1761916189568550700,0.414550537109375,0.21764029588401315,-0.012587939189304597,-0.036626360803470016
1761916189578605600,0.42460546875,0.10914952602684497,-0.017615564942837225,-0.007480199687555432
1761916189588660500,0.434660400390625,-0.018986440020799637,-0.009900727665633893,0.04766432603783905
1761916189598715600,0.444715576171875,0.05003448923528194,-0.007892689478583634,0.03193476892113686
1761916189608770600,0.4547705078125,0.16917583244442938,-0.005339392833155579,-0.019526392116397617
1761916189618825500,0.464825439453125,0.14189911846220493,-0.01717325311899185,-0.01194901566468179
1761916189628884200,0.47488427734375,0.03924304610788822,-0.015083564530475995,0.028215310006588695
1761916189638939100,0.484939208984375,0.034652211186289784,-0.01097729825542774,0.03164133893251419
1761916189648994300,0.494994384765625,0.09700725281238555,-0.0030852458143723195,0.0167098003257066
1761916189659049200,0.50504931640625,0.12576982143819332,-0.023011718048085456,-0.003685775840654969
1761916189669104000,0.515104248046875,0.07456804198920726,-0.009582855072210076,0.018363266621157524
1761916189679159000,0.525158935546875,0.05861702414155006,0.000433142136700917,0.02205576446354389
1761916189689215200,0.53521533203125,0.13070552427470683,-0.002135121465707198,0.010319733962416647
1761916189699270100,0.545270263671875,0.11382570114433765,-0.01263157511834288,0.002538651632145047
1761916189709325300,0.5553251953125,0.05440554392635822,-0.004979407264210749,0.012898279213532805
1761916189719380200,0.565380126953125,0.0724532417923212,-0.0071196501463185995,0.018522694966569542
1761916189729435100,0.57543505859375,0.11328151126503944,-0.0067081033534952435,0.012406257912889122
1761916189739490300,0.585490234375,0.09175123198032378,-0.003398083756363485,0.009301204569637775
1761916189749545200,0.595545166015625,0.08533084354400634,-0.010155035786842927,0.004297404932975769
1761916189759601200,0.60560107421875,0.10971358965039253,-0.0030252227228251285,0.01339673025496304
1761916189769656000,0.615656005859375,0.10761807867586612,-0.008443069353362078,0.015638517832383514
1761916189779711200,0.625711181640625,0.08217676342725753,0.005279901747859549,0.00969926397651434
1761916189789766400,0.635766357421875,0.08846154278516768,-0.0039888458738801995,0.007600026674941182
1761916189799821000,0.645821044921875,0.10897124685049056,0.005681194291438442,0.009573664835467934
1761916189809876200,0.655876220703125,0.1486275499343872,0.08543664200603962,0.07876271720007061
1761916189819932200,0.66593212890625,0.18879238706231116,0.05337623741123825,-0.06866846255660057
1761916189829987300,0.6759873046875,0.2456020695209503,-0.13711113526700064,-0.14192286466397344
1761916189840042200,0.686042236328125,-0.11899696630239485,-0.09666511571067385,0.06465615817531943
1761916189850097200,0.69609716796875,-0.35464871969521045,-0.11266727922367863,0.08909129205606878
1761916189860152300,0.70615234375,0.1905553050816059,0.00014242697826121002,0.043668096008524296
1761916189870207200,0.716207275390625,0.339434783950448,0.11418920069448649,-0.003028407910466194
1761916189880262100,0.72626220703125,0.06675473788976669,0.0690045809094794,-0.03947064431868493
1761916189890318000,0.736318115234375,0.06354103654026985,-0.025568642839149103,0.042401144812628626
1761916189900373200,0.746373291015625,0.047425183519721026,-0.01888513735408196,0.060073506560176605
1761916189910428200,0.75642822265625,0.08200725207924843,0.010560342351836153,-0.005739128173887729
1761916189920483000,0.766483154296875,0.21887129898369312,-0.03259294285221258,-0.0364521002151072
1761916189930538200,0.776538330078125,0.1057405943661928,-0.06264519281224347,-0.013288009183481334
1761916189940593200,0.78659326171875,0.0012689970225095747,-0.01465487937318394,0.03974873060770333
1761916189950649300,0.7966494140625,0.07853402301073074,0.01471884113762062,0.034890915312990545
1761916189960704300,0.806704345703125,0.11220482194423675,0.05892697144013363,-0.01077434586212039
1761916189970759200,0.81675927734375,0.14780571215748786,0.011421779203473124,-0.0006393208168447018
1761916189980814300,0.826814453125,0.06807634188234805,-0.03744946352227125,0.03636865971535444
1761916189990869200,0.836869140625,-0.033522330373525616,-0.04042436028036754,0.03593041442856192
1761916190000924200,0.846924072265625,0.11334463962912558,-0.00045441097030416127,0.011456921298801898
1761916190010980000,0.85697998046875,0.1990221046537161,0.00894338355831569,-0.02180558909475803
1761916190021035300,0.86703515625,0.08968903875350952,-0.006763776780199259,0.0004722206216305494
1761916190031090200,0.877090087890625,0.009410217902064323,-0.027932426528155335,0.029366379737854
1761916190041145300,0.887145263671875,0.09763444480001926,-0.025594921208010053,0.013952829767763613
1761916190051200300,0.8972001953125,0.15814473534226417,-0.011050078080559614,-0.008723404681682586
1761916190061255200,0.907255126953125,0.10346914230287074,-0.005967833779670763,-0.00003207563869655132
1761916190071310300,0.917310302734375,0.04134790943264961,-0.012213167043181601,0.017038593888655303
1761916190081366300,0.9273662109375,0.05789338604211807,-0.009426543415780178,0.02515482645742595
1761916190091421200,0.937421142578125,0.11160217987596988,0.010351540173054672,0.01183868715800345
1761916190101476000,0.94747607421875,0.11583411835730076,-0.0031810868546832353,-0.00044299452714622017
1761916190111531300,0.95753125,0.07649053448438643,-0.014847155108849984,0.006728723733127117
1761916190121586400,0.96758642578125,0.061790393480658526,-0.01947426920351572,0.010981851132959127
1761916190131641000,0.97764111328125,0.10367255592048168,-0.02835131409392925,-0.0018052227910608052
1761916190141697300,0.987697265625,0.12479951510131358,-0.0018495482732658274,0.007805632249638437
1761916190151752200,0.997752197265625,0.10147884526848792,0.006592861209681723,0.00942322351410985
1761916190161807400,1.007807373046875,0.07975918089151382,-0.005194577534985728,0.016633008762449025
1761916190171862000,1.017862060546875,0.091855276876688,-0.011667794420372229,0.014747560342028737
1761916190181917200,1.027917236328125,0.10742518645226955,-0.006755764720391016,0.0085000442545861
1761916190191972400,1.037972412109375,0.10101590393185615,-0.008851398992503527,0.00798603031784296
1761916190202027300,1.04802734375,0.07602057888507843,-0.01389720200683223,0.013012260982021689
1761916190212083200,1.058083251953125,0.0738911656409502,-0.01093688861322589,0.00946852396056056
1761916190222138000,1.06813818359375,0.11475275286138056,0.0009173568735131993,0.014995178427547216
1761916190232193300,1.078193359375,0.11447802757322788,-4.5209114905446767e-7,0.006560892885550856
1761916190242248200,1.088248291015625,0.07841653411090374,-0.0036164780306862667,0.009833704011142252
1761916190252303000,1.09830322265625,0.07927285867929458,-0.013602383778721559,0.015069778033718466
1761916190262358300,1.108358154296875,0.09302081352472305,-0.011991834176389965,0.006218801449611783
1761916190272414200,1.118414306640625,0.12370236751437186,-0.00017777228627819568,0.012417144633084534
1761916190282469400,1.128469482421875,0.10784779577851294,-0.004592634153040126,0.011573021959140896
1761916190292524000,1.13852392578125,0.09183364956676959,-0.01732644808643963,0.014314941078424452
1761916190302579200,1.1485791015625,0.09542904371023178,-0.014035094373871106,0.013372326466068625
1761916190312634000,1.158634033203125,0.10502280148565768,-0.01449592138523003,0.006538242662325501
1761916190322689300,1.168689208984375,0.11027589970827102,-0.00975148050423013,0.011392623890936374
1761916190332745200,1.1787451171875,0.08602817815840244,-0.01243839976695599,0.019415917479246855
1761916190342800100,1.188800048828125,0.090064886328578,-0.015525125152361579,0.01751936314292252
1761916190352855300,1.198855224609375,0.10846505089402197,-0.007991688307072035,0.010568521091714501
1761916190362910200,1.20891015625,0.1002425814718008,-0.011549547468719537,0.007008855848759412
1761916190372965000,1.218965087890625,0.10759002162516117,-0.0037170340620214116,0.018019494684785604
1761916190383020300,1.229020263671875,0.10217910249233245,-0.002926762750453781,0.015221315333619713
1761916190393076200,1.239076171875,0.09826163678765297,-0.0028955159455304963,0.0012543109100311993
1761916190403131100,1.249131103515625,0.10904723469614983,-0.0034645251722540704,0.012160685653984546
1761916190413186300,1.259186279296875,0.10680968490242958,-0.00011423978010425344,0.01355214001238346
1761916190423241200,1.2692412109375,0.09169161074757576,0.0034992425758973694,0.007188450199365615
1761916190433296100,1.279296142578125,0.09332827203869819,-0.003499110145156737,0.010171265402436255
1761916190443351300,1.289351318359375,0.0991577088445425,-0.011738966810307465,0.005772811247780919
1761916190453407200,1.2994072265625,0.0981201824903488,-0.0055014469604939215,0.002637801157683134
1761916190463462100,1.309462158203125,0.09543605797290801,-0.004401210084033664,0.006992270040139556
1761916190473517000,1.31951708984375,0.10335691410005092,-0.0009891023688949644,0.0182152364525944
1761916190483572200,1.329572265625,0.09646014032363891,-0.014637763841601554,0.0008970219049602746
1761916190493627400,1.33962744140625,0.10558511154353618,-0.002704333905118983,0.0037928164117038247
1761916190503682000,1.34968212890625,0.11006839443743228,-0.005600861347513273,0.011505290485173464
1761916190513738200,1.35973828125,0.09061258333921432,-0.011032855234411545,0.004520619229599833
1761916190523793200,1.369793212890625,0.08478022392392158,-0.005501682139222975,0.005065905087441206
1761916190533848300,1.379848388671875,0.0940554172694683,-0.007512168011686298,0.007189473112672567
1761916190543903200,1.3899033203125,0.10274199707210063,-0.010164625599095598,0.012766250331699848
1761916190553958100,1.399958251953125,0.09750351189672947,-0.008920356592466122,0.009343655471876263
1761916190564013300,1.410013427734375,0.08822539594173431,-0.015685704275243916,0.013688406677916645
1761916190574069200,1.4200693359375,0.08477788583636284,-0.01049993110122159,0.01571918185316026
1761916190584124400,1.43012451171875,0.09479074580669403,-0.016540126864204648,0.011120382820814846
1761916190594179000,1.440178955078125,0.10137713845968246,-0.009887662688083946,0.006458309293910861
1761916190604234200,1.450234130859375,0.09823474878072738,-0.016430318947334308,0.0091400226585567
1761916190614289400,1.460289306640625,0.09090484428405761,-0.013311328410275745,-0.00047236675210297104
1761916190624344000,1.470343994140625,0.1215922434926033,-0.01641312806722708,0.006844605197757482
1761916190634402800,1.48040283203125,0.09915887788832187,-0.0051715642688679505,0.012050795538723468
1761916190644457500,1.49045751953125,0.08345335923433303,-0.009273887304449453,0.016591726903989912
1761916190654512600,1.5005126953125,0.09557108252942562,-0.002941403197159525,0.025313524150475858
1761916190664567800,1.51056787109375,0.1027566101193428,-0.007054389190650544,0.01793839227259159
1761916190674622700,1.520622802734375,0.10935644677579402,-0.005381124499475118,0.011119140711799263
1761916190684677600,1.530677734375,0.08467559450566768,-0.000957503937522415,0.008436842825263738
1761916190694733600,1.540733642578125,0.09439853161871432,-0.0009678837676416151,0.012231047476455568
1761916190704788700,1.550788818359375,0.09934475584924221,-0.013305912449641619,0.009560147766768931
1761916190714843600,1.56084375,0.09786883807778358,-0.007624606277060229,0.006726604841277003
1761916190724898600,1.570898681640625,0.09488426930904388,-0.004341228091681842,0.0034643151096999643
1761916190734953700,1.58095361328125,0.09997779305577277,-0.005257918244914617,0.011606193576380609
1761916190745009700,1.591009765625,0.10760872632563113,0.0015738822701969184,0.010731894959881902
1761916190755064800,1.60106494140625,0.09204290840327739,0.006857905354036483,0.008835048362612724
1761916190765119500,1.611119384765625,0.09353460826575756,0.010572455198026727,0.011749839830771087
1761916190775174700,1.621174560546875,0.11748597721755503,0.004993161794927437,0.01415587805919349
1761916190785229600,1.6312294921875,0.1020639516800642,0.0005481787845375947,0.01310907242000103
1761916190795284700,1.64128466796875,0.098918054869771,0.0015050845004385336,0.005380889320746064
1761916190805340700,1.651340576171875,0.10102350271642208,0.005988038600771688,-0.0007494301278144121
1761916190815395600,1.6613955078125,0.09144844964146613,0.003962667969719041,0.004161430528387427
1761916190825450800,1.67145068359375,0.08831190518140793,-0.00809521946349414,0.0027361469656229016
1761916190835505700,1.681505615234375,0.08710720556676388,-0.0021566391777712852,-0.001191255611181259
1761916190845560600,1.691560546875,0.10058218868970871,-0.005796571149281226,0.008717486397549509
1761916190855615500,1.701615478515625,0.09894435835480689,-0.013470873203407972,0.016079539598152042
1761916190865671700,1.711671630859375,0.09296236133575439,-0.009973167280759662,0.013633607750758527
1761916190875726600,1.7217265625,0.09190905289053916,-0.008487949674704577,0.009232815508544445
1761916190885781800,1.73178173828125,0.11255202794671058,-0.0030016728838789274,0.004688523142412305
1761916190895836700,1.741836669921875,0.10792612171173095,-0.01333865024204133,0.019014058680087327
1761916190905891600,1.7518916015625,0.09430676168203353,-0.012337343695410527,0.02144764250256121
1761916190915947800,1.76194775390625,0.09235738117992877,-0.009365207433269825,0.014322028406336902
1761916190926002700,1.772002685546875,0.10747662437856197,-0.011443911120179109,0.011552271432057023
1761916190936057600,1.7820576171875,0.10074643934071063,-0.008251279958174564,0.010310308546945451
1761916190946112500,1.792112548828125,0.08444529288113117,-0.003977625793544575,0.017496055332571266
1761916190956167700,1.802167724609375,0.0914765066921711,0.0018195344442036002,0.017673311595618725
1761916190966222800,1.812222900390625,0.10194938538968562,-0.008308574519807007,0.012162146958708762
1761916190976278800,1.82227880859375,0.10360007520616053,-0.024760520777059716,0.010147226939722895
1761916190986333700,1.832333740234375,0.09910568639636039,-0.0027166134313796647,0.02578516025021672
1761916190996388600,1.842388671875,0.09145078772902489,-0.005612417071277741,0.01446034089848399
1761916191006443800,1.85244384765625,0.10312368986606597,-0.009640588025259784,0.009052709701284765
1761916191016498700,1.862498779296875,0.10134674332141876,-0.008894585113681387,0.0032503070328384637
1761916191026554600,1.8725546875,0.09298106603622436,-0.007118631799588911,0.011872370231896637
1761916191036609500,1.882609619140625,0.1028524717092514,-0.011178937757771927,0.004154124004766345
1761916191046664700,1.892664794921875,0.10105097524523735,-0.008361934975127223,0.005138678062707186
1761916191056720000,1.902719970703125,0.10256547146141529,-0.015382330564630682,0.001438581435754895
1761916191066774500,1.9127744140625,0.09569617021381854,-0.01309912641472183,0.004968801388517022
1761916191076829700,1.92282958984375,0.08643091374039649,-0.002437547611538321,0.009420081708952784
1761916191086885600,1.9328857421875,0.09437164361178875,0.009229454507678746,0.00927146701849997
1761916191096940800,1.94294091796875,0.0931798034787178,0.0006488101643975823,0.0073985127534717315
1761916191106995500,1.952995361328125,0.08974573737680912,-0.007951134817686396,0.0022010902408510446
1761916191117050600,1.963050537109375,0.10022153868377208,-0.010033446100633591,-0.0014042407747358082
1761916191127105800,1.973105712890625,0.1030745900273323,0.002224614963622298,0.0032511838156729935
1761916191137161700,1.98316162109375,0.08108195392787457,0.0010156524491030721,0.009332841816917061
1761916191147216600,1.993216552734375,0.08841887268722057,-0.014507474825705866,0.002081482449173927
1761916191157271600,2.003271484375,0.10518471404910087,-0.003976230704190675,0.010671104683354497
1761916191167326700,2.01332666015625,0.10444938551187515,0.0027127341239945963,0.0021077859342098237
1761916191177381600,2.023381591796875,0.09159048846065998,-0.002617272109596524,0.009888576003536582
1761916191187437800,2.033437744140625,0.08799801692664623,-0.002068501953303348,0.019180135961994527
1761916191197492500,2.043492431640625,0.10039806429445743,-0.00503444137009792,0.015281594153493642
1761916191207547600,2.053547607421875,0.11595979056358337,-0.0033925011156592517,0.009148205965012311
1761916191217602800,2.063602783203125,0.09861059635579586,-0.004322530241077765,0.0030314766503870484
1761916191227657500,2.073657470703125,0.08783201270997523,-0.0017560270542046055,0.009683847211673854
1761916191237712600,2.083712646484375,0.0986088427901268,-0.009967582356766798,0.010546966847032309
1761916191247768600,2.0937685546875,0.09725567461550236,-0.0119002469027997,0.0054069005448371165
1761916191257823700,2.10382373046875,0.09367430899739265,-0.014838348464597946,0.001371726744621992
1761916191267878700,2.113878662109375,0.09847907893061637,-0.004265653521264903,0.006370704075694083
1761916191277933600,2.12393359375,0.091297642993927,-0.012212329076253808,0.009207973328232765
1761916191287988700,2.13398876953125,0.09936579863727092,-0.015337265296909026,0.010588687096908687
1761916191298044700,2.144044677734375,0.10444470933675766,-0.005104718710889574,0.006680062285810709
1761916191308099800,2.154099853515625,0.10520751040279865,-0.00256349837903399,0.006166121414303779
1761916191318154500,2.164154541015625,0.1002729766100645,-0.00849348893292481,0.009554594808816909
1761916191328209700,2.174209716796875,0.08486381055414677,0.0015597418637014924,0.014289952767640352
1761916191338264600,2.1842646484375,0.09190671480298042,-0.002471742142084986,0.008017302238941192
1761916191348320800,2.19432080078125,0.09297288272976875,-0.009990323911537416,0.014032763136178255
1761916191358375400,2.20437548828125,0.09476853397488594,-0.0011561888643773271,0.00475822737775743
1761916191368430600,2.2144306640625,0.07665478513538837,-0.0077684488942730235,0.005171484353765845
1761916191378485800,2.22448583984375,0.08427461248934269,-0.0075087453620275475,0.008934636279568076
1761916191388540700,2.234540771484375,0.09310323111116886,-0.0073745701888808975,0.0062452510651201006
1761916191398595600,2.244595703125,0.09086451227366923,-0.012841238096938467,0.00825491038709879
1761916191408651500,2.254651611328125,0.09790157130360602,-0.011013353666209149,0.009833046424016357
1761916191418706700,2.264706787109375,0.08667699745595454,-0.0034934201898868195,0.002670680513978004
1761916191428761600,2.27476171875,0.08772270711660385,-0.0035073596669826655,0.007188157938420772
1761916191438816800,2.284816650390625,0.09356149627268313,-0.015367815698799676,0.011927826746180653
1761916191448871700,2.29487158203125,0.08697802622914313,-0.005464014726667665,0.011321823677048086
1761916191458927600,2.304927734375,0.09789572608470916,0.01606678743114462,0.015746946642920374
1761916191468982800,2.314982666015625,0.09849310745596886,0.005533476933417841,0.007393325121700763
1761916191479037700,2.32503759765625,0.10657879875600337,0.0008003451810101978,0.00970825100056827
1761916191489092600,2.335092529296875,0.09684943190217017,0.0005970320280990563,0.007956950353831052
1761916191499147800,2.345147705078125,0.09893734409213066,-0.002906391249282751,0.009855477451533078
1761916191509203700,2.35520361328125,0.09025544046461581,-0.005821449862211011,0.007058905535563826
1761916191519258600,2.365258544921875,0.0943038390725851,0.002549214125354774,0.00948372152969241
1761916191529313500,2.3753134765625,0.09011924686431884,-0.0052790774806635455,0.019739377279952168
1761916191539368700,2.38536865234375,0.08906418485343456,-0.011552040819905232,0.014167568496987222
1761916191549423600,2.395423583984375,0.09594517653882503,-0.012777627958951052,0.005820742042735218
1761916191559479800,2.405479736328125,0.10566928269565105,-0.014160935543512458,0.0031610213141888377
1761916191569534700,2.41553466796875,0.0986392379283905,-0.005880956930527463,-0.002719195830821991
1761916191579589600,2.425589599609375,0.09371054935455321,-0.009317607715167105,0.004177066488936543
1761916191589644500,2.43564453125,0.08892682220935821,-0.011972238993353675,0.012196852945908903
1761916191599699700,2.44569970703125,0.10029401939809322,-0.0064413878418621605,0.00433393755108118
1761916191609755600,2.455755615234375,0.10493804581165313,-0.00827329771044897,0.0051508068919181825
1761916191619810600,2.465810546875,0.10255962624251842,0.0015904886284144595,0.009557005961611867
1761916191629859300,2.475859375,0.10287351449728012,-0.003746949709672481,0.016528306278958915
1761916191639914200,2.485914306640625,0.09164309543073176,-0.010200098771275952,0.006612184681370854
1761916191649969200,2.49596923828125,0.09552665886580944,-0.006913613030069973,0.005662555806338787
1761916191660025000,2.506025146484375,0.09748130006492137,0.0002663570353179239,0.011208061104267836
1761916191670080300,2.516080322265625,0.092412910759449,-0.006369379768287763,0.0022528204280883074
1761916191680135200,2.52613525390625,0.08777122243344783,-0.0031665491559659128,0.012768588419258594
1761916191690190300,2.5361904296875,0.09166296917498111,-0.0022506284710019824,0.012743161717057227
1761916191700245200,2.546245361328125,0.08941197537779808,-0.008529391363367904,0.004006605292856693
1761916191710300200,2.556300048828125,0.09883271467387676,-0.002617390840605367,0.010539294997230171
1761916191720356400,2.5663564453125,0.08969897562563418,-0.0014389399120700544,0.014821794622018932
1761916191730411300,2.576411376953125,0.09658581252992153,0.0005936710272333584,0.013721432164683937
1761916191740466200,2.586466064453125,0.1069131452769041,-0.002149147707771044,0.01339059277512133
1761916191750521000,2.59652099609375,0.09852700972557067,-0.004107122508285101,0.012433876572176813
1761916191760576300,2.606576171875,0.09434066395163536,-0.005887379821448121,0.004903919458761811
1761916191770632200,2.616632080078125,0.08235796521306038,-0.0020345311850425785,0.016902838679775593
1761916191780687000,2.62668701171875,0.08893325195014476,-0.007248687920044176,0.005358166032284498
1761916191790742300,2.6367421875,0.09565876081287861,-0.01424717992170481,0.008918634992837906
1761916191800797200,2.646797119140625,0.09176292241811752,-0.01774607543773018,0.010042086064815521
1761916191810852400,2.656852294921875,0.08412672845125198,-0.005219129737641197,0.014440905545651911
1761916191820908300,2.666908203125,0.09909282691478728,-0.011288727408333215,0.01036781088784337
1761916191830963200,2.676963134765625,0.09954407781362533,-0.016010148173349444,0.013176292437314987
1761916191841018000,2.68701806640625,0.10089783051013947,-0.018187373481423127,0.009478606963157653
1761916191851073300,2.6970732421875,0.08862696247994899,-0.008284102232253645,0.010540975497663021
1761916191861128200,2.707128173828125,0.09386194052398204,-0.007955774460185784,0.01386814715899527
1761916191871184100,2.71718408203125,0.10464169321358203,-0.0010575553620699792,0.007642404511943459
1761916191881239300,2.7272392578125,0.1101852988153696,-0.00019950919405091553,0.01352737089730799
1761916191891294200,2.737294189453125,0.08832885631620883,0.004525299971294589,0.018901757412031293
1761916191901349400,2.747349365234375,0.08129238180816173,-0.003389420959295239,0.014907938535511494
1761916191911404000,2.757404052734375,0.08698211788237094,-0.009846161633916198,0.004383768042176961
1761916191921460200,2.767460205078125,0.10014964249134063,-0.011346807421254925,0.007835588996484875
1761916191931515100,2.77751513671875,0.09880407310128211,0.006276657700247597,0.006782426681742072
1761916191941570300,2.7875703125,0.08907645981311797,-0.0067630073119304135,0.013835779259353875
1761916191951625200,2.797625244140625,0.10402969879508017,-0.0023998322499217462,0.010695362341776489
1761916191961680100,2.80768017578125,0.10926818397045135,0.0016336907326127401,0.017706264017149805
1761916191971736300,2.817736328125,0.09834580793976783,-0.00433410879772855,0.01903466307669878
1761916191981791200,2.827791259765625,0.09549626372754573,0.0019452340499497948,0.004915975222736597
1761916191991846400,2.837846435546875,0.09084989922642707,-0.005837019607389811,0.009222367179766296
1761916192001901000,2.847901123046875,0.09577566519081591,-0.009502159085392486,0.012846914352476596
1761916192011957200,2.857957275390625,0.10266425566077232,-0.004183562445093412,0.007379150465875863
1761916192022012200,2.86801220703125,0.09323942471146583,-0.011890065718791447,0.01303469200953841
1761916192032067300,2.8780673828125,0.08425298517942428,-0.005942110249947291,0.011807122975960373
1761916192042122200,2.888122314453125,0.09682371293902396,-0.006047397255327086,0.013132672491297124
1761916192052177200,2.89817724609375,0.10819792439043521,-0.008409934268740472,0.012958777229115367
1761916192062233000,2.908233154296875,0.1014794297903776,-0.00572251039922703,0.007946355894580483
1761916192072288300,2.918288330078125,0.09131167151927948,-0.0013771541216992772,0.009181304517015815
1761916192082343200,2.92834326171875,0.09354396061599254,0.0011531155578792095,0.01310205815732479
1761916192092398000,2.938398193359375,0.09683832598626613,-0.01050095173123991,0.013066621517762542
1761916192102453200,2.948453369140625,0.09893909765779972,-0.010249792265053837,0.004456687147915363
1761916192112509200,2.95850927734375,0.10163315904736518,-0.014005217542126774,0.005786766707897186
1761916192122564400,2.968564453125,0.09325520680248736,-0.0022849417325574903,0.00785202867463231
1761916192132619300,2.978619384765625,0.09041443041861057,0.0020438241697731427,0.01425524678044021
1761916192142674200,2.988674072265625,0.09759119018018245,-0.013689689886127598,0.012848594852909446
1761916192152729300,2.998729248046875,0.10177578238844871,-0.010549999054335056,0.016522314929589627
1761916192162785300,3.008785400390625,0.08604746738076209,-0.016043968244560527,0.016008885514736174
1761916192172840200,3.018840087890625,0.09756079504191875,-0.012232543030509259,0.009102832453325391
1761916192182895000,3.02889501953125,0.09158172063231468,-0.023998477762844413,0.012004983635619281
1761916192192950300,3.0389501953125,0.10176000029742717,-0.026588761400815564,0.007924436323717235
1761916192203005400,3.04900537109375,0.09337854092121124,-0.014931965581781696,-0.0007305062316358089
1761916192213061000,3.05906103515625,0.08650164088904858,-0.017404477192135528,0.0014137392554432152
1761916192223116000,3.069115966796875,0.09848550867140292,0.003738391943881288,0.002576937815919518
1761916192233171200,3.079171142578125,0.09461129758656024,-0.001570368288992904,0.003684533731639385
1761916192243226400,3.089226318359375,0.08714461496770382,-0.00709547011971008,0.00810498052239418
1761916192253281000,3.099281005859375,0.07892682172060013,-0.0005924586009699851,0.011661211699247359
1761916192263337200,3.109337158203125,0.0828185684621334,-0.001735979780019261,0.0020643851839005946
1761916192273392000,3.11939208984375,0.09823124164938926,-0.006329015791858546,0.012090762222930788
1761916192283447300,3.129447265625,0.09988310050964355,0.0006731682875193656,0.010657587614655495
1761916192293502200,3.139502197265625,0.08418050446510314,-0.010451507115922867,0.008873261481150984
1761916192303557000,3.14955712890625,0.0954109235316515,-0.0026500898170983417,0.016544088369980454
1761916192313613000,3.159613037109375,0.09737374803721904,-0.0013835336301359347,0.014040508051216602
1761916192323668200,3.169668212890625,0.09184592452645302,-0.00024162901943782343,0.00673259619064629
1761916192333723400,3.179723388671875,0.07808160306811332,0.0013684068429516629,0.01657309526875615
1761916192343778000,3.189778076171875,0.07958265528082847,-0.008640562403551303,0.011417612201720476
1761916192353833200,3.199833251953125,0.09395312593877315,0.010931563984137027,0.013588891826197505
1761916192363889200,3.20988916015625,0.09993863008916377,0.006610077205963898,0.01418956113308668
1761916192373944300,3.2199443359375,0.09814882406294345,0.002271447496744804,0.013656331039220093
1761916192383999200,3.229999267578125,0.091415131893754,-0.0015840611709165386,0.011407821460068225
1761916192394054100,3.24005419921875,0.08767594536542891,-0.01061558880356606,0.0037527766622602937
1761916192404109300,3.250109375,0.08797580509483814,-0.0034154413165408183,0.007933058021590113
1761916192414165200,3.260165283203125,0.09860299757122992,-0.00012583203648682684,0.0031041765604168173
1761916192424220400,3.270220458984375,0.08632336171269417,-0.009142301380611024,0.011178177422657608
1761916192434275000,3.280275146484375,0.08406418460905551,-0.0014615627358318306,0.015277283304557203
1761916192444330200,3.290330322265625,0.08136486252248287,-0.0026587137982598506,0.007132628358900547
1761916192454385400,3.300385498046875,0.09902093072235583,0.0016802036053268237,0.0010130495000630617
1761916192464441300,3.31044140625,0.10096271243989467,-0.002481450685346499,0.012593670243769884
1761916192474496000,3.32049609375,0.08718962315320967,-0.0027600415811524725,0.020465353466942907
1761916192484551200,3.33055126953125,0.09346154302954673,-0.017673642672470305,0.018414558416977523
1761916192494606300,3.3406064453125,0.10437398218810558,-0.008995693700865377,0.005413111089915037
1761916192504662300,3.350662353515625,0.09224924463033675,0.0019880205956171264,0.003982712960615754
1761916192514717200,3.36071728515625,0.09418518112897872,-0.007026978310628328,0.010701865147799253
1761916192524772000,3.370772216796875,0.08566226745545863,-0.0012504407358006574,0.019139950082078576
1761916192534827300,3.3808271484375,0.09658230539858341,-0.01262336669571232,0.010060425439104436
1761916192544882200,3.390882080078125,0.09328677098453045,0.00017661694223061202,0.0087680475410074
1761916192554938400,3.4009384765625,0.08864917431175708,0.005473204963409807,0.013090733045712113
1761916192564993000,3.410992919921875,0.08685235402286053,0.008374506762332748,0.015054434334114193
1761916192575048200,3.421048095703125,0.1001730233669281,0.0009668517211801372,0.00857822405733168
1761916192585103400,3.431103271484375,0.09134265117943287,-0.007539841469901148,0.0038136400040239093
1761916192595158000,3.441157958984375,0.08865326596498489,-0.0006708644492900929,0.012133286190405487
1761916192605214200,3.451214111328125,0.09075228407084941,0.0018300581215065902,0.0116257019944489
1761916192615269000,3.46126904296875,0.09418693469464778,-0.006462770839896984,0.005598623724654316
1761916192625324300,3.47132421875,0.0910404533624649,-0.010406919055525213,0.012839900089800358
1761916192635380700,3.481380615234375,0.10300444740056991,-0.0013408566823229194,0.007408814951777458
1761916192645436000,3.491435791015625,0.09582184242010117,-0.0032974067107308653,0.008906286967918276
1761916192655491600,3.50149169921875,0.08443360244333743,-0.008475126725749578,0.01228358138129115
1761916192665546800,3.511546630859375,0.09803776490390301,-0.010404754497902468,0.01022569900341332
1761916192675601700,3.5216015625,0.0914367592036724,-0.007157938613381702,0.0029931904666125773
1761916192685656800,3.53165673828125,0.09772738378047943,-0.013576918260613455,0.00709032358713448
1761916192695711500,3.54171142578125,0.10027414565384388,-0.00750633420923259,0.007504603476449847
1761916192705767700,3.551767578125,0.10505436566770077,-0.016256304954143704,0.006880626359209418
1761916192715822600,3.561822509765625,0.09591361235678196,-0.020349965192656964,0.01035012910068035
1761916192725877800,3.571877685546875,0.08769114293456078,-0.005893398570280988,0.005446867229044437
1761916192735933000,3.581932861328125,0.09996844070553779,0.002154454070550855,-0.00243862532377243
1761916192745987600,3.591987548828125,0.0975759926110506,-0.0084325753588113,0.015193842804804443
1761916192756043800,3.602043701171875,0.098477909886837,-0.00422328253412852,0.01244074470438063
1761916192766098700,3.6120986328125,0.08708908538818359,-0.0021664459024439563,0.013131576512753963
1761916192776153900,3.62215380859375,0.0839472802311182,-0.002513905349955894,0.017155717462301254
1761916192786208500,3.63220849609375,0.09950257675945758,-0.009030696515587624,0.007679156325757503
1761916192796264700,3.6422646484375,0.10338789376020431,-0.005547580807295162,0.014495704472810029
1761916192806319600,3.652319580078125,0.09709376205205916,-0.001367872553411871,0.017475889327377078
1761916192816374800,3.662374755859375,0.09649287354946136,0.004874430786084849,0.019154197803139685
1761916192826429700,3.6724296875,0.09260814107060432,0.0030403928924934006,0.01696896271854639
1761916192836484600,3.682484619140625,0.09678571901619434,0.003716207511536777,0.010868746147304773
1761916192846540800,3.692540771484375,0.08898761248588562,0.0017679275545524433,0.012012947746366262
1761916192856595700,3.702595703125,0.0976677625477314,0.0035555119409342293,0.00974631798863411
1761916192866651000,3.71265087890625,0.09767010063529014,0.009889471052680164,0.0077754563070833674
1761916192876705500,3.72270556640625,0.09871639481782912,0.004147774179081898,0.011380056670308112
1761916192886760700,3.7327607421875,0.08990472733080386,-0.006807499474205542,0.0005094108268618584
1761916192896816600,3.742816650390625,0.08586568107306956,-0.0004441110552870668,0.009774082778394222
1761916192906871800,3.752871826171875,0.097245153221488,-0.002102954495465383,0.014305223402008413
1761916192916926700,3.7629267578125,0.10189210224449634,-0.002661522243276704,0.00953603623881936
1761916192926981600,3.772981689453125,0.0902343976765871,0.004566988255130127,0.010231325026601552
1761916192937036800,3.783036865234375,0.08949205487668514,-0.0011905089757987296,0.00908412775285542
1761916192947092700,3.7930927734375,0.09024141193926334,-0.004992880950425751,0.012363295553997159
1761916192957147600,3.803147705078125,0.0878466257572174,-0.01694080063656438,0.006531520660594105
1761916192967202600,3.81320263671875,0.09203881675004959,-0.006054879592172801,0.0034988749664276834
1761916192977257700,3.8232578125,0.08784428766965865,-0.00593868760028854,0.002524111650139093
1761916192987313000,3.83331298828125,0.08873276094198226,-0.01028984799751779,0.0016170798078179358
1761916192997368800,3.843368896484375,0.09771920047402381,-0.006253502870234661,0.01301496439576149
1761916193007423700,3.853423828125,0.08963467821776866,-0.011351778140605893,0.014432210782542823
1761916193017478700,3.863478759765625,0.08799334075152873,-0.009788812273356597,0.013770970394834875
1761916193027533800,3.873533935546875,0.0878472102791071,-0.012967095249600243,0.013418357564881443
1761916193037589800,3.88358984375,0.10071370611488818,-0.003932083318498917,0.015395502856746315
1761916193047644700,3.893644775390625,0.09443535649776458,0.0027785407856456,0.007823021775856615
1761916193057699600,3.903699462890625,0.09278875833451747,-0.0053767246022820465,0.012317922042310237
1761916193067754800,3.913754638671875,0.08111176454424858,-0.011520234609267209,0.008053250335156917
1761916193077810000,3.923809814453125,0.09830781401693821,-0.00665023340312764,0.006432663396000861
1761916193087865600,3.933865478515625,0.10369535227417945,0.0008569844388053752,0.009121829414740204
1761916193097920800,3.943920654296875,0.08948796322345733,-0.0003869968734565191,0.012890168972313404
1761916193107975700,3.9539755859375,0.08768763580322265,-0.005873623007442802,0.0014398235447704792
1761916193118030800,3.96403076171875,0.10324585494101048,-0.012259136493201367,0.010918211312219499
1761916193128085500,3.97408544921875,0.093205522441864,0.002064704844309017,0.010833382572978735
1761916193138141700,3.9841416015625,0.0974058967411518,0.004679828379303217,0.008582900232449174
1761916193148196600,3.994196533203125,0.09247253199219703,-0.0006748465046635828,0.010310527742654084
1761916193158251800,4.004251708984375,0.08723521586060523,-0.00506208742884919,0.007466536488384008
1761916193168307000,4.014306884765625,0.09410977780520915,-0.0035936337279272265,0.012981646648049353
1761916193178360600,4.024360595703125,0.1026391212195158,-0.003929779480269644,0.012390841148048639
1761916193188415700,4.034415771484375,0.09096388099491595,-0.007289780265546869,0.015286197263374924
1761916193198470700,4.044470703125,0.08452595690190792,-0.018194997382164,0.007559621599316596
1761916193208525600,4.054525634765625,0.09994739791750908,-0.007028626845020335,0.00024703356362879274
1761916193218581800,4.064581787109375,0.09503098430335521,-0.01639560611026827,0.0068093146886676545
1761916193228636700,4.07463671875,0.08350479716062545,-0.009397292205120903,0.008664660231769084
1761916193238691800,4.08469189453125,0.09713467858433723,-0.019424730973364786,0.01940050071440637
1761916193248746800,4.094746826171875,0.09416530738472938,-0.012287572569819166,0.011875073645636438
1761916193258801700,4.1048017578125,0.07919394822418689,-0.016679692881810478,0.007782397504523396
1761916193268857600,4.114857666015625,0.092217095926404,-0.01030796360952081,0.004419204681739211
1761916193278912800,4.124912841796875,0.1016542018353939,-0.004366819190664682,0.011000994224846362
1761916193288967700,4.1349677734375,0.09673603465557098,-0.0008162779690814204,0.013849661654233932
1761916193299022600,4.145022705078125,0.09017477644383907,-0.0033940080861560996,0.012166457807645201
1761916193309077800,4.155077880859375,0.0870493378996849,-0.017759754619922023,0.011165756332501768
1761916193319133700,4.1651337890625,0.08451192837655544,-0.017736385160777718,0.011367270253971218
1761916193329188900,4.17518896484375,0.0789578013807535,-0.001377261436264962,0.016708704347163438
1761916193339243800,4.185243896484375,0.0849187556117773,0.016055202024627943,0.002240545468404889
1761916193349298700,4.195298583984375,0.10975742879211901,-0.02763861066375393,0.006443257855251431
1761916193359353900,4.205353759765625,0.08402852877378464,-0.012012308425549416,0.02262121632657945
1761916193369409800,4.215409912109375,0.07549217109680176,-0.004772486515261698,0.008064794642478227
1761916193379464700,4.225464599609375,0.12443418892025947,-0.000336305582546629,0.007768295913934707
1761916193389519600,4.23551953125,0.09348375486135482,0.0014818748714984394,0.01025339072793722
1761916193399574800,4.24557470703125,0.06505027205944061,-0.01799210435436107,0.011474456955492495
1761916193409630700,4.255630615234375,0.09886778598725796,-0.026122525278688406,0.00683817545697093
1761916193419685600,4.265685546875,0.10936346103847026,-0.016050203905813396,0.01461392402499914
1761916193429740500,4.275740478515625,0.08140519453287125,0.003959651745436713,0.009621157239004969
1761916193439795700,4.285795654296875,0.06448270130455494,0.0045552475849865,0.012056494627147913
1761916193449851000,4.295850830078125,0.09797639010548591,-0.007304929885617457,0.023795301607251167
1761916193459906800,4.30590673828125,0.09992401704192161,-0.0014828064532601273,0.0206273390956223
1761916193469961700,4.315961669921875,0.09785130242109298,-0.004190809603210072,0.011016995511576533
1761916193480016600,4.3260166015625,0.09800152454674244,0.006883900595107116,0.015645093703642487
1761916193490071800,4.33607177734375,0.0839250683993101,0.008948062016721815,0.010276040951162576
1761916193500126700,4.346126708984375,0.09665186350345611,-0.010649239911418407,0.016603782667964695
1761916193510182700,4.3561826171875,0.08918634992837905,-0.011796597015368752,0.018152911806106568
1761916193520237600,4.366237548828125,0.07661036147177219,0.0009357327804202214,0.018097016900405286
1761916193530292700,4.376292724609375,0.0941121158927679,-0.014043145249586086,0.0069623132932931184
1761916193540348000,4.386347900390625,0.1090828905314207,-0.00866527443641098,0.0011829261742532253
1761916193550403600,4.396403564453125,0.10267302348911761,-0.014411451122304424,0.008458616265654563
1761916193560458800,4.406458740234375,0.09970832846462727,-0.019636946668650488,0.017032602539286016
1761916193570513700,4.416513671875,0.06737842274606227,-0.0029794724685139953,0.022834201490133998
1761916193580568800,4.42656884765625,0.07707564089596271,-0.0005533070508041419,0.01877637746669352
1761916193590623700,4.436623779296875,0.1327595341950655,-0.008750621482171117,0.005642243670672178
1761916193600679700,4.4466796875,0.10346563517153262,-0.010000315582589245,0.004379676388949156
1761916193610734600,4.456734619140625,0.07714812161028385,-0.00856555865529226,0.010243673051521181
1761916193620789800,4.466789794921875,0.08341828792095184,-0.016480332101520615,0.02151961176022887
1761916193630844000,4.476843994140625,0.07846738751530646,-0.015379590618272777,0.0019612901356071233
1761916193640898800,4.48689892578125,0.1109609593629837,-0.013301610733859706,0.01705422984920442
1761916193650955000,4.496955078125,0.08973989215791225,-0.008906396565772592,0.00751549019664526
1761916193661010000,4.507010009765625,0.0725268915504217,-0.008204568439349531,0.02045702403001487
1761916193671064800,4.51706494140625,0.0921206498146057,-0.0005258938874932937,0.009659881814196705
1761916193681120000,4.5271201171875,0.08913315843641757,-0.009338467840105294,0.01033675816245377
1761916193691176000,4.537176025390625,0.09902443785369396,-0.011455208832328208,0.006669833152741193
1761916193701231000,4.547231201171875,0.09799158767461776,-0.011526120927359442,0.013178703590109943
1761916193711285800,4.55728564453125,0.07148527354300022,-0.0036614633833058174,0.005709463687986135
1761916193721341000,4.5673408203125,0.09108779963552951,-0.010142865858436562,0.00511595477424562
1761916193731395800,4.577395751953125,0.1108738656014204,-0.008028723248676397,0.0008737871598452329
1761916193741452000,4.5874521484375,0.09623919104933738,-0.018807306894497014,-0.0013599632415920496
1761916193751506700,4.597506591796875,0.08488251525461674,-0.007003981027530972,0.011872151036188005
1761916193761561900,4.607561767578125,0.08516834645867347,-0.004291472949110903,0.011774316684901713
1761916193771617000,4.617616943359375,0.08936170649528503,-0.0037241944551700723,0.010680603164061903
1761916193781672000,4.627671875,0.09280570946931839,-0.005276837574515957,0.008704042394086718
1761916193791728000,4.63772802734375,0.07799217121899127,-0.020656311745068524,0.009297405177354811
1761916193801782800,4.64778271484375,0.07709609916210174,-0.0170755374987144,0.014203881919384001
1761916193811838000,4.657837890625,0.11197510484158991,-0.011869710200640838,0.005176087463647127
1761916193821892900,4.667892822265625,0.09717208798527717,-0.0004682591158547438,0.009659954879432915
1761916193831949000,4.677948974609375,0.07653203553855419,-0.012483538099913857,0.022829452249780297
1761916193842003700,4.688003662109375,0.0768278036147356,-0.009992107159958685,0.009257511558383703
1761916193852059000,4.698058837890625,0.09703414081931114,-0.00987152440403588,0.005147153630107641
1761916193862114000,4.708114013671875,0.10168635053932666,-0.007804949546337593,0.007941533588990569
1761916193872169000,4.7181689453125,0.10617547865211963,-0.0001792792567750439,0.009736600312218069
1761916193882225200,4.72822509765625,0.08612287070453166,0.001859398380422499,0.010948898711428045
1761916193892279800,4.73827978515625,0.08027356015443801,0.002320837313134689,0.014147329426556825
1761916193902335000,4.7483349609375,0.09793547357320785,-0.0073859546659979965,0.009732727854698895
1761916193912390000,4.758389892578125,0.10572130514383316,-0.0078045202880748545,0.013106588201969862
1761916193922446000,4.768446044921875,0.08805705363750457,-0.004962152452021837,0.021138868814334272
1761916193932500700,4.778500732421875,0.0836947667747736,-0.013884856265201232,0.007252163085341453
1761916193942556000,4.788555908203125,0.08952069644927978,-0.006958753646316472,0.007550926836207509
1761916193952611000,4.798611083984375,0.10209142420887947,0.001049721398775,0.0036422289598733184
1761916193962666000,4.808666015625,0.09086918844878673,-0.004343805924546904,0.017541867235675454
1761916193972722000,4.818721923828125,0.08638239842355251,-0.009319630708894692,0.010479016177356243
1761916193982776800,4.82877685546875,0.08936988980174064,-0.0017615777288679964,0.01579553502500057
1761916193992832000,4.83883203125,0.099397362819314,0.000572436442959588,0.013670797955989836
1761916194002887000,4.848886962890625,0.10061199930608272,-0.00552710655813571,0.01162314471118152
1761916194012941800,4.85894189453125,0.08910451686382294,-0.0051562776514794675,0.009765095754340291
1761916194022997800,4.868997802734375,0.0819254190146923,-0.007828047294134739,0.0001309329032897949
1761916194033053000,4.879052978515625,0.09105506640970706,-0.00885749993972713,0.011021890882402657
1761916194043108000,4.889108154296875,0.09914660292863846,-0.008731743251765147,0.0177467421580106
1761916194053162800,4.899162841796875,0.09661679219007492,-0.01972682832563296,0.010654957266151904
1761916194063219000,4.909218994140625,0.0841997936874628,-0.01816319573810324,0.013000059087574482
1761916194073273900,4.91927392578125,0.08373509878516197,-0.0036618013100232927,0.0054524201869964595
1761916194083329000,4.9293291015625,0.11248071627616882,0.003302722206665203,0.019297259535640477
1761916194093384000,4.939384033203125,0.098878891903162,-0.013088952080579475,-0.0032131898928433656
1761916194103438800,4.94943896484375,0.08257657639980316,-0.0031345351660624146,0.011485124479979276
1761916194113494800,4.959494873046875,0.09034837944507598,-0.017506544760544782,0.00848667331635952
1761916194123550000,4.969550048828125,0.10651742395758629,-0.013394093056593556,0.009272270736098289
1761916194133605000,4.979605224609375,0.10743044714927673,-0.00004845138476230204,0.003364142670854926
1761916194143659800,4.98965966796875,0.085594462916255,-0.01942751658549532,0.005750234089791775
1761916194153716000,4.999716064453125,0.08410510114133357,-0.013555386848817578,0.017774653078243136
1761916194163771000,5.00977099609375,0.08860124351680278,-0.019621191977092528,0.014827493710443377
1761916194173826000,5.019825927734375,0.10102993245720862,-0.014484007185150402,0.008117474677786231
1761916194183880700,5.029880615234375,0.08427636605501175,-0.014142315324721858,0.008194266241043805
1761916194193936000,5.039935791015625,0.07799918548166751,-0.009036612516432068,0.011067995046451687
1761916194203991800,5.04999169921875,0.08833294796943664,-0.005348217743716668,0.009748436880484223
1761916194214047000,5.060046875,0.09461655828356742,-0.004553411820926704,0.014252251105755566
1761916194224102100,5.07010205078125,0.07846446490585804,0.0011185853839037008,0.010388561414927243
1761916194234156800,5.08015673828125,0.08266542372703552,-0.006736466364876833,0.013365385268628597
1761916194244212000,5.0902119140625,0.0949438905417919,-0.011704356721229851,0.009506590948626398
1761916194254268000,5.100267822265625,0.09853986920714378,-0.009590577154362108,0.013628639314696192
1761916194264323000,5.110322998046875,0.09945289239883422,-0.005624533342401264,0.009970482133328915
1761916194274377700,5.120377685546875,0.10006137968599796,-0.005982576974364929,0.015365546109899878
1761916194284433000,5.130432861328125,0.0864350053936243,-0.013657377927057677,0.016706366259604692
1761916194294488800,5.14048876953125,0.09106967945694923,-0.01442902787819039,0.009883899828419088
1761916194304544000,5.1505439453125,0.08867372423112392,-0.004703055132908048,0.009157704445719719
1761916194314599000,5.160598876953125,0.08822831855118274,-0.003160899158247048,0.012700418553873896
1761916194324653800,5.17065380859375,0.08613105401098728,-0.015170305523945717,0.012731398214027285
1761916194334709000,5.180708984375,0.09121639445126056,-0.012858998657559276,0.01231551088951528
1761916194344765000,5.190764892578125,0.10499357539117336,-0.002454700817383127,0.003331993966922164
1761916194354820000,5.200820068359375,0.1053051255583763,-0.008573412026540609,0.010622735496982932
1761916194364874800,5.210874755859375,0.09019348114430904,-0.006739601320168003,0.012254136091098189
1761916194374930000,5.220929931640625,0.09258534471690655,-0.012424916947586462,0.016778408582508564
1761916194384985900,5.23098583984375,0.08779518783092498,-0.007702840878732967,0.018449191338941455
1761916194395041000,5.241041015625,0.0960205798625946,-0.01318717344928882,0.009688669517263769
1761916194405096000,5.251095947265625,0.10126900191009044,-0.003346767986012855,0.00772146109752357
1761916194415150800,5.26115087890625,0.09573650222420692,-0.0035621357612544667,0.014252470301464199
1761916194425206000,5.2712060546875,0.08286942186653613,-0.011506021137535571,0.020365619419515132
1761916194435262000,5.281261962890625,0.08928396508395671,-0.007874883252190193,0.014071560776606202
1761916194445317000,5.291317138671875,0.09062485829889774,-0.0009884356486145407,0.0059392538558691735
1761916194455371800,5.301371826171875,0.09347089537978172,-0.0025286451197171116,0.011279299709573387
1761916194465427000,5.311427001953125,0.08988426906466483,-0.002412426870013587,0.016005013057217
1761916194475482000,5.321482177734375,0.08868950632214545,-0.009358052748342742,0.017164850616827605
1761916194485538000,5.3315380859375,0.09047697426080703,-0.015409132948232582,0.017145926720649005
1761916194495593000,5.341593017578125,0.09885375746190547,0.000897513953660382,0.008954290828108787
1761916194505647900,5.35164794921875,0.10155307954847811,-0.00010167255947599187,0.00797178259678185
1761916194515703000,5.361703125,0.0990051486313343,0.008076657468563644,0.01596226989403367
1761916194525759000,5.371759033203125,0.10543605846166611,-0.00046060667400597594,0.012565467062592506
1761916194535814000,5.38181396484375,0.1025911904245615,-0.012020185771328396,0.011396057957038283
1761916194545868800,5.391868896484375,0.10544716437757015,-0.003072406882396899,0.016293986066430805
1761916194555924000,5.401924072265625,0.08540975399911403,-0.005569954752596095,0.017577669201418757
1761916194565979000,5.411978759765625,0.09678688805997371,-0.0060006297959305805,0.014216814466193318
1761916194576035000,5.42203515625,0.08720131359100342,-0.005183892885834211,0.016597425992414355
1761916194586089700,5.43208984375,0.09018529783785342,-0.005817712118721101,0.014025968069210647
1761916194596145000,5.442144775390625,0.10410510211884975,-0.011464872851461404,0.012926117068529128
1761916194606200000,5.452199951171875,0.09497779281139374,-0.014591790966648841,0.0103686876706779
1761916194616256000,5.462256103515625,0.08735621189177036,-0.008677461489482084,0.012019523617625236
1761916194626311000,5.472310791015625,0.09020575610399245,-0.008718122293433406,0.015359116369113326
1761916194636365600,5.482365478515625,0.08990063567757606,-0.0031171228069579227,0.011402633828297256
1761916194646420700,5.492420654296875,0.08944295503795147,-0.003977187402127311,0.01273095982261002
1761916194656476000,5.502475830078125,0.10964286250174045,0.0013551044033840297,0.012456892121583223
1761916194666531600,5.512531494140625,0.0982733272254467,-0.010686230328894453,0.011823343458399176
1761916194676586800,5.522586669921875,0.09632686933279037,-0.005993547034595394,0.014980419249832629
1761916194686641700,5.5326416015625,0.0916851810067892,-0.0038655962368356993,0.014132570248842239
1761916194696696800,5.54269677734375,0.09242693928480147,-0.009521772534737828,0.009290683175623416
1761916194706752800,5.552752685546875,0.09497194759249687,-0.008946390649443492,0.006575578998029232
1761916194716807700,5.5628076171875,0.09662672906219959,0.0043118889744102485,0.013485942908376455
1761916194726862600,5.572862548828125,0.08105974209606646,-0.004576952526718378,0.010415595552325248
1761916194736917800,5.582917724609375,0.09989712903499602,-0.01207704879140947,0.011415712505578993
1761916194746972700,5.59297265625,0.09719780694842338,-0.009843393146450398,0.01314282855913043
1761916194757028600,5.603028564453125,0.09062427377700805,-0.009700332555593922,0.002217456853762269
1761916194767083500,5.61308349609375,0.09617197103202342,-0.002756333520414773,0.008491934013366698
1761916194777138700,5.623138671875,0.0927308906674385,-0.016271440874482505,0.0010001900184899567
1761916194787193900,5.63319384765625,0.0960334393441677,-0.008212558807915774,0.007574088516086339
1761916194797249500,5.64324951171875,0.09979191509485244,-0.008109319912438514,0.010005918772891163
1761916194807304700,5.6533046875,0.0921691651314497,-0.005659417426114669,0.01436966694034636
1761916194817359600,5.663359619140625,0.08139116600751876,-0.01451400731448084,0.005450009034201502
1761916194827414800,5.673414794921875,0.09141454737186432,-0.009490695834817597,0.01251169104874134
1761916194837469700,5.6834697265625,0.10339140089154243,-0.006155702768277842,0.022898498897999525
1761916194847525600,5.693525634765625,0.09307108240723609,-0.0014017280155967456,0.013554185838997363
1761916194857580500,5.70358056640625,0.09396189376711844,-0.00728918546885834,0.016947481539100407
1761916194867635700,5.7136357421875,0.09097440238893031,-0.00871574082339066,0.01821815906204283
1761916194877690600,5.723690673828125,0.08573533269166946,-0.021822238835459574,0.009118103087693452
1761916194887745500,5.73374560546875,0.08408172026574612,-0.012341640844615176,0.01086406997218728
1761916194897801700,5.7438017578125,0.08826455890834331,-0.0003813343176501803,0.010969430042803287
1761916194907856600,5.753856689453125,0.10069324784874915,0.005189851127518341,0.016969912566617132
1761916194917911800,5.763911865234375,0.10115969631671905,-0.009702900113660142,0.011477964086830616
1761916194927966700,5.773966796875,0.09248480695188045,-0.005032388693618123,0.010665624790638685
1761916194938022700,5.784022705078125,0.08665361658036708,-0.002299660952721024,0.02017382317446172
1761916194948077600,5.79407763671875,0.10118015458285808,-0.0014631610378739424,0.018802754016965628
1761916194958132700,5.8041328125,0.09848200154006481,0.002852128894953057,0.014832462146505713
1761916194968187600,5.814187744140625,0.08636661633253097,-0.013365055333421331,0.010264569709077477
1761916194978242600,5.82424267578125,0.09847674084305763,-0.009706173207913525,0.009069222444668412
1761916194988298800,5.834298828125,0.09592530279457569,-0.013220766333281063,0.016963336695358155
1761916194998353700,5.844353759765625,0.10160393295288085,-0.005464165423717349,0.011233049415051936
1761916195008408800,5.854408935546875,0.08918050470948219,-0.009279614933981793,0.011587196614965796
1761916195018463500,5.86446337890625,0.09561141453981399,-0.0028433222507010213,0.017171718749031423
1761916195028519700,5.874519775390625,0.08709960678219794,-0.0037161036219040397,0.009285349413380026
1761916195038574600,5.88457470703125,0.0879991859704256,-0.0020372448735812214,0.0010333616357296705
1761916195048629800,5.894629638671875,0.10026596234738826,-0.008790841611416545,0.005570055217295884
1761916195058684700,5.9046845703125,0.08695055370032787,-0.007658709476061631,0.013465484642237424
1761916195068739600,5.914739501953125,0.08305471530556678,-0.005624698880827054,0.015479235617443918
1761916195078795800,5.924795654296875,0.08693301804363728,-0.014386113468359689,0.015362842696160077
1761916195088850700,5.9348505859375,0.11117314080893993,-0.010079653012671042,0.017777137296274302
1761916195098905600,5.944905517578125,0.09622750061154366,-0.013796447329386136,0.007776625350862741
1761916195108960500,5.95496044921875,0.09114391373693942,-0.006641582022502552,0.014299158987402916
1761916195119015700,5.965015625,0.07916004595458508,-0.008338156807317863,0.005964972819015383
1761916195129071600,5.975071533203125,0.08603811503052711,-0.016028480697772466,0.010677972815558314
1761916195139126800,5.985126708984375,0.09186638279259204,-0.01231259284664411,0.009146160138398408
1761916195149181700,5.995181640625,0.09231295751631259,-0.0010386291826027445,0.006639218818768859
1761916195159236600,6.005236572265625,0.08737900824546814,0.00005056342674652114,0.01495382350385189
1761916195169292800,6.015292724609375,0.0947135889172554,-0.011874477707303594,0.0032445348791778086
1761916195179347700,6.02534765625,0.09067162005007266,-0.015687229512049816,0.0035723055288195606
1761916195189402600,6.035402587890625,0.09665361706912518,-0.018005504975339863,0.010662482985481619
1761916195199457500,6.04545751953125,0.09605623569786548,-0.003198154437204357,0.02007430832274258
1761916195209512700,6.0555126953125,0.09636135612428187,0.0020877569263335317,0.015499547753110528
1761916195219568600,6.065568603515625,0.09366846377849579,-0.0017162658659741281,0.009500453468784689
1761916195229623600,6.07562353515625,0.08617138602137565,-0.0029893796578864566,0.010023819755762815
1761916195239678700,6.0856787109375,0.09140811763107776,-0.011561740230012219,0.017959946517273784
1761916195249733600,6.095733642578125,0.09740998839437962,-0.012011342594458255,0.010984919872879981
1761916195259789800,6.105789794921875,0.09426292254030703,-0.005583506070624571,0.010601327382773161
1761916195269844700,6.1158447265625,0.0999462288737297,-0.00120224051278783,0.005257628267258405
1761916195279899600,6.125899658203125,0.1011444987475872,-0.004656609617208596,0.00733355775848031
1761916195289954600,6.13595458984375,0.09695581488609313,-0.01681602576271398,0.011350319119170307
1761916195300009700,6.146009765625,0.09380524190068244,-0.010162938248796853,0.017308204610273242
1761916195310065700,6.156065673828125,0.0914110402405262,-0.013230317329626996,0.0126687082413584
1761916195320120600,6.16612060546875,0.09575403788089752,-0.013853369714971631,-0.003990604006126523
1761916195330175700,6.17617578125,0.09679799397587775,-0.00219589347592555,0.009078501729667187
1761916195340230700,6.186230712890625,0.1075584574431181,-0.005939555249968543,0.008823723251000046
1761916195350286800,6.196286865234375,0.08763853596448898,-0.01506591699264245,0.007000307216122746
1761916195360341500,6.206341552734375,0.09227905524671078,-0.011061106364650186,-0.0005159136328846216
1761916195370396700,6.216396728515625,0.09963350966274738,-0.005485993663035333,0.007835004474595189
1761916195380451600,6.22645166015625,0.09261398628950118,-0.0098242671792279,0.015410554295405745
1761916195390506800,6.2365068359375,0.09352467139363288,-0.010879119127558078,0.015672712362930177
1761916195400562700,6.246562744140625,0.09248363790810107,-0.01164567163682077,0.015130714440718292
1761916195410617600,6.25661767578125,0.09174538676142692,-0.01322421409911476,0.01303549572713673
1761916195420672800,6.2666728515625,0.09578151040971279,-0.015510920813784468,0.006812748754769563
1761916195430727700,6.276727783203125,0.09532909046709537,-0.008990878245141356,0.004774301729723811
1761916195440783600,6.28678369140625,0.09383037634193897,-0.009042583316203672,0.012288549817353486
1761916195450838500,6.296838623046875,0.10566636008620262,-0.0025922655325033702,0.018198796774446965
1761916195460893700,6.306893798828125,0.09550620059967041,-0.00383918772052275,0.008845862017571926
1761916195470948600,6.316948486328125,0.1001467198818922,-0.012289011041657067,0.01226758009456098
1761916195481003800,6.327003662109375,0.10299334148466587,-0.011003604023752268,0.017154840679466724
1761916195491059700,6.337059814453125,0.09131810126006602,-0.01702321593972156,0.012416998502612114
1761916195501114600,6.347114501953125,0.0892190831542015,-0.013486771742149722,0.016960633281618356
1761916195511169800,6.357169677734375,0.09700023854970931,-0.004532633894379251,0.013225392276048659
1761916195521224700,6.367224609375,0.094447631457448,-0.004240007623354904,0.016491919791325926
1761916195531280600,6.37728076171875,0.10073182629346847,-0.011496180163533426,0.01036065049469471
1761916195541335600,6.38733544921875,0.10133446836173533,-0.00957837297662627,0.0026676848392933605
1761916195551390700,6.397390625,0.08248597550690173,-0.009244263917743228,0.007972294053435325
1761916195561445600,6.407445556640625,0.08891513177156447,-0.014390086390578653,0.014032617005705832
1761916195571500800,6.417500732421875,0.08680500774979591,-0.00892317188734887,0.008120397287234663
1761916195581556500,6.427556396484375,0.09039514119625092,-0.006905324692337307,0.011425064855813979
1761916195591611600,6.437611572265625,0.10177227525711059,-0.00348859103443101,0.005072115632519126
1761916195601666800,6.447666748046875,0.09071136753857136,-0.015293976427742745,0.0035406682815402745
1761916195611721700,6.4577216796875,0.09535247134268283,-0.007836139269045087,0.008592106452211737
1761916195621777700,6.467777587890625,0.10357844789624214,-0.0031114511179970578,0.015543752221018075
1761916195631832600,6.47783251953125,0.09041092328727245,-0.009683096009714063,0.013281798638403414
1761916195641888000,6.487887939453125,0.07962707894444465,-0.01111117203447502,0.007148702710866928
1761916195651943000,6.49794287109375,0.08335106790363789,-0.0063982291201478796,0.013076046933233738
1761916195661998000,6.507998046875,0.09546820667684078,-0.0006830503607168794,0.009687500473484396
1761916195672053800,6.5180537109375,0.10954407830238341,-0.01342950914655812,0.014029694396257399
1761916195682109000,6.52810888671875,0.11178981140255928,-0.012575127656792756,0.007724602902680635
1761916195692163800,6.538163818359375,0.08544365626871585,-0.0017893996008438988,0.012649784345179795
1761916195702219000,6.548218994140625,0.08677578165531158,-0.002330107464978937,0.00793108526021242
1761916195712275000,6.55827490234375,0.09381400972902774,-0.02044256167982239,0.012488967760279773
1761916195722329900,6.568329833984375,0.10143734421432017,-0.009299736415047664,0.007373086051270366
1761916195732385000,6.578385009765625,0.09604746786952018,-0.016076048449834342,0.01774053161293268
1761916195742440000,6.58843994140625,0.08795826943814754,-0.006026160387764684,0.01533018253557384
1761916195752494800,6.598494873046875,0.09230126707851886,-0.0027498284311033784,0.017814619762450457
1761916195762550800,6.60855078125,0.1012923827856779,-0.017184009691735263,0.008349895194172858
1761916195772606000,6.61860595703125,0.09846621944904327,-0.00779105801830301,0.015436127128079532
1761916195782660900,6.628660888671875,0.08903846589028835,-0.006472280737047549,0.014545096572488545
1761916195792716000,6.638716064453125,0.08948971678912639,-0.005148882079601754,0.016305530373752115
1761916195802771700,6.648771728515625,0.08784136506021022,-0.00945134678018512,0.011710311537981032
1761916195812827000,6.658826904296875,0.09217617939412594,-0.0027496823006309566,0.008489815121516585
1761916195822882000,6.668882080078125,0.09935118559002876,-0.00491534731836291,0.012345029244944452
1761916195832937000,6.67893701171875,0.09665537063479424,-0.008526694799493998,0.015375994438678025
1761916195842993000,6.688992919921875,0.09695581488609313,-0.008005223642080091,0.0030876638170331716
1761916195853047800,6.6990478515625,0.094565120357275,-0.009417583791189826,0.0024348259314894674
1761916195863103000,6.70910302734375,0.09636427873373031,-0.008183632965886499,0.008374298983067274
1761916195873158000,6.719157958984375,0.08453940090537071,-0.016125776192941702,0.009020999388769269
1761916195883212800,6.729212890625,0.09426116897463797,-0.010247899418778251,0.012093027245253324
1761916195893268700,6.739268798828125,0.10368190827071666,-0.009233461679227183,0.0050052609413862225
1761916195903324000,6.749323974609375,0.09799041863083839,-0.014747044318797998,0.00014781097285449505
1761916195913379000,6.759379150390625,0.09052256696820259,-0.007306372924032621,0.010861878015100955
1761916195923434000,6.76943408203125,0.09051263009607792,-0.010379409994091838,0.0021824586056172846
1761916195933490000,6.779489990234375,0.0976893898576498,-0.016901715301768854,0.01273614745438099
1761916195943544800,6.789544921875,0.08870645745694637,-0.016863924591627437,0.00936908217407763
1761916195953600000,6.79960009765625,0.08736264163255691,-0.011566160676802974,0.006628989685699344
1761916195963655000,6.809655029296875,0.09964578462243079,-0.007716944752610288,0.008531681501865387
1761916195973709800,6.819709716796875,0.08903437423706054,-0.015427562512422445,0.0039994448997080325
1761916195983765800,6.829765869140625,0.08933189587891101,-0.014401135224266908,0.012554507277160882
1761916195993821000,6.839821044921875,0.09472118770182132,-0.010343324900558218,0.004581117245182394
1761916196003876000,6.8498759765625,0.09202712631225586,-0.0106601540310774,0.011476064390689133
1761916196013931000,6.859930908203125,0.09142273067831992,-0.013946886367455589,0.016946604756265877
1761916196023987000,6.869987060546875,0.08902502188682555,-0.011626382414461112,0.021184680717438457
1761916196034041900,6.880041748046875,0.08901333144903183,-0.005580419064394664,0.009686185299232602
1761916196044097000,6.890096923828125,0.0952928501099348,-0.007192366039368789,0.02053505770228803
1761916196054152000,6.90015185546875,0.09051087653040886,-0.0080943129979074,0.014453326635807751
1761916196064206800,6.910206787109375,0.08556582134366035,-0.006317871060047764,0.01680471206754446
1761916196074262800,6.9202626953125,0.10829787763357161,-0.011135349777794908,0.015801161048188805
1761916196084318000,6.93031787109375,0.09736848734021186,-0.012848964745667763,0.007059343926981091
1761916196094372900,6.940372802734375,0.09676642979383468,-0.0073632336608250625,0.009053586484119296
1761916196104427800,6.950427734375,0.09168284291923046,-0.0018988307750900275,0.008249065168201923
1761916196114483700,6.960483642578125,0.09556932896375656,0.0002782506857998669,0.0035296354308724403
1761916196124539000,6.970538818359375,0.09108896867930888,-0.001766769927216228,0.004295943628251552
1761916196134594000,6.980593994140625,0.09634031333625316,-0.005043928434362169,0.013514657546207308
1761916196144649000,6.99064892578125,0.08152735960781574,-0.00019584223250858484,0.0045235418390482665
1761916196154705000,7.000704833984375,0.08690437647104263,-0.0009828187585808337,0.015444456565007567
1761916196164759800,7.010759765625,0.09782792154550551,-0.011687588249519466,0.012306889191642403
1761916196174815000,7.02081494140625,0.09499357490241526,-0.018015300283569374,0.007834639148414134
1761916196184870000,7.030869873046875,0.09664192663133143,-0.01304714049915783,0.018419015396386382
1761916196194924800,7.0409248046875,0.09501227960288525,-0.006773307226947509,0.01323700964860618
1761916196204980700,7.050980712890625,0.07899930243492126,-0.013766193755017593,0.010566621395573019
1761916196215036000,7.061035888671875,0.08169219478070736,-0.010745539892744273,0.006392769777029753
1761916196225091000,7.071091064453125,0.10235621262490749,-0.012553653327212668,0.003188493843004107
1761916196235145700,7.081145751953125,0.10685177047848701,-0.015608220875530968,0.009229016116261481
1761916196245202000,7.091201904296875,0.09652911390662193,-0.003859830933040939,0.015935528017580507
1761916196255256800,7.1012568359375,0.09756196408569812,-0.00804779099203879,0.01764379324018955
1761916196265312000,7.11131201171875,0.0969704279333353,-0.022636174150404986,0.015300371919199824
1761916196275367000,7.121366943359375,0.09847031110227107,-0.01065196159146726,0.015554931202158331
1761916196285421800,7.131421875,0.08246084106564522,-0.013977397953439503,0.014780878089740872
1761916196295477800,7.141477783203125,0.08274374966025352,-0.011298652864014729,0.009480360528826713
1761916196305533000,7.151532958984375,0.1068213753402233,-0.01663855030395789,0.014025748873502015
1761916196315588000,7.161588134765625,0.10352700996994972,-0.01203872150843963,0.002544496851041913
1761916196325642800,7.171642822265625,0.09140694858729839,-0.008952790707477834,0.007024345678836107
1761916196335699000,7.181698974609375,0.09378829076588154,-0.00700804756458383,0.01244783203229308
1761916196345753900,7.19175390625,0.08884498914480209,-0.008991012959170621,0.0016127689588814973
1761916196355809000,7.20180908203125,0.10621054996550082,-0.014974861725303344,0.013920388802886008
1761916196365863700,7.21186376953125,0.08855155915617942,-0.01404372748818714,0.01558591086231172
1761916196375919900,7.221919921875,0.0895896700322628,-0.00934153886331478,0.011837445048987864
1761916196385974800,7.231974853515625,0.08777765217423439,-0.006169181021070108,0.013580270128324627
1761916196396030000,7.242030029296875,0.09765782567560673,-0.005022052245982922,0.015312866074591874
1761916196406085000,7.252085205078125,0.09452069669365883,-0.012183452324930111,0.012691285399347543
1761916196416139800,7.262139892578125,0.09765899471938609,-0.00890055819674162,0.01843837768398225
1761916196426196000,7.272196044921875,0.09631108724176883,-0.005621255681570619,0.015615429217740893
1761916196436251000,7.2822509765625,0.09645487962663173,-0.014397577860578895,0.009120952631905675
1761916196446306000,7.29230615234375,0.08417465924620628,-0.009213231741951312,0.007472747033461928
1761916196456360700,7.302360595703125,0.09763502932190894,-0.008314182276686188,0.014904796730354428
1761916196466417000,7.3124169921875,0.10107260255515575,-0.014361396868922746,0.01975128691345453
1761916196476471800,7.322471923828125,0.08385434125065803,-0.010209859830175992,0.010166662292554973
1761916196486527000,7.33252685546875,0.09103869979679584,-0.017110243485914542,0.007603606871515512
1761916196496582100,7.34258203125,0.09239186797142028,-0.009707321702095213,0.00436323671080172
1761916196506636800,7.35263671875,0.09389525827169418,-0.007198798063443973,0.005453516165539622
1761916196516693000,7.36269287109375,0.089419574162364,-0.01232482670713216,0.011543941995128988
1761916196526748000,7.372747802734375,0.09346505016088485,0.0009390366990701294,0.013261267307028174
1761916196536803000,7.382802978515625,0.08822188881039619,-0.012405632291804067,0.01663695428520441
1761916196546857700,7.392857666015625,0.09137772249281406,0.0004670352731482126,0.013146701016649604
1761916196556914000,7.402913818359375,0.0990226842880249,-0.0030681942148716185,0.013251549630612133
1761916196566968800,7.41296875,0.08675064721405505,-0.00986035227276152,0.017467486825212836
1761916196577024000,7.42302392578125,0.08284954812228679,-0.00880958284450462,0.02255640746206045
1761916196587079000,7.433078857421875,0.09242109406590461,-0.002475185341341421,0.010214739217981696
1761916196597134800,7.443134765625,0.10275076490044593,-0.003699306609085761,0.005352320813387632
1761916196607190000,7.45318994140625,0.09840952082574367,-0.010347834395605604,0.011059008022397756
1761916196617245000,7.463244873046875,0.10349427674412727,-0.0002172092475229874,0.010058818003907798
1761916196627300000,7.473300048828125,0.0961556044191122,-0.008617142712057102,0.017637655760347842
1761916196637355000,7.48335498046875,0.0987000282049179,0.0037045467564952557,0.019273001877218483
1761916196647411200,7.4934111328125,0.09271160144507884,0.004344744356174488,0.01796506108380854
1761916196657466000,7.503466064453125,0.09240589649677276,-0.0011251840880489908,0.014171002563089131
1761916196667521300,7.513521240234375,0.09928162748515605,-0.005980172671435866,0.013830591627582907
1761916196677576200,7.523576171875,0.10646247889995575,-0.0053861386013100854,0.01011843923665583
1761916196687632100,7.533632080078125,0.110647071108222,-0.010133104799536522,0.010046177718043326
1761916196697687000,7.54368701171875,0.10495967312157153,-0.0104334965351969,0.010656637766584754
1761916196707742200,7.5537421875,0.10165712444484233,-0.007455213660059962,0.01425875391177833
1761916196717797400,7.56379736328125,0.10793021336495875,-0.015307975270343012,0.014429580434039234
1761916196727853000,7.57385302734375,0.10613748472929001,-0.009791056746081448,0.011094006270542741
1761916196737908200,7.583908203125,0.1075011742979288,-0.006695268988097086,0.007398220492526889
1761916196747963100,7.593963134765625,0.10152677606344222,-0.018946267840615472,0.013668167607486247
1761916196758018300,7.604018310546875,0.08985270488262176,-0.012751513986871577,0.011459259386360644
1761916196768073000,7.614072998046875,0.09268763604760169,-0.01004737644457491,0.007993556037172675
1761916196778129200,7.624129150390625,0.1054185228049755,-0.009778889100963715,0.01919299544356763
1761916196788184000,7.63418408203125,0.09674889413714409,-0.00033509543957188723,0.01935001263618469
1761916196798239200,7.6442392578125,0.09330430664122104,-0.01204212817507796,0.018495441633462905
1761916196808294100,7.654294189453125,0.10258476068377494,-0.011082279300130903,0.014861322914808987
1761916196818350000,7.66435009765625,0.10319149440526962,0.0009118518646224401,0.011897139346972107
1761916196828405200,7.6744052734375,0.0993102690577507,-0.00794137604207499,0.0107123134765774
1761916196838460200,7.684460205078125,0.09795008662045002,-0.00846323992513353,0.01839468467272818
1761916196848515300,7.694515380859375,0.09689502460956573,-0.008333667861868161,0.014775544327497482
1761916196858571000,7.704571044921875,0.10123919129371642,-0.012888013547845184,0.011406067894399165
1761916196868626200,7.714626220703125,0.10109481438696384,-0.016782794779969842,0.010585764487460255
1761916196878681000,7.72468115234375,0.08717676367163657,-0.008997456399688962,0.007767053804919123
1761916196888736300,7.734736328125,0.08297522032856941,-0.00883301623573061,0.014673472192510962
1761916196898792200,7.744792236328125,0.0968874258249998,-0.002233442157472018,0.014290098898112773
1761916196908847000,7.75484716796875,0.10975976687967777,-0.0036375870340852995,0.004656447503715753
1761916196918902300,7.76490234375,0.09794365687966346,-0.008913744188589043,0.01400477915070951
1761916196928957200,7.774957275390625,0.090896660977602,-0.009885881722951307,0.0073353843893855806
1761916196939013000,7.78501318359375,0.10121581041812897,-0.008204698586801533,0.014753697821870445
1761916196949068000,7.795068115234375,0.10271101741194724,-0.005839033467962872,0.012386822560057043
1761916196959123200,7.805123291015625,0.09732932437360287,-0.0019336098275263792,0.009455445283278822
1761916196969178000,7.81517822265625,0.09687281277775764,-0.0015835451476857996,0.02273322533369064
1761916196979234300,7.825234375,0.09551379938423633,-0.004990638760989531,0.007506868498772383
1761916196989289200,7.835289306640625,0.09745733466744422,-0.004888205866399221,0.00319580036662519
1761916196999344000,7.84534423828125,0.10839490826725959,-0.006523186657088808,0.011363105535507201
1761916197009399300,7.8553994140625,0.10481178908348082,-0.009702182019385509,0.010791589257866144
1761916197019454200,7.8654541015625,0.10063187305033207,-0.014815179934853222,0.015733502639457584
1761916197029510100,7.87551025390625,0.0891103620827198,-0.015893602271727286,0.01497070157341659
1761916197039565000,7.88556494140625,0.09554711713194847,-0.012438221670442725,0.008651581554487347
1761916197049620200,7.8956201171875,0.10512918446958064,-0.011236312234506477,0.012759820590913296
1761916197059675100,7.905675048828125,0.0999029742538929,-0.014950074343918821,0.016935352709889412
1761916197069731300,7.9157314453125,0.0903302592664957,-0.011438415244442876,0.011784326622262597
1761916197079786000,7.925785888671875,0.09705985978245735,-0.0037457350001204757,0.00824972275532782
1761916197089841200,7.935841064453125,0.10439677854180335,-0.009833879824366886,0.006535977640002966
1761916197099896300,7.945896240234375,0.0967746131002903,-0.014742265395692082,0.017775675991550086
1761916197109952300,7.9559521484375,0.09437281265556811,-0.014763191736000589,0.00876008343026042
1761916197120007200,7.966007080078125,0.09646773910820483,-0.004524249658524058,0.008602408650517463
1761916197130062000,7.97606201171875,0.1043944404542446,-0.0035020099217188544,0.008365750350430608
1761916197140117200,7.9861171875,0.10919278064668178,-0.006826108276552986,0.011658069894090295
1761916197150173200,7.996173095703125,0.09603168577849865,-0.015643657515093216,0.01798464256711304
1761916197160228400,8.006228271484375,0.09633914429247378,-0.007464675608149263,0.0024559417847543953
1761916197170283000,8.016282958984375,0.0960334393441677,-0.003162765746703371,0.016765110709518194
1761916197180338200,8.026338134765625,0.08704349268078804,-0.00939143785306951,0.01184592061638832
1761916197190394000,8.03639404296875,0.08554302498996258,-0.010662195291114038,0.01355564714372158
1761916197200449300,8.04644921875,0.09408055171072482,-0.009825593769922852,0.010435542361810803
1761916197210504000,8.05650390625,0.09707447282969951,-0.0061589336216915395,0.018041121994704007
1761916197220559000,8.06655908203125,0.09138765936493873,-0.006583794270525686,0.006080635087937116
1761916197230615000,8.076614990234376,0.09542729014456272,-0.007822996659681666,0.005792319665849209
1761916197240670200,8.086670166015624,0.09496259524226187,-0.017965241463610435,0.02069748172238469
1761916197250725400,8.096725341796875,0.08539455642998219,-0.013095980042987503,0.015932605408132076
1761916197260780000,8.106780029296875,0.09781038588881492,-0.010976955762133,0.011350684445351361
1761916197270836200,8.116836181640625,0.0834416687965393,-0.008093397399166133,0.009757570035010576
1761916197280891100,8.12689111328125,0.0952624549716711,-0.013666425458260346,0.003932517143338919
1761916197290946300,8.1369462890625,0.09227730168104172,-0.010286619427392724,0.02013013016320765
1761916197301001000,8.1470009765625,0.08480711193084717,-0.004280134137766435,0.020405513038486242
1761916197311057200,8.15705712890625,0.10441548324227333,-0.014480253458640072,0.007758432107046246
1761916197321112000,8.167112060546875,0.09035539370775222,-0.011017447602725588,0.010659706506505608
1761916197331167200,8.177167236328126,0.09169979405403136,-0.007368576556222978,0.0075613020997494455
1761916197341222400,8.187222412109374,0.09259995776414871,-0.010217020223324652,0.0093229780100286
1761916197351278000,8.197278076171875,0.09724223061203956,-0.009006555304885842,0.011363982318341731
1761916197361333200,8.207333251953125,0.08901391597092151,-0.010218465545028447,0.008790770829468966
1761916197371388200,8.21738818359375,0.09334639221727847,-0.01117598089899402,0.015326967665180564
1761916197381443300,8.227443359375,0.09618541503548622,-0.018101375698402988,0.014191753090173006
1761916197391498000,8.237498046875,0.08899930292367934,-0.010461768215033225,0.008566168293356895
1761916197401554200,8.24755419921875,0.09214636877775191,-0.006402432654518633,0.005649111802875995
1761916197411609000,8.257609130859375,0.08525485569834709,-0.020827053785650057,0.012961992099508643
1761916197421664300,8.267664306640626,0.09213643190562724,-0.011903187778557185,0.008947495761141181
1761916197431719200,8.27771923828125,0.09303425752818584,-0.010849561956222168,0.01387874161824584
1761916197441775000,8.287775146484375,0.0975321534693241,-0.006434853069798555,0.007618073788285255
1761916197451830300,8.297830322265625,0.09364274481534958,-0.011748497257055714,0.006853226895630359
1761916197461885200,8.30788525390625,0.09708148709237575,-0.0070219071265775704,0.015869696239754556
1761916197471940400,8.3179404296875,0.09273381327688693,-0.0034553372188005594,0.01359466397985816
1761916197481996000,8.32799609375,0.10291501555144786,-0.012734501203277614,0.01201535889916122
1761916197492051200,8.33805126953125,0.10246844082772731,-0.005152962316386401,0.00974646411910653
1761916197502106000,8.348106201171875,0.09588438626229763,-0.0034898925089510155,0.012440014052018522
1761916197512161300,8.358161376953126,0.08929916265308857,-0.00799480042947689,0.008267696803435682
1761916197522217200,8.36821728515625,0.09842939456999301,0.0005123745355056599,0.004787015080824494
1761916197532272000,8.378272216796875,0.10592530328333377,-0.009579402739799115,0.0072800740055739875
1761916197542327000,8.3883271484375,0.08347732463181018,-0.010547014796093572,0.006565422930195927
1761916197552382200,8.39838232421875,0.0894634133040905,-0.01332446188648464,0.012091639005765318
1761916197562438100,8.408438232421876,0.09963175609707832,-0.008484949433442671,0.014292144724726676
1761916197572493000,8.4184931640625,0.09648995094001292,-0.017386717773159033,0.001858195087313652
1761916197582548200,8.42854833984375,0.09094985246956348,-0.014274857946496921,0.00310972951836884
1761916197592603100,8.43860302734375,0.08646715409755706,-0.015587792292144149,0.003018397973105311
1761916197602659300,8.448659423828126,0.08482932376265526,-0.013014927863143384,0.006487754584103823
1761916197612714000,8.4587138671875,0.09051379913985728,-0.0137302913245745,0.005014174900203943
1761916197622769200,8.46876904296875,0.09545651623904705,-0.005573544082324951,0.012119184599816799
1761916197632824000,8.478823974609375,0.08662848213911056,-0.0076734937699511644,0.017497297441586852
1761916197642879500,8.48887939453125,0.08648001357913017,-0.004963837519031949,0.015093597300723195
1761916197652934700,8.4989345703125,0.0982949545353651,-0.005571411490743048,0.01473535844758153
1761916197662989600,8.508989501953126,0.08750935662686825,-0.007939720657817088,0.007276347678527236
1761916197673044500,8.51904443359375,0.08795008613169193,-0.0031737255321349946,0.012941679963842033
1761916197683100400,8.529100341796875,0.09424363331794738,-0.00015872737580211832,0.0069709349911659954
1761916197693155600,8.539155517578125,0.10083236405849456,-0.010194694227084982,0.0019672814849764106
1761916197703210500,8.54921044921875,0.08900631718635559,-0.01228440108190989,0.00683203797712922
1761916197713265700,8.559265625,0.08810498443245887,-0.005170856449392159,0.00538943795338273
1761916197723321300,8.5693212890625,0.0987175638616085,0.000403842976980377,0.008851853366941213
1761916197733376500,8.57937646484375,0.10095978983044623,-0.009568221475370228,0.022354601279646155
1761916197743431700,8.589431640625,0.10140461098849773,-0.011777844365837517,0.004606909273564815
1761916197753486600,8.599486572265626,0.09826222130954265,-0.004461132710881065,0.010733356264606118
1761916197763544600,8.609544677734375,0.08465104458630085,0.0032612622516928237,0.013343611828237772
1761916197773600500,8.6196005859375,0.09407938266694545,-0.004086965636245441,0.005995075696334243
1761916197783655700,8.62965576171875,0.0961947673857212,-0.00567797257117927,0.00868818723782897
1761916197793710600,8.639710693359374,0.09200082282721996,-0.005276508780953008,0.011449468644708395
1761916197803765500,8.649765625,0.09992986226081847,-0.0017273580821463837,0.01760718755684793
1761916197813821400,8.659821533203125,0.09843348622322082,-0.0053657328508095814,0.017155790527537466
1761916197823876600,8.669876708984376,0.09963584775030612,-0.009058326591318472,0.010334785401076078
1761916197833931500,8.679931640625,0.09290858532190323,-0.007864353866665624,0.010393091459572314
1761916197843986400,8.689986328125,0.09380641094446182,-0.009380681280326097,0.01592595647163689
1761916197854042600,8.700042724609375,0.09427169036865234,-0.01942738415475469,0.013888824620842934
1761916197864097500,8.71009765625,0.0915764599353075,-0.020274217092304023,0.007026318440213799
1761916197874152700,8.720152587890626,0.08665420110225677,-0.01489020879928721,0.007095803479850292
1761916197884207400,8.730207275390624,0.09144844964146613,-0.005543148944061249,0.015689590432494877
1761916197894263600,8.740263671875,0.09802782803177833,-0.009905577370687388,0.006931698959320783
1761916197904318500,8.750318359375,0.09263678264319897,-0.009353564944537356,0.008337401038780808
1761916197914373600,8.76037353515625,0.09503741404414176,-0.01230352134091081,0.015727511290088297
1761916197924428500,8.770428466796876,0.09712240362465381,-0.004755594745965208,0.01750891481414437
1761916197934484500,8.780484375,0.09606558804810046,-0.011663113678677473,0.007917422061040997
1761916197944539600,8.79053955078125,0.09186053757369518,-0.0062994198046159,0.012029314359277486
1761916197954594600,8.800594482421875,0.1057715740263462,-0.012924833860318176,0.0059690644722431895
1761916197964649500,8.8106494140625,0.08752163158655166,-0.009072145054116845,0.0103767979118973
1761916197974705400,8.820705322265624,0.09709083944261074,0.001311381709377747,0.000620616116374731
1761916197984760600,8.830760498046875,0.09410451710820197,-0.0010929805851890705,0.007544716291129588
1761916197994815500,8.8408154296875,0.09322013548910617,-0.014191848988295532,0.018574205958098174
1761916198004870700,8.85087060546875,0.08842939408123493,-0.007333740421570837,0.008732464770972729
1761916198014926300,8.86092626953125,0.09517010051310063,-0.0033851649092859586,0.011472118867933749
1761916198024981500,8.8709814453125,0.08590484403967857,-0.00824230206727516,0.013243658585101365
1761916198035036700,8.88103662109375,0.08126198666989803,-0.01683618263475364,0.004169175443425774
1761916198045091600,8.891091552734375,0.09291735315024852,-0.00965643861494027,0.0018706892427057026
1761916198055147500,8.9011474609375,0.09589607670009136,-0.007946043084037955,0.004777662730589508
1761916198065202400,8.911202392578126,0.10397475373744965,-0.004776386372244451,0.005697919380664825
1761916198075257600,8.921257568359374,0.08722177185714244,-0.003932818537438288,0.017271452796459197
1761916198085312500,8.9313125,0.09485212060511111,-0.01991533435176825,0.009517550734058022
1761916198095368700,8.94136865234375,0.09245148920416832,-0.019537059640884397,0.012455503882095218
1761916198105423400,8.95142333984375,0.09141805450320244,-0.01138863498569699,0.008661080035194755
1761916198115478500,8.961478515625,0.07779460282027721,-0.01725084154998185,0.0003755553141236305
1761916198125533700,8.97153369140625,0.09829378549158573,-0.01688449245562078,-0.004092310814931988
1761916198135589600,8.981589599609375,0.09695406132042407,-0.015056779271538834,0.0011909633502364158
1761916198145644500,8.99164453125,0.09382336207926273,-0.01640082114150282,0.0019157704934477805
1761916198155699500,9.001699462890626,0.0950356604784727,-0.004529266043647658,0.008276172370836138
1761916198165754600,9.011754638671874,0.10073357985913753,-0.010451456883572973,0.008547682788595556
1761916198175810600,9.021810546875,0.09864216053783893,-0.016322497491573447,0.005948825401812792
1761916198185865700,9.03186572265625,0.08666881414949894,-0.01877128801633371,0.0085256901524961
1761916198195920400,9.04192041015625,0.09953998616039753,-0.003563766029337421,0.01447626911997795
1761916198205975600,9.0519755859375,0.10402969879508017,-0.007564601451822091,0.012976459016278386
1761916198216031500,9.062031494140625,0.09086860392689704,-0.009387140703864861,0.011078589505702256
1761916198226086700,9.072086669921875,0.09131985482573508,-0.01019227622442413,0.006253580502048135
1761916198236141600,9.0821416015625,0.08024959475696086,0.0030844968957011586,0.005756006243452429
1761916198246196500,9.092196533203126,0.08803191919624805,-0.0007642189882812089,0.006035846098139882
1761916198256252400,9.10225244140625,0.09312427389919757,-0.008480124844564124,0.011205576886236667
1761916198266307600,9.1123076171875,0.09028466655910014,-0.014075191205530427,0.011598448661342263
1761916198276362800,9.12236279296875,0.09747253223657608,-0.00987754771944601,0.014204466441273688
1761916198286417400,9.13241748046875,0.09478022441267966,0.0012750203379197046,0.010895341893285513
1761916198296473600,9.1424736328125,0.0934364085882902,0.000016394012374803425,0.007853782240301371
1761916198306528500,9.152528564453124,0.08296469893455505,-0.0032476858174894,0.010357143363356589
1761916198316583700,9.162583740234375,0.097039986038208,-0.0038700189669150856,0.01365691556110978
1761916198326638300,9.172638427734375,0.0959942763775587,-0.012286273378587793,0.0077967182908207176
1761916198336694500,9.182694580078126,0.09839140064716338,-0.0070364630916039455,0.008797638961672783
1761916198346749400,9.19274951171875,0.09494798219501972,-0.008946938638715074,0.011664499634876847
1761916198356804600,9.2028046875,0.09045943860411644,-0.009012818365602289,0.004171805791929364
1761916198366859500,9.212859619140625,0.09300152430236339,-0.008954137847770471,0.0012027268532663583
1761916198376915500,9.22291552734375,0.09673252752423286,-0.007842532477213535,0.0028476445160806178
1761916198386970600,9.232970703125,0.10016600910425186,-0.010284879561455454,0.01404649940058589
1761916198397025500,9.243025634765624,0.09568155716657638,-0.01527302268797066,0.015617182783409952
1761916198407080700,9.253080810546875,0.0840168383359909,-0.013389747958327643,0.015360285412892699
1761916198417136400,9.263136474609375,0.08686053732931613,-0.0058148580079316154,0.010565598482266068
1761916198427191600,9.273191650390626,0.0950841757953167,-0.008197163734317291,0.005117635274678468
1761916198437246500,9.28324658203125,0.095092943623662,-0.010102152538846712,0.007533391179516911
1761916198447301600,9.293301513671874,0.09540098665952682,-0.007009698382264468,0.00845306330770254
1761916198457357600,9.303357666015625,0.09077391138076782,-0.020906735992315226,0.01321136375069618
1761916198467412500,9.31341259765625,0.09197978003919124,-0.010875479565479327,0.006790683053433895
1761916198477467600,9.323467529296876,0.08344926758110523,-0.007331304152600932,0.016238675682619212
1761916198487522600,9.3335224609375,0.07835808192193508,-0.00864791915952228,0.010156798485666512
1761916198497578500,9.34357861328125,0.08882336183488368,-0.00428616430304246,0.011344400835037231
1761916198507633400,9.35363330078125,0.09914543388485908,-0.008516200804943218,0.004651479067653418
1761916198517688600,9.3636884765625,0.10303308897316456,-0.004706579388910904,0.011583616418391465
1761916198527743500,9.373743408203126,0.09958090269267558,-0.010329830664745531,0.003804287653788924
1761916198537799700,9.383799560546874,0.08821136741638183,-0.0006312197087798267,0.003907528832554817
1761916198547854300,9.393854248046875,0.09180150086283684,-0.009750916531938127,0.01080554471798241
1761916198557909500,9.403909423828125,0.10361644181907176,-0.013405710429151075,0.008210559788718819
1761916198567964700,9.413964599609375,0.07682897265851497,-0.017385249618568924,0.014235884492844342
1761916198578020600,9.4240205078125,0.08549918584823608,-0.011656766136281657,0.01586370489038527
1761916198588075500,9.434075439453125,0.09431669855415821,-0.0040618174952571275,0.011238017851114272
1761916198598130400,9.44413037109375,0.09549918633699417,-0.012200677454366813,-0.0015671762514859436
1761916198608185600,9.454185546875,0.094604283323884,-0.011680608236172701,0.008272592174261809
1761916198618241500,9.464241455078126,0.09982464832067489,-0.007845087477192283,0.010615209777653217
1761916198628296700,9.474296630859374,0.09847264918982981,-0.007783413567964453,0.01129099014736712
1761916198638351600,9.4843515625,0.0936766470849514,-0.006488567434856668,0.012307473713532089
1761916198648406800,9.49440673828125,0.09696458271443843,-0.010060957445355597,0.00562996871098876
1761916198658462700,9.504462646484376,0.09712298814654349,-0.013842325447860638,0.005945610531419516
1761916198668518000,9.514517822265624,0.0944260041475296,-0.006911882297287229,0.007488967515900731
1761916198678572500,9.524572509765624,0.0921773484379053,-0.004292027788248378,0.007251359367743134
1761916198688627700,9.534627685546875,0.09695406132042407,-0.010363648452667984,0.008016352390870451
1761916198698683600,9.54468359375,0.09096914169192313,-0.014992847189854363,0.012795184165239334
1761916198708738800,9.55473876953125,0.09920914677083492,-0.01589878762020962,0.0071145081803202625
1761916198718793700,9.564793701171874,0.09787585234045981,-0.025811242256255352,0.004070610439777374
1761916198728848600,9.5748486328125,0.08905015632808208,-0.015622861322236711,0.013306129362061618
1761916198738904800,9.58490478515625,0.10146598578691482,-0.007874560166848822,0.01261997372880578
1761916198748959700,9.594959716796875,0.09474573762118815,-0.011362009556964038,0.018255568462982773
1761916198759014700,9.6050146484375,0.0990969185680151,-0.0020055037366691975,-0.0013761837240308522
1761916198769069600,9.615069580078124,0.0971533832848072,-0.00754579628665233,0.004286737408488989
1761916198779125800,9.625125732421875,0.08562427353262901,-0.01814529475523159,0.011722586497664451
1761916198789180700,9.6351806640625,0.09146130912303924,-0.018073352897027505,0.0051150779914110895
1761916198799235800,9.64523583984375,0.08875614181756973,-0.009057226046198047,0.005739931891486048
1761916198809290800,9.655290771484376,0.09519640399813652,-0.005831174388492945,0.006549494708701968
1761916198819346700,9.6653466796875,0.0946048678457737,0.0013574173747678286,0.010636033369973302
1761916198829401900,9.67540185546875,0.09716565824449062,-0.0034698863339610395,0.009792056826502084
1761916198839456800,9.685456787109375,0.09657879826724529,-0.0041598801754065785,0.015006941930577158
1761916198849511700,9.69551171875,0.08925473898947238,-0.0011919931134092621,0.002310176638513803
1761916198859567600,9.705567626953124,0.09598901568055153,-0.008889646360371262,0.01053732223585248
1761916198869622800,9.715622802734375,0.09045417790710926,-0.004169182293291669,0.010966726629063487
1761916198879677700,9.725677734375,0.07549158657491206,-0.0060172875281423325,0.00944543534591794
1761916198889732600,9.735732666015625,0.09525018001198768,-0.010786817184626124,0.01084719190262258
1761916198899788500,9.74578857421875,0.09600129064023494,-0.0021718070641509254,0.015891688875854015
1761916198909843700,9.75584375,0.09407061483860016,-0.005366990942845587,0.01312514677196741
1761916198919898600,9.765898681640625,0.09691606739759445,-0.01159620418861741,0.005608852857723832
1761916198929953800,9.775953857421875,0.0930272432655096,-0.008014943601784761,0.0009391074810177087
1761916198940009500,9.786009521484376,0.10456219823658466,-0.010446842357248532,0.0030029081430286166
1761916198950064600,9.796064697265624,0.09905132586061954,-0.011378408135916106,0.004719575867801904
1761916198960119800,9.806119873046875,0.08409282618165016,-0.008840172062302008,0.00374978098757565
1761916198970174700,9.8161748046875,0.09411094684898853,-0.008404566257167607,0.006553659427165985
1761916198980231000,9.82623095703125,0.09172200588583945,-0.015708475512766745,0.006478109972923994
1761916198990285600,9.83628564453125,0.09845978970825671,-0.013907965429441537,0.012248363937437534
1761916199000340700,9.8463408203125,0.0912754311621189,-0.012299461653723847,0.008085545169562102
1761916199010395600,9.856395751953125,0.10085399136841297,-0.006412552189733833,0.012545958644524216
1761916199020451800,9.866451904296875,0.10504676688313483,-0.004612341217219364,0.015057795334979892
1761916199030506500,9.876506591796876,0.10131810174882411,-0.006537555392447393,0.0069442661799490445
1761916199040561700,9.886561767578126,0.08816285209953785,-0.0054112319433712395,0.013626228161901234
1761916199050616800,9.896616943359374,0.08338380112946032,-0.017088239433371927,0.023818317156657574
1761916199060672800,9.9066728515625,0.09054653236567974,-0.01537815899630077,0.007949863025918602
1761916199070728000,9.91672802734375,0.09263736716508865,-0.004324900294677354,0.010553031261637806
1761916199080782600,9.926782470703126,0.10146949291825294,-0.00635735825364245,0.0057125324279069896
1761916199090837800,9.936837646484374,0.10914192724227904,-0.005831306819233577,0.019331673261895773
1761916199100893700,9.946893798828125,0.3205868756175041,0.003934398573171347,-0.04129274517931044
1761916199110948900,9.956948974609375,0.5911392619997262,0.04375567382727749,-0.11668510916344821
1761916199121003500,9.96700341796875,-0.015952186891436577,-0.013003868754656285,-0.00044226387478411193
1761916199131058700,9.97705859375,-0.40928924142122264,-0.040122185296285896,0.12823570009507237
1761916199141114600,9.987114501953124,-0.17988602702915668,-0.02580217988367658,0.09676891401186585
1761916199151169800,9.997169677734375,0.0839250683993101,-0.008647939138297806,-0.00044511341899633407
1761916199161224700,10.007224609375,0.09140344145596027,-0.015461229603295214,-0.01991897163055837
1761916199171279600,10.017279541015625,0.02662672564089298,-0.04192037555836141,0.020341288695856927
1761916199181335800,10.027335693359374,-0.07206687282323837,-0.038020208048354834,0.08381824702396988
1761916199191390700,10.037390625,-0.16488018107712268,0.05176174228615127,0.06909450594894588
1761916199201446000,10.04744580078125,0.437580685403943,-0.014061555405822582,-0.052603170679509634
