time,seconds_elapsed,z,y,x
1761916189230446600,0.076446533203125,0.000502804818097502,-0.04006779193878174,0.0009494169498793781
1761916189240501800,0.086501708984375,0.0001304948964389041,-0.05097290128469467,0.004474909510463476
1761916189250556400,0.096556396484375,-0.0012245214311406016,-0.04021026939153671,0.009190568700432777
1761916189260611600,0.106611572265625,0.0008681904873810709,-0.01793505810201168,0.011815380305051804
1761916189270667500,0.11666748046875,-0.0013291836949065328,-0.011032410897314548,0.011115501634776592
1761916189280722700,0.12672265625,-0.0010080065112560987,-0.01925252377986908,0.014098241925239563
1761916189290777300,0.13677734375,0.00039760995423421264,0.00827790331095457,0.01846502721309662
1761916189300832500,0.14683251953125,0.0040946099907159805,0.14156724512577057,0.03924540802836418
1761916189310887700,0.1568876953125,-0.0016487629618495703,0.20291396975517273,0.04513658583164215
1761916189320942600,0.166942626953125,0.0036599822342395782,0.08069697767496109,0.017670607194304466
1761916189330998800,0.176998779296875,0.0007632619817741215,0.13190849125385284,0.02965962514281273
1761916189341053400,0.187053466796875,-0.0006463492172770202,0.289119690656662,0.058704059571027756
1761916189351108600,0.197108642578125,0.0009659285424277186,0.14576944708824158,0.030770694836974144
1761916189361163500,0.20716357421875,0.0017512947088107467,-0.12297865003347397,-0.015782957896590233
1761916189371218400,0.217218505859375,-0.0009036105475388467,-0.15225398540496826,-0.0012689962750300765
1761916189381273600,0.227273681640625,-0.004042412154376507,0.03971732035279274,0.028863338753581047
1761916189391328500,0.23732861328125,-0.0013872405979782343,0.1373666524887085,0.010202836245298386
1761916189401384700,0.247384765625,0.0016058861510828137,0.023032881319522858,0.005053347907960415
1761916189411439600,0.257439697265625,-0.0007523429812863469,-0.10251625627279282,0.014849253930151463
1761916189421494500,0.26749462890625,0.0004474110610317439,-0.049555301666259766,0.010605772957205772
1761916189431549400,0.277549560546875,0.0005315669695846736,0.06267616152763367,0.011722169816493988
1761916189441604600,0.2876044921875,-0.0009973538108170033,0.06186842918395996,0.014117683283984661
1761916189451659500,0.297659423828125,0.0014378406340256333,-0.03334357589483261,0.006913299672305584
1761916189461715500,0.307715576171875,-0.0018016285030171275,-0.060386378318071365,0.01158501673489809
1761916189471770600,0.3177705078125,-0.001243696198798716,0.008595352061092854,0.009794041514396667
1761916189481825500,0.327825439453125,-0.00024527712957933545,0.05867582932114601,0.010660367086529732
1761916189491880700,0.337880615234375,0.0023853934835642576,0.0062887887470424175,0.016148876398801804
1761916189501935400,0.347935302734375,0.0002769687562249601,-0.04380873218178749,0.012831375934183598
1761916189511990500,0.357990478515625,-0.0009773800848051906,-0.019828831776976585,0.009524795226752758
1761916189522045700,0.368045654296875,0.0016077503096312284,0.03610740229487419,0.014919827692210674
1761916189532101600,0.3781015625,0.0021342572290450335,0.02191062457859516,0.015148326754570007
1761916189542156500,0.388156494140625,-0.002252768026664853,-0.020681843161582947,0.010567422956228256
1761916189552211500,0.39821142578125,0.00148151651956141,-0.02015214040875435,0.011888884007930756
1761916189562266600,0.4082666015625,-0.0011544802691787481,0.019057048484683037,0.015397598035633564
1761916189572321500,0.418321533203125,-0.0008732505375519395,0.026560770347714424,0.015930229797959328
1761916189582376400,0.42837646484375,-0.0011619371362030506,-0.006149771623313427,0.012292885221540928
1761916189592432400,0.438432373046875,0.0000399474156438373,-0.020654411986470222,0.010876616463065147
1761916189602487600,0.448487548828125,-0.0005406216951087117,0.00015339808305725455,0.010447847656905651
1761916189612542700,0.458542724609375,0.0010407633380964398,0.018813101574778557,0.014189056120812893
1761916189622597400,0.468597412109375,0.0009233179152943194,0.0027715517207980156,0.010493387468159199
1761916189632655000,0.478655029296875,-0.00020240024605300277,-0.018563032150268555,0.009386044926941395
1761916189642710300,0.488710205078125,-0.0014034858904778957,-0.009339706040918827,0.0059694754891097546
1761916189652765200,0.49876513671875,0.00045619948650710285,0.006696252152323723,0.009105614386498928
1761916189662821400,0.5088212890625,0.0009720537927933037,-0.0035023230593651533,0.0015880429418757558
1761916189672876000,0.5188759765625,-0.0011550129856914282,-0.013075854629278183,0.0076182386837899685
1761916189682931200,0.52893115234375,-0.0003051982494071126,-0.006432599388062954,0.011981295421719551
1761916189692986400,0.538986328125,-0.001163002452813089,0.008409730158746243,0.004009921569377184
1761916189703041300,0.549041259765625,0.001683916780166328,-0.001549693406559527,0.00708773685619235
1761916189713096200,0.55909619140625,-0.00027377295191399753,-0.007022489327937365,0.008272044360637665
1761916189723152100,0.569152099609375,-0.0014090784825384617,-0.005116198677569628,0.006514891050755978
1761916189733207300,0.579207275390625,-0.00022956448083277792,0.0018104169284924865,0.010003631934523582
1761916189743262200,0.58926220703125,0.0008695221040397882,0.0022828616201877594,0.010873952880501747
1761916189753317000,0.599317138671875,-0.0004868258547503501,-0.002968092914670706,0.013196229003369808
1761916189763372300,0.609372314453125,0.0005004079430364072,0.001068193931132555,0.010457701049745083
1761916189773427200,0.61942724609375,0.0015925703337416053,0.00313001312315464,0.010898986831307411
1761916189783482400,0.629482421875,-0.00044048685231246054,0.0021046961192041636,0.011111773550510406
1761916189793538000,0.6395380859375,-0.0017955031944438815,0.000624777574557811,0.01672624982893467
1761916189803593200,0.64959326171875,-0.023072563111782074,0.020625116303563118,0.014992531388998032
1761916189813648100,0.659648193359375,-0.018037322908639908,0.020326577126979828,0.025315742939710617
1761916189823703300,0.669703369140625,0.009180715307593346,0.03140053153038025,0.04181642085313797
1761916189833758200,0.67975830078125,0.004065315239131451,0.020893031731247902,0.029768815264105797
1761916189843813000,0.689813232421875,0.002889529801905155,-0.04244279861450195,-0.008125037886202335
1761916189853869300,0.699869384765625,0.0011523497523739934,-0.037766020745038986,-0.015914784744381905
1761916189863924200,0.70992431640625,0.0013440974289551377,-0.004791825544089079,0.006199839059263468
1761916189873979100,0.719979248046875,-0.0013670006301254034,0.01471636164933443,0.02111247554421425
1761916189884034000,0.730033935546875,-0.0019331886433064938,0.01786821335554123,0.0031214910559356213
1761916189894089200,0.740089111328125,-0.0015582155901938677,-0.012015383690595627,0.005608617328107357
1761916189904144400,0.750144287109375,-0.0004934837343171239,-0.02623613178730011,0.019176891073584557
1761916189914200300,0.760200439453125,0.000847950461320579,0.008796953596174717,0.01022680476307869
1761916189924255200,0.770255126953125,-0.0003832288784906268,0.02490348555147648,0.01125318743288517
1761916189934310100,0.78031005859375,-0.0002537992550060153,-0.0008111988427117467,0.014074007049202919
1761916189944365300,0.790365234375,-0.0017531589837744832,-0.019332684576511383,0.009669139049947262
1761916189954420200,0.800420166015625,-0.0021821942646056414,-0.00018908442871179432,0.011612181551754475
1761916189964475100,0.81047509765625,0.00044581317342817783,0.02149384096264839,0.016354205086827278
1761916189974530300,0.8205302734375,0.0002697782183531672,0.010373278521001339,0.01284549105912447
1761916189984586200,0.830586181640625,0.0010628675809130073,-0.02382011152803898,0.007465639617294073
1761916189994641400,0.840641357421875,-0.0029846045654267073,-0.0175614170730114,0.009089634753763676
1761916190004696000,0.850696044921875,0.000931307440623641,0.010441189631819725,0.010000968351960182
1761916190014751200,0.860751220703125,0.0027153589762747288,0.00881799217313528,0.009938118048012257
1761916190024806100,0.87080615234375,-0.002133192028850317,-0.010143714025616646,0.010447314940392971
1761916190034861300,0.880861328125,-0.002110288944095373,-0.012790629640221596,0.012113920412957668
1761916190044917000,0.8909169921875,-0.001802693703211844,0.009098423644900322,0.012988769449293613
1761916190054972200,0.90097216796875,0.0009249158320017159,0.017654627561569214,0.014325941912829876
1761916190065027300,0.91102734375,0.0010791128734126687,-0.0008652610122226179,0.010100836865603924
1761916190075082200,0.921082275390625,-0.0008130630594678223,-0.013185043819248676,0.008450210094451904
1761916190085137200,0.93113720703125,-0.00014913702034391463,-0.002150768879801035,0.009237973019480705
1761916190095192300,0.9411923828125,-0.0024655545130372047,0.005656820256263018,0.010018013417720795
1761916190105248300,0.951248291015625,-0.0019379822770133615,0.0023273364640772343,0.011240936815738678
1761916190115303200,0.96130322265625,-0.0008905610884539783,-0.00558251840993762,0.010794591158628464
1761916190125358000,0.971358154296875,0.0011491540353745222,-0.004631503485143185,0.008804144337773323
1761916190135413200,0.981413330078125,-0.0002426139690214768,0.0027316042687743902,0.008948220871388912
1761916190145468200,0.99146826171875,0.0018165421206504107,0.00572925852611661,0.01350595522671938
1761916190155523300,1.0015234375,0.0009203884401358664,-0.0038743666373193264,0.01161404512822628
1761916190165578200,1.011578125,-0.0023667511995881796,-0.0021225393284112215,0.010160491801798344
1761916190175634200,1.02163427734375,0.00046152580762282014,0.0013576794881373644,0.010218548588454723
1761916190185689000,1.031689208984375,0.001205080421641469,0.004549744538962841,0.012412727810442448
1761916190195744300,1.041744140625,-0.001609081868082285,-0.0012354403734207153,0.01136956736445427
1761916190205799200,1.051799072265625,0.0006016080733388662,-0.005628324579447508,0.01059245690703392
1761916190215854000,1.06185400390625,-0.0014767227694392204,-0.0003701793903019279,0.009866745211184025
1761916190225909200,1.0719091796875,-0.0006657902849838138,0.0028908613603562117,0.010981278494000435
1761916190235965200,1.081965087890625,-0.0004857605672441423,0.00321843009442091,0.013937121257185936
1761916190246020400,1.092020263671875,-0.0013851100811734796,-0.004093012306839228,0.010509632527828217
1761916190256075300,1.1020751953125,-0.0024021712597459555,-0.001663410454057157,0.011154117062687874
1761916190266130200,1.112130126953125,-0.0021606225054711103,0.0006817692192271352,0.01101536676287651
1761916190276185300,1.122185302734375,0.00043995422311127186,0.0006351639167405665,0.012199408374726772
1761916190286240000,1.132239990234375,-0.0006804376607760787,-0.00035899411886930466,0.012261193245649338
1761916190296295200,1.142295166015625,-0.0006471481174230576,-0.0014298511669039726,0.012823387049138546
1761916190306351000,1.15235107421875,-0.0005845638806931674,0.0023129554465413094,0.011668373830616474
1761916190316406300,1.16240625,-0.0010612696642056108,0.0009944243356585503,0.011668640188872814
1761916190326461400,1.17246142578125,0.0008341020438820124,-0.0012144014472141862,0.011668107472360134
1761916190336516000,1.18251611328125,-0.0024828650057315826,-0.0023124227300286293,0.010142382234334946
1761916190346571300,1.1925712890625,-0.0007693872321397066,0.0008996158139780164,0.012224442325532436
1761916190356626200,1.202626220703125,-0.0030184267088770866,0.001365402713418007,0.01152855809777975
1761916190366682400,1.212682373046875,-0.000046871635277057067,0.0017659420846030116,0.010849718004465103
1761916190376737000,1.222737060546875,-0.0006652576266787946,-0.0031212246976792812,0.010484598577022552
1761916190386792200,1.232792236328125,-0.00009720538218971342,-0.005631254054605961,0.009623865596950054
1761916190396847400,1.242847412109375,-0.00039521310827694833,0.002142246812582016,0.011769307777285576
1761916190406902300,1.25290234375,0.0013677994720637798,0.002368349116295576,0.010546384379267693
1761916190416957200,1.262957275390625,0.0008266451768577099,0.0015510249650105834,0.009347429499030113
1761916190427013000,1.27301318359375,-0.0004588626616168767,-0.0017206683987751603,0.010908307507634163
1761916190437068300,1.283068359375,-0.002141447737812996,-0.0014178669080138206,0.012220713309943676
1761916190447123200,1.293123291015625,-0.0005070658517070115,0.0006538060260936618,0.011465441435575485
1761916190457178000,1.30317822265625,-0.0018160095205530524,-0.0011105381418019533,0.013747770339250565
1761916190467233300,1.3132333984375,-0.0005675196298398077,-0.0008615325787104666,0.010522682219743729
1761916190477288200,1.3232880859375,0.0006162554491311312,-0.002834668615832925,0.009327189065515995
1761916190487344400,1.333344482421875,-0.0007115966291166842,-0.0021792647894471884,0.013073457404971123
1761916190497399000,1.34339892578125,-0.0002103897277265787,0.0013723268639296293,0.011568771675229073
1761916190507454200,1.3534541015625,-0.0022977753542363644,0.001592037733644247,0.012894227169454098
1761916190517509000,1.363509033203125,-0.0007360977469943464,0.00023435817274730653,0.011117898859083652
1761916190527564300,1.373564208984375,-0.0007832356495782733,0.001050084363669157,0.009279518388211727
1761916190537619200,1.383619140625,-0.0005997438565827906,0.000287088769255206,0.014449512585997581
1761916190547675100,1.393675048828125,-0.0006924218614585698,-0.001202150946483016,0.013334181159734726
1761916190557730300,1.403730224609375,-0.0015923039754852653,-0.00037710359902121127,0.010577277280390263
1761916190567785200,1.41378515625,-0.0012221246724948287,-0.003614708548411727,0.010689928196370602
1761916190577840400,1.42384033203125,0.0004777711001224816,-0.0011747203534469008,0.011640144512057304
1761916190587895000,1.43389501953125,0.0001930791768245399,0.0013014868600293994,0.012715262360870838
1761916190597951200,1.443951171875,-0.00009880327706923708,-0.0009779128013178706,0.01031788531690836
1761916190608006100,1.454006103515625,-0.0011171960504725575,0.0004370247188489884,0.008466455154120922
1761916190618061300,1.464061279296875,-0.000538491178303957,0.0023529028985649347,0.01344630029052496
1761916190628118800,1.474118896484375,-0.002350505907088518,0.002986468840390444,0.012118182145059109
1761916190638173700,1.484173583984375,0.0022796657867729664,0.0015246596885845065,0.0073569826781749725
1761916190648228600,1.494228515625,-0.0007214503129944205,-0.0008940231637097895,0.011239605024456978
1761916190658284500,1.504284423828125,0.0032290827948600054,0.00019627496658358723,0.010320814326405525
1761916190668339700,1.514339599609375,-0.0010671286145225167,0.0007760451408103108,0.012938967905938625
1761916190678394600,1.52439453125,-0.0008572715451009572,0.000988032785244286,0.007023022044450045
1761916190688449500,1.534449462890625,0.0012096078135073185,0.0015225291717797518,0.012060923501849174
1761916190698504700,1.544504638671875,-0.00003462109452812001,0.0029973878990858793,0.009378587827086449
1761916190708560000,1.554559814453125,-0.0012921657180413604,0.0024343954864889383,0.013276390731334686
1761916190718615800,1.56461572265625,0.0006138586322776973,0.0024743429385125637,0.009407349862158298
1761916190728670700,1.574670654296875,-0.0018154769204556942,-0.001972603378817439,0.012014318257570267
1761916190738725600,1.5847255859375,-0.0018423747969791293,0.0005299690528772771,0.01242018397897482
1761916190748780800,1.59478076171875,-0.00032091091270558536,-0.0004623247659765184,0.01098500657826662
1761916190758835500,1.60483544921875,-0.0019827233627438545,-0.0004751079250127077,0.012802081182599068
1761916190768890600,1.614890625,0.000368847802747041,-0.0014144048327580094,0.013617807999253273
1761916190778946600,1.624946533203125,-0.00017017599020618945,0.00012436961696948856,0.012836968526244164
1761916190789001700,1.635001708984375,-0.00015526228526141495,-0.0008452873444184661,0.013981595635414124
1761916190799057000,1.645056884765625,0.001261539408005774,0.0023257385473698378,0.010479272343218327
1761916190809111600,1.655111572265625,-0.0022719427943229675,0.0010599381057545543,0.013055081479251385
1761916190819166700,1.665166748046875,0.0013614079216495156,0.0005209143273532391,0.010398312471807003
1761916190829222700,1.67522265625,-0.0009677927591837943,0.000966727442573756,0.013939517550170422
1761916190839277800,1.68527783203125,-0.0009337042574770749,-0.00009480853623244911,0.011535216122865677
1761916190849332500,1.69533251953125,0.0005816344055347145,0.0027827369049191475,0.013169331476092339
1761916190859387600,1.7053876953125,-0.0009273127070628107,0.001091629732400179,0.011353322304785252
1761916190869442800,1.71544287109375,-0.004613926634192467,-0.00027750138542614877,0.011120561510324478
1761916190879497700,1.725497802734375,0.0010165285784751177,0.0003195793251506984,0.010899785906076431
1761916190889553700,1.7355537109375,-0.000041545314161339775,0.0012013519881293178,0.010557835921645164
1761916190899608600,1.745608642578125,-0.001050617080181837,0.0026791400741785765,0.011933891102671623
1761916190909663700,1.755663818359375,-0.001961418194696307,-0.0019017633749172091,0.009764746762812138
1761916190919718700,1.76571875,0.0005928196478635073,-0.0002812298189383,0.01335921511054039
1761916190929773600,1.775773681640625,-0.00341523764654994,-0.0011342403013259172,0.012143747881054878
1761916190939829500,1.78582958984375,0.001585912425071001,0.001529187080450356,0.011863317340612411
1761916190949884700,1.795884765625,-0.002436259761452675,0.0015536881983280182,0.009551693685352802
1761916190959939800,1.80593994140625,-0.00009427589975530282,-0.0004213120846543461,0.00866059958934784
1761916190969994800,1.815994873046875,-0.0012839100090786815,0.005419000051915646,0.01200899202376604
1761916190980049700,1.826049560546875,-0.0018293253378942609,0.00004846953015658073,0.010992996394634247
1761916190990104600,1.8361044921875,0.00021198761533014476,-0.002540389308705926,0.01432381197810173
1761916191000160800,1.846160888671875,-0.0006729807937517762,0.00012729909212794155,0.009977000765502453
1761916191010215700,1.856215576171875,0.00020346550445538014,0.0019925772212445736,0.01432194747030735
1761916191020270600,1.8662705078125,0.00009214537567459047,-0.001561677665449679,0.011778628453612328
1761916191030325800,1.87632568359375,-0.0011108045000582933,-0.0007012102869339287,0.012194348499178886
1761916191040380700,1.886380615234375,0.0001816275907913223,0.0011531487107276917,0.012632171623408794
1761916191050436600,1.8964365234375,0.0004500742070376873,0.0027286747936159372,0.012547750025987625
1761916191060491500,1.906491455078125,-0.0010772485984489322,0.0031158984638750553,0.013010873459279537
1761916191070546700,1.916546630859375,0.0004495415778364986,0.0023611586075276136,0.01101483404636383
1761916191080601600,1.9266015625,-0.0019004317000508308,0.0023616913240402937,0.013170929625630379
1761916191090656800,1.93665673828125,0.0006609965930692852,0.002573412610217929,0.010369017720222473
1761916191100711700,1.946711669921875,-0.00012064119800925255,-0.001255414099432528,0.013227654621005058
1761916191110767600,1.956767578125,-0.00023861923546064645,0.0014650048688054085,0.010808705352246761
1761916191120822800,1.96682275390625,0.0013960290234535933,0.0023550332989543676,0.011777031235396862
1761916191130877700,1.976877685546875,-0.0011853729374706745,0.000985103310085833,0.012140019796788692
1761916191140932600,1.9869326171875,-0.0023094932548701763,0.001061802264302969,0.013129384256899357
1761916191150987500,1.996987548828125,-0.0002961435238830745,-0.00012223910016473383,0.011921374127268791
1761916191161043700,2.007043701171875,0.00002902845517382957,0.0031350732315331697,0.013138438574969769
1761916191171098600,2.0170986328125,-0.0002311623829882592,0.0013342436868697405,0.01230726670473814
1761916191181153800,2.02715380859375,0.0007379619055427611,0.002177666872739792,0.011381817981600761
1761916191191208700,2.037208740234375,0.00036751621519215405,-0.00192226970102638,0.009474195539951324
1761916191201263600,2.047263671875,-0.0005518069956451654,-0.0006460828590206802,0.009573264978826046
1761916191211319800,2.05731982421875,0.00017257283616345376,-0.0010066748363897204,0.01401515118777752
1761916191221374700,2.067374755859375,-0.000508663768414408,0.001136370818130672,0.009925334714353085
1761916191231429600,2.0774296875,-0.0019949739798903465,-0.0011329087428748608,0.015559785068035126
1761916191241484500,2.087484619140625,0.00007536746124969795,-0.000015712650565546937,0.01227317750453949
1761916191251539700,2.097539794921875,0.0015662050573155284,0.004148405976593494,0.012279036454856396
1761916191261595000,2.107594970703125,-0.0002814961189869791,0.0022919164039194584,0.011114169843494892
1761916191271650600,2.117650634765625,-0.0010604707058519125,0.0013749900972470641,0.013703561387956142
1761916191281705700,2.127705810546875,-0.0008988168556243181,-0.0007225155713967979,0.011915248818695545
1761916191291760600,2.1377607421875,-0.000248472933890298,0.00027031084755435586,0.013667342253029346
1761916191301815800,2.14781591796875,0.0012636699248105288,0.00023861923546064645,0.010853713378310204
1761916191311870500,2.157870361328125,0.00015046859334688634,-0.0004697816038969904,0.010300042107701302
1761916191321926700,2.1679267578125,-0.0006346312584355474,0.0013459615875035524,0.010251039639115334
1761916191331981600,2.177981689453125,-0.0020354539155960083,0.001976331928744912,0.012561864219605923
1761916191342036700,2.18803662109375,0.0005691175465472043,0.001493500778451562,0.012193283066153526
1761916191352091600,2.198091552734375,-0.001312139444053173,0.0005257080192677677,0.009221727959811687
1761916191362146600,2.208146484375,0.0004111920716241002,-0.002055694116279483,0.012990633025765419
1761916191372202800,2.21820263671875,-0.002112152986228466,0.0015747271245345473,0.012254003435373306
1761916191382257700,2.228257568359375,-0.0021875204984098673,0.00019707392493728548,0.01296320278197527
1761916191392312800,2.238312744140625,0.00020532972121145576,0.0013142699608579278,0.01002200786024332
1761916191402367500,2.248367431640625,0.000892691605258733,0.0016024239594116807,0.012235361151397228
1761916191412422700,2.258422607421875,0.00046871634549461305,0.000291616132017225,0.00878177396953106
1761916191422477800,2.268477783203125,-0.0022280006669461727,-0.0026027073618024588,0.009665144607424736
1761916191432533800,2.27853369140625,0.000391218374716118,0.00012756542128045112,0.009278719313442707
1761916191442588700,2.288588623046875,0.0005315669695846736,-0.0008050735923461616,0.011380219832062721
1761916191452643600,2.2986435546875,-0.000553404854144901,0.0011145329335704446,0.012142150662839413
1761916191462698800,2.30869873046875,0.0004822984628845006,0.0021654162555933,0.013136042281985283
1761916191472753700,2.318753662109375,-0.0008247809601016343,0.0015851134667173028,0.012783439829945564
1761916191482809900,2.328809814453125,0.0022895196452736855,-0.0017608820926398039,0.013425261713564396
1761916191492864500,2.338864501953125,-0.002752110594883561,-0.0013219931861385703,0.013411679305136204
1761916191502919700,2.348919677734375,0.003853061469271779,-0.001145425601862371,0.01305454969406128
1761916191512974800,2.358974853515625,-0.0012114719720557332,0.0002540655550546944,0.01070723868906498
1761916191523029500,2.369029541015625,0.0010631339391693473,-0.002013616031035781,0.011287009343504906
1761916191533085700,2.379085693359375,-0.000871652620844543,-0.0012748552253469825,0.01113334484398365
1761916191543140600,2.389140625,0.0006980145117267966,-0.001344363670796156,0.012089420109987259
1761916191553195800,2.39919580078125,-0.0012357067316770554,-0.0008093346259556711,0.011494203470647335
1761916191563250700,2.409250732421875,0.00016644757124595344,-0.00014327807002700865,0.01360395923256874
1761916191573305600,2.4193056640625,-0.0010615360224619508,0.0018200043123215437,0.009768741205334663
1761916191583361500,2.429361572265625,-0.0004934837343171239,0.001142229768447578,0.015332616865634918
1761916191593416700,2.439416748046875,0.0010871023405343294,-0.000568052229937166,0.012753346003592014
1761916191603472000,2.449471923828125,-0.0005885586142539978,-0.0019297265680506825,0.010389523580670357
1761916191613526500,2.459526611328125,-0.001335841603577137,0.0015757924411445856,0.01308357808738947
1761916191623581700,2.469581787109375,-0.0023465112317353487,0.0021201425697654486,0.012857208959758282
1761916191633631200,2.47963134765625,0.0013369068037718534,0.0008450209861621261,0.010333331301808357
1761916191643686400,2.489686279296875,-0.0017670074012130499,0.0002079928817693144,0.012148009613156319
1761916191653741000,2.499740966796875,0.0038242992013692856,0.000987766426987946,0.010703776963055134
1761916191663796200,2.509796142578125,0.002630404196679592,0.0015582155901938677,0.011457984335720539
1761916191673851100,2.51985107421875,0.0005398227367550135,-0.0006157228490337729,0.012575180269777775
1761916191683907300,2.5299072265625,-0.0007371630053967237,-0.00009480853623244911,0.01158794667571783
1761916191693962000,2.5399619140625,0.0016759273130446672,0.00028762139845639467,0.009484315291047096
1761916191704017200,2.55001708984375,0.000743820914067328,-0.0023065637797117233,0.011004714295268059
1761916191714072300,2.560072265625,-0.00025752768851816654,-0.0003062635369133204,0.012505938299000263
1761916191724127200,2.570127197265625,0.0014325142838060856,-0.0008231831016018987,0.014630608260631561
1761916191734183400,2.580183349609375,0.001368598430417478,0.00035233621019870043,0.010448912158608437
1761916191744238000,2.590238037109375,0.0013978932984173298,0.0014064153656363487,0.01303164567798376
1761916191754293200,2.600293212890625,0.0014176006661728024,0.001246892032213509,0.011055313982069492
1761916191764348200,2.61034814453125,0.0014045510906726122,-0.00256462418474257,0.011138671077787876
1761916191774403000,2.620403076171875,-0.0021321268286556005,-0.000782436749432236,0.010881676338613033
1761916191784458200,2.630458251953125,-0.0010756507981568575,0.0011345066595822573,0.010668623261153698
1761916191794514200,2.64051416015625,-0.0012202603975310922,-0.00036964676110073924,0.011087272316217422
1761916191804569300,2.6505693359375,0.0016421051695942879,-0.0016799219883978367,0.008716526441276073
1761916191814624300,2.660624267578125,-0.0013321131700649858,-0.001437308033928275,0.009852364659309387
1761916191824679200,2.67067919921875,-0.001282045734114945,0.0003296993381809443,0.011567173525691032
1761916191834735000,2.680735107421875,-0.00043516053119674325,0.0008562062866985798,0.011797537095844746
1761916191844790300,2.690790283203125,-0.0008045409340411425,-0.000910268456209451,0.013703827746212482
1761916191854845200,2.70084521484375,0.00007297061529243365,-0.000441818410763517,0.011670504696667194
1761916191864900000,2.710900146484375,-0.0016737966798245907,0.0021752698812633753,0.010696319863200188
1761916191874955300,2.720955322265625,-0.00250496924854815,0.0007374293054454029,0.010464359074831009
1761916191885010200,2.73101025390625,0.0002721750643104315,0.0003067961661145091,0.012405537068843842
1761916191895066400,2.74106640625,-0.0008335694437846541,0.0009451558580622077,0.012478240765631199
1761916191905121300,2.751121337890625,-0.0010423612548038363,0.0022447784431278706,0.01044411864131689
1761916191915176200,2.76117626953125,-0.0012548814993351698,-0.0007374293054454029,0.011206848546862602
1761916191925231000,2.771231201171875,0.0005869606975466013,0.002359294332563877,0.011454788036644459
1761916191935287300,2.781287353515625,-0.0005025385180488229,-0.0014972290955483913,0.009704026393592358
1761916191945342200,2.79134228515625,-0.0014301175251603127,-0.0002079928817693144,0.009296029806137085
1761916191955397000,2.801397216796875,-0.002231462625786662,-0.0004799016169272363,0.00968538410961628
1761916191965452300,2.811452392578125,-0.0026815368328243494,-0.0021848573815077543,0.010713363997638226
1761916191975507200,2.821507080078125,0.0008591357618570328,-0.0005997438565827906,0.011579157784581184
1761916191985563400,2.8315634765625,-0.0010159959783777595,-0.0017230651574209332,0.014367487281560898
1761916191995618000,2.8416181640625,0.001966744428500533,-0.0022687469609081745,0.015302257612347603
1761916192005673200,2.851673095703125,-0.000964064325671643,0.0007526093395426869,0.010892595164477825
1761916192015728000,2.86172802734375,0.000925448490306735,-0.0013800500892102718,0.011685950681567192
1761916192025783300,2.871783203125,-0.00009480853623244911,0.0006980145117267966,0.01034744642674923
1761916192035839200,2.881839111328125,-0.0018735338235273957,0.001163002452813089,0.013263873755931854
1761916192045894100,2.89189404296875,-0.00047590688336640596,0.0009217200567945838,0.009551960043609142
1761916192055949300,2.90194921875,0.0022825952619314194,0.003640541108325124,0.01266865711659193
1761916192066004200,2.912004150390625,0.001496430253610015,0.00017017599020618945,0.01125185564160347
1761916192076059100,2.92205908203125,-0.0019446401856839657,-0.0013068130938336253,0.011889416724443436
1761916192086115000,2.932114990234375,0.0002889529860112816,0.00031798143754713237,0.011034541763365269
1761916192096170200,2.942170166015625,0.0025622271932661533,0.0015523566398769617,0.011742143891751766
1761916192106225200,2.95222509765625,-0.0004886900424025953,-0.0018977685831487179,0.01044385228306055
1761916192116280300,2.9622802734375,-0.0000250337143370416,-0.0019225359428673983,0.010778611525893211
1761916192126335200,2.972335205078125,-0.0012333098566159606,0.0015781891997903585,0.012509133666753769
1761916192136391200,2.98239111328125,-0.0008207862265408039,-0.000746750389225781,0.008212123066186905
1761916192146446300,2.9924462890625,-0.000059921123465755954,-0.0005597964627668262,0.011893411166965961
1761916192156501200,3.002501220703125,-0.0012988236267119646,-0.0029286781791597605,0.013165603391826153
1761916192166556200,3.01255615234375,-0.0023185480386018753,0.0007494135061278939,0.009218531660735607
1761916192176611000,3.022611083984375,0.0027720844373106956,0.0013227921444922686,0.012776781804859638
1761916192186667300,3.032667236328125,-0.001549693406559527,0.0036421390250325203,0.012629508972167969
1761916192196722200,3.04272216796875,-0.00011877698125317693,0.00018455706594977528,0.0141139542683959
1761916192206777000,3.052777099609375,0.0004439489566721022,0.0013659353135153651,0.01107342354953289
1761916192216832300,3.062832275390625,0.001258876291103661,0.0013736584223806858,0.010929347015917301
1761916192226887200,3.07288720703125,-0.0003909520455636084,0.003363838652148843,0.01104679238051176
1761916192236943400,3.082943359375,0.0005075985100120306,0.0030368026345968246,0.010685933753848076
1761916192246998300,3.092998291015625,-0.0001984054979402572,-0.00016964336100500077,0.011464908719062805
1761916192257053200,3.10305322265625,-0.0021728731226176023,0.0007994809420779347,0.011035074479877949
1761916192267108000,3.113108154296875,-0.002877012826502323,0.0008016114588826895,0.011987687088549137
1761916192277163300,3.123163330078125,-0.0016189356101676822,0.0006005428149364889,0.012616192921996117
1761916192287219200,3.13321923828125,0.0002348908019484952,0.0012178635224699974,0.011580489575862885
1761916192297274000,3.143274169921875,-0.0016133430181071162,0.001561944023706019,0.00923531036823988
1761916192307329300,3.153329345703125,-0.0012567456578835845,-0.0001294296234846115,0.01188089419156313
1761916192317384200,3.16338427734375,-0.00024154871061909944,0.0018437063554301858,0.01124945841729641
1761916192327439400,3.173439453125,-0.0017188041238114238,0.0012748552253469825,0.011596734635531902
1761916192337495300,3.183495361328125,-0.00004207794336252846,-0.0014626081101596355,0.010546384379267693
1761916192347550200,3.19355029296875,-0.0005792375304736197,-0.001502555445767939,0.011536813341081142
1761916192357605000,3.203605224609375,0.0007781756576150656,-0.002067412016913295,0.01082761399447918
1761916192367660300,3.213660400390625,-0.0012128035305067897,-0.001945705502294004,0.01142842322587967
1761916192377715200,3.223715087890625,0.0012903015594929457,-0.0011257182341068983,0.011302988044917583
1761916192387771100,3.233771240234375,-0.00014887070574332029,-0.0015004249289631844,0.011350126005709171
1761916192397826300,3.243826416015625,-0.0003153182624373585,-0.0001608549355296418,0.010536796413362026
1761916192407881200,3.253881103515625,-0.0006713828770443797,-0.0006079996819607913,0.010693657211959362
1761916192417936400,3.263936279296875,-0.0008484831196255982,-0.00012010856153210625,0.012432967312633991
1761916192427991000,3.273990966796875,0.00040293627534992993,-0.0036786242853850126,0.009187906049191952
1761916192438047200,3.284047119140625,-0.00021891183860134333,0.00016884441720321774,0.010364756919443607
1761916192448102100,3.29410205078125,0.00036511936923488975,-0.0006535397260449827,0.013255883939564228
1761916192458157300,3.3041572265625,-0.0031494542490690947,0.00022130868455860764,0.012120844796299934
1761916192468212200,3.314212158203125,0.0006838997360318899,0.00002609897819638718,0.011954131536185741
1761916192478267100,3.32426708984375,-0.0012921657180413604,-0.00138058268930763,0.012458001263439655
1761916192488323300,3.3343232421875,0.00020213393145240843,-0.000624777574557811,0.012733904644846916
1761916192498378200,3.344378173828125,0.00014194648247212172,-0.0016476977616548538,0.014396250247955322
1761916192508433200,3.35443310546875,-0.0002796319022309035,-0.0008812400046736002,0.012747220695018768
1761916192518488000,3.364488037109375,-0.0020937772933393717,0.0012900352012366056,0.010063020512461662
1761916192528544300,3.374544189453125,0.0003616572648752481,-0.0025481125339865685,0.010664628818631172
1761916192538599200,3.38459912109375,-0.0007403587806038558,0.00016937704640440643,0.014074273407459259
1761916192548654300,3.394654296875,-0.0005547364708036184,0.002350772265344858,0.010640393942594528
1761916192558709200,3.404709228515625,-0.0006348976166918874,0.0005222458858042955,0.012061722576618195
1761916192568764200,3.41476416015625,-0.0013462279457598925,-0.0012479572324082255,0.010555705055594444
1761916192578820400,3.4248203125,-0.00207673292607069,-0.0016383767360821366,0.00948138628154993
1761916192588875300,3.434875244140625,0.0020849888678640127,-0.0014239922165870667,0.011667841114103794
1761916192598930200,3.44493017578125,-0.0044115264900028706,0.00019281286222394556,0.013966149650514126
1761916192608985000,3.454985107421875,-0.00047404266661033034,-0.004055461846292019,0.009408681653439999
1761916192619040300,3.465040283203125,-0.001190433045849204,0.0007808388327248394,0.011444668285548687
1761916192629097700,3.47509765625,-0.0010985539993271232,-0.0017475662752985954,0.012926450930535793
1761916192639152600,3.485152587890625,-0.0007430219557136297,-0.0005083974683657289,0.013246563263237476
1761916192649207600,3.49520751953125,-0.0030828751623630524,-0.001023186487145722,0.013076387345790863
1761916192659262700,3.5052626953125,0.0006620618514716625,-0.00043595946044661105,0.008801747113466263
1761916192669317600,3.515317626953125,-0.0009086705395020545,0.0005733785801567137,0.012083294801414013
1761916192679373800,3.525373779296875,-0.0004516721237450838,0.0008335694437846541,0.01193948369473219
1761916192689428700,3.5354287109375,-0.0014032195322215557,0.0009707222343422472,0.011391671374440193
1761916192699483600,3.545483642578125,0.0004599279200192541,-0.0017659420846030116,0.014088654890656471
1761916192709538800,3.555538818359375,0.0009329052991233766,0.00015925703337416053,0.013966947793960571
1761916192719593700,3.56559375,-0.001317998394370079,0.0012157330056652427,0.011512579396367073
1761916192729649700,3.575649658203125,-0.0008623315370641649,0.003165965899825096,0.012484099715948105
1761916192739704600,3.58570458984375,0.00035127095179632306,0.002156894188374281,0.012746954336762428
1761916192749759700,3.595759765625,-0.001885784324258566,-0.00023462448734790087,0.010662497952580452
1761916192759814700,3.605814697265625,-0.002335326047614217,-0.002888997085392475,0.010278469882905483
1761916192769869800,3.615869873046875,-0.0011374361347407103,0.0021457087714225054,0.010399111546576023
1761916192779925800,3.62592578125,-0.0017329188995063305,0.0016474314033985138,0.009350624866783619
1761916192789980700,3.635980712890625,0.0014743260107934475,-0.0006439523422159255,0.008784969337284565
1761916192800035800,3.646035888671875,-0.00023089606838766485,0.002543851500377059,0.010712831281125546
1761916192810090800,3.6560908203125,-0.001284708851017058,-0.0020876519847661257,0.01395869255065918
1761916192820146700,3.666146728515625,0.001431182725355029,-0.0004876247840002179,0.010353571735322475
1761916192830201600,3.67620166015625,-0.00395639194175601,-0.002353701740503311,0.011563445441424847
1761916192840256800,3.6862568359375,0.0004655205411836505,-0.0013321131700649858,0.009735718369483948
1761916192850311700,3.696311767578125,-0.0004348942020442337,0.0007920240750536323,0.013191968202590942
1761916192860366800,3.706366943359375,0.002243446884676814,-0.0008522115531377494,0.010389523580670357
1761916192870422500,3.716422607421875,-0.0010428938549011946,-0.0008815063047222793,0.01212670374661684
1761916192880477700,3.726477783203125,-0.0018935075495392084,0.0021044297609478235,0.01013971958309412
1761916192890532600,3.73653271484375,-0.0007464840309694409,0.0010237190872430801,0.00953784491866827
1761916192900587800,3.746587890625,-0.0021965752821415663,0.0013249226612970233,0.011175689287483692
1761916192910642700,3.756642578125,-0.0013853764394298196,0.000007456851108145202,0.008589493110775948
1761916192920698600,3.76669873046875,-0.001713744131848216,-0.0014016216155141592,0.01065157912671566
1761916192930753800,3.77675390625,-0.0004929511342197657,0.0014266553334891796,0.009978864341974258
1761916192940808700,3.78680859375,0.00063383235828951,0.00185089698061347,0.009464075788855553
1761916192950863600,3.796863525390625,-0.0007046724203974009,0.0004649879119824618,0.010219081304967403
1761916192960918800,3.806918701171875,-0.001344896387308836,-0.00011611382069531828,0.01059005968272686
1761916192970974700,3.816974609375,-0.0008048072922974825,-0.0011408982099965215,0.009699765592813492
1761916192981029600,3.827029541015625,-0.0015691345324739814,-0.0027590349782258272,0.01200073678046465
1761916192991084800,3.837084716796875,-0.001862614881247282,0.0021044297609478235,0.012937902472913265
1761916193001139700,3.8471396484375,-0.0035388083197176456,-0.0003968109958805144,0.011231082491576672
1761916193011194600,3.857194580078125,-0.0023611586075276136,0.0004713795206043869,0.014195714145898819
1761916193021250800,3.867250732421875,-0.0005840312223881483,0.0019678096286952496,0.012013519182801247
1761916193031305700,3.8773056640625,-0.0008591357618570328,0.002651443239301443,0.011445467360317707
1761916193041360600,3.887360595703125,-0.0018138790037482977,0.00096113485051319,0.011114169843494892
1761916193051415800,3.897415771484375,-0.00033902039285749197,0.00010173275222769007,0.013807691633701324
1761916193061471700,3.9074716796875,0.0009291769238188863,0.0008239820599555969,0.01306094042956829
1761916193071526700,3.917526611328125,-0.001499359728768468,-0.0021555626299232244,0.011084875091910362
1761916193081581600,3.92758154296875,-0.0003020024741999805,-0.0020098877139389515,0.01107528805732727
1761916193091636700,3.93763671875,0.0009765811264514923,0.000022903184799361043,0.011485148221254349
1761916193101691600,3.947691650390625,-0.0032120386604219675,0.00026072346372529864,0.011835354380309582
1761916193111747800,3.957747802734375,-0.0033308155834674835,-0.00202240445651114,0.011487012729048729
1761916193121802800,3.967802734375,-0.0011853729374706745,-0.001930791768245399,0.01155705377459526
1761916193131857700,3.977857666015625,-0.0009827064350247383,0.0009123989730142057,0.0107120331376791
1761916193141912600,3.98791259765625,0.0003307645965833217,-0.0010468886466696858,0.012083294801414013
1761916193151967700,3.9979677734375,-0.0008378304773941636,0.0011518171522766352,0.011846805922687054
1761916193162023700,4.008023681640625,0.0017030915478244424,0.0013843111228197813,0.010889398865401745
1761916193172075800,4.01807568359375,-0.0015030881622806191,-0.0006199838826432824,0.012597550638020039
1761916193182130700,4.028130615234375,-0.0022386531345546246,-0.0014988270122557878,0.010243316181004047
1761916193192186600,4.0381865234375,-0.0007957525085657835,0.0002335592289455235,0.011642275378108025
1761916193202241500,4.048241455078125,-0.000945954816415906,0.0023329290561378,0.012564794160425663
1761916193212296700,4.058296630859375,0.0021526331547647715,0.0026168220210820436,0.008757539093494415
1761916193222352000,4.068351806640625,-0.001210939371958375,0.002002697205170989,0.011174890212714672
1761916193232406500,4.078406494140625,-0.0007978830835781991,0.001982190879061818,0.012132296338677406
1761916193242462700,4.088462646484375,-0.0004985437262803316,0.005241101142019033,0.01155439019203186
1761916193252517600,4.098517578125,-0.0010958907660096884,-0.00007643271965207532,0.009563944302499294
1761916193262572800,4.10857275390625,-0.0015883093001320958,0.002825880190357566,0.010722951963543892
1761916193272627700,4.118627685546875,0.0007286408799700439,0.002356897573918104,0.009998039342463017
1761916193282682600,4.1286826171875,-0.0030099046416580677,0.00418489146977663,0.010273410007357597
1761916193292738600,4.138738525390625,0.000520647969096899,0.0023409186396747828,0.011224690824747086
1761916193302793700,4.148793701171875,-0.001543568097986281,0.004581169690936804,0.012016182765364647
1761916193312849000,4.158848876953125,0.0005155879771336913,0.004430168308317661,0.009721869602799416
1761916193322903600,4.168903564453125,0.0013824469642713666,-0.004620584659278393,0.009326922707259655
1761916193332959700,4.178959716796875,-0.0013851100811734796,-0.006902380846440792,0.008642756380140781
1761916193343014700,4.1890146484375,-0.0011925635626539588,-0.002204830991104245,0.009609484113752842
1761916193353069800,4.19906982421875,-0.0014002900570631027,0.0007992146420292556,0.01044491771608591
1761916193363124700,4.209124755859375,0.00019973708549514413,-0.002019474981352687,0.01206811424344778
1761916193373179600,4.2191796875,-0.0014559502014890313,-0.00009933590627042577,0.013716078363358974
1761916193383235600,4.229235595703125,-0.00002663161103555467,0.004393416922539473,0.010601244866847992
1761916193393290800,4.239290771484375,-0.0014120079576969147,-0.0024586303625255823,0.008700546808540821
1761916193403346000,4.249345947265625,0.0010018812026828527,0.00004740426811622456,0.008678709156811237
1761916193413400600,4.259400634765625,0.00021012341312598437,0.001731587341055274,0.014084925875067711
1761916193423455700,4.269455810546875,-0.0029324067290872335,0.0035380094777792692,0.013531787320971489
1761916193433511700,4.27951171875,0.0006974819116294384,-0.003567304229363799,0.008169246837496758
1761916193443566800,4.28956689453125,0.0009685916593298316,-0.002189118415117264,0.010182863101363182
1761916193453621500,4.29962158203125,0.000496945867780596,-0.00010386328358436003,0.013516874052584171
1761916193463676700,4.3096767578125,-0.0008114652009680867,0.0037385455798357725,0.012191684916615486
1761916193473732600,4.319732666015625,0.000571248063351959,-0.0011787151452153921,0.009941846132278442
1761916193483787800,4.329787841796875,-0.0008420915110036731,-0.0005174521938897669,0.013175723142921925
1761916193493842700,4.3398427734375,-0.0011358382180333138,0.0006210491410456598,0.012967996299266815
1761916193503897600,4.349897705078125,0.00011638013529591262,0.004852013196796179,0.009250756353139877
1761916193513952800,4.359952880859375,-0.001967543503269553,0.0009105347562581301,0.01290461327880621
1761916193524008700,4.3700087890625,-0.0029590383637696505,-0.0030040456913411617,0.013089703395962715
1761916193534063900,4.38006396484375,-0.001686846255324781,0.00008841694943839684,0.015204519033432007
1761916193544118500,4.390118408203125,-0.00008442220860160887,0.0032890038564801216,0.012820723466575146
1761916193554173700,4.400173583984375,0.0015763250412419438,0.003748399205505848,0.013969345018267632
1761916193564228900,4.410228759765625,0.0005629922379739583,-0.00019920444174204022,0.010843326337635517
1761916193574284800,4.420284912109375,-0.0020301276817917824,-0.006413158029317856,0.010946657508611679
1761916193584339700,4.430339599609375,-0.0008468852029182017,0.0014202637830749154,0.01552489772439003
1761916193594394600,4.44039453125,-0.0020090886391699314,0.005533782299607992,0.01447188388556242
1761916193604449800,4.45044970703125,-0.001928128651343286,0.0021845910232514143,0.011402057483792305
1761916193614505700,4.460505615234375,-0.0013313142117112875,-0.0013992248568683863,0.011061172932386398
1761916193624560600,4.470560546875,-0.0002569950302131474,-0.005122590344399214,0.010692325420677662
1761916193634615000,4.480614990234375,-0.0026027073618024588,0.0031406658235937357,0.011357849463820457
1761916193644670000,4.490669921875,-0.000014647385796706658,0.002370745874941349,0.011860653758049011
1761916193654724900,4.500724853515625,0.0003981425834354013,0.0014721954939886928,0.011863317340612411
1761916193664780800,4.51078076171875,-0.0009720537927933037,-0.0014524880098178983,0.013638580217957497
1761916193674836000,4.5208359375,-0.0011544802691787481,-0.0007278419216163456,0.011927765794098377
1761916193684891000,4.530890869140625,-0.003365170443430543,0.0009861685102805495,0.011022024787962437
1761916193694945800,4.54094580078125,-0.0014833806781098247,0.0031166973058134317,0.01236399170011282
1761916193705001000,4.5510009765625,-0.00012863067968282849,0.000547279603779316,0.014512630179524422
1761916193715058000,4.561057861328125,0.0011193265672773123,-0.00061279337387532,0.01384098082780838
1761916193725112800,4.57111279296875,0.000639691308606416,0.004866660572588444,0.011938684619963169
1761916193735168000,4.58116796875,-0.0010365023044869304,0.004747617058455944,0.012047874741256237
1761916193745223000,4.591222900390625,0.0012660667998716235,0.0007992146420292556,0.01022973470389843
1761916193755277800,4.60127783203125,-0.001113201375119388,-0.0016916398890316486,0.01062255073338747
1761916193765334000,4.611333984375,0.0010567422723397613,-0.0022266688756644726,0.010892861522734165
1761916193775389000,4.621388916015625,0.0013235911028459668,-0.0004106594424229115,0.015176023356616497
1761916193785444000,4.631444091796875,0.0028064390644431114,-0.0015603461069986224,0.01140046026557684
1761916193795498800,4.641498779296875,-0.001091896090656519,-0.0007424892974086106,0.009082178585231304
1761916193805555000,4.651554931640625,0.0000756337758502923,0.003023753175511956,0.013381585478782654
1761916193815609900,4.66160986328125,-0.0016327840276062489,0.001654089312069118,0.011930163018405437
1761916193825665000,4.6716650390625,-0.0013097425689920783,0.0006910903030075133,0.01010749489068985
1761916193835720000,4.681719970703125,-0.0006330333999358118,0.0004953479510731995,0.009866478852927685
1761916193845774800,4.69177490234375,0.0016247945604845881,-0.0011065434664487839,0.013020726852118969
1761916193855830800,4.701830810546875,-0.0010934938909485936,0.0030541131272912025,0.012722186744213104
1761916193865886000,4.711885986328125,-0.0009038768475875258,0.002679938916116953,0.010016148909926414
1761916193875940900,4.72194091796875,-0.0005795038305222988,-0.0006032059900462627,0.011621235869824886
1761916193885995800,4.731995849609375,0.0008855010382831097,-0.003829892026260495,0.013138971291482449
1761916193896052000,4.742052001953125,-0.000464188982732594,0.002466087229549885,0.011651596054434776
1761916193906107000,4.75210693359375,0.00034115093876607716,0.002083124592900276,0.012224442325532436
1761916193916162000,4.762162109375,-0.00021997711155563593,-0.00031664984999224544,0.011811385862529278
1761916193926217000,4.772217041015625,-0.0006130596739239991,-0.0031989889685064554,0.009799634106457233
1761916193936272000,4.78227197265625,-0.00079735042527318,-0.0010250506456941366,0.012773585505783558
1761916193946327800,4.792327880859375,-0.0009896307019516826,0.002531334524974227,0.012878513894975185
1761916193956383000,4.802383056640625,-0.00046365635353140533,0.0002966761530842632,0.012319782748818398
1761916193966438000,4.81243798828125,0.00017310546536464244,0.00009267800487577915,0.009619337506592274
1761916193976492800,4.822492919921875,0.00040986048406921327,-0.00026019083452410996,0.010809238068759441
1761916193986548000,4.8325478515625,-0.0017949705943465233,0.0015097459545359015,0.011898737400770187
1761916193996604000,4.84260400390625,0.0002234392159152776,0.00216594897210598,0.014769092202186584
1761916194006659000,4.8526591796875,-0.0005390237784013152,0.003680754918605089,0.011414840817451477
1761916194016714000,4.8627138671875,-0.0004849616379942745,0.000046871635277057067,0.009147691540420055
1761916194026769000,4.872768798828125,-0.0011472897604107857,0.00020346550445538014,0.011624698527157307
1761916194036824800,4.882824951171875,0.000746750389225781,-0.000051399008953012526,0.013292103074491024
1761916194046880000,4.8928798828125,-0.00015659387281630188,0.0018106831703335047,0.013026053085923195
1761916194056935000,4.902934814453125,-0.0027481159195303917,0.00023861923546064645,0.009426524862647057
1761916194066989800,4.91298974609375,0.0012966931099072099,-0.0033995250705629587,0.013244698755443096
1761916194077045000,4.923044921875,-0.0036911412607878447,0.004548945464193821,0.010300042107701302
1761916194087101000,4.933100830078125,0.003081543603911996,0.004232029430568218,0.015145663172006607
1761916194097155800,4.94315576171875,-0.001020257011987269,0.0006042712484486401,0.015189073048532009
1761916194107210800,4.953210693359375,-0.0029635655228048563,-0.003463174682110548,0.011207646690309048
1761916194117266000,4.963265869140625,-0.0022743395529687405,0.0015073491958901286,0.012587697245180607
1761916194127321000,4.973321044921875,0.0017507621087133884,0.0021654162555933,0.013481187634170055
1761916194137377000,4.983376953125,-0.000550475378986448,0.0026109630707651377,0.011927499435842037
1761916194147432000,4.993431884765625,-0.0005992112564854324,0.0007097324123606086,0.012857208959758282
1761916194157486800,5.00348681640625,-0.00017470336752012372,0.0005579322460107505,0.010277937166392803
1761916194167542000,5.0135419921875,-0.0008689894457347691,0.0014799186028540134,0.01438133604824543
1761916194177598000,5.023597900390625,-0.0013632721966132522,0.00028762139845639467,0.012765596620738506
1761916194187652900,5.03365283203125,-0.0001549959706608206,-0.003652791725471616,0.00980336219072342
1761916194197707800,5.043707763671875,-0.0005233111442066729,0.001499359728768468,0.011565309949219227
1761916194207763000,5.053762939453125,-0.0015161376213654876,-0.00030892668291926384,0.01139832939952612
1761916194217818000,5.063818115234375,0.0014708638191223145,0.001885784324258566,0.012399944476783276
1761916194227873800,5.073873779296875,-0.002377137541770935,0.0036341496743261814,0.011891280300915241
1761916194237929000,5.083928955078125,-0.0013273194199427962,0.0023132218047976494,0.012561864219605923
1761916194247983900,5.09398388671875,0.000070307454734575,-0.0008620652370154858,0.012254801578819752
1761916194258039000,5.1040390625,-0.0005803027888759971,0.003516171593219042,0.012312592938542366
1761916194268095000,5.114094970703125,-0.001100684516131878,0.002251702593639493,0.013847372494637966
1761916194278150000,5.12414990234375,0.0007360977469943464,-0.0015909724170342088,0.013878265395760536
1761916194288204800,5.134204833984375,-0.0011270497925579548,-0.00010439591278554872,0.013247628696262836
1761916194298260000,5.144260009765625,-0.000051399008953012526,0.0005310343112796545,0.012073440477252007
1761916194308315000,5.15431494140625,0.0016354472609236836,-0.0008516788948327303,0.012278237380087376
1761916194318370800,5.164370849609375,0.00025779398856684566,0.0007454187725670636,0.008154332637786865
1761916194328426000,5.174426025390625,-0.0015089471125975251,-0.0016229304019361734,0.012248676270246506
1761916194338481000,5.18448095703125,0.0017624800093472004,0.0023931164760142565,0.012087821960449219
1761916194348536000,5.1945361328125,-0.0010104032699018717,-0.0002825613773893565,0.00920281931757927
1761916194358592000,5.204592041015625,-0.00003834952076431364,0.0011249192757532,0.014137922786176205
1761916194368647000,5.21464697265625,0.00010626012954162434,-0.0004010720585938543,0.011755459010601044
1761916194378701800,5.224701904296875,-0.0005046690348535776,0.00037284253630787134,0.010804977267980576
1761916194388757000,5.234757080078125,0.0008945558220148087,-0.0033712955191731453,0.010911503806710243
1761916194398812000,5.24481201171875,-0.001231711939908564,0.0006045375484973192,0.010216418653726578
1761916194408867800,5.254867919921875,0.0017805894603952765,0.00043782367720268667,0.014182930812239647
1761916194418923000,5.264923095703125,0.0007683219737373292,0.0006671218434348702,0.012771189212799072
1761916194428978000,5.27497802734375,0.0018407768802717328,-0.001136637176387012,0.012326174415647984
1761916194439033000,5.285033203125,0.00013768543431069702,-0.00115394766908139,0.01184866949915886
1761916194449087700,5.295087646484375,-0.0001901497016660869,0.0007249124464578927,0.011988486163318157
1761916194459144000,5.30514404296875,-0.00046099317842163146,-0.0005656554130837321,0.01209767535328865
1761916194469198800,5.31519873046875,-0.001318264752626419,-0.0008855010382831097,0.008831574581563473
1761916194479254000,5.32525390625,-0.00013795174891129136,0.0007187871960923076,0.012652412056922913
1761916194489309000,5.335308837890625,-0.000051132694352418184,0.0008551410282962024,0.010493387468159199
1761916194499364900,5.34536474609375,-0.000020240024241502397,0.0017212009988725185,0.010698717087507248
1761916194509420000,5.355419921875,-0.0014005564153194427,-0.000480434246128425,0.0114590497687459
1761916194519475000,5.365474853515625,0.00008415588672505692,0.001258876291103661,0.013088105246424675
1761916194529529900,5.37552978515625,-0.0021736719645559788,-0.0003414172388147563,0.009880061261355877
1761916194539584800,5.385584716796875,-0.0011683288030326366,0.0008876316132955253,0.009297627955675125
1761916194549641000,5.395640869140625,-0.0010807107901200652,0.004571848548948765,0.011471034027636051
1761916194559696000,5.40569580078125,0.00017736652807798237,-0.00017070861940737814,0.010945592075586319
1761916194569751000,5.4157509765625,0.000036751622246811166,-0.0012756541837006807,0.00911600049585104
1761916194579806000,5.425805908203125,-0.0006450176006183028,-0.0030919299460947514,0.011671570129692554
1761916194589862000,5.43586181640625,0.0012412993237376213,0.002642654813826084,0.01122176181524992
1761916194599917000,5.4459169921875,0.0007270429632626474,-0.0005965480813756585,0.010418286547064781
1761916194609972000,5.455971923828125,-0.00028522455249913037,0.0018807243322953582,0.011003382503986359
1761916194620027000,5.46602685546875,-0.0008673915872350335,-0.00005805691034765914,0.010411628521978855
1761916194630081800,5.476081787109375,-0.0011731224367395043,-0.0013763216556981206,0.01263829693198204
1761916194640137700,5.4861376953125,-0.002032258315011859,-0.0015877765836194158,0.011141334660351276
1761916194650192600,5.496192626953125,-0.0030599720776081085,0.0005440838285721838,0.012175439856946468
1761916194660247600,5.50624755859375,-0.0008364989189431071,0.0014080132823437452,0.014054033905267715
1761916194670302700,5.516302734375,0.001580053474754095,-0.00002157160452043172,0.012588762678205967
1761916194680357600,5.526357666015625,0.0016226640436798334,0.00046392265358008444,0.01233549602329731
1761916194690413800,5.536413818359375,0.0009390306076966226,-0.0010785802733153105,0.014252705499529839
1761916194700468700,5.54646875,-0.0032629049383103848,0.0010298443958163261,0.010458233766257763
1761916194710523600,5.556523681640625,-0.0022945795208215714,-0.0009930927772074938,0.010602043941617012
1761916194720578600,5.56657861328125,-0.0021920478902757168,-0.0005307680112309754,0.013766146264970303
1761916194730634800,5.576634765625,0.0002258360618725419,-0.0007960188668221235,0.011891813017427921
1761916194740689700,5.586689697265625,0.00022264027211349458,-0.0008905610884539783,0.010839331895112991
1761916194750744600,5.59674462890625,-0.00037710359902121127,0.0014564828015863895,0.013907293789088726
1761916194760799700,5.6067998046875,-0.0010090717114508152,0.0013214604696258903,0.01116130780428648
1761916194770854700,5.616854736328125,-0.0037587855476886034,-0.0015398397808894515,0.010764763690531254
1761916194780910800,5.626910888671875,0.0005462143453769386,0.0018551580142229795,0.009558884426951408
1761916194790965500,5.636965576171875,-0.002767024328932166,0.0006237123161554337,0.01158368494361639
1761916194801020700,5.647020751953125,-0.0011653993278741837,0.0025268071331083775,0.010978881269693375
1761916194811075600,5.65707568359375,-0.0014365090755745769,-0.0023552996572107077,0.011640677228569984
1761916194821131800,5.6671318359375,0.001669269404374063,-0.0004679173871409148,0.013217534869909286
1761916194831186700,5.677186767578125,0.0006700513185933232,0.002560629276558757,0.01161431148648262
1761916194841241600,5.68724169921875,0.001008539111353457,0.0014423680258914828,0.010838000103831291
1761916194851296800,5.697296875,0.00028762139845639467,-0.0017353157745674253,0.010781008750200272
1761916194861351700,5.7073515625,-0.0013315805699676275,0.0003683151735458523,0.011147193610668182
1761916194871407900,5.717407958984375,-0.0011888351291418076,-0.0011536814272403717,0.012821522541344166
1761916194881462500,5.727462646484375,-0.00031664984999224544,-0.002433330286294222,0.009384180419147015
1761916194891517700,5.737517578125,0.0015302523970603943,-0.001253017340786755,0.01187849696725607
1761916194901572600,5.747572509765625,-0.0012314456980675459,0.0025803367607295513,0.01305321790277958
1761916194911628800,5.75762890625,0.001734783174470067,0.0016849819803610444,0.014142184518277645
1761916194921683500,5.767683349609375,-0.00042583944741636515,0.0016618125373497605,0.008621717803180218
1761916194931738600,5.777738525390625,0.0008785768295638263,0.00041864890954457223,0.011598599143326283
1761916194941793800,5.787793701171875,0.001323857344686985,0.0008056062506511807,0.012003399431705475
1761916194951848700,5.7978486328125,0.0001584580895723775,-0.0026080335956066847,0.011994877830147743
1761916194961904600,5.807904541015625,0.0009315737406723201,0.0015049523208290339,0.010860636830329895
1761916194971959600,5.81795947265625,-0.0014801849611103535,-0.0011800467036664486,0.010961570776998997
1761916194982014700,5.8280146484375,-0.0024706146214157343,0.0015329155139625072,0.011689146980643272
1761916194992069600,5.838069580078125,-0.0034197650384157896,-0.00038269624928943813,0.010093380697071552
1761916195002124800,5.848124755859375,-0.0018927085911855102,0.0016279903938993812,0.012221512384712696
1761916195012180500,5.858180419921875,-0.002299106912687421,0.0013859090395271778,0.010243049822747707
1761916195022235600,5.868235595703125,0.0009440905996598303,0.0017180051654577255,0.012219381518661976
1761916195032290800,5.878290771484375,0.00056219327962026,-0.0023339942563325167,0.013365074060857296
1761916195042345700,5.888345703125,0.001871403306722641,-0.0019571571610867977,0.010844658128917217
1761916195052401700,5.898401611328125,-0.0002767024270724505,0.001070857048034668,0.011999138630926609
1761916195062456600,5.90845654296875,-0.00045353634050115943,-0.00024394555657636374,0.009724798612296581
1761916195072511700,5.91851171875,0.0014833806781098247,-0.0005494101205840707,0.009651828557252884
1761916195082566700,5.928566650390625,0.0018815232906490564,0.0012868394842371345,0.011898471042513847
1761916195092621600,5.93862158203125,-0.0031555795576423407,0.003328951308503747,0.010916563682258129
1761916195102677500,5.948677490234375,-0.0024170849937945604,0.0007635282818228006,0.00956820510327816
1761916195112732700,5.958732666015625,-0.002445048186928034,-0.0007153250626288354,0.011895541101694107
1761916195122787800,5.968787841796875,0.0006258428329601884,-0.0034533210564404726,0.0130907678976655
1761916195132842800,5.9788427734375,0.0013880395563319325,-0.0021491709630936384,0.010005762800574303
1761916195142898400,5.9888984375,0.001062334980815649,-0.001085770782083273,0.011948804371058941
1761916195152953600,5.99895361328125,0.00038269624928943813,0.000050600061513250694,0.011600730009377003
1761916195163008800,6.0090087890625,-0.001002413802780211,-0.0001358212175546214,0.01218875590711832
1761916195173063700,6.019063720703125,-0.001520665013231337,0.0019419770687818527,0.010880344547331333
1761916195183118600,6.02911865234375,0.00006178533658385277,0.0004695153038483113,0.012566125951707363
1761916195193174500,6.039174560546875,-0.0018556906143203378,0.002549177734181285,0.012862268835306168
1761916195203229700,6.049229736328125,0.0010106696281582117,0.001321194227784872,0.014161358587443829
1761916195213284600,6.05928466796875,0.0004189152386970818,0.0016871124971657991,0.010869692079722881
1761916195223339500,6.069339599609375,-0.0009864348685368896,-0.001841842196881771,0.009063802659511566
1761916195233395500,6.0793955078125,-0.0009949569357559085,0.0014351775171235204,0.009937318973243237
1761916195243450600,6.08945068359375,0.00018908442871179432,0.0047849016264081,0.012368785217404366
1761916195253505800,6.099505859375,-0.000990695902146399,0.0009424926829524338,0.012908075004816055
1761916195263560700,6.109560791015625,-0.0008426241693086922,-0.00046046054922044277,0.011406319215893745
1761916195273615600,6.11961572265625,0.0005933523061685264,-0.0007057376787997782,0.01203935220837593
1761916195283671600,6.129671630859375,-0.0003552656853571534,-0.0004873584839515388,0.009470733813941479
1761916195293726700,6.139726806640625,-0.0010194580536335707,-0.0003528688393998891,0.011001517996191978
1761916195303781600,6.14978173828125,-0.0020423782989382744,0.00011904330312972888,0.0121291009709239
1761916195313836500,6.15983642578125,0.0010210559703409672,-0.00038242992013692856,0.01264255866408348
1761916195323892500,6.169892578125,-0.00037470675306394696,0.0012982910266146064,0.012210060842335224
1761916195333947600,6.17994775390625,-0.0032000544015318155,-0.0005398227367550135,0.0117312241345644
1761916195344002800,6.1900029296875,-0.000940095866099,-0.0006109291571192443,0.01276027038693428
1761916195354057500,6.200057373046875,-0.0010596717474982142,-0.0008008125587366521,0.008505071513354778
1761916195364112600,6.210112548828125,-0.0006175870657898486,0.002080195117741823,0.01176557969301939
1761916195374168600,6.22016845703125,-0.0022072279825806618,0.0007659250986762345,0.012880378402769566
1761916195384223700,6.2302236328125,-0.0017992316279560328,0.00253532943315804,0.01124945841729641
1761916195394278700,6.240278564453125,0.00018429075134918094,0.0016964336391538382,0.013711817562580109
1761916195404333600,6.25033349609375,0.00035659727291204035,0.001770203118212521,0.010750648565590382
1761916195414389500,6.260389404296875,-0.0027473168447613716,-0.000592020689509809,0.009854228235781193
1761916195424444700,6.270444580078125,-0.0024104269687086344,-0.0003483414766378701,0.012082495726644993
1761916195434499800,6.280499755859375,0.0023401195649057627,-0.0004159857635386288,0.012491290457546711
1761916195444554500,6.290554443359375,0.0006122607155703008,0.0031364047899842262,0.005913549102842808
1761916195454609700,6.300609619140625,0.0002894856152124703,0.0008253136184066534,0.011396198533475399
1761916195464665600,6.31066552734375,-0.00045673211570829153,-0.00037710359902121127,0.014875885099172592
1761916195474720800,6.320720703125,0.00044474788592197,0.0014181332662701607,0.013624199666082859
1761916195484775700,6.330775634765625,0.000007723167072981596,-0.0002609897928778082,0.008620119653642178
1761916195494830600,6.34083056640625,0.0013190637109801173,-0.003715908620506525,0.010372479446232319
1761916195504886500,6.350886474609375,0.0007379619055427611,-0.0015931029338389635,0.01224654633551836
1761916195514941700,6.360941650390625,-0.0011315771844238043,0.002567553659901023,0.012251606211066246
1761916195524996900,6.370996826171875,0.00033342777169309556,-0.0014953649369999766,0.011640677228569984
1761916195535051500,6.381051513671875,-0.0015725966077297926,0.0008412926108576357,0.010554639622569084
1761916195545106700,6.391106689453125,-0.0018181400373578072,0.00033422670094296336,0.010276872664690018
1761916195555162600,6.40116259765625,0.0008317052270285785,0.000284159294096753,0.011147992685437202
1761916195565217800,6.4112177734375,-0.0002335592289455235,-0.003197657410055399,0.011562646366655827
1761916195575272400,6.4212724609375,0.00008122641156660393,-0.00007856325100874528,0.011113637126982212
1761916195585327600,6.43132763671875,0.0014234596164897084,0.0009062737226486206,0.012145346030592918
1761916195595383600,6.441383544921875,-0.002662628423422575,0.0003755057114176452,0.010958908125758171
1761916195605438700,6.451438720703125,0.000606934423558414,0.002281530061736703,0.009886186569929123
1761916195615494000,6.461493896484375,0.0037201696541160345,0.00012064119800925255,0.009336509741842747
1761916195625548500,6.471548583984375,-0.00018961707246489823,0.002529470482841134,0.008171909488737583
1761916195635604000,6.48160400390625,0.0011182613670825958,-0.0003025351034011692,0.013792244717478752
1761916195645660000,6.491659912109375,0.00002609897819638718,-0.0002993392990902066,0.011864116415381432
1761916195655715000,6.501715087890625,0.0004170510219410062,-0.0007795072160661221,0.00914662703871727
1761916195665769700,6.511769775390625,0.0009451558580622077,0.0013438310706987977,0.01167423278093338
1761916195675825000,6.521824951171875,0.0027569043450057507,0.0002311623829882592,0.01131044514477253
1761916195685880800,6.531880859375,0.0006343649583868682,0.001490304945036769,0.008761267177760601
1761916195695936000,6.54193603515625,-0.0007131945458240807,-0.002156894188374281,0.011957859620451927
1761916195705991000,6.551990966796875,0.0019768644124269485,0.0005049353349022567,0.009222260676324368
1761916195716045800,6.5620458984375,-0.0010980212828144431,-0.00155288923997432,0.012919526547193527
1761916195726101000,6.57210107421875,-0.0012623383663594723,0.0016679377295076847,0.012036423198878765
1761916195736157000,6.582156982421875,-0.0007518103811889887,0.0009358347742818296,0.010381001979112625
1761916195746212000,6.592212158203125,0.0015124091878533363,-0.0006860303110443056,0.011971973814070225
1761916195756266800,6.602266845703125,-0.0013584784464910626,-0.000333161442540586,0.012062788009643555
1761916195766322000,6.612322021484375,-0.0034288198221474886,0.002296443795785308,0.010295780375599861
1761916195776377900,6.6223779296875,-0.0005182511522434652,0.0015217302134260535,0.011026818305253983
1761916195786433000,6.63243310546875,-0.001395496423356235,0.000258859246969223,0.010450510308146477
1761916195796488000,6.642488037109375,-0.0009632653673179448,-0.0012271846644580364,0.010357033461332321
1761916195806542800,6.65254296875,-0.001151018193922937,0.0003043993201572448,0.010934939607977867
1761916195816598000,6.662597900390625,-0.0005062668933533132,-0.002013349672779441,0.013133112341165543
1761916195826654000,6.672654052734375,-0.0017680726014077663,0.0012002866715192795,0.011778095737099648
1761916195836709000,6.682709228515625,-0.0002926813904196024,-0.001430916483514011,0.011776498518884182
1761916195846763800,6.692763671875,0.0012868394842371345,-0.0004247741890139878,0.012131763622164726
1761916195856819000,6.70281884765625,-0.0010865697404369712,-0.0015169365797191858,0.011277422308921814
1761916195866875000,6.712875,-0.001008272753097117,-0.001532382913865149,0.010749316774308681
1761916195876930000,6.722929931640625,0.0006711165769957006,-0.0015022892039269209,0.01161777414381504
1761916195886984700,6.732984619140625,-0.0009629990672692657,-0.0011464908020570874,0.012094746343791485
1761916195897040000,6.743039794921875,0.0011598066193982959,-0.0005874933558516204,0.009075786918401718
1761916195907095000,6.753094970703125,0.0030445256270468235,0.0012098740553483367,0.01062334980815649
1761916195917151000,6.76315087890625,0.0009350358741357923,0.0013289173366501927,0.007322094868868589
1761916195927206000,6.773205810546875,-0.0021672805305570364,0.00040746363811194897,0.012233496643602848
1761916195937260800,6.7832607421875,0.001395496423356235,0.00007217166421469301,0.013041766360402107
1761916195947316000,6.79331591796875,-0.0005320995696820319,0.0011606055777519941,0.011170629411935806
1761916195957372000,6.803371826171875,0.0008729841792955995,0.0023031015880405903,0.013285977765917778
1761916195967427000,6.813427001953125,0.0001805623178370297,0.0022628880105912685,0.010265154764056206
1761916195977481700,6.823481689453125,0.0008000136003829539,-0.0009028115891851485,0.010891796089708805
1761916195987537000,6.833536865234375,-0.0015749934827908874,0.00029534456552937627,0.009799367748200893
1761916195997592800,6.8435927734375,0.0015390408225357533,-0.0006884271278977394,0.010718158446252346
1761916196007648000,6.85364794921875,-0.0007837683078832924,-0.00045593318645842373,0.00959829892963171
1761916196017703000,6.863702880859375,0.00046605319948866963,0.0002615224220789969,0.010583401657640934
1761916196027757800,6.8737578125,-0.00023196132679004222,-0.000892691605258733,0.011739480309188366
1761916196037813000,6.88381298828125,-0.0012183962389826775,-0.00014620754518546164,0.01176398154348135
1761916196047869000,6.893868896484375,-0.0012815131340175867,0.00011851066665258259,0.010308030992746353
1761916196057924000,6.903924072265625,0.0006450176006183028,-0.001282045734114945,0.011143198236823082
1761916196067978800,6.913978759765625,-0.0020746025256812572,-0.0024895230308175087,0.011712316423654556
1761916196078034000,6.924033935546875,-0.0012397015234455466,-0.00023568976030219346,0.009496832266449928
1761916196088089900,6.93408984375,0.000428502622526139,0.000008255799002654385,0.012083561159670353
1761916196098145000,6.94414501953125,-0.0019084211671724916,0.0018676748732104897,0.013218333944678307
1761916196108200000,6.954199951171875,-0.0006508765509352088,0.001460743835195899,0.011349593289196491
1761916196118254800,6.9642548828125,0.00096113485051319,0.0017675400013104081,0.012693691067397594
1761916196128310000,6.97431005859375,0.00042796999332495034,0.0017161410069093108,0.013138438574969769
1761916196138366000,6.984365966796875,-0.0001597896625753492,0.0007371630053967237,0.011654258705675602
1761916196148420900,6.9944208984375,-0.0013140037190169096,-0.0011749867117032409,0.013057745061814785
1761916196158475800,7.004475830078125,-0.002031991956755519,-0.0012154667638242245,0.010684868320822716
1761916196168531000,7.014531005859375,-0.00010679275874281302,0.0017739315517246723,0.01323857344686985
1761916196178587000,7.0245869140625,-0.0016580841038376093,0.0009302421822212636,0.011604724451899529
1761916196188642000,7.03464208984375,-0.0017451694002375007,0.0017148094484582543,0.011950136162340641
1761916196198697000,7.044697021484375,0.0013781858142465353,-0.0005382248782552779,0.01312032900750637
1761916196208751900,7.054751953125,0.0006072007236070931,0.000291616132017225,0.01113387756049633
1761916196218807800,7.064807861328125,-0.0006487460341304541,0.0020905814599245787,0.010325341485440731
1761916196228863000,7.074863037109375,0.0018817896489053965,-0.0036658411845564842,0.011332815513014793
1761916196238918000,7.08491796875,-0.0007773766992613673,0.00024048343766480684,0.010612696409225464
1761916196248972800,7.094972900390625,-0.00014753911818843335,-0.001761148450896144,0.012191152200102806
1761916196259028000,7.105028076171875,0.0028192223981022835,0.0007715177489444613,0.01190992258489132
1761916196269084000,7.115083984375,-0.0013393036788329482,0.0007555388147011399,0.00827657151967287
1761916196279138800,7.125138916015625,-0.0014708638191223145,-0.0007624630234204233,0.013410081155598164
1761916196289194000,7.135194091796875,-0.0031284152064472437,0.00033209618413820863,0.013431386090815067
1761916196299249000,7.145248779296875,-0.003181145992130041,-0.0033449302427470684,0.01017087884247303
1761916196309304800,7.155304931640625,0.0008191883680410683,0.0013813816476613283,0.011827897280454636
1761916196319360000,7.165360107421875,-0.0014178669080138206,0.0017475662752985954,0.012359198182821274
1761916196329415000,7.175414794921875,-0.0006524744676426053,-0.0009363674325868487,0.010092847980558872
1761916196339469800,7.1854697265625,0.0005004079430364072,-0.002260491019114852,0.012035624124109745
1761916196349525000,7.19552490234375,-0.0015161376213654876,-0.0013305152533575892,0.011758388951420784
1761916196359581000,7.205580810546875,0.0005640574963763356,0.002025600289925933,0.009341304190456867
1761916196369635800,7.2156357421875,-0.0012484899489209056,0.0002961435238830745,0.011722702533006668
1761916196379691000,7.22569091796875,-0.0000351537273672875,-0.0035454663448035717,0.013364008627831936
1761916196389746000,7.235745849609375,-0.002700711600482464,0.0024170849937945604,0.014021276496350765
1761916196399801900,7.2458017578125,-0.0004093278548680246,0.0009219863568432629,0.010685134679079056
1761916196409857000,7.25585693359375,-0.003335609333589673,-0.0003206445835530758,0.01218422781676054
1761916196419912000,7.265911865234375,-0.00011638013529591262,-0.0032266860362142324,0.012510731816291809
1761916196429966800,7.275966796875,-0.0007267766632139683,-0.001529453438706696,0.012013785541057587
1761916196440022000,7.28602197265625,-0.0009273127070628107,-0.0005954828229732811,0.010700315237045288
1761916196450078000,7.296077880859375,0.0005379585199989378,0.001627457677386701,0.007141532842069864
1761916196460132900,7.3061328125,-0.00012223910016473383,-0.0026059031952172518,0.012019111774861813
1761916196470187800,7.316187744140625,0.001677525113336742,0.0005395564367063344,0.011061972007155418
1761916196480243000,7.326242919921875,-0.001960885478183627,0.0008964200387708843,0.01317838579416275
1761916196490299000,7.336298828125,-0.0018844527658075094,-0.0012873720843344927,0.012724317610263824
1761916196500353800,7.346353759765625,-0.0013456953456625342,0.0019172097090631723,0.01423246506601572
1761916196510409000,7.356408935546875,0.0006024070316925645,0.0012476909905672073,0.012484632432460785
1761916196520464000,7.3664638671875,-0.000030892668291926384,-0.0009046758059412241,0.011324560269713402
1761916196530520000,7.37652001953125,0.0010665960144251585,-0.0010120011866092682,0.010731207206845284
1761916196540575000,7.386574951171875,-0.00022024342615623027,0.00407543545588851,0.01257944107055664
1761916196550630000,7.3966298828125,0.0011914982460439205,0.002338521648198366,0.013313408941030502
1761916196560684800,7.406684814453125,0.000571248063351959,0.0023284016642719507,0.011728295125067234
1761916196570740000,7.416739990234375,-0.0009081379394046962,0.0003254382754676044,0.011024155654013157
1761916196580796000,7.4267958984375,-0.001585646066814661,-0.0009747169679030776,0.010757040232419968
1761916196590850800,7.436850830078125,-0.0010365023044869304,-0.00017310546536464244,0.012052934616804123
1761916196600906000,7.446906005859375,-0.0001304948964389041,-0.0017480988753959537,0.009332515299320221
1761916196610961000,7.4569609375,0.0005198490689508617,0.0004141215467825532,0.011145861819386482
1761916196621017000,7.46701708984375,0.0005757753970101476,-0.0012098740553483367,0.014070811681449413
1761916196631071700,7.47707177734375,-0.0007667240570299327,0.0013757890556007624,0.013846040703356266
1761916196641127200,7.487127197265625,-0.00044048685231246054,0.0019536949694156647,0.012314722873270512
1761916196651182000,7.49718212890625,-0.0008293083519674838,-0.0008064051507972181,0.011592207476496696
1761916196661238300,7.50723828125,-0.0016953683225437999,-0.002085521351546049,0.009779660031199455
1761916196671293200,7.517293212890625,-0.000278300343779847,0.0009097357979044318,0.010761034674942493
1761916196681348000,7.52734814453125,-0.00024501082953065634,0.00007217166421469301,0.011630024760961533
1761916196691403300,7.5374033203125,-0.002721750643104315,0.00040772996726445854,0.009374060668051243
1761916196701458200,7.547458251953125,0.00031664984999224544,0.0003683151735458523,0.012296613305807114
1761916196711514000,7.55751416015625,-0.0005422196118161082,-0.0006500775925815105,0.012959474697709084
1761916196721569000,7.567569091796875,0.0015060176374390721,0.0024554345291107893,0.012460132129490376
1761916196731624200,7.577624267578125,0.00145195540972054,0.0026256104465574026,0.012583436444401741
1761916196741679000,7.58767919921875,-0.0000399474156438373,0.0000018642127770363004,0.010749849490821362
1761916196751735300,7.5977353515625,-0.0008317052270285785,-0.0011382350930944085,0.012112589552998543
1761916196761790200,7.607790283203125,-0.001383512164466083,-0.0015566176734864712,0.01041295938193798
1761916196771845000,7.61784521484375,-0.0004732437082566321,0.0033337450586259365,0.013295299373567104
1761916196781900300,7.627900390625,-0.0008825715631246567,0.0013853764394298196,0.010433998890221119
1761916196791956200,7.637956298828125,0.0001334243715973571,-0.0007627293234691024,0.010961038060486317
1761916196802011100,7.64801123046875,-0.0013353090034797788,-0.0005107942852191627,0.010785003192722797
1761916196812066000,7.658066162109375,-0.0012365056900307536,-0.00028815402765758336,0.011006845161318779
1761916196822121200,7.668121337890625,-0.0008812400046736002,0.0009502158500254154,0.00965715479105711
1761916196832177200,7.67817724609375,-0.0019462381023913622,0.0011680624447762966,0.010779676958918571
1761916196842232300,7.688232421875,-0.002356098499149084,0.0008303736103698611,0.01155785284936428
1761916196852287000,7.698286865234375,-0.0009478190331719816,-0.0000857537888805382,0.011622034944593906
1761916196862342100,7.708342041015625,-0.003222158644348383,0.0012599414912983775,0.010399111546576023
1761916196872398000,7.718398193359375,-0.0006442186422646046,-0.0010365023044869304,0.009751164354383945
1761916196882453200,7.728453369140625,0.001076982356607914,-0.0012516856659203768,0.014160826802253723
1761916196892508200,7.738508056640625,-0.002433330286294222,-0.0006388923502527177,0.011453457176685333
1761916196902563000,7.74856298828125,0.0006956176948733628,0.0010756507981568575,0.0116750318557024
1761916196912618200,7.7586181640625,0.0007866977830417454,0.00012729909212794155,0.010313090868294239
1761916196922674200,7.768674072265625,-0.002097505610436201,-0.0011081412667408586,0.014364025555551052
1761916196932729300,7.778729248046875,-0.0007363640470430255,0.002356897573918104,0.012547483667731285
1761916196942784000,7.788783935546875,0.0005944175645709038,0.0015851134667173028,0.012503807432949543
1761916196952839200,7.798839111328125,0.0015547533985227346,0.0014266553334891796,0.009845706634223461
1761916196962895000,7.80889501953125,0.00010040117194876075,-0.0005853627808392048,0.009702161885797977
1761916196972950300,7.8189501953125,0.0016919062472879887,-0.002948385663330555,0.010863034054636955
1761916196983005200,7.829005126953125,0.0014889733865857124,-0.002314287004992366,0.011522166430950165
1761916196993060000,7.83906005859375,0.0002479403046891093,0.0015387744642794132,0.012569321319460869
1761916197003116000,7.849115966796875,0.001972869737073779,-0.0007454187725670636,0.010154366493225098
1761916197013171200,7.859171142578125,-0.0014223942998796701,0.00021438446128740907,0.00959723349660635
1761916197023226400,7.869226318359375,0.0007448861724697053,0.00017230652156285942,0.013891846872866154
1761916197033281000,7.879281005859375,0.00024740767548792064,0.0012381036067381501,0.009733054786920547
1761916197043337200,7.889337158203125,0.00003222424857085571,-0.0016519587952643633,0.011800999753177166
1761916197053392100,7.89939208984375,0.0006551376427523792,0.00236275652423501,0.011678227223455906
1761916197063447300,7.909447265625,0.00016165387933142483,0.0012543488992378116,0.012809538282454014
1761916197073502000,7.919501953125,-0.002192846732214093,-0.001972337020561099,0.011139470152556896
1761916197083558100,7.92955810546875,-0.0010090717114508152,0.0010998855577781796,0.010415356606245041
1761916197093613000,7.939613037109375,0.002341983839869499,0.003156378399580717,0.012602610513567924
1761916197103668200,7.949668212890625,-0.00005246427463134751,0.000028229507734067738,0.012042015790939331
1761916197113723400,7.959723388671875,-0.00015153386630117893,-0.00145222176797688,0.01079752016812563
1761916197123779000,7.969779052734375,0.0008471515611745417,-0.001222657272592187,0.009280583821237087
1761916197133834200,7.979834228515625,0.0009672601008787751,-0.00027510453946888447,0.009681389667093754
1761916197143889200,7.98988916015625,0.00005379585491027683,0.0005320995696820319,0.00935328844934702
1761916197153944300,7.9999443359375,-0.0009201221400871873,0.0020069582387804985,0.010265686549246311
1761916197164000300,8.010000244140626,-0.0005512743373401463,-0.0014394385507330298,0.010706440545618534
1761916197174055200,8.02005517578125,0.00029534456552937627,-0.0019627497531473637,0.01010856032371521
1761916197184109300,8.030109375,-0.0011358382180333138,0.0014775217277929187,0.013064403086900711
1761916197194164200,8.040164306640625,0.00003488740912871435,-0.00015446334145963192,0.009158344939351082
1761916197204220200,8.05022021484375,0.0002740392810665071,-0.0014618091518059373,0.010009757243096828
1761916197214275000,8.060275146484376,-0.002272208919748664,0.0013347762869670987,0.013007145375013351
1761916197224330200,8.070330322265624,-0.003490072675049305,0.0017070862231776118,0.01088806800544262
1761916197234385200,8.08038525390625,0.000037017940485384315,-0.0008612662786617875,0.0123658562079072
1761916197244441300,8.09044140625,0.0023640880826860666,0.003335609333589673,0.012857208959758282
1761916197254496000,8.10049609375,0.0004165183927398175,-0.0015124091878533363,0.009374327026307583
1761916197264551200,8.11055126953125,0.0016173376934602857,-0.0007091998122632504,0.013351758010685444
1761916197274606300,8.1206064453125,0.0030546458438038826,-0.0010349043877795339,0.011931227520108223
1761916197284662300,8.130662353515625,-0.0015366439474746585,0.0027915253303945065,0.011514442972838879
1761916197294717200,8.14071728515625,0.0008293083519674838,-0.0002561961009632796,0.011270764283835888
1761916197304772000,8.150772216796875,0.0016567525453865528,-0.0011030812747776508,0.01423406321555376
1761916197314827300,8.1608271484375,0.00014327807002700865,0.0016194682102650404,0.010302704758942127
1761916197324882200,8.170882080078124,0.0019270633347332478,-0.0005137237603776157,0.013171728700399399
1761916197334938000,8.180938232421875,-0.0006138586322776973,0.0014378406340256333,0.013332316651940346
1761916197344993000,8.190992919921875,0.00019361180602572858,-0.001948368619196117,0.01185133308172226
1761916197355048200,8.201048095703126,-0.0010431602131575346,0.0007635282818228006,0.011805793270468712
1761916197365103400,8.211103271484374,-0.0009856359101831913,-0.001674861996434629,0.010919759050011635
1761916197375159300,8.2211591796875,-0.0001853560097515583,-0.0008732505375519395,0.011408449150621891
1761916197385214200,8.231214111328125,-0.0007507451227866113,-0.0018975022248923779,0.012318984605371952
1761916197395269000,8.24126904296875,-0.0009022789890877903,0.001642637769691646,0.013189305551350117
1761916197405324300,8.25132421875,-0.001967543503269553,-0.0009592706337571144,0.012300075963139534
1761916197415380200,8.261380126953124,0.001455151243135333,-0.001508680754341185,0.010975419543683529
1761916197425435100,8.27143505859375,-0.0035364115610718727,-0.0007621967233717442,0.01122335996478796
1761916197435490000,8.281489990234375,-0.0022397185675799847,0.0006599313346669078,0.01170379389077425
1761916197445545200,8.291545166015625,0.0014793860027566552,-0.00018615495355334133,0.013318735174834728
1761916197455601200,8.30160107421875,-0.002073803450912237,-0.0014506238512694836,0.01071256585419178
1761916197465656300,8.31165625,-0.0001536643976578489,-0.0006527407676912844,0.01107635349035263
1761916197475711200,8.321711181640625,0.0018993664998561144,0.0015574166318401694,0.010557036846876144
1761916197485766100,8.33176611328125,-0.0034354778472334146,0.00018349179299548268,0.013166136108338833
1761916197495822000,8.341822021484376,-0.0016671388875693083,0.0006530070677399635,0.010072341188788414
1761916197505877200,8.351877197265624,0.0016258598770946264,0.0014588796766474843,0.011701131239533424
1761916197515932200,8.36193212890625,0.00002902845517382957,0.0005052016349509358,0.011828962713479996
1761916197525987000,8.371987060546875,0.0006985471700318158,0.0010487528052181005,0.012341621331870556
1761916197536043300,8.382043212890625,0.003832288784906268,0.0011446266435086727,0.011838816106319427
1761916197546098200,8.39209814453125,-0.0012958941515535116,0.0005344964447431266,0.010371414013206959
1761916197556153000,8.402153076171874,-0.000030360035452758893,0.0008021441171877086,0.011028416454792023
1761916197566208000,8.4122080078125,0.0010996191995218396,-0.0009976201690733433,0.011025486513972282
1761916197576264200,8.42226416015625,0.00025752768851816654,0.001347825862467289,0.010362093336880207
1761916197586319000,8.432319091796876,0.000055660068028373644,0.0006905576447024941,0.010368218645453453
1761916197596374300,8.442374267578124,0.002719353651627898,0.00011611382069531828,0.010807373560965061
1761916197606429200,8.45242919921875,-0.00012996226723771542,0.0024471788201481104,0.009673133492469788
1761916197616485000,8.462485107421875,-0.00013875069271307439,0.0006090649403631687,0.011846273206174374
1761916197626540300,8.472540283203125,0.0026911243330687284,-0.0012921657180413604,0.0127557422965765
1761916197636594400,8.482594482421876,-0.002025866648182273,0.0005640574963763356,0.010128001682460308
1761916197646649600,8.492649658203124,-0.0023763386998325586,-0.00028096348978579044,0.010068346746265888
1761916197656705500,8.50270556640625,0.0015401060227304697,-0.0024895230308175087,0.011146927252411842
1761916197666760400,8.512760498046875,-0.001350755337625742,-0.0008647284121252596,0.012194348499178886
1761916197676815600,8.522815673828125,0.00011771172285079956,-0.00021172130072955042,0.01224601361900568
1761916197686870500,8.53287060546875,-0.0037864823825657368,0.0005637911963276565,0.012346947565674782
1761916197696926700,8.5429267578125,-0.0007898935582488775,-0.000031158982892520726,0.010408698581159115
1761916197706981600,8.552981689453125,-0.0008114652009680867,-0.0033065807074308395,0.010263822972774506
1761916197717036500,8.56303662109375,0.0011837751371785998,-0.0007848335662856698,0.014100639149546623
1761916197727091500,8.573091552734375,-0.0010950918076559901,-0.0013193299528211355,0.011929363943636417
1761916197737147600,8.583147705078124,-0.00021012341312598437,0.0002748382103163749,0.012375176884233952
1761916197747202600,8.59320263671875,-0.0016373114194720984,-0.001103880233131349,0.010042780078947544
1761916197757257500,8.603257568359375,0.001751827308908105,0.0032202943693846464,0.009184976108372211
1761916197767312600,8.613312744140625,-0.002310824813321233,0.00013635384675581008,0.011977034620940685
1761916197777368600,8.62336865234375,-0.000666589243337512,0.001972869737073779,0.014087323099374771
1761916197787423500,8.633423583984374,-0.0014058827655389905,-0.0018727348651736975,0.01224335003644228
1761916197797478400,8.643478515625,0.0026676885318011045,-0.00039468047907575965,0.009959423914551735
1761916197807533600,8.653533447265625,-0.001181378262117505,-0.0021225393284112215,0.010804710909724236
1761916197817589500,8.663589599609375,0.00012916330888401717,0.0019212043844163418,0.011175422929227352
1761916197827644700,8.673644775390626,0.0026314693968743086,-0.0006601976347155869,0.011777829378843307
1761916197837699600,8.683699462890624,-0.001919340225867927,-0.0003528688393998891,0.011480354703962803
1761916197847754500,8.69375439453125,0.0004487426485866308,0.0013638047967106104,0.008293350227177143
1761916197857810400,8.703810546875,0.000595216522924602,-0.00007297061529243365,0.011924304068088531
1761916197867865600,8.713865478515626,-0.0024501082953065634,0.001704689348116517,0.01236372534185648
1761916197877920500,8.72392041015625,0.00041332258842885494,0.0005139900604262948,0.012233230285346508
1761916197887975400,8.733975341796874,0.0009976201690733433,0.00035420042695477605,0.011426292359828949
1761916197898031400,8.74403125,0.000925448490306735,-0.001966478070244193,0.011639611795544624
1761916197908086500,8.75408642578125,-0.0026498453225940466,0.00016298545233439654,0.013850035145878792
1761916197918141700,8.7641416015625,0.0008378304773941636,0.000526506919413805,0.00947872269898653
1761916197928196400,8.7741962890625,0.00009880327706923708,-0.00026258768048137426,0.011244664900004864
1761916197938252500,8.78425244140625,-0.0014879080699756742,-0.0024607607629150152,0.010898986831307411
1761916197948307500,8.794307373046875,-0.0005174521938897669,0.001955559244379401,0.01125025749206543
1761916197958362600,8.804362548828125,-0.003522030543535948,-0.0022865901701152325,0.013340040110051632
1761916197968417500,8.81441748046875,-0.002377403900027275,0.000185888638952747,0.013144297525286674
1761916197978473500,8.824473388671874,-0.002801911672577262,0.00040000680019147694,0.009974603541195393
1761916197988528400,8.8345283203125,0.0025872609112411737,-0.00014407701382879168,0.01134213712066412
1761916197998583600,8.84458349609375,-0.002525741932913661,-0.0010378338629379869,0.010369017720222473
1761916198008638700,8.854638671875,-0.001038366463035345,-0.000261788722127676,0.011899270117282867
1761916198018694700,8.864694580078124,0.0010423612548038363,0.0003099919413216412,0.011630291119217873
1761916198028749600,8.87474951171875,0.0013768542557954788,-0.0018599516479298472,0.009446498937904835
1761916198038804500,8.884804443359375,-0.0002181128947995603,-0.002267149044200778,0.012209261767566204
1761916198048859600,8.894859619140625,-0.0003121224872302264,-0.0018972359830513597,0.011354386806488037
1761916198058915600,8.90491552734375,0.000300404557492584,-0.0011281149927526712,0.014009025879204273
1761916198068970500,8.914970458984374,0.0005006743012927473,-0.00018988338706549257,0.014002367854118347
1761916198079025400,8.925025390625,0.00020746025256812572,0.0011765845119953156,0.01333098579198122
1761916198089080600,8.93508056640625,-0.001005609636195004,-0.0031792817171663046,0.01143667846918106
1761916198099136500,8.945136474609376,-0.0007408913807012141,0.0012237224727869034,0.01320901233702898
1761916198109191700,8.955191650390624,-0.00046924897469580173,-0.0032863407395780087,0.010222011245787144
1761916198119246600,8.96524658203125,-0.0023150858469307423,-0.00034674355993047357,0.01267025526612997
1761916198129301500,8.975301513671875,-0.0009060074225999415,0.001424791174940765,0.012033226899802685
1761916198139357400,8.985357421875,0.000517718493938446,-0.00048655952559784055,0.012061189860105515
1761916198149412600,8.99541259765625,0.000883636821527034,0.003628556849434972,0.010223875753581524
1761916198159467500,9.005467529296874,-0.004478904418647289,0.0007661914569325745,0.01113387756049633
1761916198169522400,9.0155224609375,-0.003263703780248761,0.001469532260671258,0.009643572382628918
1761916198179578600,9.02557861328125,0.0008559399866499007,0.0007033408619463444,0.010037187486886978
1761916198189633500,9.035633544921875,0.0011883024126291275,0.00227806787006557,0.01326680276542902
1761916198199688400,9.0456884765625,0.00031318774563260376,0.0013249226612970233,0.010511230677366257
1761916198209743600,9.05574365234375,-0.0016468988033011556,0.0009629990672692657,0.013287842273712158
1761916198219799600,9.065799560546875,-0.00105354655534029,-0.0005805690889246762,0.00872291810810566
1761916198229854500,9.0758544921875,0.0005510080372914672,-0.0008295746520161629,0.008361260406672955
1761916198239909600,9.08590966796875,0.00015233281010296196,-0.001219461439177394,0.011561048217117786
1761916198249964500,9.095964599609376,-0.0034056503791362047,0.0030157635919749737,0.01074132788926363
1761916198260020500,9.1060205078125,-0.0005573995877057314,-0.0008029430755414069,0.008405735716223717
1761916198270075600,9.11607568359375,0.0009177253232337534,0.000032490566809428856,0.009820139966905117
1761916198280130600,9.126130615234375,0.000642620783764869,0.0001805623178370297,0.012597017921507359
1761916198290185500,9.136185546875,-0.0005131911602802575,0.0008234494016505778,0.011934423819184303
1761916198300241400,9.146241455078124,0.001181111903861165,0.00002370213405811228,0.009635050781071186
1761916198310296600,9.156296630859375,0.0013283847365528345,-0.00007483482477255166,0.011123757809400558
1761916198320351500,9.1663515625,-0.0010303769959136844,-0.0008586031035520136,0.01200925838202238
1761916198330406400,9.176406494140625,0.00049082055920735,0.00025486451340839267,0.012319782748818398
1761916198340462300,9.18646240234375,0.0003384877636563033,-0.0004945489927195013,0.008267783559858799
1761916198350517500,9.196517578125,-0.0016053534345701337,0.0016495619202032685,0.011809787712991238
1761916198360572700,9.20657275390625,-0.0005318332696333528,0.0006756439688615501,0.009831058792769909
1761916198370627600,9.216627685546875,0.0004748416249640286,-0.0036770266015082598,0.013453491032123566
1761916198380683800,9.226683837890626,-0.0001459412305848673,-0.0014644722687080503,0.011491539888083935
1761916198390738400,9.236738525390624,-0.0021172130946069956,0.0006599313346669078,0.011422297917306423
1761916198400793600,9.246793701171875,0.0009054747642949224,0.00037683729897253215,0.011693674139678478
1761916198410848500,9.2568486328125,-0.0011744539951905608,-0.001618136651813984,0.013457485474646091
1761916198420904700,9.26690478515625,-0.0006942860782146454,-0.0021611552219837904,0.01076795905828476
1761916198430959400,9.27695947265625,0.0006356965750455856,0.0019526296528056264,0.011472897604107857
1761916198441014500,9.2870146484375,-0.0021907163318246603,-0.0003403519804123789,0.011448130942881107
1761916198451069700,9.297069580078125,-0.00039015308720991015,0.002948385663330555,0.012287558987736702
1761916198461125600,9.307125732421875,-0.0008841694798320532,0.002650644164532423,0.009473929181694984
1761916198471180500,9.3171806640625,-0.00048655952559784055,-0.0013677994720637798,0.012312326580286026
1761916198481235500,9.3272353515625,0.0012921657180413604,-0.0007214503129944205,0.01034691371023655
1761916198491290600,9.33729052734375,-0.001900964416563511,-0.0015414375811815262,0.009359147399663925
1761916198501346600,9.3473466796875,-0.0013347762869670987,-0.000025566347176209092,0.01221858337521553
1761916198511401700,9.357401611328125,-0.00008362325752386823,-0.0009004147723317146,0.01073733251541853
1761916198521456400,9.367456298828126,0.0009081379394046962,-0.0002889529860112816,0.011505122296512127
1761916198531511600,9.377511474609374,0.00009454221435589716,-0.0003203782835043967,0.010094446130096912
1761916198541567500,9.3875673828125,-0.0021574266720563173,0.0002836266648955643,0.01449878141283989
1761916198551622700,9.39762255859375,-0.002153698354959488,-0.001978995045647025,0.009953564032912254
1761916198561677600,9.407677490234375,-0.000182959163794294,0.0014381069922819734,0.010312824510037899
1761916198571732500,9.417732421875,-0.000011984225238848012,-0.0021028320770710707,0.011657721363008022
1761916198581788400,9.427788330078124,0.0031992553267627954,-0.002415220718830824,0.014031928963959217
1761916198591843600,9.437843505859375,0.0006567355012521148,-0.0005185174522921443,0.012108594179153442
1761916198601898500,9.4478984375,0.00041199102997779846,-0.0003888215287588537,0.012110458686947823
1761916198611953400,9.457953369140625,-0.0013214604696258903,-0.0015640745405107737,0.010734936222434044
1761916198622009600,9.468009521484374,-0.0011891013709828258,-0.00036751621519215405,0.01152616087347269
1761916198632064500,9.478064453125,-0.00330258603207767,0.0010695254895836115,0.011529357172548771
1761916198642119700,9.48811962890625,0.0006359628750942647,-0.00010066748654935509,0.011112572625279427
1761916198652174600,9.498174560546875,0.0011864382540807128,-0.0019563580863177776,0.009943177923560143
1761916198662230800,9.508230712890626,-0.0010732539230957627,0.0021291973534971476,0.011548797599971294
1761916198672285700,9.51828564453125,-0.0012839100090786815,-0.000913197931367904,0.010776215232908726
1761916198682340600,9.528340576171875,0.0012405004817992449,0.00017310546536464244,0.011814314872026443
1761916198692395800,9.538395751953125,-0.0019883159548044205,-0.00036378781078383327,0.011484615504741669
1761916198702451700,9.54845166015625,-0.0005142564186826348,0.0011515507940202951,0.008990831673145294
1761916198712507000,9.5585068359375,-0.001318264752626419,0.0016855146968737245,0.012317652814090252
1761916198722561500,9.5685615234375,-0.002183792181313038,0.0006045375484973192,0.013198093511164188
1761916198732616700,9.57861669921875,0.0000756337758502923,0.000023968450477696024,0.01212723646312952
1761916198742672600,9.588672607421875,0.0002364887041039765,0.002284193178638816,0.009820672683417797
1761916198752727800,9.598727783203126,-0.0006103964988142252,0.0012229235144332051,0.012793559581041336
1761916198762782700,9.60878271484375,0.0004293015517760068,0.0026176210958510637,0.01158794667571783
1761916198772837600,9.618837646484375,0.0003347593592479825,-0.002570216776803136,0.010661432519555092
1761916198782893600,9.6288935546875,-0.0004956142511218786,0.0006048039067536592,0.010464891791343689
1761916198792948700,9.63894873046875,-0.002413090318441391,-0.0005528722540475428,0.008113319985568523
1761916198803004000,9.64900390625,-0.0004830974212381989,0.0007800398743711412,0.011268100701272488
1761916198813058600,9.65905859375,0.0006058691651560366,-0.00023542344570159912,0.011548797599971294
1761916198823114800,9.66911474609375,-0.000008788431841821875,0.00047830372932367027,0.013313940726220608
1761916198833169700,9.679169677734375,-0.0007613977650180459,0.0011259844759479165,0.011537878774106503
1761916198843224800,9.689224853515626,-0.0007358313887380064,0.0006194512825459242,0.01133947353810072
1761916198853279500,9.699279541015626,0.001469798618927598,0.0003635214816313237,0.01333045307546854
1761916198863335700,9.709335693359375,-0.0012841762509196997,0.0021664814557880163,0.011578625068068504
1761916198873390600,9.719390625,-0.0014911039033904672,0.002282329136505723,0.01101323589682579
1761916198883445800,9.72944580078125,0.00023142869758885354,0.0015363775892183185,0.013255617581307888
1761916198893501000,9.7395009765625,-0.001966211711987853,0.0007068029372021556,0.01389770582318306
1761916198903556900,9.749556884765624,-0.0012359730899333954,0.0016977651976048946,0.010343184694647789
1761916198913611800,9.75961181640625,-0.0003025351034011692,0.0008889631717465818,0.008382299914956093
1761916198923666700,9.769666748046875,-0.0022455775178968906,-0.00026019083452410996,0.010966364294290543
1761916198933721900,9.779721923828125,-0.0003102582704741508,0.0007739146240055561,0.012284895405173302
1761916198943777800,9.78977783203125,-0.0011590076610445976,0.003912183456122875,0.013381319120526314
1761916198953832700,9.799832763671875,-0.000472977408207953,0.0007472829893231392,0.011895009316504002
1761916198963887600,9.8098876953125,-0.0021611552219837904,0.00006311691686278209,0.011012171395123005
1761916198973942800,9.81994287109375,-0.0014026869321241975,0.002623746171593666,0.011315771378576756
1761916198983998700,9.829998779296876,-0.0004703142330981791,-0.00014993596414569765,0.01273070927709341
1761916198994053600,9.8400537109375,-0.00008442220860160887,-0.00009560748003423214,0.010260893031954765
1761916199004108500,9.850108642578125,-0.00017097493400797248,-0.0009062737226486206,0.011401524767279625
1761916199014163700,9.860163818359375,0.0008309062686748803,-0.0012578109744936228,0.010417221114039421
1761916199024219600,9.8702197265625,-0.00020772656716872007,-0.0008844357798807323,0.01293257623910904
1761916199034274800,9.88027490234375,-0.0012953615514561534,0.0014596786350011826,0.01233363151550293
1761916199044329700,9.890329833984374,-0.00028389296494424343,0.00063383235828951,0.009273126721382141
1761916199054384600,9.900384521484375,-0.0008828379213809967,-0.003062102710828185,0.011247594840824604
1761916199064440800,9.91044091796875,0.0017132115317508578,0.0016322514275088906,0.011449195444583893
1761916199074495700,9.920495849609376,0.0017185378819704056,0.0005283711361698806,0.0127597376704216
1761916199084550700,9.930550537109376,-0.0003038666909560561,0.002341717481613159,0.011757057160139084
1761916199094605600,9.94060546875,-0.0009419600828550756,0.05084720253944397,0.0370006300508976
1761916199104661800,9.950661865234375,0.0016253271605819464,0.1639641672372818,0.06696172058582306
1761916199114716700,9.960716552734375,0.000254331884207204,0.15793611109256744,0.05874800309538841
1761916199124771600,9.970771484375,-0.001377653214149177,0.04887672886252403,0.032401882112026215
1761916199134826800,9.98082666015625,-0.00010333064710721374,-0.04602128639817238,0.011086739599704742
1761916199144882700,9.990882568359375,-0.001422128058038652,-0.05361262708902359,-0.0026546388398855925
1761916199154937900,10.000937744140625,-0.0024852619972079992,-0.023609455674886703,-0.0017118799732998013
1761916199164992800,10.01099267578125,-0.0005858954391442239,-0.035898610949516296,-0.01810576766729355
1761916199175047700,10.021047607421876,-0.0015504923649132252,-0.09532598406076431,-0.037881068885326385
1761916199185103600,10.031103515625,0.0010090717114508152,-0.15375733375549316,-0.030535537749528885
1761916199195158800,10.04115869140625,-0.0008942894637584686,-0.06515343487262726,0.0033811493776738644
1761916199205213700,10.051213623046875,-0.0007986819837242365,0.08681692183017731,0.02652614936232567
1761916199215268600,10.0612685546875,0.0009318400407209992,0.08360221982002258,0.032473254948854446
