time,seconds_elapsed,z,y,x
1761916189276950500,0.122950439453125,-0.0008758215699344873,-0.01683957129716873,0.0007564639672636986
1761916189287005400,0.13300537109375,0.0005838749930262566,-0.008276659995317459,0.005075986497104168
1761916189297061400,0.143061279296875,0.004206839483231306,0.0740877166390419,0.016827717423439026
1761916189307116500,0.153116455078125,-0.00227795890532434,0.21116036176681519,0.038450416177511215
1761916189317171500,0.16317138671875,0.00008186808554455638,0.122486412525177,0.013677156530320644
1761916189327226600,0.1732265625,0.002145117148756981,0.07614941895008087,0.0062494101002812386
1761916189337281500,0.183281494140625,0.0005067404126748443,0.25424832105636597,0.04257519543170929
1761916189347336400,0.19333642578125,-0.000024439068511128426,0.23169033229351044,0.0388503298163414
1761916189357391600,0.2033916015625,0.0019042221829295158,-0.03343907743692398,-0.011524159461259842
1761916189367447600,0.213447509765625,-0.0019959050696343184,-0.18012627959251404,-0.02401845157146454
1761916189377502500,0.22350244140625,-0.0003849589265882969,-0.0422043614089489,0.01192490290850401
1761916189387557600,0.2335576171875,-0.00006724384729750454,0.13188061118125916,0.009196761064231396
1761916189397612500,0.243612548828125,0.0007980171940289438,0.08072448521852493,-0.007448794785887003
1761916189407667700,0.253667724609375,0.001190250739455223,-0.07477809488773346,0.0016211876645684242
1761916189417722400,0.263722412109375,0.00043311394983902574,-0.08450795710086823,-0.002110167406499386
1761916189427778600,0.273778564453125,-0.0014386757975444198,0.030204201117157936,-0.0018966412171721458
1761916189437833500,0.28383349609375,-0.0025990151334553957,0.0812804326415062,0.0012078061699867249
1761916189447888600,0.293888671875,0.0001245266175828874,0.0030501019209623337,0.0008198125287890434
1761916189457943600,0.303943603515625,0.00006860023131594062,-0.06709089875221252,-0.0022063376381993294
1761916189467998500,0.31399853515625,-0.00048589499783702195,-0.022470608353614807,0.002879394218325615
1761916189478053600,0.3240537109375,-0.000005993380909785628,0.04985099285840988,0.0006388770416378975
1761916189488108500,0.334108642578125,-0.0009697195491753519,0.034945257008075714,0.0021615996956825256
1761916189498164700,0.344164794921875,0.0018785311840474606,-0.031170379370450974,-0.00005894433706998825
1761916189508219400,0.354219482421875,0.00499939639121294,-0.03405366092920303,-0.0035020550712943077
1761916189518274600,0.364274658203125,-0.00028617968200705945,0.023583801463246346,0.00002903025597333908
1761916189528329700,0.374329833984375,0.0004709798959083855,0.03563370928168297,0.001701786182820797
1761916189538384400,0.38438427734375,0.0015176022425293922,-0.005505472421646118,0.0014336053282022476
1761916189548439600,0.394439453125,-0.0005631735548377037,-0.026421479880809784,0.0007011070847511292
1761916189558495500,0.40449560546875,0.0005590825458057225,0.0034410785883665085,0.004472142085433006
1761916189568550700,0.414550537109375,0.0011986515019088984,0.03165828436613083,0.005128469318151474
1761916189578605600,0.42460546875,-0.00003678884240798652,0.007522590458393097,0.0016035092994570732
1761916189588660500,0.434660400390625,0.000969257322140038,-0.018231388181447983,-0.00038666464388370514
1761916189598715600,0.444715576171875,-0.0012688632123172283,-0.009184096939861774,-0.00038187112659215927
1761916189608770600,0.4547705078125,0.0030243457295000553,0.015313813462853432,0.002707159146666527
1761916189618825500,0.464825439453125,-0.0011070161126554012,0.012035994790494442,0.0017422959208488464
1761916189628884200,0.47488427734375,0.0009444670286029577,-0.011987241916358471,0.0002737743780016899
1761916189638939100,0.484939208984375,-0.0006726043066009879,-0.013114824891090393,-0.0033699627965688705
1761916189648994300,0.494994384765625,-0.00048175398842431605,0.00202882825396955,-0.002104770392179489
1761916189659049200,0.50504931640625,0.0018005750607699156,0.0029462873935699463,-0.00939384289085865
1761916189669104000,0.515104248046875,0.00025194804766215384,-0.00994074810296297,-0.00707711698487401
1761916189679159000,0.525158935546875,-0.0007235679076984525,-0.012653443962335587,0.0013065142557024956
1761916189689215200,0.53521533203125,0.0014102037530392408,0.0016411443939432502,-0.003978440538048744
1761916189699270100,0.545270263671875,-0.0009147357777692378,0.003343170741572976,-0.007564120460301638
1761916189709325300,0.5553251953125,0.002018152503296733,-0.00625253701582551,-0.003728852141648531
1761916189719380200,0.565380126953125,-0.003059696638956666,-0.006177169270813465,-0.003740836400538683
1761916189729435100,0.57543505859375,-0.00314665911719203,-0.0008473375346511602,-0.002461574971675873
1761916189739490300,0.585490234375,0.0002683122002054006,0.00459243543446064,-0.002240266650915146
1761916189749545200,0.595545166015625,-0.0005121870199218392,-0.0012297916691750288,-0.002387036569416523
1761916189759601200,0.60560107421875,-0.0019444350618869066,-0.0011174061801284552,-0.00005863513797521591
1761916189769656000,0.615656005859375,0.0009424565942026675,0.0012519117444753647,0.000913526862859726
1761916189779711200,0.625711181640625,-0.00020403426606208086,-0.000029068691219436005,0.0011468194425106049
1761916189789766400,0.635766357421875,-0.00045865646097809076,0.0009108579251915216,0.0007904227823019028
1761916189799821000,0.645821044921875,0.0005900963442400098,0.0005007311119697988,0.00712128821760416
1761916189809876200,0.655876220703125,-0.0030269839335232973,0.026223842054605484,0.006066783331334591
1761916189819932200,0.66593212890625,0.004655702970921993,0.03697315976023674,0.030683714896440506
1761916189829987300,0.6759873046875,0.009807514026761055,0.03136696293950081,0.029255181550979614
1761916189840042200,0.686042236328125,0.0038492237217724323,-0.01713772490620613,-0.006114793010056019
1761916189850097200,0.69609716796875,0.0007224063156172633,-0.04917874559760094,-0.03234133496880531
1761916189860152300,0.70615234375,-0.0001511105801910162,-0.01412196084856987,-0.015339183621108532
1761916189870207200,0.716207275390625,0.00021185632795095444,0.0123068168759346,0.011996849440038204
1761916189880262100,0.72626220703125,-0.0005471445620059967,0.02060256339609623,-0.0023037930950522423
1761916189890318000,0.736318115234375,-0.0018023194279521704,-0.0012107621878385544,-0.011541688814759254
1761916189900373200,0.746373291015625,-0.0018803500570356846,-0.02741813100874424,0.0035965172573924065
1761916189910428200,0.75642822265625,-0.0009696930646896362,-0.003381189424544573,0.005529584363102913
1761916189920483000,0.766483154296875,0.001574424677528441,0.030664661899209023,0.0010019438341259956
1761916189930538200,0.776538330078125,0.0006947815418243408,0.00721100065857172,0.0010927151888608932
1761916189940593200,0.78659326171875,-0.0013992621097713709,-0.013131821528077126,0.0008389158174395561
1761916189950649300,0.7966494140625,-0.0001190794282592833,-0.01126840803772211,-0.0017435094341635704
1761916189960704300,0.806704345703125,-0.00036861764965578914,0.012727471999824047,0.005968205630779266
1761916189970759200,0.81675927734375,-0.0001280140713788569,0.021876277402043343,0.004448133520781994
1761916189980814300,0.826814453125,0.0020352716092020273,-0.01394696719944477,-0.0038835667073726654
1761916189990869200,0.836869140625,0.0018717305501922965,-0.024038119241595268,-0.004924087319523096
1761916190000924200,0.846924072265625,-0.0007914304733276367,0.006950955372303724,-0.002038552425801754
1761916190010980000,0.85697998046875,-0.000889290648046881,0.016421107575297356,-0.00030151568353176117
1761916190021035300,0.86703515625,-0.0017830475699156523,-0.0017395206959918141,-0.0013601221144199371
1761916190031090200,0.877090087890625,-0.0003008292696904391,-0.017754584550857544,-0.0020951908081769943
1761916190041145300,0.887145263671875,0.000489596975967288,0.0011775606544688344,-0.003073635511100292
1761916190051200300,0.8972001953125,-0.0028725499287247658,0.017758814617991447,0.0019775312393903732
1761916190061255200,0.907255126953125,0.000339754915330559,0.0062531596049666405,-0.001960485242307186
1761916190071310300,0.917310302734375,0.001497555524110794,-0.010459726676344872,-0.0038988119922578335
1761916190081366300,0.9273662109375,-0.0009560147882439196,-0.006092941854149103,-0.0017935829237103462
1761916190091421200,0.937421142578125,-0.0002952355134766549,0.004992006812244654,-0.0009494563564658165
1761916190101476000,0.94747607421875,-0.0038825133815407753,0.006246355827897787,-0.0024291081354022026
1761916190111531300,0.95753125,-0.0012737289071083069,-0.0032580059487372637,-0.0008707558736205101
1761916190121586400,0.96758642578125,-0.0015653450973331928,-0.005306509789079428,-0.0018127160146832466
1761916190131641000,0.97764111328125,0.001785055734217167,0.0023921073880046606,-0.0033412473276257515
1761916190141697300,0.987697265625,0.000827116658911109,0.004229155834764242,0.00032992009073495865
1761916190151752200,0.997752197265625,0.0009539549937471747,-0.0023472781758755445,-0.0005774907767772675
1761916190161807400,1.007807373046875,0.0017270706593990326,-0.005581687204539776,0.0013815313577651978
1761916190171862000,1.017862060546875,-0.00016222370322793722,-0.0022914244327694178,-0.00018506962805986404
1761916190181917200,1.027917236328125,0.00039730643038637936,0.00436621205881238,0.0017941910773515701
1761916190191972400,1.037972412109375,-0.001249810797162354,0.0036863794084638357,0.0009192060679197311
1761916190202027300,1.04802734375,-0.0006532627157866955,-0.0054748947732150555,-0.0003897370770573616
1761916190212083200,1.058083251953125,-0.0018142557237297297,-0.0035193839576095343,-0.003192814067006111
1761916190222138000,1.06813818359375,-0.0012304908595979214,0.004639742895960808,-0.000060403719544410706
1761916190232193300,1.078193359375,-0.0026002759113907814,0.0030769514851272106,-0.002023788169026375
1761916190242248200,1.088248291015625,-0.0007001103949733078,-0.00497591495513916,-0.0003955308347940445
1761916190252303000,1.09830322265625,0.00040289750904776156,-0.006128773093223572,-0.0012112287804484367
1761916190262358300,1.108358154296875,-0.00016329053323715925,0.00007239764090627432,0.0017808331176638603
1761916190272414200,1.118414306640625,-0.0009006225154735148,0.001932494342327118,-0.0009853560477495193
1761916190282469400,1.128469482421875,-0.00034561974462121725,-0.0002108176558976993,-0.0006599174812436104
1761916190292524000,1.13852392578125,0.001566119841299951,-0.0009758954984135926,0.006013575010001659
1761916190302579200,1.1485791015625,0.0032548303715884686,0.0008917793165892363,0.0015706224367022514
1761916190312634000,1.158634033203125,0.0007774573750793934,0.001011211657896638,0.00023918505758047104
1761916190322689300,1.168689208984375,0.0020816074684262276,0.0025787483900785446,-0.00019384454935789108
1761916190332745200,1.1787451171875,0.00032450328581035137,-0.0023267229553312063,0.0004023434594273567
1761916190342800100,1.188800048828125,0.0012321085669100285,-0.00028913829009979963,0.003846077248454094
1761916190352855300,1.198855224609375,-0.0020292242988944054,-0.0003532222763169557,-0.0019266996532678604
1761916190362910200,1.20891015625,0.0004613640485331416,0.0010185720166191459,-0.0006704861298203468
1761916190372965000,1.218965087890625,-0.0013402386102825403,-0.0026191379874944687,0.0007600057870149612
1761916190383020300,1.229020263671875,-0.00102998036891222,-0.0032726777717471123,0.0010212622582912445
1761916190393076200,1.239076171875,0.001978860469534993,0.00035161757841706276,0.00041623692959547043
1761916190403131100,1.249131103515625,-0.001546365674585104,0.002458177972584963,-0.0005725948140025139
1761916190413186300,1.259186279296875,0.0006604935042560101,0.0015796012012287974,0.00025884341448545456
1761916190423241200,1.2692412109375,0.002123634098097682,-0.001197276869788766,0.0024359775707125664
1761916190433296100,1.279296142578125,-0.0002449968014843762,-0.0011254907585680485,-0.0003561330959200859
1761916190443351300,1.289351318359375,-0.0016359657747671008,-0.0005630311206914485,-0.0003795688971877098
1761916190453407200,1.2994072265625,0.001964474795386195,0.0009073508554138243,-0.0002127988263964653
1761916190463462100,1.309462158203125,0.001491497503593564,0.0006482253083959222,-0.00010147877037525177
1761916190473517000,1.31951708984375,0.0018919986905530095,-0.0027596738655120134,-0.0005371822044253349
1761916190483572200,1.329572265625,0.0014062380651012063,0.0003849866334348917,-0.0002090809866786003
1761916190493627400,1.33962744140625,-0.0013555637560784817,-0.0011606694897636771,0.0002952488139271736
1761916190503682000,1.34968212890625,-0.0002444928977638483,0.00020526583830360323,-0.0007734782993793488
1761916190513738200,1.35973828125,-0.0001111517776735127,-0.0021176598966121674,-0.000050484202802181244
1761916190523793200,1.369793212890625,-0.002367381937801838,0.00254580145701766,0.0013540666550397873
1761916190533848300,1.379848388671875,-0.001540356664918363,-0.0007317988784052432,-0.001966731622815132
1761916190543903200,1.3899033203125,-0.00025378353893756866,0.001389675191603601,0.0006972290575504303
1761916190553958100,1.399958251953125,0.0018284923862665892,-0.0007787926006130874,-0.0009528286755084991
1761916190564013300,1.410013427734375,0.0005504413857124746,-0.0008003642433322966,-0.0026564523577690125
1761916190574069200,1.4200693359375,-0.0009412086801603436,-0.0009066981729120016,0.001368255354464054
1761916190584124400,1.43012451171875,-0.0002290793345309794,-0.0022507954854518175,0.0008097896352410316
1761916190594179000,1.440178955078125,-0.0010004128562286496,0.0009577808668836951,-0.0018176035955548286
1761916190604234200,1.450234130859375,-0.0002227697696071118,0.0009705640841275454,-0.000057520344853401184
1761916190614289400,1.460289306640625,-0.0009959304006770253,0.0011339859338477254,-0.0015529002994298935
1761916190624344000,1.470343994140625,-0.0006641005165874958,0.0013694092631340027,0.0010221097618341446
1761916190634402800,1.48040283203125,0.004504682030528784,0.002259171335026622,-0.0009059589356184006
1761916190644457500,1.49045751953125,0.0006766547448933125,0.00031612912425771356,0.001673046499490738
1761916190654512600,1.5005126953125,0.0009580618934705853,-0.0011899106903001666,-0.0003745434805750847
1761916190664567800,1.51056787109375,-0.00037245333078317344,0.0007704421295784414,-0.001849401742219925
1761916190674622700,1.520622802734375,-0.00012861881987191737,0.0014224101323634386,-0.000301445834338665
1761916190684677600,1.530677734375,0.0009012256050482392,0.0006879103602841496,0.0017590420320630074
1761916190694733600,1.540733642578125,0.0007520575309172273,-0.00179738097358495,0.00009291060268878937
1761916190704788700,1.550788818359375,0.0004407340020406991,0.0022442322224378586,0.0012228898704051971
1761916190714843600,1.56084375,0.0008529553888365626,0.0014827465638518333,-0.00043953489512205124
1761916190724898600,1.570898681640625,0.0002758483460638672,-0.0010507185943424702,0.0010976409539580345
1761916190734953700,1.58095361328125,-0.001507140463218093,0.001689983531832695,0.002195596694946289
1761916190745009700,1.591009765625,0.0006779832183383405,0.0006257844506762922,0.000920209102332592
1761916190755064800,1.60106494140625,-0.002052406780421734,-0.0004983575781807303,-0.001379447989165783
1761916190765119500,1.611119384765625,0.0003460360749159008,0.0004302866873331368,0.00002963002771139145
1761916190775174700,1.621174560546875,0.0021034295205026865,0.0004126198182348162,0.0009000543504953384
1761916190785229600,1.6312294921875,-0.002003164729103446,-0.002635634271427989,0.002677714452147484
1761916190795284700,1.64128466796875,-0.0016786690102890134,-0.0008112572832033038,0.0007816748693585396
1761916190805340700,1.651340576171875,-0.0012656126637011766,0.0019531038124114275,0.0014541223645210266
1761916190815395600,1.6613955078125,0.00125419395044446,-0.0018487287452444434,0.0023405421525239944
1761916190825450800,1.67145068359375,-0.0013799386797472835,-0.00037440270534716547,0.0008012354373931885
1761916190835505700,1.681505615234375,0.002983476035296917,-0.002046324545517564,0.0004980340600013733
1761916190845560600,1.691560546875,0.0017701400211080909,0.0027268591802567244,-0.0008580470457673073
1761916190855615500,1.701615478515625,-0.0021007894538342953,-0.00012999212776776403,-0.00021806452423334122
1761916190865671700,1.711671630859375,0.001967721851542592,0.0005690876278094947,0.0006794212386012077
1761916190875726600,1.7217265625,-0.0007276431424543262,-0.001973852515220642,-0.0004961630329489708
1761916190885781800,1.73178173828125,0.0008785093086771667,0.0021513840183615685,-0.0009228019043803215
1761916190895836700,1.741836669921875,-0.00035725790075957775,0.0020093375351279974,0.0017375191673636436
1761916190905891600,1.7518916015625,-0.0010099986102432013,-0.003483165754005313,-0.0008979449048638344
1761916190915947800,1.76194775390625,-0.0005554042872972786,0.0011514395009726286,0.0006614942103624344
1761916190926002700,1.772002685546875,0.002612159587442875,-0.0011420748196542263,-0.00015449803322553635
1761916190936057600,1.7820576171875,-0.0003583292418625206,0.001994771184399724,0.0001257713884115219
1761916190946112500,1.792112548828125,0.0015354445204138756,-0.001852431450970471,-0.0012928945943713188
1761916190956167700,1.802167724609375,-0.0020752474665641785,-0.00172731326892972,-0.0004446757957339287
1761916190966222800,1.812222900390625,-0.002534642815589905,0.0006927012000232935,-0.001813541166484356
1761916190976278800,1.82227880859375,-0.0008009778684936464,0.0010612952755764127,-0.0004903050139546394
1761916190986333700,1.832333740234375,0.002597215585410595,-0.005839488003402948,0.003339054062962532
1761916190996388600,1.842388671875,0.00007834596908651292,-0.001032148371450603,-0.000008353032171726227
1761916191006443800,1.85244384765625,-0.001451906398870051,0.001338863861747086,0.0004992447793483734
1761916191016498700,1.862498779296875,-0.0014023638796061277,0.0013135437620803714,-0.000015711411833763123
1761916191026554600,1.8725546875,-0.0014055597130209208,0.0038102571852505207,0.00020666327327489853
1761916191036609500,1.882609619140625,-0.0013854044955223799,-0.004764602053910494,-0.0008339295163750648
1761916191046664700,1.892664794921875,-0.00011134828673675656,0.0025577594060450792,0.00039405375719070435
1761916191056720000,1.902719970703125,-0.0005285554216243327,0.003550867084413767,-0.002513832412660122
1761916191066774500,1.9127744140625,-0.0014769070548936725,0.0007489554118365049,0.0004574563354253769
1761916191076829700,1.92282958984375,0.0007600670214742422,0.0007396995788440108,-0.0012632682919502258
1761916191086885600,1.9328857421875,0.0015544879715889692,-0.0003527290828060359,0.00048190169036388397
1761916191096940800,1.94294091796875,0.0013841047184541821,0.0018490970833227038,0.0007146308198571205
1761916191106995500,1.952995361328125,-0.0004976848722435534,0.0024392534978687763,-0.0014574434608221054
1761916191117050600,1.963050537109375,-0.001751053729094565,0.0012920420849695802,0.0014632269740104675
1761916191127105800,1.973105712890625,-0.00014623283641412854,0.0008342447108589113,0.0038038790225982666
1761916191137161700,1.98316162109375,-0.0005529492627829313,0.0021715902257710695,-0.00028284359723329544
1761916191147216600,1.993216552734375,0.0012372275814414024,-0.0002060801489278674,-0.0011531645432114601
1761916191157271600,2.003271484375,0.0023696445859968662,-0.0020889269653707743,0.0020716339349746704
1761916191167326700,2.01332666015625,0.0015171666163951159,0.00136332877445966,0.0015081092715263367
1761916191177381600,2.023381591796875,-0.0005172285018488765,0.0030402406118810177,0.001544230617582798
1761916191187437800,2.033437744140625,0.0004082199593540281,-0.0010064326925203204,-0.0014132093638181686
1761916191197492500,2.043492431640625,-0.0004027856921311468,-0.0026449793949723244,-0.0020943256095051765
1761916191207547600,2.053547607421875,0.00042971843504346907,0.002839800901710987,-0.0010719383135437965
1761916191217602800,2.063602783203125,0.0010508992709219456,-0.0005024114507250488,0.002483380027115345
1761916191227657500,2.073657470703125,0.0006319839740172029,-0.0013610145542770624,-0.0019606370478868484
1761916191237712600,2.083712646484375,-0.002169389510527253,0.0003124799986835569,0.00014076195657253265
1761916191247768600,2.0937685546875,0.0018471900839358568,0.0002664073253981769,0.0010441066697239876
1761916191257823700,2.10382373046875,0.0017468746518716216,0.003922757692635059,0.0011414345353841782
1761916191267878700,2.113878662109375,0.0022845668718218803,0.00046650751028209925,0.0011251894757151604
1761916191277933600,2.12393359375,0.002810842590406537,-0.0008850898593664169,0.00018659699708223343
1761916191287988700,2.13398876953125,0.00026752392295747995,-0.0006946738576516509,-0.0008845264092087746
1761916191298044700,2.144044677734375,-0.0005729186232201755,-0.00018725292466115206,-0.0001959642395377159
1761916191308099800,2.154099853515625,-0.0002634592819958925,0.0042610252276062965,-0.0007909145206212997
1761916191318154500,2.164154541015625,0.0004446619423106313,-0.0012873626546934247,0.0005714716389775276
1761916191328209700,2.174209716796875,-0.00005201759631745517,0.00146315002348274,0.0005187410861253738
1761916191338264600,2.1842646484375,-0.0017089322209358215,0.003582677338272333,0.0008633965626358986
1761916191348320800,2.19432080078125,-0.0018181218765676022,0.003360037226229906,0.0017821872606873512
1761916191358375400,2.20437548828125,0.0004150871536694467,-0.0014108609175309539,0.0013084672391414642
1761916191368430600,2.2144306640625,0.0011919313110411167,0.00009169449913315475,0.0005675759166479111
1761916191378485800,2.22448583984375,-0.0005014862399548292,-0.001565190264955163,0.0009546568617224693
1761916191388540700,2.234540771484375,0.0007965384284034371,0.0018601674819365144,-0.00017665419727563858
1761916191398595600,2.244595703125,-0.0005113553488627076,0.0020436111371964216,-0.0011396855115890503
1761916191408651500,2.254651611328125,-0.0015049807261675596,0.0010388005757704377,-0.0021556811407208443
1761916191418706700,2.264706787109375,0.002606418449431658,0.00007141425157897174,0.00044396333396434784
1761916191428761600,2.27476171875,-0.001973952166736126,-0.0024676434695720673,-0.0007054563611745834
1761916191438816800,2.284816650390625,0.0021859281696379185,-0.00034391440567560494,0.00034613534808158875
1761916191448871700,2.29487158203125,0.0029718270525336266,-0.0013439313042908907,-0.001468009315431118
1761916191458927600,2.304927734375,-0.0005193197866901755,-0.002167331986129284,0.00006276369094848633
1761916191468982800,2.314982666015625,-0.004815530963242054,0.0024338113144040108,0.0011107176542282104
1761916191479037700,2.32503759765625,-0.0020681549794971943,-0.000881932326592505,0.0018542977049946785
1761916191489092600,2.335092529296875,0.0004527932032942772,0.00026109640020877123,-0.002314881421625614
1761916191499147800,2.345147705078125,0.0020653323736041784,-0.002630767645314336,-0.0014266353100538254
1761916191509203700,2.35520361328125,0.0004258904082234949,0.0009005838073790073,-0.00035950634628534317
1761916191519258600,2.365258544921875,0.0012579589383676648,-0.0010066438699141145,0.0007155817002058029
1761916191529313500,2.3753134765625,-0.0011615229304879904,0.0009595680749043822,0.0014412933960556984
1761916191539368700,2.38536865234375,0.000694496906362474,-0.0014606555923819542,-0.0008241701871156693
1761916191549423600,2.395423583984375,0.0009909067302942276,-0.00011975404049735516,-0.0022289883345365524
1761916191559479800,2.405479736328125,-0.0006172917201183736,0.001452948316000402,0.0034354375675320625
1761916191569534700,2.41553466796875,-0.0017238352447748184,0.001333905034698546,0.0019131749868392944
1761916191579589600,2.425589599609375,0.002016788814216852,0.00010855842265300453,-0.0013608979061245918
1761916191589644500,2.43564453125,-0.00015155694563873112,-0.0003441789885982871,-0.0010096272453665733
1761916191599699700,2.44569970703125,0.0016922212671488523,-0.0005974414525553584,-0.0019041933119297028
1761916191609755600,2.455755615234375,0.0025492266286164522,0.0013591829920187593,-0.000027730129659175873
1761916191619810600,2.465810546875,-0.0002576067636255175,0.0023651281371712685,0.00032032839953899384
1761916191629859300,2.475859375,-0.0009260602528229356,-0.0008210776722989976,-0.0016309693455696106
1761916191639914200,2.485914306640625,-0.0006063481559976935,-0.0008269145619124174,-0.0010729031637310982
1761916191649969200,2.49596923828125,-0.0007341798627749085,-0.0016607502475380898,-0.00013813376426696777
1761916191660025000,2.506025146484375,0.0012770465109497309,0.0016185627318918705,-0.0023074420168995857
1761916191670080300,2.516080322265625,0.0007473438163287938,0.0022324214223772287,0.000583951361477375
1761916191680135200,2.52613525390625,-0.0003697359934449196,-0.0016416005091741681,-0.0005906783044338226
1761916191690190300,2.5361904296875,-0.0006408458575606346,0.0022825675550848246,-0.002886056900024414
1761916191700245200,2.546245361328125,0.0021317661739885807,-0.001618640380911529,0.001697423867881298
1761916191710300200,2.556300048828125,0.000865699490532279,-0.00003006483893841505,0.0006215069442987442
1761916191720356400,2.5663564453125,-0.000892327050678432,0.0001797664153855294,0.0005544396117329597
1761916191730411300,2.576411376953125,0.00028265954460948706,0.001054348424077034,0.0001312633976340294
1761916191740466200,2.586466064453125,0.0004503538948483765,-0.00013940120697952807,0.0008795317262411118
1761916191750521000,2.59652099609375,0.0008500943658873439,0.0002704592770896852,-0.002837175503373146
1761916191760576300,2.606576171875,-0.0015051317168399692,-0.0011732783168554306,0.0012016259133815765
1761916191770632200,2.616632080078125,-0.0010412089759483933,-0.002112308982759714,-0.00007402803748846054
1761916191780687000,2.62668701171875,-0.0012822820572182536,0.00031576762557961047,-0.0031290287151932716
1761916191790742300,2.6367421875,0.0016487929970026016,-0.0006384429871104658,-0.0004355069249868393
1761916191800797200,2.646797119140625,0.0005166498012840748,-0.0023218607529997826,-0.000054770149290561676
1761916191810852400,2.656852294921875,-0.001458350452594459,-0.0006049210205674171,-0.0025733215734362602
1761916191820908300,2.666908203125,-0.001460617990233004,0.0024402798153460026,0.0015670107677578926
1761916191830963200,2.676963134765625,-0.0010422354098409414,-0.0015432765940204263,-0.000520109198987484
1761916191841018000,2.68701806640625,0.0006687286659143865,0.001955832587555051,-0.0012901080772280693
1761916191851073300,2.6970732421875,0.0017441131640225649,-0.0004764325567521155,0.0025773346424102783
1761916191861128200,2.707128173828125,-0.0009094172273762524,0.00230840384028852,0.0025962507352232933
1761916191871184100,2.71718408203125,-0.001556831644847989,-0.00030602121842093766,0.0003898218274116516
1761916191881239300,2.7272392578125,0.00040498111047782004,-0.00042740264325402677,-0.0014567859470844269
1761916191891294200,2.737294189453125,0.0008191026281565428,-0.0022335583344101906,-0.00044824741780757904
1761916191901349400,2.747349365234375,-0.0009231368312612176,0.00028135208413004875,-0.0009258752688765526
1761916191911404000,2.757404052734375,0.0007557199569419026,-0.0010401085019111633,-0.0012174909934401512
1761916191921460200,2.767460205078125,0.00021946911874692887,0.00010833912529051304,0.0016417969018220901
1761916191931515100,2.77751513671875,-0.003062344389036298,0.0007554872427135706,-0.0016181785613298416
1761916191941570300,2.7875703125,0.0007089996943250299,-0.0015640456695109606,0.0027530528604984283
1761916191951625200,2.797625244140625,-0.0018865170422941446,-0.0012774895876646042,0.00034422334283590317
1761916191961680100,2.80768017578125,0.0006685734842903912,0.0016949333949014544,-0.00022615771740674973
1761916191971736300,2.817736328125,0.0016068051336333156,-0.0018603865755721927,0.0002588033676147461
1761916191981791200,2.827791259765625,0.0038069323636591434,-0.0011135370004922152,-0.002323807217180729
1761916191991846400,2.837846435546875,-0.0013713180087506771,-0.00016358749417122453,0.000575575977563858
1761916192001901000,2.847901123046875,0.0011646054917946458,0.00017432494496461004,-0.0008628545328974724
1761916192011957200,2.857957275390625,-0.00034753739601001143,0.0019354732939973474,0.0010650083422660828
1761916192022012200,2.86801220703125,-0.00032300304155796766,-0.00006250447768252343,0.0001467633992433548
1761916192032067300,2.8780673828125,0.0003664893447421491,-0.00042868911987170577,0.0015726201236248016
1761916192042122200,2.888122314453125,-0.0015767801087349653,-0.0005333516746759415,0.0003688894212245941
1761916192052177200,2.89817724609375,-0.0008180455188266933,0.0012187419924885035,0.0006682286038994789
1761916192062233000,2.908233154296875,-0.0010055440943688154,0.002188668120652437,0.001734207384288311
1761916192072288300,2.918288330078125,-0.001013267319649458,-0.00025398319121450186,-0.0009159045293927193
1761916192082343200,2.92834326171875,-0.0008390487637370825,-0.001437473576515913,-0.0003948379307985306
1761916192092398000,2.938398193359375,0.0013117201160639524,0.0005444508278742433,-0.0010180184617638588
1761916192102453200,2.948453369140625,-0.00019574988982640207,0.0022908831015229225,-0.002743731252849102
1761916192112509200,2.95850927734375,-0.0006050777155905962,-0.002155797090381384,0.00023421552032232285
1761916192122564400,2.968564453125,0.001616495894268155,0.0005466127768158913,-0.002116415649652481
1761916192132619300,2.978619384765625,-0.000573954195715487,-0.0006763107376173139,-0.0013840459287166595
1761916192142674200,2.988674072265625,-0.00025459681637585163,0.0015516448765993118,0.0006982488557696342
1761916192152729300,2.998729248046875,-0.0005456803482957184,-0.0006952640251256526,0.0015350133180618286
1761916192162785300,3.008785400390625,-0.0000061953323893249035,-0.001580021227709949,-0.000587201677262783
1761916192172840200,3.018840087890625,0.0009610647684894502,-0.0007256790995597839,0.0009907213971018791
1761916192182895000,3.02889501953125,-0.0013843972701579332,0.00028587711858563125,0.00024232175201177597
1761916192192950300,3.0389501953125,0.00037808262277394533,-0.0002624677726998925,-0.0017547821626067162
1761916192203005400,3.04900537109375,0.0009837967809289694,0.002057179342955351,-0.0016142409294843674
1761916192213061000,3.05906103515625,0.0015744860284030437,0.0001711286895442754,0.0003423839807510376
1761916192223116000,3.069115966796875,-0.0011536219390109181,0.0016983953537419438,0.0004951907321810722
1761916192233171200,3.079171142578125,0.0014743853826075792,0.0015090445522218943,0.002393225207924843
1761916192243226400,3.089226318359375,0.0006948434165678918,0.0028248203452676535,0.0010520713403820992
1761916192253281000,3.099281005859375,-0.0021049377974122763,0.0014769944828003645,-0.0026406683027744293
1761916192263337200,3.109337158203125,-0.0007936352049000561,-0.0009481704328209162,-0.0004306770861148834
1761916192273392000,3.11939208984375,0.00045405581477098167,0.0010835551656782627,-0.0005214903503656387
1761916192283447300,3.129447265625,-0.0010825787903741002,0.0014161869185045362,-0.0014064423739910126
1761916192293502200,3.139502197265625,-0.0004524748947005719,0.0018249821150675416,-0.00010522175580263138
1761916192303557000,3.14955712890625,0.0016902933130040765,0.0010451126145198941,-0.0012034419924020767
1761916192313613000,3.159613037109375,-0.00006446352927014232,0.002607589354738593,0.003107416443526745
1761916192323668200,3.169668212890625,0.001498030498623848,0.0005065158475190401,0.00003472808748483658
1761916192333723400,3.179723388671875,0.0011366396211087704,0.0010719049023464322,-0.0014917952939867973
1761916192343778000,3.189778076171875,0.00028811662923544645,0.00041923223761841655,0.0012675756588578224
1761916192353833200,3.199833251953125,0.0016857435693964362,0.001488225068897009,0.0016417503356933594
1761916192363889200,3.20988916015625,-0.001006129663437605,0.0018743352266028523,-0.0012015067040920258
1761916192373944300,3.2199443359375,0.00010627275332808495,0.001191500574350357,0.0002144956961274147
1761916192383999200,3.229999267578125,-0.0005525770829990506,-0.0003396839019842446,0.00008961092680692673
1761916192394054100,3.24005419921875,-0.0013352800160646439,0.0004680528654716909,-0.001015068031847477
1761916192404109300,3.250109375,0.001382980728521943,0.000893735617864877,-0.00007043126970529556
1761916192414165200,3.260165283203125,-0.0007020080811344087,0.0005728246760554612,0.0008885730057954788
1761916192424220400,3.270220458984375,-0.0017818720079958439,-0.001610328326933086,0.00012245681136846542
1761916192434275000,3.280275146484375,-0.00007531826850026846,-0.002523792674764991,-0.0002597067505121231
1761916192444330200,3.290330322265625,0.0012314816704019904,-0.0026584146544337273,-0.0020693503320217133
1761916192454385400,3.300385498046875,-0.0005142204463481903,-0.00021096982527524233,0.0000308183953166008
1761916192464441300,3.31044140625,0.000052678980864584446,0.0005974223022349179,0.0003350973129272461
1761916192474496000,3.32049609375,-0.0008863515686243773,-0.0007330929511226714,0.0002639908343553543
1761916192484551200,3.33055126953125,0.00034941465128213167,-0.0035600599367171526,0.0017674444243311882
1761916192494606300,3.3406064453125,0.0023720855824649334,-0.00015121388423722237,0.0003887265920639038
1761916192504662300,3.350662353515625,-0.00021743809338659048,-0.0004642473650164902,0.0005058422684669495
1761916192514717200,3.36071728515625,-0.00004779471782967448,-0.0006826266180723906,-0.0008678166195750237
1761916192524772000,3.370772216796875,-0.0019702559802681208,0.00007466128590749577,-0.0010788766667246819
1761916192534827300,3.3808271484375,-0.0008762294892221689,0.0015029145870357752,-0.00027247145771980286
1761916192544882200,3.390882080078125,-0.0005926910089328885,-0.003046327969059348,0.0016454290598630905
1761916192554938400,3.4009384765625,0.0010970846051350236,0.00039980263682082295,0.0035344092175364494
1761916192564993000,3.410992919921875,-0.001743259490467608,0.0002202856121584773,0.0015051215887069702
1761916192575048200,3.421048095703125,-0.00022206196445040405,-0.0012489802902564406,-0.0018448689952492714
1761916192585103400,3.431103271484375,0.0015117237344384193,0.0006950335809960961,-0.00019081588834524155
1761916192595158000,3.441157958984375,-0.0026976687368005514,0.001378666958771646,0.0026308028027415276
1761916192605214200,3.451214111328125,0.0007120677037164569,0.0015551401302218437,0.0007457993924617767
1761916192615269000,3.46126904296875,0.00008622484165243804,-0.0010869819670915604,-0.001213754527270794
1761916192625324300,3.47132421875,0.00012713437899947166,-0.002252564299851656,0.00018727220594882965
1761916192635380700,3.481380615234375,-0.00023691973183304071,-0.0010413586860522628,0.0011151181533932686
1761916192645436000,3.491435791015625,-0.000909427588339895,0.00005342435906641185,0.003639861010015011
1761916192655491600,3.50149169921875,-0.00036800699308514595,-0.002913869684562087,0.0008573904633522034
1761916192665546800,3.511546630859375,0.0006768173770979047,-0.002577500883489847,0.0016169697046279907
1761916192675601700,3.5216015625,-0.0003998986503574997,-0.00014816531620454043,-0.002468319609761238
1761916192685656800,3.53165673828125,-0.0013817449798807502,0.0023447168059647083,-0.0009810514748096466
1761916192695711500,3.54171142578125,0.0007304080645553768,-0.0015786521835252643,0.002765483222901821
1761916192705767700,3.551767578125,0.0015085918130353093,-0.002895777113735676,-0.0024124355986714363
1761916192715822600,3.561822509765625,0.0014436106430366635,0.0003618014161475003,-0.0011692717671394348
1761916192725877800,3.571877685546875,-0.002553401980549097,-0.0004329138610046357,-0.0013444777578115463
1761916192735933000,3.581932861328125,-0.001997067593038082,0.0021591410040855408,0.0009205406531691551
1761916192745987600,3.591987548828125,0.0016972408629953861,-0.0011593400267884135,-0.0017773117870092392
1761916192756043800,3.602043701171875,-0.00035579001996666193,-0.00017849776486400515,-0.0007514627650380135
1761916192766098700,3.6120986328125,0.002077927812933922,-0.0023425593972206116,0.00029834359884262085
1761916192776153900,3.62215380859375,-0.002556505147367716,0.0015595043078064919,0.0015825200825929642
1761916192786208500,3.63220849609375,0.00046966172521933913,-0.0025431488174945116,0.00013135559856891632
1761916192796264700,3.6422646484375,-0.0021290509030222893,-0.0015372730558738112,-0.0014020930975675583
1761916192806319600,3.652319580078125,-0.00007786633796058595,-0.0037068966776132584,0.0026573557406663895
1761916192816374800,3.662374755859375,-0.0003007728955708444,0.0008146181353367865,-0.002026611939072609
1761916192826429700,3.6724296875,0.0005126160103827715,0.00015359162352979183,-0.00008414871990680695
1761916192836484600,3.682484619140625,-0.0011800890788435936,-0.004825986921787262,-0.002353695221245289
1761916192846540800,3.692540771484375,-0.0016060338821262121,-0.0001801250473363325,0.0009038886055350304
1761916192856595700,3.702595703125,0.00010664487490430474,0.00017593958182260394,0.00018057413399219513
1761916192866651000,3.71265087890625,0.0007872420246712863,-0.0000020128863980062306,0.0009656753391027451
1761916192876705500,3.72270556640625,0.0003113351413048804,-0.0010941752698272467,0.00011879019439220428
1761916192886760700,3.7327607421875,-0.000036820274544879794,0.0012000403366982937,0.00007631536573171616
1761916192896816600,3.742816650390625,0.0016979628708213568,-0.00036430056206882,-0.0029200073331594467
1761916192906871800,3.752871826171875,0.001382833463139832,-0.001137496903538704,-0.0018922509625554085
1761916192916926700,3.7629267578125,-0.0011564906453713775,0.0035869509447366,0.000018034130334854126
1761916192926981600,3.772981689453125,-0.0007943609380163252,0.001525726867839694,-0.0015167128294706345
1761916192937036800,3.783036865234375,0.000779833528213203,0.0006423563463613391,-0.0006176289170980453
1761916192947092700,3.7930927734375,-0.0015068036736920476,-0.0005127877229824662,0.00036853551864624023
1761916192957147600,3.803147705078125,0.0009512939723208547,0.0017690086970105767,-0.002492498606443405
1761916192967202600,3.81320263671875,-0.0002344244858250022,0.00005575459363171831,-0.0011508781462907791
1761916192977257700,3.8232578125,0.001140565611422062,-0.0019424151396378875,0.001449698582291603
1761916192987313000,3.83331298828125,-0.0007181966211646795,0.0002473318891134113,0.0007417649030685425
1761916192997368800,3.843368896484375,0.0004250984056852758,0.001131235039792955,0.00036492757499217987
1761916193007423700,3.853423828125,0.001035016612149775,-0.0011987601174041629,0.0026809806004166603
1761916193017478700,3.863478759765625,0.0008339479682035744,0.0014617377892136574,-0.0006703417748212814
1761916193027533800,3.873533935546875,-0.0008040233515202999,-0.0018248301930725574,0.0002472270280122757
1761916193037589800,3.88358984375,-0.0007843159837648273,0.00029424711829051375,0.0021905358880758286
1761916193047644700,3.893644775390625,-0.00036103688762523234,0.0014620497822761536,-0.0010535456240177155
1761916193057699600,3.903699462890625,-0.0002776799665298313,-0.0011361301876604557,-0.0003667166456580162
1761916193067754800,3.913754638671875,0.0005004886770620942,-0.002034447155892849,-0.0019693663343787193
1761916193077810000,3.923809814453125,-0.0019144657999277115,0.0006108707748353481,0.0008458606898784637
1761916193087865600,3.933865478515625,-0.0016190382884815335,0.0002646020147949457,0.0012275408953428268
1761916193097920800,3.943920654296875,0.0005580958095379174,-0.0012587262317538261,-0.0007080445066094398
1761916193107975700,3.9539755859375,-0.004055903293192387,-0.0006584142684005201,-0.0018664747476577759
1761916193118030800,3.96403076171875,-0.0005812770687043667,-0.0032624532468616962,0.0002584615722298622
1761916193128085500,3.97408544921875,0.001497952383942902,-0.0004893720615655184,-0.002406739629805088
1761916193138141700,3.9841416015625,0.00005105699528940022,0.0015388913452625275,-0.0007744887843728065
1761916193148196600,3.994196533203125,0.0005452852929010987,0.001415338716469705,-0.001326441764831543
1761916193158251800,4.004251708984375,-0.00006164913065731525,-0.0015863100998103619,-0.002770408056676388
1761916193168307000,4.014306884765625,-0.000591739546507597,-0.002071346389129758,0.0004333276301622391
1761916193178360600,4.024360595703125,-0.003104165894910693,0.0009798372630029917,-0.00006654765456914902
1761916193188415700,4.034415771484375,0.0008493370842188597,-0.0003389653575140983,0.00018446799367666245
1761916193198470700,4.044470703125,-0.00013949465937912464,-0.0002870337339118123,-0.0009401850402355194
1761916193208525600,4.054525634765625,0.0003789690672419965,0.0022296952083706856,0.0022675860673189163
1761916193218581800,4.064581787109375,0.0025177537463605404,0.0011583054438233376,-0.0005425810813903809
1761916193228636700,4.07463671875,-0.0008456590585410595,-0.002492365427315235,-0.000009909272193908691
1761916193238691800,4.08469189453125,0.000741584924980998,0.0014389929128810763,0.0002385629341006279
1761916193248746800,4.094746826171875,0.0027196374721825123,0.001715520629659295,-0.0031316298991441727
1761916193258801700,4.1048017578125,-0.0025923035573214293,-0.0008307276293635368,-0.0017694225534796715
1761916193268857600,4.114857666015625,-0.0031072411220520735,0.00039826089050620794,-0.0030233515426516533
1761916193278912800,4.124912841796875,-0.0002728388935793191,0.0012086607748642564,-0.002024133689701557
1761916193288967700,4.1349677734375,-0.00048346223775297403,0.005800838582217693,0.0006172759458422661
1761916193299022600,4.145022705078125,0.0005048367893323302,0.0009472276433371007,-0.0018291035667061806
1761916193309077800,4.155077880859375,0.0015166978118941188,0.00266353995539248,-0.0007411101832985878
1761916193319133700,4.1651337890625,-0.0009666999103501439,-0.0012931183446198702,-0.0004795873537659645
1761916193329188900,4.17518896484375,0.0021673892624676228,-0.0030073951929807663,-0.0005314117297530174
1761916193339243800,4.185243896484375,-0.0004989675362594426,-0.001319217262789607,-0.0017982777208089828
1761916193349298700,4.195298583984375,0.00015376461669802666,0.002061746548861265,-0.0010701864957809448
1761916193359353900,4.205353759765625,0.00009384349687024951,0.00018688105046749115,-0.002155691385269165
1761916193369409800,4.215409912109375,-0.000206536496989429,-0.002534652827307582,0.0013155117630958557
1761916193379464700,4.225464599609375,0.0016446267254650593,0.006317161954939365,0.0012409435585141182
1761916193389519600,4.23551953125,0.0020580904092639685,0.002302187029272318,0.00004136655479669571
1761916193399574800,4.24557470703125,0.0005581980803981423,-0.00044326588977128267,-0.0020217839628458023
1761916193409630700,4.255630615234375,-0.00011983883450739086,0.0012033132370561361,0.0003377879038453102
1761916193419685600,4.265685546875,-0.0014833773020654917,0.004488588776439428,0.0014240918681025505
1761916193429740500,4.275740478515625,-0.000623342813923955,0.0010794454719871283,-0.0018891682848334312
1761916193439795700,4.285795654296875,-0.001631881925277412,-0.0057563562877476215,-0.002067866735160351
1761916193449851000,4.295850830078125,0.00013874750584363937,-0.002375108888372779,0.0009571406990289688
1761916193459906800,4.30590673828125,0.0006354270735755563,0.0007517085177823901,0.00020692776888608932
1761916193469961700,4.315961669921875,0.001103292452171445,0.0030385286081582308,0.001004132442176342
1761916193480016600,4.3260166015625,0.0011610831134021282,-0.0008859056397341192,0.0014805719256401062
1761916193490071800,4.33607177734375,-0.001899415161460638,-0.0014250213280320168,0.001218126155436039
1761916193500126700,4.346126708984375,-0.00019605731358751655,0.002314056968316436,0.0004958761855959892
1761916193510182700,4.3561826171875,-0.0016570516163483262,0.0012703326065093279,-0.0006328048184514046
1761916193520237600,4.366237548828125,0.00023139597033150494,-0.0023214726243168116,0.00035309698432683945
1761916193530292700,4.376292724609375,-0.0009810422779992223,0.0007282678852789104,0.0006885109469294548
1761916193540348000,4.386347900390625,0.00197719712741673,0.0028529379051178694,0.002520766109228134
1761916193550403600,4.396403564453125,-0.0025501481723040342,0.0056090145371854305,0.004463911987841129
1761916193560458800,4.406458740234375,0.002078958321362734,0.00267900456674397,-0.0002930266782641411
1761916193570513700,4.416513671875,0.0006680518854409456,-0.005837161093950272,0.0012117382138967514
1761916193580568800,4.42656884765625,-0.0017186730401590466,-0.0012360172113403678,0.000498809851706028
1761916193590623700,4.436623779296875,0.000980594428256154,0.004863515961915255,0.002462156116962433
1761916193600679700,4.4466796875,0.0006804561708122492,0.0040864055044949055,0.003485076129436493
1761916193610734600,4.456734619140625,-0.0013372069224715233,-0.0005332714645192027,-0.0019024787470698357
1761916193620789800,4.466789794921875,-0.00045783125096932054,-0.005610055755823851,-0.0010361522436141968
1761916193630844000,4.476843994140625,-0.0004638032987713814,0.002550073666498065,0.0006325403228402138
1761916193640898800,4.48689892578125,-0.0014787339605391026,0.004271274898201227,0.0013768943026661873
1761916193650955000,4.496955078125,0.000083872553659603,0.0027029085904359818,0.0012546340003609657
1761916193661010000,4.507010009765625,0.0005291530978865921,-0.0035704337060451508,0.0002791173756122589
1761916193671064800,4.51706494140625,-0.0016540780197829008,-0.0004768124781548977,0.00252476055175066
1761916193681120000,4.5271201171875,-0.001104668015614152,0.0013807424111291766,-0.0016207154840230942
1761916193691176000,4.537176025390625,-0.003082675626501441,0.006117019336670637,0.0024247700348496437
1761916193701231000,4.547231201171875,-0.0005484115681611001,-0.004202463198453188,-0.001850135624408722
1761916193711285800,4.55728564453125,0.0009395840461365879,-0.004102032631635666,-0.0018302658572793007
1761916193721341000,4.5673408203125,0.0017494512721896172,0.0025180529337376356,-0.0009492924436926842
1761916193731395800,4.577395751953125,0.0005965476157143712,0.00631417240947485,0.0002176789566874504
1761916193741452000,4.5874521484375,0.0010703239822760224,0.003618786809965968,0.004933604970574379
1761916193751506700,4.597506591796875,0.0007112931925803423,0.001395984785631299,-0.00015046820044517517
1761916193761561900,4.607561767578125,0.000728337443433702,0.00048678164603188634,-0.00030093733221292496
1761916193771617000,4.617616943359375,-0.0008954780059866607,0.0003910647938027978,0.0031046951189637184
1761916193781672000,4.627671875,-0.00047656282549723983,0.0018635265296325088,-0.0001201266422867775
1761916193791728000,4.63772802734375,-0.0026213321834802628,0.0003772048803512007,-0.001259232871234417
1761916193801782800,4.64778271484375,-0.0005834812764078379,0.00045789865544065833,-0.0015710890293121338
1761916193811838000,4.657837890625,0.0002664517378434539,0.0015708459541201591,0.003203902393579483
1761916193821892900,4.667892822265625,-0.00031358475098386407,0.0024704616516828537,-0.003414585255086422
1761916193831949000,4.677948974609375,-0.0006305274437181652,0.0004896955797448754,-0.0010136784985661507
1761916193842003700,4.688003662109375,0.00162570271641016,-0.0013478855835273862,-0.00038623716682195663
1761916193852059000,4.698058837890625,0.0003863773890770972,0.0011524013243615627,0.0013343077152967453
1761916193862114000,4.708114013671875,-0.0013201761757954955,0.0028104851953685284,-0.0011509545147418976
1761916193872169000,4.7181689453125,0.0010510485153645277,-0.00350355776026845,-0.00015815161168575287
1761916193882225200,4.72822509765625,0.0015892733354121447,-0.00029098655795678496,0.00028526410460472107
1761916193892279800,4.73827978515625,0.0016070071142166853,0.00036341481609269977,-0.0013317624107003212
1761916193902335000,4.7483349609375,0.0025827891658991575,0.00022439782333094627,0.00027039460837841034
1761916193912390000,4.758389892578125,0.001281481352634728,0.0009867993649095297,0.0015128422528505325
1761916193922446000,4.768446044921875,0.00011128833284601569,-0.004409297369420528,0.0007269438356161118
1761916193932500700,4.778500732421875,0.0016018631868064404,-0.0014667250216007233,-0.0007548630237579346
1761916193942556000,4.788555908203125,0.0026373001746833324,-0.0000041169569158228114,0.00009841378778219223
1761916193952611000,4.798611083984375,0.0017095396760851145,-0.00149843271356076,0.0011406932026147842
1761916193962666000,4.808666015625,0.002097562188282609,-0.0002864280832000077,0.00028661731630563736
1761916193972722000,4.818721923828125,0.0011181702138856053,-0.00029682970489375293,0.001586426980793476
1761916193982776800,4.82877685546875,-0.0002600156585685909,-0.0004395751457195729,-0.001941196620464325
1761916193992832000,4.83883203125,-0.004571125842630863,-0.0003617785987444222,0.0009645996615290642
1761916194002887000,4.848886962890625,0.0007229720358736813,0.0021029768977314234,0.0002623246982693672
1761916194012941800,4.85894189453125,0.0004826878721360117,0.0013894225703552365,0.00004912074655294418
1761916194022997800,4.868997802734375,-0.0019580991938710213,-0.0008713348070159554,-0.0021461229771375656
1761916194033053000,4.879052978515625,-0.0027949269860982895,0.00228499504737556,-0.0012420807033777237
1761916194043108000,4.889108154296875,-0.0008510857587680221,0.0007227847236208618,0.0014426521956920624
1761916194053162800,4.899162841796875,0.00014422534150071442,0.0036901570856571198,-0.0022032512351870537
1761916194063219000,4.909218994140625,0.0006214638124220073,-0.002530987374484539,-0.0012511704117059708
1761916194073273900,4.91927392578125,0.0014031693572178483,-0.0031125429086387157,-0.002158637158572674
1761916194083329000,4.9293291015625,-0.00004106285632587969,0.00233655096963048,0.004083013162016869
1761916194093384000,4.939384033203125,-0.0008867789292708039,0.00019239298126194626,0.001652243547141552
1761916194103438800,4.94943896484375,0.003262958722189069,-0.0000654010073048994,-0.0003890693187713623
1761916194113494800,4.959494873046875,-0.0018365227151662111,-0.0010459120385348797,-0.0010425681248307228
1761916194123550000,4.969550048828125,0.0006649844581261277,0.003451634431257844,0.003974295221269131
1761916194133605000,4.979605224609375,0.00015457297558896244,0.0036035017110407352,0.0009886650368571281
1761916194143659800,4.98965966796875,-0.0008797987247817218,0.0007794856792315841,0.0010395310819149017
1761916194153716000,4.999716064453125,0.0004042890795972198,0.0010966152185574174,0.00038709957152605057
1761916194163771000,5.00977099609375,0.0005387787241488695,0.0009663866367191076,0.002105903811752796
1761916194173826000,5.019825927734375,-0.002005223883315921,0.003141561755910516,0.002573489211499691
1761916194183880700,5.029880615234375,-0.000795349944382906,0.00014417395868804306,0.000032833777368068695
1761916194193936000,5.039935791015625,0.0016744253225624561,0.0026738555170595646,0.0003136061131954193
1761916194203991800,5.04999169921875,-0.0030252551659941673,0.0005963233998045325,-0.0016906894743442535
1761916194214047000,5.060046875,0.0003172856813762337,-0.0013200290268287063,-0.00018982216715812683
1761916194224102100,5.07010205078125,-0.0005391868762671947,0.0013500562636181712,0.0017556166276335716
1761916194234156800,5.08015673828125,-0.001452872296795249,-0.0009196886676363647,-0.00022497307509183884
1761916194244212000,5.0902119140625,-0.0004222289426252246,0.000427071878220886,0.001441899687051773
1761916194254268000,5.100267822265625,0.0011764337541535497,0.002333843382075429,0.0042734574526548386
1761916194264323000,5.110322998046875,-0.0006752621266059577,0.0006986624212004244,0.0035623926669359207
1761916194274377700,5.120377685546875,-0.0011919321259483695,0.00015143743075896055,-0.0001887846738100052
1761916194284433000,5.130432861328125,0.0020747012458741665,-0.0011271461844444275,-0.00015709362924098969
1761916194294488800,5.14048876953125,-0.002163650467991829,-0.0026654854882508516,0.00047806836664676666
1761916194304544000,5.1505439453125,0.002137887291610241,-0.00016957113984972239,0.0005584955215454102
1761916194314599000,5.160598876953125,0.0018043606542050838,0.0023390843998640776,-0.0006236890330910683
1761916194324653800,5.17065380859375,-0.0015160685870796442,-0.0017118500545620918,-0.0010647084563970566
1761916194334709000,5.180708984375,0.002780612325295806,0.00040949642425403,0.002426457591354847
1761916194344765000,5.190764892578125,-0.0016128045972436666,0.0009437265107408166,-0.0007027564570307732
1761916194354820000,5.200820068359375,0.0005064216093160212,0.0017677471041679382,-0.00008459854871034622
1761916194364874800,5.210874755859375,0.0016774135874584317,-0.0021500291768461466,-0.00013466645032167435
1761916194374930000,5.220929931640625,0.0012650368735194206,-0.0007945814868435264,-0.0010875510051846504
1761916194384985900,5.23098583984375,-0.0009597678435966372,-0.0018510575173422694,-0.00012188870459794998
1761916194395041000,5.241041015625,0.0008490339387208223,0.002539461711421609,-0.00011864211410284042
1761916194405096000,5.251095947265625,-0.0005113087245263159,0.0011700642062351108,-0.00024514179676771164
1761916194415150800,5.26115087890625,0.00021320790983736515,-0.0015399530529975891,0.0027797752991318703
1761916194425206000,5.2712060546875,-0.00025417684810236096,-0.0023215909022837877,0.00012833252549171448
1761916194435262000,5.281261962890625,-0.00038471980951726437,-0.0012232010485604405,0.0005925754085183144
1761916194445317000,5.291317138671875,0.00009544813656248152,-0.001216010539792478,0.0010410510003566742
1761916194455371800,5.301371826171875,0.0013239369727671146,0.0005762082291767001,0.0015176543965935707
1761916194465427000,5.311427001953125,-0.0018721225205808878,0.0005599629948846996,-0.00000860355794429779
1761916194475482000,5.321482177734375,0.0005483971326611936,-0.001228627748787403,0.003966088406741619
1761916194485538000,5.3315380859375,0.0006325530121102929,-0.0037434506230056286,0.00003446359187364578
1761916194495593000,5.341593017578125,-0.0008477921364828944,0.002006303519010544,0.0012929923832416534
1761916194505647900,5.35164794921875,0.0015269485302269459,-0.0005700383335351944,-0.0025515463203191757
1761916194515703000,5.361703125,0.00018252985319122672,0.00023199740098789334,0.000123634934425354
1761916194525759000,5.371759033203125,-0.0007879260228946805,-0.003085502190515399,-0.0013578813523054123
1761916194535814000,5.38181396484375,-0.0002855156781151891,0.0004360798338893801,-0.00032914988696575165
1761916194545868800,5.391868896484375,0.0017006698762997985,0.00035991345066577196,0.000558747909963131
1761916194555924000,5.401924072265625,0.0003566875820979476,0.0009093167027458549,-0.0010058172047138214
1761916194565979000,5.411978759765625,0.0006720058154314756,-0.0002611425588838756,0.002538849599659443
1761916194576035000,5.42203515625,-0.0009813648648560047,0.00007798349543008953,-0.0013545788824558258
1761916194586089700,5.43208984375,-0.0010905545204877853,0.00016000884352251887,-0.0005098246037960052
1761916194596145000,5.442144775390625,-0.0016447680536657572,-0.0036035862285643816,-0.0029632216319441795
1761916194606200000,5.452199951171875,-0.0007928227423690259,0.0009805129375308752,-0.0013405578210949898
1761916194616256000,5.462256103515625,-0.0010147984139621258,0.0036118587013334036,0.0002733534201979637
1761916194626311000,5.472310791015625,0.0009460870642215014,-0.00006117321026977152,-0.002439342439174652
1761916194636365600,5.482365478515625,0.0005136499530635774,-0.003804912092164159,-0.00240324717015028
1761916194646420700,5.492420654296875,-0.003152990248054266,-0.0005084513104520738,0.0001605777069926262
1761916194656476000,5.502475830078125,0.001009102095849812,0.0005907774902880192,0.0026959730312228203
1761916194666531600,5.512531494140625,0.0008410566370002925,0.00014602957526221871,0.0010314974933862686
1761916194676586800,5.522586669921875,0.003449107054620981,-0.0028389832004904747,-0.0009524272754788399
1761916194686641700,5.5326416015625,-0.00045668502571061254,0.00015547519433312118,0.0003517232835292816
1761916194696696800,5.54269677734375,-0.0007238934049382806,-0.0015027094632387161,0.0003855200484395027
1761916194706752800,5.552752685546875,-0.002203812124207616,0.00046749706962145865,0.0003120172768831253
1761916194716807700,5.5628076171875,0.00024801387917250395,0.00022589677246287465,0.0005326420068740845
1761916194726862600,5.572862548828125,0.0004421583143994212,-0.0022971821017563343,-0.0017606066539883614
1761916194736917800,5.582917724609375,0.000016804842744022608,-0.0012199206976220012,-0.0003289831802248955
1761916194746972700,5.59297265625,-0.002019980689510703,0.002184131648391485,0.0020002173259854317
1761916194757028600,5.603028564453125,-0.0005647035432048142,0.0004989654407836497,0.00013607647269964218
1761916194767083500,5.61308349609375,-0.0006640395149588585,0.0014529097825288773,0.00015844684094190598
1761916194777138700,5.623138671875,0.001896727830171585,0.0005197261343710124,0.0013979962095618248
1761916194787193900,5.63319384765625,-0.0015920132864266634,0.0006401010323315859,-0.00018631760030984879
1761916194797249500,5.64324951171875,-0.0004897117614746094,0.0031313570216298103,0.0009598620235919952
1761916194807304700,5.6533046875,0.0006847422337159514,-0.0018958923174068332,-0.0005480200052261353
1761916194817359600,5.663359619140625,-0.0009982010815292597,-0.0008810875588096678,-0.0008183056488633156
1761916194827414800,5.673414794921875,0.0022897375747561455,0.00042492663487792015,0.000538041815161705
1761916194837469700,5.6834697265625,0.0007650147890672088,0.002179102273657918,-0.0003318674862384796
1761916194847525600,5.693525634765625,0.0015706210397183895,-0.0006760726682841778,0.0005664164200425148
1761916194857580500,5.70358056640625,0.0009451298974454403,0.0009720721864141524,-0.0002621086314320564
1761916194867635700,5.7136357421875,0.00044898298801854253,0.000295362900942564,0.000041758641600608826
1761916194877690600,5.723690673828125,-0.0008840871741995215,-0.0004248106270097196,-0.0009481869637966156
1761916194887745500,5.73374560546875,0.0017583011649549007,-0.0006916593993082643,-0.0023378245532512665
1761916194897801700,5.7438017578125,0.0003344095894135535,0.0006618348415941,-0.0021680667996406555
1761916194907856600,5.753856689453125,0.0006963331252336502,0.0023201850708574057,0.000429314561188221
1761916194917911800,5.763911865234375,-0.0008831388549879193,0.00043882045429199934,-0.000031927600502967834
1761916194927966700,5.773966796875,-0.002098871860653162,-0.0005750450072810054,-0.0011011874303221703
1761916194938022700,5.784022705078125,0.0006474517867900431,0.00048384832916781306,-0.0010973932221531868
1761916194948077600,5.79407763671875,-0.0005629549268633127,-0.0000261470559053123,-0.000262225978076458
1761916194958132700,5.8041328125,0.0008267996017821133,-0.00004127041029278189,-0.0002652658149600029
1761916194968187600,5.814187744140625,0.0019218914676457644,-0.001053804298862815,-0.000032238662242889404
1761916194978242600,5.82424267578125,-0.0001427079550921917,0.000098444550530985,-0.0034257937222719193
1761916194988298800,5.834298828125,-0.0009592331480234861,-0.002291476121172309,-0.0015104487538337708
1761916194998353700,5.844353759765625,-0.0011420007795095444,0.0005808683345094323,0.00024109426885843277
1761916195008408800,5.854408935546875,-0.0017710394458845258,-0.0012647024122998118,-0.0012769075110554695
1761916195018463500,5.86446337890625,-0.0005027403240092099,-0.0007965646218508482,0.00034260470420122147
1761916195028519700,5.874519775390625,0.0020991680212318897,0.001182430307380855,-0.000026776455342769623
1761916195038574600,5.88457470703125,-0.0006361646810546517,0.0004767931823153049,0.00007901899516582489
1761916195048629800,5.894629638671875,-0.001699564978480339,-0.0007330809021368623,0.0015845037996768951
1761916195058684700,5.9046845703125,0.0018643693765625358,0.0009273816831409931,-0.002208300866186619
1761916195068739600,5.914739501953125,0.0017943282146006823,-0.0036753597669303417,-0.002212029881775379
1761916195078795800,5.924795654296875,-0.0006103229243308306,-0.0017051671165972948,0.0005989996716380119
1761916195088850700,5.9348505859375,-0.0023914449848234653,0.000996077200397849,0.000088471919298172
1761916195098905600,5.944905517578125,-0.0010006952797994018,0.00011634032125584781,-0.001011035405099392
1761916195108960500,5.95496044921875,-0.0007413033163174987,-0.0017060608370229602,0.00011095497757196426
1761916195119015700,5.965015625,-0.0017040204256772995,-0.0021818275563418865,-0.0013128938153386116
1761916195129071600,5.975071533203125,0.0007250487105920911,0.0007178223459050059,-0.0023467326536774635
1761916195139126800,5.985126708984375,0.0008982260478660464,-0.0013618654338642955,0.00009648222476243973
1761916195149181700,5.995181640625,0.00037225178675726056,0.0008043497800827026,0.0007199281826615334
1761916195159236600,6.005236572265625,0.0022239931859076023,0.0014342459617182612,-0.002586284652352333
1761916195169292800,6.015292724609375,-0.0006338449311442673,-0.002148770960047841,-0.00036307796835899353
1761916195179347700,6.02534765625,-0.00030621798941865563,-0.0003818696131929755,0.0009379405528306961
1761916195189402600,6.035402587890625,-0.000839915475808084,-0.0003387264150660485,0.0011232970282435417
1761916195199457500,6.04545751953125,-0.000040577317122370005,0.0010123247047886252,0.0014182189479470253
1761916195209512700,6.0555126953125,-0.001608646591193974,-0.00009208817937178537,-0.001436423510313034
1761916195219568600,6.065568603515625,-0.0021844147704541683,0.0011665899073705077,-0.001986890099942684
1761916195229623600,6.07562353515625,-0.0003995642764493823,-0.0008608745993115008,0.0008219461888074875
1761916195239678700,6.0856787109375,-0.0032069270964711905,-0.0005134199745953083,-0.0019742893055081367
1761916195249733600,6.095733642578125,0.00013107906852383167,0.0013124431716278195,-0.002247530035674572
1761916195259789800,6.105789794921875,0.001264198450371623,-0.002750170649960637,-0.0011102696880698204
1761916195269844700,6.1158447265625,-0.0010346422204747796,0.0022672247141599655,0.00035366974771022797
1761916195279899600,6.125899658203125,-0.0007112991297617555,-0.00030144338961690664,0.0011147689074277878
1761916195289954600,6.13595458984375,-0.000017812068108469248,0.0002096172102028504,-0.0019033914431929588
1761916195300009700,6.146009765625,-0.0012727107387036085,-0.0034477461595088243,-0.0022602779790759087
1761916195310065700,6.156065673828125,-0.00282346922904253,0.0012308952864259481,-0.0006402777507901192
1761916195320120600,6.16612060546875,0.0037930007092654705,-0.0017157272668555379,-0.0025784820318222046
1761916195330175700,6.17617578125,-0.0012675380567088723,-0.00002541889261920005,0.0006623184308409691
1761916195340230700,6.186230712890625,-0.0009514851844869554,-0.0038008533883839846,-0.0006450628861784935
1761916195350286800,6.196286865234375,0.0008418874931521714,-0.0018045478500425816,-0.004155908711254597
1761916195360341500,6.206341552734375,0.0007288501365110278,0.004098766017705202,-0.0011811181902885437
1761916195370396700,6.216396728515625,0.0010247272439301014,0.0042697410099208355,-0.0005965540185570717
1761916195380451600,6.22645166015625,-0.00022943477961234748,0.0007334284018725157,-0.002034616656601429
1761916195390506800,6.2365068359375,-0.00008375986362807453,-0.00040214351611211896,0.001154785044491291
1761916195400562700,6.246562744140625,-0.0006566845113411546,0.0008455872302874923,0.0005035046488046646
1761916195410617600,6.25661767578125,-0.0006694677285850048,0.0011454591294750571,-0.0014030523598194122
1761916195420672800,6.2666728515625,0.00011318371980451047,-0.0008133146911859512,0.00006021186709403992
1761916195430727700,6.276727783203125,-0.0007081351359374821,-0.0010396833531558514,-0.0007856078445911407
1761916195440783600,6.28678369140625,-0.0007584900595247746,0.000050192968046758324,-0.000057728029787540436
1761916195450838500,6.296838623046875,0.0018045362085103989,0.0032193546649068594,-0.0006337705999612808
1761916195460893700,6.306893798828125,-0.0007380798342637718,-0.000012503602192737162,-0.0009684860706329346
1761916195470948600,6.316948486328125,-0.0012480751611292362,-0.0005001283716410398,-0.0014723557978868484
1761916195481003800,6.327003662109375,-0.00045195312122814357,0.0006537779700011015,0.0019784485921263695
1761916195491059700,6.337059814453125,0.00015231812722049654,-0.0021015284582972527,0.00003194436430931091
1761916195501114600,6.347114501953125,0.001964080613106489,-0.0009901797166094184,-0.0007562097162008286
1761916195511169800,6.357169677734375,0.0017342498758807778,0.0014026705175638199,-0.0013652751222252846
1761916195521224700,6.367224609375,0.0008088689064607024,-0.0034869357477873564,-0.0012341169640421867
1761916195531280600,6.37728076171875,0.00105734181124717,0.0017693453701213002,-0.0009494246914982796
1761916195541335600,6.38733544921875,-0.0018200860358774662,-0.00008363017695955932,-0.002393130213022232
1761916195551390700,6.397390625,-0.0019087691325694323,-0.0014546255115419626,-0.0005973605439066887
1761916195561445600,6.407445556640625,0.0007691089995205402,-0.0028819292783737183,-0.0009017093107104301
1761916195571500800,6.417500732421875,0.0007960069342516363,-0.0010347607312723994,-0.00024790316820144653
1761916195581556500,6.427556396484375,0.0007293722010217607,0.001370344660244882,0.0007960936054587364
1761916195591611600,6.437611572265625,-0.0009590719128027558,0.002560777822509408,-0.001166389323771
1761916195601666800,6.447666748046875,-0.0009597353055141866,0.001635327935218811,0.0005193827673792839
1761916195611721700,6.4577216796875,0.0012653358280658722,0.00005793758464278653,0.001265333965420723
1761916195621777700,6.467777587890625,-0.0014119390398263931,-0.0002159254509024322,0.0003134077414870262
1761916195631832600,6.47783251953125,-0.0001045932003762573,-0.0010718654375523329,-0.00041549932211637497
1761916195641888000,6.487887939453125,0.00047508050920441747,-0.0026656712871044874,-0.002815290354192257
1761916195651943000,6.49794287109375,-0.0004916469915769994,-0.0036230776458978653,-0.0009281737729907036
1761916195661998000,6.507998046875,-0.0008368208655156195,0.0011320259654894471,-0.0004902714863419533
1761916195672053800,6.5180537109375,-0.00021950018708594143,0.0006950012175366282,0.0006032222881913185
1761916195682109000,6.52810888671875,0.0025017026346176863,-0.0023269520606845617,-0.0024195583537220955
1761916195692163800,6.538163818359375,-0.0008629349758848548,-0.002315500285476446,-0.00014521833509206772
1761916195702219000,6.548218994140625,0.0016363761387765408,-0.002552370075136423,-0.0005685659125447273
1761916195712275000,6.55827490234375,0.0013285146560519934,0.001217600773088634,-0.0006295526400208473
1761916195722329900,6.568329833984375,-0.0020969335455447435,0.0003881758020725101,-0.00021443422883749008
1761916195732385000,6.578385009765625,0.0006016474217176437,-0.0016507402760908008,-0.0010469388216733932
1761916195742440000,6.58843994140625,0.0003098489542026073,-0.0007278729462996125,0.00267868023365736
1761916195752494800,6.598494873046875,-0.0005921637057326734,0.0015185034135356545,-0.0010633273050189018
1761916195762550800,6.60855078125,-0.0004564626724459231,0.0037022060714662075,0.00043462030589580536
1761916195772606000,6.61860595703125,-0.0002444750862196088,-0.0015183883951976895,0.0010322341695427895
1761916195782660900,6.628660888671875,-0.0006457121926359832,0.0014491616748273373,-0.00004311557859182358
1761916195792716000,6.638716064453125,-0.0009895262774080038,0.0004472804721444845,0.0030442876741290092
1761916195802771700,6.648771728515625,0.0015161365736275911,-0.00255856872536242,0.0011261524632573128
1761916195812827000,6.658826904296875,-0.0014761911006644368,-0.0007132642203941941,-0.00027839839458465576
1761916195822882000,6.668882080078125,0.00031091360142454505,-0.0013751311926171184,-7.813796401023865e-7
1761916195832937000,6.67893701171875,0.000739149923902005,-0.000051540198910515755,0.0012796670198440552
1761916195842993000,6.688992919921875,0.0009581082849763334,0.0008849414298310876,0.0003282083198428154
1761916195853047800,6.6990478515625,0.0005993804661557078,-0.0023023297544568777,-0.0028777047991752625
1761916195863103000,6.70910302734375,-0.004209941253066063,0.0015205424278974533,0.00016909930855035782
1761916195873158000,6.719157958984375,0.0001320765441050753,-0.002512282459065318,0.0008764350786805153
1761916195883212800,6.729212890625,-0.001148442504927516,-0.0009067143546417356,0.0013332394883036613
1761916195893268700,6.739268798828125,0.00009578625031281263,-0.0000318659222102724,0.0010283077135682106
1761916195903324000,6.749323974609375,-0.000143988843774423,0.0015019350685179234,0.00032400526106357574
1761916195913379000,6.759379150390625,0.0016626996221020818,0.0021027440670877695,-0.00014231353998184204
1761916195923434000,6.76943408203125,0.00011542373249540105,-0.0025588241405785084,-0.0010625803843140602
1761916195933490000,6.779489990234375,0.0007796161225996912,-0.0011023413389921188,-0.0010271603241562843
1761916195943544800,6.789544921875,0.002746415324509144,-0.000280206702882424,-0.00248724315315485
1761916195953600000,6.79960009765625,-0.001176420715637505,0.0017094409558922052,-0.0007945382967591286
1761916195963655000,6.809655029296875,0.00021308597933966666,0.0018212093273177743,0.0004866812378168106
1761916195973709800,6.819709716796875,0.001523893908597529,0.0007732553640380502,-0.0014411816373467445
1761916195983765800,6.829765869140625,-0.0014968810137361288,-0.003675289684906602,-0.0013457750901579857
1761916195993821000,6.839821044921875,-0.0001109720760723576,0.0008539482951164246,0.0004593152552843094
1761916196003876000,6.8498759765625,0.0006876379484310746,-0.00040330554475076497,0.0003635641187429428
1761916196013931000,6.859930908203125,-0.0022719327826052904,0.001083004754036665,-0.0006721392273902893
1761916196023987000,6.869987060546875,0.0015104927588254213,-0.0010444863000884652,-0.0004889266565442085
1761916196034041900,6.880041748046875,-0.00102829874958843,-0.0016016195295378566,-0.001503591425716877
1761916196044097000,6.890096923828125,-0.0025071417912840843,0.0014794827438890934,-0.002234606072306633
1761916196054152000,6.90015185546875,0.0009570981492288411,0.00047706899931654334,-0.0005709296092391014
1761916196064206800,6.910206787109375,-0.0009117842419072986,-0.002171094296500087,0.001612907275557518
1761916196074262800,6.9202626953125,-0.0030289972200989723,0.0008004606352187693,0.0016158372163772583
1761916196084318000,6.93031787109375,0.00030548538779839873,-0.00017953664064407349,0.00035096704959869385
1761916196094372900,6.940372802734375,-0.0003587069804780185,-0.00019871140830218792,-0.0015449374914169312
1761916196104427800,6.950427734375,-0.0003705122508108616,-0.0010426364606246352,0.00022224243730306625
1761916196114483700,6.960483642578125,0.0005498762475326657,-0.0016024328069761395,0.0008134646341204643
1761916196124539000,6.970538818359375,0.0003150184638798237,0.002558619249612093,0.0009402791038155556
1761916196134594000,6.980593994140625,-0.0007142932736314833,0.0008968067122623324,0.0006459997966885567
1761916196144649000,6.99064892578125,0.001238287310115993,-0.0016052169958129525,0.0017277393490076065
1761916196154705000,7.000704833984375,0.0008806248079054058,-0.0011000153608620167,0.0006203977391123772
1761916196164759800,7.010759765625,-0.0006566648371517658,0.0007395727443508804,-0.0021958034485578537
1761916196174815000,7.02081494140625,0.0018072917591780424,-0.0004311528173275292,-0.000005086883902549744
1761916196184870000,7.030869873046875,0.0018019634298980236,0.0007777478895150125,-0.0002609342336654663
1761916196194924800,7.0409248046875,-0.0016886417288333178,-0.00021135018323548138,-0.002967504784464836
1761916196204980700,7.050980712890625,-0.0006820146227255464,0.0011564739979803562,0.002059776335954666
1761916196215036000,7.061035888671875,-0.0005131702637299895,-0.0017679432639852166,-0.0012185750529170036
1761916196225091000,7.071091064453125,0.0018266089027747512,0.0008585475152358413,-0.0024123312905430794
1761916196235145700,7.081145751953125,0.00213260599412024,0.0019808036740869284,0.0026591261848807335
1761916196245202000,7.091201904296875,0.0024369251914322376,0.00007188451127149165,0.0003797253593802452
1761916196255256800,7.1012568359375,-0.0020627519115805626,0.0008085148292593658,0.0038066813722252846
1761916196265312000,7.11131201171875,0.0012894535902887583,-0.00007124071271391585,-0.0005468921735882759
1761916196275367000,7.121366943359375,-0.0007172382902354002,0.00130960822571069,-0.002003641799092293
1761916196285421800,7.131421875,-0.00205974280834198,-0.002545346273109317,0.00018627755343914032
1761916196295477800,7.141477783203125,-0.0010477417381480336,-0.0034550821874290705,-0.002487003803253174
1761916196305533000,7.151532958984375,0.0008083765278570354,-0.0026236074045300484,-0.0006847716867923737
1761916196315588000,7.161588134765625,0.0006768163875676692,-0.00037643223186023533,0.0013269800692796707
1761916196325642800,7.171642822265625,-0.0000783520081313327,0.000265690527157858,-0.0005480470135807991
1761916196335699000,7.181698974609375,0.0008723964565433562,-0.0019631090108305216,-0.0008673602715134621
1761916196345753900,7.19175390625,-0.0004850498808082193,0.0016293002991005778,0.0019177766516804695
1761916196355809000,7.20180908203125,-0.0035127976443618536,0.0033033634535968304,0.0017294911667704582
1761916196365863700,7.21186376953125,-0.001104378723539412,-0.0013206733856350183,-0.002454129047691822
1761916196375919900,7.221919921875,-0.004024001769721508,-0.0013297281693667173,-0.00099871214479208
1761916196385974800,7.231974853515625,0.00016324724128935486,-0.002387863351032138,0.0007116636261343956
1761916196396030000,7.242030029296875,-0.0006301084067672491,0.0014675948768854141,0.0009726528078317642
1761916196406085000,7.252085205078125,-0.0006017848500050604,-0.00043491757242009044,0.00028818659484386444
1761916196416139800,7.262139892578125,0.0009686812409199774,-0.001242920639924705,-0.00015043653547763824
1761916196426196000,7.272196044921875,0.0008222446776926517,-0.00007540962542407215,-0.00034648366272449493
1761916196436251000,7.2822509765625,-0.0002616618585307151,0.0005291278939694166,0.001270853914320469
1761916196446306000,7.29230615234375,0.0009493790566921234,-0.0003597358299884945,0.0016594044864177704
1761916196456360700,7.302360595703125,4.94765117764473e-7,-0.001324066543020308,-0.0022682249546051025
1761916196466417000,7.3124169921875,0.0006464544567279518,0.000037324236473068595,-0.003136325627565384
1761916196476471800,7.322471923828125,-0.0004971069283783436,-0.0017943979473784566,0.0014512352645397186
1761916196486527000,7.33252685546875,-0.004018744919449091,-0.0008722459897398949,-0.0006679445505142212
1761916196496582100,7.34258203125,-0.0011308128014206886,0.001213275478221476,0.0003858683630824089
1761916196506636800,7.35263671875,-0.0006043807370588183,0.00019943100051023066,-0.0010379254817962646
1761916196516693000,7.36269287109375,0.0016675620572641492,0.002388815628364682,-0.0004712045192718506
1761916196526748000,7.372747802734375,0.00033995899138972163,0.0012924012262374163,-0.002407049760222435
1761916196536803000,7.382802978515625,0.0027815450448542833,-0.0005430493038147688,-0.0022086435928940773
1761916196546857700,7.392857666015625,-0.0015423933509737253,0.000008213799446821213,0.0031723324209451675
1761916196556914000,7.402913818359375,0.0012161087943241,0.00258029461838305,-0.0018293503671884537
1761916196566968800,7.41296875,0.0010440120240673423,-0.0017359512858092785,-0.0019922535866498947
1761916196577024000,7.42302392578125,-0.000902492378372699,-0.0030835105571895838,0.001033097505569458
1761916196587079000,7.433078857421875,-0.0009875698015093803,0.0006410846835933626,-0.0009046196937561035
1761916196597134800,7.443134765625,0.001952826278284192,0.0006695804768241942,-0.0019112946465611458
1761916196607190000,7.45318994140625,-0.0005175760597921908,0.0002795768086798489,-0.0002908436581492424
1761916196617245000,7.463244873046875,0.0018728772411122918,-0.0025156771298497915,-0.0013547763228416443
1761916196627300000,7.473300048828125,-0.0004113809554837644,-0.0018377183005213737,0.0015616128221154213
1761916196637355000,7.48335498046875,0.00000540376640856266,0.0013695266097784042,-0.0010240506380796432
1761916196647411200,7.4934111328125,-0.00023368751863017678,-0.0005808072746731341,-0.000799090601503849
1761916196657466000,7.503466064453125,0.001205218373797834,-0.0021078637801110744,0.000734889879822731
1761916196667521300,7.513521240234375,0.0012373636709526181,-0.00044394261203706264,0.0004937807098031044
1761916196677576200,7.523576171875,0.0015454913955181837,-0.00151906069368124,-0.0016322210431098938
1761916196687632100,7.533632080078125,-0.002192433923482895,-0.000254036916885525,0.0014314446598291397
1761916196697687000,7.54368701171875,0.0004904346424154937,-0.0002215463318862021,-0.0017057592049241066
1761916196707742200,7.5537421875,0.00047578869271092117,-0.0026373963337391615,-0.0011915229260921478
1761916196717797400,7.56379736328125,-0.00025924373767338693,-0.002916229423135519,-0.0017518512904644012
1761916196727853000,7.57385302734375,-0.00042490693158470094,0.0019437012961134315,0.0017195697873830795
1761916196737908200,7.583908203125,0.0007849670946598053,0.0013953563757240772,-0.0007134946063160896
1761916196747963100,7.593963134765625,0.000771409657318145,0.0005452256882563233,0.001627955585718155
1761916196758018300,7.604018310546875,0.00031068280804902315,-0.0016473548021167517,-0.0007648942992091179
1761916196768073000,7.614072998046875,0.0008094742079265416,0.0014745696680620313,0.0016702692955732346
1761916196778129200,7.624129150390625,-0.0027256058529019356,0.00005244164276518859,-0.002201700583100319
1761916196788184000,7.63418408203125,0.00038255180697888136,-0.0007618303643539548,0.00030666496604681015
1761916196798239200,7.6442392578125,-0.0003255826886743307,-0.0008321378263644874,-0.0014667343348264694
1761916196808294100,7.654294189453125,-0.0022005278151482344,-0.0001606743026059121,-0.00017478782683610916
1761916196818350000,7.66435009765625,0.000921495899092406,0.0012713074684143066,0.0015797028318047523
1761916196828405200,7.6744052734375,0.0004171539330855012,-0.0005998092819936574,0.0010984782129526138
1761916196838460200,7.684460205078125,0.0009713578037917614,-0.0009846360189840198,0.0015424275770783424
1761916196848515300,7.694515380859375,-0.0004425527877174318,-0.0020454537589102983,0.0005283337086439133
1761916196858571000,7.704571044921875,0.0005404199473559856,0.001542889280244708,-0.0010274853557348251
1761916196868626200,7.714626220703125,-0.00019471874111332,-0.00004131186142330989,0.0014074593782424927
1761916196878681000,7.72468115234375,-0.0004035105521325022,-0.001523094717413187,0.0004346063360571861
1761916196888736300,7.734736328125,-0.0005302703357301652,0.0004525863623712212,-0.0014935676008462906
1761916196898792200,7.744792236328125,0.0013051803689450026,-0.0025645087007433176,0.0003421492874622345
1761916196908847000,7.75484716796875,0.0007645543664693832,0.0014852359890937805,-0.003200310282409191
1761916196918902300,7.76490234375,-0.0020464120898395777,-0.0012309220619499683,0.00009641610085964203
1761916196928957200,7.774957275390625,-0.0030599799938499928,-0.0008618637220934033,0.0004637697711586952
1761916196939013000,7.78501318359375,0.002103356644511223,-0.001104744034819305,0.002407078631222248
1761916196949068000,7.795068115234375,-0.001028002006933093,-0.0008363373926840723,-0.0011760853230953217
1761916196959123200,7.805123291015625,0.0021134628914296627,-0.002068049507215619,0.00015230011194944382
1761916196969178000,7.81517822265625,-0.0005849347217008471,-0.0005778901395387948,-0.00017167534679174423
1761916196979234300,7.825234375,-0.0012408713810145855,-0.001155796111561358,0.001315433531999588
1761916196989289200,7.835289306640625,-0.0010485651437193155,0.0017902199178934097,-0.001873745582997799
1761916196999344000,7.84534423828125,-0.0015186130767688155,0.0011619802098721266,-0.0004122024402022362
1761916197009399300,7.8553994140625,0.001204037806019187,0.0032201590947806835,-0.0014339182525873184
1761916197019454200,7.8654541015625,-0.0017336951568722725,0.0009410257334820926,-0.00005173776298761368
1761916197029510100,7.87551025390625,0.0007961163064464927,0.00150075473356992,-0.001081773079931736
1761916197039565000,7.88556494140625,0.0023929476737976074,-0.00029501470271497965,0.00028416234999895096
1761916197049620200,7.8956201171875,0.0010252897627651691,0.001982487505301833,-0.0010077068582177162
1761916197059675100,7.905675048828125,0.00018213290604762733,0.0003883191093336791,-0.002011452801525593
1761916197069731300,7.9157314453125,-0.0021183374337852,-0.0017729338724166155,-0.0011849934235215187
1761916197079786000,7.925785888671875,0.0006372353527694941,-0.0014552187640219927,0.0008941367268562317
1761916197089841200,7.935841064453125,0.00036229865509085357,0.00069872458698228,-0.00010247435420751572
1761916197099896300,7.945896240234375,0.0009295520139858127,-0.0009660174255259335,0.0004525287076830864
1761916197109952300,7.9559521484375,-0.00018695497419685125,-0.0017238163854926825,-0.001668873243033886
1761916197120007200,7.966007080078125,-0.0011518182000145316,-0.0009645491372793913,0.0011178581044077873
1761916197130062000,7.97606201171875,-0.0003183111548423767,0.0010699431877583265,0.002224336378276348
1761916197140117200,7.9861171875,-0.00021444790763780475,0.002035605488345027,-0.0006121965125203133
1761916197150173200,7.996173095703125,-0.000773379229940474,0.0004353600670583546,-0.00008726585656404495
1761916197160228400,8.006228271484375,-0.0031518484465777874,0.001415936043485999,0.0006429720669984818
1761916197170283000,8.016282958984375,0.001612046966329217,-0.0013203371781855822,-0.0004155244678258896
1761916197180338200,8.026338134765625,0.0011076442897319794,-0.0017978419782593846,-0.0013534892350435257
1761916197190394000,8.03639404296875,0.0008212823886424303,0.0010509865824133158,-0.002329312264919281
1761916197200449300,8.04644921875,-0.0011811483418568969,0.0022605943959206343,-0.004374886397272348
1761916197210504000,8.05650390625,0.0030590351670980453,0.0002788278507068753,0.0011231368407607079
1761916197220559000,8.06655908203125,-0.0012148057576268911,-0.0012434349628165364,0.0017737466841936111
1761916197230615000,8.076614990234376,-0.00042204337660223246,-0.0020322357304394245,-0.0013614967465400696
1761916197240670200,8.086670166015624,-0.0007983480463735759,-0.0013246340677142143,0.004650057293474674
1761916197250725400,8.096725341796875,-0.0012644832022488117,0.001444780034944415,-0.0015465635806322098
1761916197260780000,8.106780029296875,-0.0018466501496732235,0.0005081463605165482,0.0002318955957889557
1761916197270836200,8.116836181640625,0.00048001192044466734,-0.0022640323732048273,0.001412966288626194
1761916197280891100,8.12689111328125,0.002103474922478199,-0.0002922280109487474,0.0016923323273658752
1761916197290946300,8.1369462890625,-0.0009542966727167368,-0.00017855162150226533,0.0008037248626351357
1761916197301001000,8.1470009765625,-0.00021713375463150442,0.002503517782315612,0.0008668424561619759
1761916197311057200,8.15705712890625,-0.001939128153026104,0.001006856095045805,-0.0006672842428088188
1761916197321112000,8.167112060546875,-0.0016009067185223103,0.0005373407620936632,0.0003002416342496872
1761916197331167200,8.177167236328126,0.0019680368714034557,0.000005809646609122865,0.002614762634038925
1761916197341222400,8.187222412109374,0.0019978643395006657,0.0021962597966194153,-0.0014268504455685616
1761916197351278000,8.197278076171875,-0.0006185281090438366,0.0010394687997177243,-0.0011049220338463783
1761916197361333200,8.207333251953125,-0.0007620725082233548,-0.0008630935335531831,-0.0001954520121216774
1761916197371388200,8.21738818359375,0.0015179053880274296,-0.0011274823918938637,-0.0016275597736239433
1761916197381443300,8.227443359375,0.001028416445478797,-0.0009176252642646432,-0.00003232620656490326
1761916197391498000,8.237498046875,0.0002265077200718224,0.0012035912368446589,0.0023207655176520348
1761916197401554200,8.24755419921875,-0.0031381298322230577,0.0013362165773287416,-0.0005543837323784828
1761916197411609000,8.257609130859375,0.001577173825353384,-0.0027045959141105413,-0.0001991037279367447
1761916197421664300,8.267664306640626,-0.0009919776348397136,0.0005503194406628609,-0.0017887447029352188
1761916197431719200,8.27771923828125,-0.000621521845459938,0.00005734529622714035,-0.0011486979201436043
1761916197441775000,8.287775146484375,0.0005412143073044717,0.0016674924409016967,-0.001194504089653492
1761916197451830300,8.297830322265625,0.0017869677394628525,-0.0010982892708852887,-0.0007656952366232872
1761916197461885200,8.30788525390625,-0.0017076320946216583,-0.0006615308811888099,-0.0020530670881271362
1761916197471940400,8.3179404296875,0.00041021735523827374,0.0016774543328210711,0.00216545257717371
1761916197481996000,8.32799609375,-0.00040684043779037893,-0.00045094400411471725,0.0020938143134117126
1761916197492051200,8.33805126953125,-0.0004600263200700283,0.00005424108530860394,0.0003887815400958061
1761916197502106000,8.348106201171875,-0.00009916798444464803,-0.0011833299649879336,0.0003498997539281845
1761916197512161300,8.358161376953126,-0.0020553856156766415,-0.000938595796469599,0.0012215599417686462
1761916197522217200,8.36821728515625,-0.00041541113751009107,0.0007743493770249188,0.0013091778382658958
1761916197532272000,8.378272216796875,0.0004445379017852247,-0.00007026955427136272,0.00015185773372650146
1761916197542327000,8.3883271484375,-0.0013136810157448053,-0.0018199663609266281,-0.0011605480685830116
1761916197552382200,8.39838232421875,-0.003321656258776784,-0.0013619218952953815,0.0005879262462258339
1761916197562438100,8.408438232421876,0.0009902678430080414,-0.002450621919706464,0.0007511777803301811
1761916197572493000,8.4184931640625,-0.0017489985330030322,-0.000882612366694957,0.00007834285497665405
1761916197582548200,8.42854833984375,0.0005431841127574444,0.00010115936311194673,-0.0020615067332983017
1761916197592603100,8.43860302734375,0.0004997208015993237,0.0014512966154143214,0.0025809798389673233
1761916197602659300,8.448659423828126,-0.00018098315922543406,0.0003370300109963864,-0.002149859443306923
1761916197612714000,8.4587138671875,0.0016349989455193281,0.0014433012111112475,-0.0017682760953903198
1761916197622769200,8.46876904296875,-0.0007762271561659873,0.00033302936935797334,0.00004107598215341568
1761916197632824000,8.478823974609375,-0.00217906991019845,-0.00044780271127820015,-0.0025413427501916885
1761916197642879500,8.48887939453125,-0.0006203217199072242,-0.00040093105053529143,-0.0001940326765179634
1761916197652934700,8.4989345703125,0.0011962682474404573,-0.0026186297181993723,0.0004166560247540474
1761916197662989600,8.508989501953126,0.0001871965068858117,-0.00015360795077867806,0.0013245278969407082
1761916197673044500,8.51904443359375,0.0003879742871504277,-0.00046726223081350327,0.00018340535461902618
1761916197683100400,8.529100341796875,0.0026207685004919767,0.00044007677934132516,0.00009392295032739639
1761916197693155600,8.539155517578125,0.0021035794634371996,-0.0007877590833231807,0.0026092594489455223
1761916197703210500,8.54921044921875,0.0017160895513370633,-0.0009739141096360981,-0.0003316691145300865
1761916197713265700,8.559265625,0.001136342529207468,-0.0006198894698172808,-0.0017816321924328804
1761916197723321300,8.5693212890625,-0.0007933839806355536,0.0015785499708727002,-0.0009810859337449074
1761916197733376500,8.57937646484375,-0.0009063562611117959,-0.0006660560029558837,0.0009586075320839882
1761916197743431700,8.589431640625,-0.00031726504676043987,-0.00024341235985048115,0.00018975324928760529
1761916197753486600,8.599486572265626,0.0016233325004577637,-0.00023854510800447315,-0.002398274838924408
1761916197763544600,8.609544677734375,-0.0009221169748343527,0.0002088659384753555,-0.0003766687586903572
1761916197773600500,8.6196005859375,0.0012954747071489692,0.000712975044734776,0.0044654374942183495
1761916197783655700,8.62965576171875,0.0025125392712652683,0.001899945898912847,0.0009926753118634224
1761916197793710600,8.639710693359374,-0.0016672636847943068,-0.00001245679595740512,-0.002523955889046192
1761916197803765500,8.649765625,-0.00041717587737366557,-0.0019938487093895674,-0.0004173954948782921
1761916197813821400,8.659821533203125,0.0001262462610611692,0.002817117143422365,0.0024383440613746643
1761916197823876600,8.669876708984376,0.0030613162089139223,0.001094318344257772,-0.0017809020355343819
1761916197833931500,8.679931640625,-0.000700904696714133,0.0009046378545463085,-0.00033183861523866653
1761916197843986400,8.689986328125,0.00018033530795946717,0.0005355237517505884,-0.0014935098588466644
1761916197854042600,8.700042724609375,0.000767275458201766,0.0023079784587025642,-0.00017699599266052246
1761916197864097500,8.71009765625,0.0017028439324349165,-0.0005176354898139834,-0.0013621021062135696
1761916197874152700,8.720152587890626,-0.0024328038562089205,0.0026992508210241795,0.0005565956234931946
1761916197884207400,8.730207275390624,0.0005832259776070714,-0.002552236430346966,0.0001768292859196663
1761916197894263600,8.740263671875,0.0009244441171176732,0.0006125126383267343,0.0005666101351380348
1761916197904318500,8.750318359375,0.00036251716664992273,0.0014197167474776506,0.0014004465192556381
1761916197914373600,8.76037353515625,0.0009407596662640572,-0.0023186847101897,0.0004149787127971649
1761916197924428500,8.770428466796876,0.0015580804320052266,-0.0025162913370877504,-0.0019139554351568222
1761916197934484500,8.780484375,-0.0007282734732143581,-0.001756419544108212,-0.0016439808532595634
1761916197944539600,8.79053955078125,0.0020217066630721092,0.0003892892855219543,-0.0014189435169100761
1761916197954594600,8.800594482421875,-0.0016026976518332958,-0.0014767209067940712,0.0005868682637810707
1761916197964649500,8.8106494140625,0.0007185135036706924,0.003104448551312089,-0.0005162134766578674
1761916197974705400,8.820705322265624,-0.0004658539255615324,-0.0007552978349849582,-0.0006901603192090988
1761916197984760600,8.830760498046875,-0.0010091387666761875,0.0011877445504069328,-0.000035288743674755096
1761916197994815500,8.8408154296875,0.0018535790732130408,0.0028622725512832403,0.0011399947106838226
1761916198004870700,8.85087060546875,-0.000013296841643750668,-0.000363081693649292,-0.0018206406384706497
1761916198014926300,8.86092626953125,0.0002875194186344743,0.002172075677663088,0.0012823399156332016
1761916198024981500,8.8709814453125,0.00009470654185861349,-0.00015978813462425023,0.00005382392555475235
1761916198035036700,8.88103662109375,-0.0005283451173454523,0.00023911366588436067,0.00030688848346471786
1761916198045091600,8.891091552734375,-0.0016905487282201648,-0.000996060436591506,-0.0011962000280618668
1761916198055147500,8.9011474609375,0.0021849924232810736,-0.0007928707636892796,0.0008837468922138214
1761916198065202400,8.911202392578126,-0.0009127965895459056,0.001841528108343482,-0.0019919341430068016
1761916198075257600,8.921257568359374,0.001507082604803145,0.00038448983104899526,0.0015248879790306091
1761916198085312500,8.9313125,-0.0001834920549299568,0.0010311054065823555,0.0008668210357427597
1761916198095368700,8.94136865234375,-0.00017327102250419557,-0.00045453751226887107,0.0014257747679948807
1761916198105423400,8.95142333984375,-0.0012523839250206947,0.0032312774565070868,-0.0018965182825922966
1761916198115478500,8.961478515625,-0.000919403275474906,-0.00033589740633033216,0.0005326010286808014
1761916198125533700,8.97153369140625,0.0006452038651332259,0.00048808465362526476,0.000565623864531517
1761916198135589600,8.981589599609375,0.0005356266628950834,0.0014436268247663975,-0.0006467103958129883
1761916198145644500,8.99164453125,-0.0008361676591448486,0.0032428584527224302,-0.0014627035707235336
1761916198155699500,9.001699462890626,0.0005710572586394846,0.003461406799033284,0.000411023385822773
1761916198165754600,9.011754638671874,0.0013612171169370413,-0.0006108327652327716,0.00009916722774505615
1761916198175810600,9.021810546875,0.0018826834857463837,-0.000754411390516907,-0.00015878677368164062
1761916198185865700,9.03186572265625,0.00137188914231956,0.0002607855712994933,0.000057196244597435
1761916198195920400,9.04192041015625,-0.00011449231533333659,-0.0003709078300744295,-0.0012409621849656105
1761916198205975600,9.0519755859375,-0.0017030679155141115,0.0005044731660746038,0.0009425636380910873
1761916198216031500,9.062031494140625,0.0016014357097446918,0.0011626872001215816,0.0015566237270832062
1761916198226086700,9.072086669921875,0.00009435287211090326,-0.00011243426706641912,-0.0012657949700951576
1761916198236141600,9.0821416015625,-0.0006939232116565108,0.0015570224495604634,-0.0016498789191246033
1761916198246196500,9.092196533203126,0.00076628802344203,0.00043956004083156586,0.0014026369899511337
1761916198256252400,9.10225244140625,-0.00004544929834082723,-0.0017148773185908794,-0.0018011145293712616
1761916198266307600,9.1123076171875,0.0006592231220565736,0.000952278496697545,-0.0006506284698843956
1761916198276362800,9.12236279296875,0.0003320896066725254,-0.0008965713204815984,-0.0024617407470941544
1761916198286417400,9.13241748046875,0.001300947624258697,-0.0013889898546040058,-0.00006622821092605591
1761916198296473600,9.1424736328125,-0.00033618923043832183,0.0018417427781969309,-0.0015616193413734436
1761916198306528500,9.152528564453124,-0.0008328688563778996,0.0024524058680981398,0.0006416141986846924
1761916198316583700,9.162583740234375,-0.001580534502863884,0.0035850743297487497,-0.002387470565736294
1761916198326638300,9.172638427734375,-0.0005823817336931825,-0.001489046378992498,0.0015542740002274513
1761916198336694500,9.182694580078126,-0.00013230709009803832,0.0009493944235146046,-0.00032936129719018936
1761916198346749400,9.19274951171875,0.0013263062573969364,-0.00007379206363111734,-0.0018982300534844398
1761916198356804600,9.2028046875,0.00011038464435841888,0.00009904585022013634,-0.00022262148559093475
1761916198366859500,9.212859619140625,0.000060583523008972406,-0.00278249429538846,-0.001790158450603485
1761916198376915500,9.22291552734375,-0.0005496933590620756,-0.00019310878997202963,0.0018442431464791298
1761916198386970600,9.232970703125,-0.0007779262959957123,-0.00033931632060557604,0.0009614052250981331
1761916198397025500,9.243025634765624,-0.0007902836659923196,-0.0011443052208051085,0.0011181654408574104
1761916198407080700,9.253080810546875,-0.0002997293195221573,0.0014706526417285204,-0.003567666746675968
1761916198417136400,9.263136474609375,0.0007147551514208317,-0.001089616329409182,0.00031906086951494217
1761916198427191600,9.273191650390626,0.0006439150893129408,-0.001109589939005673,-0.0016647269949316978
1761916198437246500,9.28324658203125,-0.0031235136557370424,0.0019513905281201005,-0.0007358705624938011
1761916198447301600,9.293301513671874,-0.0015802120324224234,0.00236710999161005,-0.0013811541721224785
1761916198457357600,9.303357666015625,-0.00030072309891693294,0.0008444787235930562,-0.0016469405964016914
1761916198467412500,9.31341259765625,0.0008910414762794971,-0.0006817788816988468,-0.0011848825961351395
1761916198477467600,9.323467529296876,-0.0008306836243718863,0.00030892144422978163,0.0005561830475926399
1761916198487522600,9.3335224609375,-0.002135366201400757,0.0010378286242485046,0.000280013307929039
1761916198497578500,9.34357861328125,0.0007245832239277661,-0.0028678267262876034,0.0006349598988890648
1761916198507633400,9.35363330078125,0.0005573367234319448,-0.0012760553508996964,-0.0012737270444631577
1761916198517688600,9.3636884765625,0.0009695845656096935,-0.0011905442224815488,0.00008124858140945435
1761916198527743500,9.373743408203126,0.0009315013303421438,-0.0005372707964852452,-0.0014213062822818756
1761916198537799700,9.383799560546874,-0.0013993596658110619,0.0025530371349304914,0.00027694087475538254
1761916198547854300,9.393854248046875,-0.00028242997359484434,-0.0015708678402006626,-0.0022999336943030357
1761916198557909500,9.403909423828125,0.00017476861830800772,-0.00012303133553359658,0.0008734855800867081
1761916198567964700,9.413964599609375,0.0013542826054617763,-0.000651668815407902,0.00014298036694526672
1761916198578020600,9.4240205078125,-0.0009758198284544051,-0.001592308864928782,-0.0004610251635313034
1761916198588075500,9.434075439453125,0.00025456055300310254,-0.002981946337968111,-0.0020437417551875114
1761916198598130400,9.44413037109375,0.0028054071590304375,0.0004782932228408754,0.002385847270488739
1761916198608185600,9.454185546875,-0.00046495452988892794,-0.0016447787638753653,0.00021936558187007904
1761916198618241500,9.464241455078126,0.0009794391226023436,-0.004200944676995277,-0.002103624865412712
1761916198628296700,9.474296630859374,0.00022390027879737318,-0.0022395264822989702,0.0033952705562114716
1761916198638351600,9.4843515625,0.0012866132892668247,-0.0003314824716653675,-0.000046620145440101624
1761916198648406800,9.49440673828125,0.0013790249358862638,-0.00007422112685162574,-0.0011781975626945496
1761916198658462700,9.504462646484376,0.00024294029572047293,0.0008498969255015254,-0.00219827052205801
1761916198668518000,9.514517822265624,0.0015675965696573257,-0.002769072772935033,-0.0014347424730658531
1761916198678572500,9.524572509765624,0.000866662769112736,-0.00021472435037139803,-0.0017746184021234512
1761916198688627700,9.534627685546875,0.000048273359425365925,-0.0022903920616954565,-0.0013871286064386368
1761916198698683600,9.54468359375,-0.0011816720943897963,0.00006570479308720678,-0.00025599822402000427
1761916198708738800,9.55473876953125,0.0016966722905635834,0.0013155261985957623,-0.0010877037420868874
1761916198718793700,9.564793701171874,0.0008067734306678176,0.002055855467915535,-0.0009660059586167336
1761916198728848600,9.5748486328125,-0.0010715541429817677,-0.0009202270884998143,0.00021004583686590195
1761916198738904800,9.58490478515625,-0.0027838689275085926,-0.002050959039479494,-0.0014104768633842468
1761916198748959700,9.594959716796875,0.0003410843783058226,0.00258507183752954,0.002314220182597637
1761916198759014700,9.6050146484375,0.0002436108043184504,0.0015716555062681437,0.00006181374192237854
1761916198769069600,9.615069580078124,-0.00010499698692001402,0.0000794863881310448,-0.0016900142654776573
1761916198779125800,9.625125732421875,-0.00003671113518066704,-0.00013090371794532984,-0.0020572738721966743
1761916198789180700,9.6351806640625,0.0008778183837421238,0.000056316501286346465,-0.001012781634926796
1761916198799235800,9.64523583984375,0.0007677784888073802,-0.002132681431248784,-0.001406317576766014
1761916198809290800,9.655290771484376,0.0009304976556450129,0.0012284942204132676,0.002751409076154232
1761916198819346700,9.6653466796875,0.00016387504001613706,0.0017396050971001387,0.002678900957107544
1761916198829401900,9.67540185546875,-0.00036769191501662135,0.004692784510552883,0.0004985714331269264
1761916198839456800,9.685456787109375,0.0018822250422090292,-0.00016858403978403658,-0.0014559822157025337
1761916198849511700,9.69551171875,-0.0018379446119070053,0.0010101310908794403,-0.0005086958408355713
1761916198859567600,9.705567626953124,-0.00040608865674585104,0.00016569664876442403,0.002041744999587536
1761916198869622800,9.715622802734375,-0.00048092351062223315,0.00033427475136704743,-0.00016574934124946594
1761916198879677700,9.725677734375,0.00001293880632147193,0.0012718993239104748,-0.0026483042165637016
1761916198889732600,9.735732666015625,0.0011961812851950526,-0.0005121522699482739,-0.0007659820839762688
1761916198899788500,9.74578857421875,0.0010112207382917404,0.001412910525687039,-0.0013821907341480255
1761916198909843700,9.75584375,-0.002078312449157238,0.001082944916561246,-0.00012384727597236633
1761916198919898600,9.765898681640625,-0.001722533255815506,-0.000587065180297941,-0.0009845783933997154
1761916198929953800,9.775953857421875,0.0013435641303658485,0.00159140070900321,0.0024586226791143417
1761916198940009500,9.786009521484376,-0.0006107746157795191,0.0035967270378023386,0.0011047590523958206
1761916198950064600,9.796064697265624,-0.0007497916230931878,0.000998280942440033,0.002125282771885395
1761916198960119800,9.806119873046875,-0.0000857695413287729,-0.0020281446631997824,0.001157655380666256
1761916198970174700,9.8161748046875,0.00031157408375293016,-0.00020068355661351234,0.00003832858055830002
1761916198980231000,9.82623095703125,0.00147580960765481,0.0003972790436819196,-0.00005533173680305481
1761916198990285600,9.83628564453125,-0.0007037214818410575,0.0021272683516144753,-0.002450312487781048
1761916199000340700,9.8463408203125,-0.0014979590196162462,-0.0009227865375578403,-0.0010659107938408852
1761916199010395600,9.856395751953125,-0.0019459027098491788,-0.0003203794767614454,-0.0003135679289698601
1761916199020451800,9.866451904296875,0.00039721670327708125,0.0013023355277255177,0.0009850692003965378
1761916199030506500,9.876506591796876,-0.0003306252183392644,0.001192879630252719,-0.0006815362721681595
1761916199040561700,9.886561767578126,-0.0010746617335826159,0.002050891285762191,-0.002077048644423485
1761916199050616800,9.896616943359374,-0.0009606784442439675,0.0006247686687856913,0.0010433774441480637
1761916199060672800,9.9066728515625,-0.0004947891575284302,-0.003059156471863389,-0.001565929502248764
1761916199070728000,9.91672802734375,-0.00025723519502207637,0.0010535630863159895,-0.0006788307800889015
1761916199080782600,9.926782470703126,-0.001417807536199689,0.0004695859388448298,0.0034310268238186836
1761916199090837800,9.936837646484374,0.0039236946031451225,0.018504779785871506,0.01228577084839344
1761916199100893700,9.946893798828125,0.0024447233881801367,0.12848468124866486,0.04710514098405838
1761916199110948900,9.956948974609375,-0.0019777219276875257,0.17603462934494019,0.05589303746819496
1761916199121003500,9.96700341796875,-0.0000508816447108984,0.09022528678178787,0.031452879309654236
1761916199131058700,9.97705859375,-0.0014975108206272125,-0.02105143293738365,0.0069059934467077255
1761916199141114600,9.987114501953124,-0.002164025790989399,-0.06163163110613823,-0.011093954555690289
1761916199151169800,9.997169677734375,0.00007675783126614988,-0.03183618560433388,-0.012795181944966316
1761916199161224700,10.007224609375,0.0013897957978770137,-0.02426319383084774,-0.022617973387241364
1761916199171279600,10.017279541015625,-0.0027397016528993845,-0.0712413564324379,-0.04377998411655426
1761916199181335800,10.027335693359374,0.0010597791988402605,-0.13984081149101257,-0.049789909273386
1761916199191390700,10.037390625,-0.004490248393267393,-0.11874884366989136,-0.017117448151111603
1761916199201446000,10.04744580078125,0.0002744693192653358,0.03915613889694214,0.0109098507091403
