time,seconds_elapsed,z,y,x
1761914291620913400,0.117913330078125,0.23230185844302176,-0.6762763365373015,-0.5718534737061709
1761914291630969600,0.127969482421875,0.12171966926455496,-0.6327694955050945,-0.5651846634667367
1761914291641025500,0.138025634765625,-0.010762801554799079,-0.5111848507970571,-0.5752020169490948
1761914291651081500,0.14808154296875,-0.1295966862499714,-0.4021002066999674,-0.5877460028322413
1761914291661137700,0.1581376953125,-0.3045364890486002,-0.3333122094169259,-0.6049523179706185
1761914291671193300,0.168193359375,-0.4780319382578134,-0.4208320874378085,-0.5886866812158376
1761914291681249000,0.1782490234375,-0.5330769491314887,-0.6491860850378871,-0.5324599132116884
1761914291691305000,0.188304931640625,-0.47133857809901236,-0.7163596328616142,-0.49820400786660607
1761914291701361000,0.19836083984375,-0.3970207114785909,-0.6663488167628645,-0.5323709197539835
1761914291711416800,0.208416748046875,-0.4034335011303425,-0.6146805888459086,-0.5708043665120378
1761914291721473000,0.21847314453125,-0.5705722747892141,-0.4926502461969852,-0.5205211266800761
1761914291731529000,0.228529052734375,-0.8376701368033885,-0.27765491186380387,-0.4135054343441501
1761914291741585000,0.2385849609375,-1.157293720346689,-0.002131166809797287,-0.276976391547732
1761914291751640800,0.248640869140625,-1.3530758201658726,0.2099485723376274,-0.1323932033670135
1761914291761696800,0.25869677734375,-1.3685872775524854,0.28757132572233673,-0.053733252421673386
1761914291771753000,0.2687529296875,-1.361748955965042,0.23030220905840396,-0.02425030623259954
1761914291781809000,0.278808837890625,-1.3686901534050702,0.22100480388104915,-0.09431699081510304
1761914291791864800,0.28886474609375,-1.3846832568287848,0.26829671640992164,-0.27464524518642575
1761914291801920800,0.298920654296875,-1.4301578908026218,0.3516349248319864,-0.44053471290394663
1761914291811978000,0.30897802734375,-1.5420768815428019,0.4251040656685829,-0.5176593805734068
1761914291822034000,0.319033935546875,-1.5377373910337686,0.4465577725857496,-0.5179189813576638
1761914291832089900,0.32908984375,-1.4776397729456423,0.4959317520856857,-0.467597930265963
1761914291842145800,0.339145751953125,-1.3839847531706093,0.5146487275153399,-0.3894027107555419
1761914291852202000,0.349201904296875,-1.173083410152793,0.4312672644734382,-0.32793636159747835
1761914291862258000,0.3592578125,-0.9441267704844474,0.37063363981246944,-0.3202842028765008
1761914291872313900,0.36931396484375,-0.7037111636906862,0.38373160631656644,-0.32459786482453346
1761914291882370000,0.3793701171875,-0.4498901318788528,0.4307072925031185,-0.30648053578846157
1761914291892425700,0.38942578125,-0.2710334478974342,0.5197784916192293,-0.2623234141539782
1761914291902482000,0.39948193359375,-0.13168810557126998,0.582120673763752,-0.16892028678078203
1761914291912537900,0.409537841796875,0.013444003462791442,0.6439104827225208,-0.07025189582314342
1761914291922593800,0.41959375,0.15981939055621622,0.7199030045568943,0.029583529619872567
1761914291932649700,0.429649658203125,0.27124504482150075,0.816585263198614,0.082653112234734
1761914291942706000,0.439705810546875,0.3221785287231207,0.9093494716137647,0.13644008587133138
1761914291952761900,0.449761962890625,0.3297533478915691,0.9985346524983644,0.18171400964129716
1761914291962817800,0.45981787109375,0.37160219258368016,1.0364672005295752,0.22519571623224763
1761914291972874000,0.4698740234375,0.4474152661979198,1.0527630862921475,0.2603412638934329
1761914291982930000,0.479929931640625,0.5189034623503684,1.077718079328537,0.2880874220183119
1761914291992985900,0.48998583984375,0.5672668035030365,1.105696804100275,0.30266916080676015
1761914292003042000,0.5000419921875,0.5578133309811353,1.1215203961759805,0.30592443627566096
1761914292013097700,0.51009765625,0.5726175168812274,1.1739303823709488,0.3254750860504806
1761914292023153700,0.520153564453125,0.5536743314802647,1.2075965051293371,0.35397019937913865
1761914292033211000,0.5302109375,0.5021744458675385,1.276326342484355,0.4078847814507782
1761914292043266800,0.540266845703125,0.5029460147619247,1.3073340596884488,0.4578492376571521
1761914292053322800,0.55032275390625,0.4642904131531715,1.2973252913713453,0.501721989392303
1761914292063378700,0.560378662109375,0.4300216483265161,1.2743038967460394,0.5011106160283089
1761914292073435000,0.570434814453125,0.45914311339259145,1.2108131290882824,0.4569407079774886
1761914292083490800,0.58049072265625,0.4877209731012582,1.1299907028794287,0.4406703950475901
1761914292093546800,0.590546630859375,0.44402854636907574,1.0056909539937973,0.42165348682329057
1761914292103603000,0.60060302734375,0.42147652282118797,0.9341671020060777,0.3921569778997451
1761914292113659000,0.610658935546875,0.36565351331233975,0.8889332910507917,0.3341513636548072
1761914292123714800,0.62071484375,0.28101941986083984,0.8463771748721599,0.26136914563644675
1761914292133771000,0.63077099609375,0.183701201403141,0.80682024050951,0.1871123250208795
1761914292143827000,0.640826904296875,0.16040917314291,0.7595341731995344,0.14961002163309603
1761914292153883000,0.6508828125,0.08316577446460724,0.720196434545517,0.13490049174651503
1761914292163939000,0.66093896484375,-0.02492576694190502,0.6936030266523361,0.09534852581992745
1761914292173994800,0.670994873046875,-0.04771685994267463,0.652259793394804,-0.021964359853044152
1761914292184050700,0.68105078125,-0.044237785655260084,0.5796674353927374,-0.1502422916546464
1761914292194107000,0.69110693359375,-0.04517126711308956,0.44621173562705513,-0.24257187151219695
1761914292204162800,0.701162841796875,-0.011661796221137046,0.2928063037663698,-0.31478955098297445
1761914292214218800,0.71121875,0.010079495465755463,0.15448562831282614,-0.3659136986184865
1761914292224275000,0.72127490234375,0.04177694849967956,0.039164720174670216,-0.4045325484134257
1761914292234331000,0.731330810546875,0.06292378142476081,-0.03801379657387733,-0.41110038249641656
1761914292244387800,0.741387939453125,0.11030161867141723,-0.07660451625287533,-0.4034384695664048
1761914292254443800,0.75144384765625,0.12462298949062824,-0.06325462081432343,-0.3873745659288019
1761914292264500000,0.7615,0.16007015044689177,-0.05507365244626999,-0.35085962961055334
1761914292274556000,0.771555908203125,0.2590431503742933,-0.0771107122093439,-0.32175705190803855
1761914292284611800,0.78161181640625,0.36614743430912494,-0.12323767261207103,-0.28446313057392836
1761914292294668000,0.79166796875,0.3961638023883104,-0.15901275034844875,-0.268047308226116
1761914292304724000,0.801723876953125,0.4215887510240078,-0.19806758040785788,-0.2889076158273965
1761914292314780000,0.81177978515625,0.4015893345683813,-0.24277824427187442,-0.3279629573434591
1761914292324835800,0.8218359375,0.3489069611728191,-0.2670826644450426,-0.3926877968408167
1761914292334891800,0.831891845703125,0.3335737829625606,-0.26984569941759107,-0.4184740896021947
1761914292344947700,0.84194775390625,0.4064069639831781,-0.2801800464272499,-0.41140627010781317
1761914292355004000,0.85200390625,0.46022447888851165,-0.32057518517971034,-0.4116098298558965
1761914292365059800,0.862059814453125,0.49034839899539945,-0.32114450950026513,-0.4575169004302472
1761914292375115800,0.87211572265625,0.4815145196765661,-0.3181061647176742,-0.5199999888828024
1761914292385172000,0.882171875,0.4616027815043926,-0.31940847948789597,-0.5816867393258959
1761914292395228000,0.892227783203125,0.461027611964941,-0.3246101397842169,-0.6340966524556279
1761914292405283800,0.902283935546875,0.47906361939311026,-0.350811333489418,-0.6542297782935201
1761914292415340000,0.912340087890625,0.49973757410943503,-0.39353111579716205,-0.6552338407695293
1761914292425396000,0.92239599609375,0.5043634803444147,-0.4530179085105657,-0.603864230472967
1761914292435452000,0.932451904296875,0.47902737903594966,-0.5595756644785403,-0.4853532575892284
1761914292445507800,0.9425078125,0.4627852692872286,-0.6850391964465379,-0.3322272637244314
1761914292455565000,0.95256494140625,0.394998850262165,-0.7867962741345167,-0.17669672946855425
1761914292465621000,0.96262109375,0.2503051326453686,-0.7715899371743202,-0.06207593242377042
1761914292475676700,0.9726767578125,0.0878600697606802,-0.691430358788371,0.03330474210008979
1761914292485732900,0.98273291015625,-0.04544657692313194,-0.6228308698147534,0.14147691099476067
1761914292495788800,0.992788818359375,-0.17284312278032302,-0.4584592227816581,0.24303488591406494
1761914292505844700,1.0028447265625,-0.21629355745017528,-0.28862580321133136,0.35332974605113265
1761914292515901000,1.01290087890625,-0.17902970246076583,-0.2763724708378315,0.48751306597162036
1761914292525956900,1.022956787109375,-0.028589550146460533,-0.5604296509593725,0.6783386758945882
1761914292536012800,1.0330126953125,-0.00475917722582817,-0.9930074135094881,0.7886608989626168
1761914292546069000,1.043069091796875,0.03876607624590397,-1.0979834532439707,0.7708877071890979
1761914292556125000,1.053125,0.14153963750004767,-1.0029092143207787,0.6133960289280861
1761914292566180900,1.063180908203125,0.1813712971508503,-0.8573305305629968,0.49185657506864516
1761914292576237000,1.073237060546875,0.14934884994626044,-0.7350187406241894,0.42798985023796554
1761914292586293000,1.08329296875,0.07686053684055805,-0.596462502849102,0.3936263197999447
1761914292596349000,1.093348876953125,0.1068564466536045,-0.464686718994379,0.4190362535296008
1761914292606404900,1.10340478515625,0.17290683566629886,-0.44421851598322387,0.4690762591902166
1761914292616460800,1.113460693359375,0.2173024422317743,-0.41781566222608085,0.5187196667486802
1761914292626516700,1.123516845703125,0.25813071170449253,-0.3420399980127811,0.5678254237664863
1761914292636573000,1.133572998046875,0.36594226712584493,-0.3218669785559177,0.5933304519010707
1761914292646628900,1.14362890625,0.39836335825920105,-0.2995540244609117,0.6482240350726991
1761914292656684800,1.153684814453125,0.4792009820371866,-0.3823305073469877,0.7296697808116674
1761914292666741000,1.163740966796875,0.5695142901688813,-0.6084206516683102,0.8013318722262978
1761914292676798000,1.1737978515625,0.6165244631469249,-0.7933207074671983,0.8805240668848157
1761914292686855000,1.18385498046875,0.6640624593913554,-0.9256745834708213,0.909656272540614
1761914292696910800,1.193910888671875,0.6614905630767345,-1.038819316613674,0.8983766075048595
1761914292706966800,1.203966796875,0.5985282032072544,-1.1321773992687463,0.8799311424929648
1761914292717023000,1.21402294921875,0.47292029433250427,-1.1291197652637959,0.8530147862557321
1761914292727079000,1.224078857421875,0.3255284236729145,-0.994540614426136,0.7937257811367511
1761914292737134800,1.234134765625,0.07958908502161502,-0.8306085278540849,0.7108114972151816
1761914292747191000,1.24419091796875,-0.14625789819359777,-0.6970557974547147,0.6040873717043549
1761914292757247000,1.2542470703125,-0.3848474586039781,-0.5462170012116432,0.4854675681512803
1761914292767303000,1.264302978515625,-0.6154360833883286,-0.3785784613370895,0.3097598497200757
1761914292777358800,1.27435888671875,-0.7615367451936006,-0.22825638244450092,0.09254760652240365
1761914292787414800,1.284414794921875,-0.7809101387053727,-0.07346855631470679,-0.13352942258901893
1761914292797470700,1.294470703125,-0.818608877980709,0.10027414565384388,-0.3634016061997041
1761914292807527000,1.30452685546875,-0.885792070415616,0.3122171066790819,-0.49947589096594597
1761914292817582800,1.314582763671875,-1.004309728768468,0.5137596697211265,-0.5679954100385308
1761914292827638800,1.324638671875,-1.026460185778141,0.628400778901577,-0.5548051256084814
1761914292837695000,1.334695068359375,-1.0236825377583503,0.7591758612811565,-0.6152144034616649
1761914292847751000,1.3447509765625,-0.9010019145071506,1.0167477700591088,-0.6913625542491674
1761914292857806800,1.354806884765625,-0.6330564957529307,1.2445926490932702,-0.8168567005511372
1761914292867863000,1.364863037109375,-0.24919804818630217,1.4105471814036368,-0.9130614778742193
1761914292877919000,1.3749189453125,0.18753741856515407,1.5343132618039845,-0.9918875426340847
1761914292887975000,1.384974853515625,0.582954201978445,1.568773749810457,-1.0587312009163201
1761914292898031900,1.395031982421875,0.9319798210948705,1.5384949314028025,-1.1343712560512125
1761914292908088000,1.405088134765625,1.207608195567131,1.4689286432236432,-1.1879665795732288
1761914292918144000,1.41514404296875,1.404239605692029,1.4460761754244564,-1.194247924865037
1761914292928199700,1.42519970703125,1.409407363718748,1.3303297353506087,-1.2514512828163802
1761914292938256000,1.435255859375,1.2497563154667615,1.1944266424328087,-1.320331196166575
1761914292948311800,1.445311767578125,0.9956547131478786,1.1872153958797453,-1.3747275338731706
1761914292958367700,1.45536767578125,0.6982032139241695,1.1875357138752936,-1.4715969856500626
1761914292968424000,1.465423828125,0.46072892127931114,1.1022346809476613,-1.6085016568258403
1761914292978479900,1.47547998046875,0.3539548922121525,0.9854179812937974,-1.7501013539500534
1761914292988535800,1.485535888671875,0.3013870851069689,0.871177854129672,-1.9032685931406914
1761914292998592000,1.495592041015625,0.1837409488916397,0.773259331691265,-2.0530879832081497
1761914293008648000,1.50564794921875,-0.04279518563151359,0.7384820328205823,-2.215245461323112
1761914293018704000,1.515703857421875,-0.28023499148488046,0.7119780567765236,-2.346076073282212
1761914293028760000,1.525760009765625,-0.5122147783666848,0.6502209810435772,-2.3898564705587924
1761914293038816000,1.53581591796875,-0.6786445269733667,0.5641799434036016,-2.325533197599649
1761914293048872000,1.545871826171875,-0.7662631891936064,0.47625323814749715,-2.1515648701816796
1761914293058927900,1.555927978515625,-0.7559370254904031,0.4407832808375358,-1.9728721445903181
1761914293068983800,1.56598388671875,-0.7649860088646412,0.39194063173532484,-1.7848215158060192
1761914293079039700,1.576039794921875,-0.7728034046173096,0.3793056065678596,-1.5357982396647334
1761914293089096000,1.586095947265625,-0.7029273198366165,0.3981815719515085,-1.3076958787381647
1761914293099152000,1.59615185546875,-0.6100836164444685,0.4271785338550806,-1.1278841590542346
1761914293109208800,1.606208740234375,-0.46332536751329895,0.43679742607176303,-0.9798708685606717
1761914293119264800,1.6162646484375,-0.32110300844609735,0.4234393473267555,-0.8266575252059847
1761914293129321000,1.626321044921875,-0.20663900939822197,0.3849871593356132,-0.6911925314445048
1761914293139377000,1.636376953125,-0.030199323430657385,0.37979251330196856,-0.6012256255976856
1761914293149432800,1.646432861328125,0.21712767018675802,0.38348786068856716,-0.6219072521638125
1761914293159489000,1.656489013671875,0.6532178247720003,0.37684243132472034,-0.6960122066859156
1761914293169545000,1.666544921875,0.21427637240886688,0.06703589291870593,-0.5669568242384121
1761914293179601000,1.676600830078125,-0.019626491490006445,-0.27706922093033787,-0.48674083949010816
1761914293189657000,1.686656982421875,0.1025648869395256,-0.2355108836174011,-0.54579033676479
1761914293199713000,1.696713134765625,-0.011384148323535919,-0.22850889590084553,-0.635196357325837
1761914293209768700,1.706768798828125,0.016149170768260956,-0.3627665596991777,-0.6567373041350394
1761914293219825000,1.716824951171875,0.07250351067483425,-0.4671627537190914,-0.661635962896794
1761914293229880800,1.726880859375,0.06076981826126575,-0.5500269148886203,-0.6430769545078278
1761914293239936800,1.736936767578125,0.009364040672779083,-0.5582096368223428,-0.5994275631997734
1761914293249993000,1.746992919921875,-0.07514905674755573,-0.5214414563953876,-0.5301569700315595
1761914293260049000,1.757048828125,-0.13543021470904348,-0.4490945975869894,-0.46793954677786676
1761914293270104800,1.767104736328125,-0.12829027982652186,-0.3486562012821436,-0.44613885305393486
1761914293280161000,1.7771611328125,-0.01756020660996437,-0.3007493717253208,-0.510885027600266
1761914293290217000,1.787217041015625,0.08310147705674172,-0.29614041662514207,-0.5794771004524082
1761914293300273000,1.79727294921875,0.13469196356236934,-0.3446329371154308,-0.6016123964255675
1761914293310329000,1.8073291015625,0.15612112056016922,-0.3559048572361469,-0.585681361920014
1761914293320385000,1.817385009765625,0.1904027448683977,-0.3349053238272667,-0.5808738885730504
1761914293330441000,1.82744091796875,0.22673370292186737,-0.2967407206058502,-0.5912742500236258
1761914293340498000,1.837497802734375,0.28605215333104134,-0.24095804310739039,-0.627671587844193
1761914293350554000,1.84755419921875,0.375246686565876,-0.21059213093817233,-0.6723628894206136
1761914293360609800,1.85760986328125,0.5293973838359117,-0.24982524017393587,-0.694970223352313
1761914293370665700,1.867665771484375,0.6574713905632495,-0.304120893985033,-0.7026528137441724
1761914293380722000,1.877721923828125,0.6308639541447162,-0.28539047455191613,-0.7003453405193985
1761914293390777900,1.88777783203125,0.5580845491379499,-0.2507639823287725,-0.6734414053723216
1761914293400833800,1.897833740234375,0.4911205524116754,-0.2285182482510805,-0.6248096956070512
1761914293410890000,1.907889892578125,0.40714755321741103,-0.21168869400322435,-0.5765115286450833
1761914293420946000,1.91794580078125,0.4060165033608675,-0.2002104376554489,-0.5483993502194061
1761914293431001900,1.928001953125,0.4642027348697185,-0.15412965448200702,-0.5897711885169148
1761914293441058000,1.93805810546875,0.5624480050444602,-0.15300386532247065,-0.6150820092536509
1761914293451114000,1.948114013671875,0.6658171941041946,-0.1790659428179264,-0.6753432934708893
1761914293461170000,1.958169921875,0.7103507478356361,-0.15119418555200098,-0.6897866832345724
1761914293471225900,1.968225830078125,0.7134522209823131,-0.12212006675899029,-0.6642602469857781
1761914293481282000,1.978281982421875,0.6979331648111343,-0.3431733859568834,-0.8153677041023969
1761914293491337700,1.988337646484375,0.6611392654210329,-0.36903497244417666,-0.7954808081105351
1761914293501394000,1.998393798828125,0.6096604225963353,-0.35360768620967864,-0.8301608571518212
1761914293511449900,2.008449951171875,0.484798948174715,-0.32079028923511504,-0.8688216463923454
1761914293521505800,2.018505859375,0.35713176868259905,-0.29649931306540966,-0.8805576768934726
1761914293531561700,2.028561767578125,0.300314487439394,-0.3136374948710203,-0.8897440959770232
1761914293541618000,2.038617919921875,0.2636602887809276,-0.3659475278228521,-0.8914672665078193
1761914293551673900,2.048673828125,0.285015796020627,-0.43713235711455345,-0.906688581841439
1761914293561730800,2.058730712890625,0.3518511979311704,-0.5554530315905809,-0.9615323710545897
1761914293571787000,2.068787109375,0.3850479496121406,-0.8384761924892663,-1.0110710395969449
1761914293581843000,2.078843017578125,0.3680968148112297,-1.150166060423851,-1.0562765743058173
1761914293591899000,2.08889892578125,0.3603729425609112,-1.3529805430978536,-1.109348312345147
1761914293601954800,2.098954833984375,0.37100539573431013,-1.6058441280543803,-1.1128893459528684
1761914293612011000,2.109010986328125,0.2613444130539894,-1.7969161504864692,-0.9739473237305879
1761914293622067000,2.11906689453125,0.17154782227277754,-1.9680740966588257,-0.7622790879935025
1761914293632123000,2.129122802734375,0.06283025792241097,-2.0285101529210805,-0.5634628081101923
1761914293642178800,2.1391787109375,-0.24307225878238675,-1.8193220435619353,-0.46120757164172826
1761914293652234800,2.14923486328125,-0.6940776584267616,-1.4069465265631675,-0.441850763938576
1761914293662290700,2.159290771484375,-1.1405576896011829,-0.914740517002344,-0.4134431462302804
1761914293672347000,2.169346923828125,-1.4647487271904944,-0.5485743779927492,-0.3167617643713951
1761914293682402000,2.179402099609375,-1.6147417202591896,-0.2739589799553156,-0.18958982105031608
1761914293692458200,2.189458251953125,-1.6130010140717028,0.1262415306031704,-0.12056914752256125
1761914293702514200,2.19951416015625,-1.5459586914122103,0.5931400804281234,-0.09808783285701647
1761914293712570000,2.209570068359375,-1.442481365802884,0.9836620775371789,-0.11417754678931087
1761914293722626300,2.219626220703125,-1.231564240694046,1.221729659900069,-0.1140480751907453
1761914293732682000,2.229681884765625,-0.9078378980070352,1.33756377825737,-0.05736888724397868
1761914293742738000,2.239738037109375,-0.5230009607970715,1.3730372426986694,0.034935960031114516
1761914293752794000,2.249794189453125,-0.15342179847359658,1.3679752831339835,0.1606349995217286
1761914293762850000,2.25985009765625,0.2359042668491602,1.314974345308542,0.3178397688664496
1761914293772906000,2.269906005859375,0.5713257235050201,1.1932061607271431,0.48993061197474597
1761914293782962200,2.279962158203125,0.8041478064298629,1.0666963345766067,0.6474006629258394
1761914293793019100,2.29001904296875,0.9394693000674247,0.9453776473283767,0.7662799941979348
1761914293803075000,2.300074951171875,0.9624491936385631,0.8277204051971435,0.8296225124914198
1761914293813131000,2.310131103515625,0.9295388576835394,0.7360118433147669,0.8399588322624564
1761914293823187200,2.320187255859375,0.9188988057255745,0.602264467126131,0.8324680381156504
1761914293833243100,2.3302431640625,0.7728244474053383,0.4178717763274908,0.8229757679533213
1761914293843299000,2.340299072265625,0.5420318244814872,0.2673468683391809,0.785597273608297
1761914293853355300,2.350355224609375,0.34389351692497727,0.1775011777192354,0.7148167142685502
1761914293863411200,2.3604111328125,0.19957681592702864,0.18287234936356545,0.6435337583646178
1761914293873467100,2.370467041015625,-0.0023737433940172192,0.3382902900904417,0.5356240032657981
1761914293883523000,2.380523193359375,-0.34913667827546596,0.6571411356955766,0.4067618783680722
1761914293893579000,2.3905791015625,-0.7402204009205102,0.9430933357834815,0.3079844375453889
1761914293903635000,2.400635009765625,-1.0439490807175635,1.0988608206003905,0.224107957528159
1761914293913691100,2.410691162109375,-1.2476865234553813,1.1740618997961283,0.1707472647459246
1761914293923747000,2.4207470703125,-1.2762713974267244,1.1806050378292798,0.11419571263366378
1761914293933803000,2.430802978515625,-1.0681073704183102,1.0626228015273809,-0.028743667562515472
1761914293943859200,2.440859130859375,-0.7281342418074608,0.9060410777181387,-0.2213747514382936
1761914293953915100,2.4509150390625,-0.36424949173331256,0.7621662752687931,-0.42055513365995134
1761914293963971000,2.46097119140625,-0.12293313670754431,0.5386088642954826,-0.5715132089011371
1761914293974027300,2.47102734375,0.004592588487267494,0.23508768976926803,-0.6937137204851955
1761914293984083200,2.481083251953125,0.08561609022617339,-0.02145370691716671,-0.8037983354050665
1761914293994139100,2.49113916015625,0.16536884137690067,-0.19859715723991392,-0.8898658957257867
1761914294004195000,2.501195068359375,0.21961305726170538,-0.3537783666014671,-0.9428949636671692
1761914294014252300,2.511252197265625,0.25530454836785793,-0.4488754018783569,-0.9380873441897332
1761914294024308200,2.52130810546875,0.28981939691007136,-0.4720300674945116,-0.8477039664965123
1761914294034364000,2.531364013671875,0.34142917263805866,-0.4055412870645523,-0.7328123166210949
1761914294044420000,2.541420166015625,0.34508477253615855,-0.2730594007670879,-0.6156231303930282
1761914294054476000,2.55147607421875,0.2863146036595106,-0.12215104641914366,-0.5144736997419967
1761914294064532000,2.561531982421875,0.2113730521827936,-0.01826514000892639,-0.4372335524667054
1761914294074588200,2.571588134765625,0.14390578210949898,0.07211597266197205,-0.3790380416728556
1761914294084644000,2.58164404296875,0.16103168895542622,0.18304945949614046,-0.351690235215798
1761914294094700000,2.591699951171875,0.25344167710542675,0.3002829232573509,-0.3338590661773458
1761914294104756200,2.601756103515625,0.324096929565072,0.39452947918474673,-0.34342882202267644
1761914294114812200,2.611812255859375,0.38270693944394585,0.4639648344606161,-0.3389619422743097
1761914294124868000,2.6218681640625,0.5171247622400522,0.5129477688163518,-0.3339137555066496
1761914294134924300,2.63192431640625,0.6875128930836916,0.5573538967758417,-0.3458283939776942
1761914294144980200,2.641980224609375,0.8669768953084945,0.5387228460639715,-0.34277671478949484
1761914294155036000,2.652035888671875,1.0085340684652329,0.477363245216012,-0.32502799987010655
1761914294165092000,2.662092041015625,1.1273632769852877,0.419169414922595,-0.33099907363634556
1761914294175148000,2.67214794921875,1.2240326761454343,0.3277595437258482,-0.32574970174077894
1761914294185204000,2.682203857421875,1.2544511952847242,0.23157412869036195,-0.325809688299708
1761914294195260200,2.69226025390625,1.2044202131807804,0.1281494100511074,-0.3160696904540062
1761914294205316000,2.702316162109375,1.128130754226446,0.0755944624274969,-0.3529841840164736
1761914294215372000,2.7123720703125,1.0620622450351715,0.011988543957471847,-0.3972646397696808
1761914294225428200,2.72242822265625,1.0024515336811541,-0.09609656770825385,-0.3755358422381803
1761914294235485200,2.732485107421875,0.8803677072793245,-0.1875140376895666,-0.35431883015371857
1761914294245541000,2.742541015625,0.7388105341225862,-0.24616554862260817,-0.3417193146910518
1761914294255597000,2.75259716796875,0.6642886693626642,-0.27570319327414033,-0.2996283318061381
1761914294265653200,2.7626533203125,0.6574456716001034,-0.33087212278842926,-0.22152077231286094
1761914294275709200,2.772709228515625,0.6603115824252367,-0.37879824156761166,-0.11185197165226562
1761914294285765000,2.78276513671875,0.6437398023307324,-0.4340957658976316,0.014648246419709176
1761914294295821300,2.7928212890625,0.615166618797183,-0.4607178153634071,0.1759699130313471
1761914294305877200,2.802877197265625,0.554134350207448,-0.4719985033124685,0.3182974495060742
1761914294315933000,2.812932861328125,0.4693891975969076,-0.4693313299298286,0.4275981475066393
1761914294325989000,2.822989013671875,0.40181437549591065,-0.46925943373739715,0.5242349595714361
1761914294336045000,2.833045166015625,0.34675708966255187,-0.5181804087728261,0.6230120716005564
1761914294346101000,2.84310107421875,0.300353650406003,-0.5660194337904453,0.7355054281625897
1761914294356157200,2.8531572265625,0.29324937135875223,-0.6363567063421011,0.847561781546846
1761914294366213000,2.863213134765625,0.304120893985033,-0.7217845805197953,0.9371497710786759
1761914294376269000,2.87326904296875,0.3043874359667301,-0.8018465437501668,1.0022768347013742
1761914294386325200,2.8833251953125,0.31217034492790696,-0.8552806122958659,1.0618548128295688
1761914294396381200,2.893381103515625,0.3234077782571316,-0.8868751894772052,1.099842525114119
1761914294406437000,2.90343701171875,0.27510931903421876,-0.9227087194025516,1.158165607810393
1761914294416493000,2.9134931640625,0.1518167013645172,-0.9288479528099298,1.2161676418587564
1761914294426549200,2.92354931640625,0.018911621218919754,-0.9012363077849149,1.2523996695823967
1761914294436605000,2.93360498046875,-0.11616788035631179,-0.9503601119160652,1.289791388735175
1761914294446661000,2.9436611328125,-0.09962649540007114,-1.2328630483329295,1.384809805817902
1761914294456718000,2.953718017578125,-0.0476747743666172,-1.5886626916289328,1.4366798399172722
1761914294466774000,2.96377392578125,-0.03504910154938698,-1.7669073811918496,1.3797444852523504
1761914294476830000,2.973829833984375,-0.03150456081032753,-1.882300185522437,1.2621239218696951
1761914294486886100,2.98388623046875,-0.10193184973299503,-2.1043267336666585,1.1478540571544318
1761914294496942000,2.993942138671875,-0.2426864743351936,-2.319108717510104,1.1099131796862929
1761914294506998000,3.003998046875,-0.40408465851545333,-2.2851234457999468,1.0482774653106928
1761914294517054200,3.01405419921875,-0.7129512857228517,-2.040974497696757,0.9813038970384746
1761914294527110100,3.024110107421875,-1.120092993721366,-1.708144226577878,0.9502050674848258
1761914294537166000,3.034166015625,-1.5201169786691664,-1.3128379178017378,0.9572909340925514
1761914294547222000,3.044221923828125,-1.8136966048955916,-0.8617349030017852,0.9643512278676033
1761914294557278200,3.0542783203125,-1.9460212548047302,-0.388560926169157,0.9153263540662825
1761914294567334100,3.064334228515625,-1.9531834015190601,0.16164543693959713,0.8045369518779217
1761914294577390000,3.07439013671875,-1.8176900584459303,0.6978858185380696,0.5782829587643966
1761914294587446000,3.084446044921875,-1.5384101757287978,1.166135782971978,0.3075367668431252
1761914294597502000,3.094501953125,-1.0925187580972908,1.4459604400902986,0.04512750103659927
1761914294607558000,3.104557861328125,-0.5111299057394266,1.586034681212902,-0.2085984363703057
1761914294617614000,3.114614013671875,0.04061316541731357,1.7021780116498468,-0.4062435901150107
1761914294627670000,3.124669921875,0.5367781417369842,1.6833423782765864,-0.557967425564304
1761914294637726000,3.134725830078125,1.0198159254580736,1.5514672257006168,-0.6773924080204218
1761914294647782100,3.1447822265625,1.4109277051538227,1.3838783701866864,-0.824823953103274
1761914294657838000,3.154838134765625,1.658223719111085,1.202472001722455,-0.9825164876986294
1761914294667894000,3.16489404296875,1.7461147685319185,1.0210001668065787,-1.1203254873029886
1761914294677951000,3.174950927734375,1.673262882810831,0.8009908037036657,-1.179607989615947
1761914294688007400,3.18500732421875,1.5053221451193093,0.5830851348817349,-1.1573857825443148
1761914294698063400,3.1950634765625,1.3140110532343388,0.440083608135581,-1.1429727879188953
1761914294708119300,3.205119384765625,1.107916233715415,0.4588298096597194,-1.1330150191366672
1761914294718175500,3.215175537109375,0.8568395321756601,0.6376040760546923,-1.1567342598330228
1761914294728231400,3.2252314453125,0.6202396842777729,0.8480600133925675,-1.1622775731738657
1761914294738287400,3.235287353515625,0.37608079930245875,1.016376014137268,-1.1170463925670833
1761914294748343600,3.245343505859375,0.12900456557571888,1.2015806058406828,-1.0512029973685741
1761914294758399500,3.2553994140625,0.004831657940149307,1.4074831176578997,-0.9562176788378506
1761914294768455200,3.265455078125,-0.0323468568533659,1.5577280396610498,-0.8254941074497997
1761914294778511400,3.275511474609375,0.03739887954592704,1.6433979059010744,-0.6642638271823526
1761914294788567300,3.2855673828125,0.1130909571290016,1.5933412048339843,-0.49093913143016393
1761914294798623200,3.295623291015625,0.15052899964153765,1.4608242472231387,-0.3908873232901096
1761914294808679400,3.305679443359375,0.24734686736166475,1.2015928808003664,-0.36501053923368454
1761914294818735400,3.3157353515625,0.33145722920000553,0.8881897792071104,-0.3579017301417887
1761914294828791300,3.325791259765625,0.3662403732895851,0.5207213254272938,-0.3217944247763604
1761914294838847500,3.335847412109375,0.3560924887627363,0.1895709702193737,-0.2673221722893417
1761914294848903400,3.3459033203125,0.49447453901469707,-0.05272855062484741,-0.1577406845860183
1761914294858959400,3.35595947265625,0.7252098787933587,-0.21391104622781276,0.0018549802169203758
1761914294869015600,3.366015625,0.8798802160233259,-0.2798699575647712,0.18316219915561377
1761914294879071500,3.376071533203125,0.9911521410316229,-0.25622224773466584,0.3403026528261602
1761914294889128400,3.38612841796875,1.0326958652973175,-0.21637977442890405,0.4454710002623498
1761914294899184400,3.396184326171875,0.9372031087011098,-0.23768413600325583,0.5098062559202313
1761914294909240600,3.406240478515625,0.7378489956140518,-0.2707031930297613,0.5086221972348168
1761914294919296300,3.416296142578125,0.554124997857213,-0.2894800819531083,0.49899106659106907
1761914294929352200,3.426352294921875,0.37477790001034733,-0.3394955742269754,0.4762643805960193
1761914294939408400,3.436408447265625,0.23858196162581444,-0.3889449570506811,0.44111152641121293
1761914294949464300,3.44646435546875,0.13311433898210526,-0.38346886372715233,0.3849767840720713
1761914294959520300,3.456520263671875,0.03601473171114921,-0.41184447886198755,0.3134106273125857
1761914294969576400,3.466576416015625,-0.11491992612183094,-0.4914814946785569,0.2810303796462715
1761914294979632400,3.47663232421875,-0.3215542593449354,-0.5962710719302297,0.2753971229996532
1761914294989688300,3.486688232421875,-0.5176110844522714,-0.699742844581604,0.2813881801079959
1761914294999744500,3.49674462890625,-0.7311696639806031,-0.7418859960451721,0.3012995164213702
1761914295009800400,3.506800537109375,-0.8771136739194393,-0.6998655941784382,0.3179747568903491
1761914295019856400,3.5168564453125,-0.8841524865150451,-0.661325435642898,0.33847112655006345
1761914295029912600,3.52691259765625,-0.8699100261509418,-0.6652054919466376,0.36687531019225716
1761914295039968500,3.536968505859375,-0.8958025922983884,-0.6541250027447939,0.3793350518580526
1761914295050024200,3.547024169921875,-0.9422492861747741,-0.6660512951210141,0.38530057266633955
1761914295060080400,3.557080322265625,-0.9187035754144192,-0.679091686218977,0.3949848948020488
1761914295070136300,3.56713623046875,-0.8235439962953328,-0.6825391963243485,0.41435894590094685
1761914295080192300,3.577192138671875,-0.727857762953639,-0.656534401974082,0.4056987791812047
1761914295090249200,3.587249267578125,-0.5414034634500742,-0.6165183256670832,0.35623394306004047
1761914295100305400,3.597305419921875,-0.19676117398440837,-0.5446890609920024,0.28907641478935253
1761914295110361300,3.607361328125,0.2204880865305662,-0.4796761983335018,0.1797582176647149
1761914295120417300,3.617417236328125,0.5687134951800108,-0.46085663931220766,0.025938122322224078
1761914295130473500,3.627473388671875,0.8260872510373591,-0.467385456559062,-0.16454218129441142
1761914295140529400,3.637529296875,0.944388636291027,-0.44840632306188344,-0.36951786059029396
1761914295150585300,3.64758544921875,0.9987053328901528,-0.36368162871748205,-0.5937126561516896
1761914295160641500,3.6576416015625,0.9840694892942905,-0.22518968835026024,-0.8202472928375005
1761914295170697500,3.667697509765625,0.8450485566169023,-0.06316665026992559,-0.9895965821526944
1761914295180753400,3.67775341796875,0.649100452581048,0.10120908841639757,-1.1285977872163058
1761914295190809600,3.6878095703125,0.4850169748395681,0.2341112459525466,-1.2923533481776714
1761914295200865300,3.697865234375,0.3247510095596313,0.29407910018116235,-1.442011410203576
1761914295210921200,3.707921142578125,0.15501695871055124,0.1928548141956329,-1.5572124913543461
1761914295220977400,3.717977294921875,0.11890227375626564,-0.13464344824552535,-1.6589540792122481
1761914295231033300,3.728033447265625,0.17860300148129463,-0.616487053745985,-1.7705653191775081
1761914295241089300,3.73808935546875,0.13618074081540107,-0.9722153853714466,-1.9047477257825434
1761914295251145500,3.7481455078125,-0.030837621334195136,-1.1123755512118338,-2.0110820482581855
1761914295261201400,3.758201416015625,-0.23263503592014312,-1.1603156985163687,-1.9884268565967678
1761914295271257300,3.76825732421875,-0.46087388270795343,-1.3026976320594548,-1.8142348034255205
1761914295281313500,3.7783134765625,-0.7324813311010598,-1.5171967073082924,-1.5381547396630049
1761914295291369500,3.788369384765625,-1.0296054980665446,-1.566646090131998,-1.314049631679058
1761914295301426400,3.798426513671875,-1.2080956868231296,-1.3790741847753525,-1.112847991029173
1761914295311482400,3.808482421875,-1.3398083423137663,-1.0087906735748051,-0.9270166457295417
1761914295321538600,3.81853857421875,-1.4036772956341503,-0.4905886374920606,-0.7559685896724462
1761914295331594500,3.828594482421875,-1.3303952018022536,0.0030126258194446563,-0.5489826665326952
1761914295341650400,3.838650390625,-1.2937106080055236,0.4195996230334043,-0.32193156822472807
1761914295351706400,3.848706298828125,-1.2079805360108613,0.7952794403195381,-0.10574477735096588
1761914295361762300,3.85876220703125,-0.9846288767427206,1.0856173081457614,0.06019983635358512
1761914295371818200,3.868818359375,-0.6616121436297893,1.159033842012286,0.18582716231485827
1761914295381874400,3.87887451171875,-0.20368483576774596,1.016200657570362,0.31282690914049743
1761914295391930400,3.888930419921875,0.2804015802234411,0.7566174089699983,0.45011261552311477
1761914295401986300,3.898986328125,0.6662655223935842,0.5610147573709487,0.6216955821745097
1761914295412042500,3.90904248046875,0.9864555076479912,0.4422966080099344,0.7805705314874649
1761914295422098400,3.919098388671875,1.1662024184674025,0.28706045359075066,0.9631050271987914
1761914295432154400,3.929154296875,1.2106570617437362,0.05386544570028782,1.128128635334596
1761914295442210600,3.93921044921875,1.148256427410245,-0.19680852025747297,1.2629266165547073
1761914295452266500,3.9492666015625,0.9587240356355905,-0.33789047711789605,1.340693016193807
1761914295462322400,3.959322509765625,0.7357610834240913,-0.3402583752930164,1.3338418351247905
1761914295472378400,3.96937841796875,0.5142290407985448,-0.22414660903811454,1.238230566715449
1761914295482434300,3.979434326171875,0.292156899946928,-0.09717208798527717,1.036313544337824
1761914295492490200,3.989490234375,0.05276596002578735,0.0585065495043993,0.7833643999896943
1761914295502547200,3.999547119140625,-0.17977321430444718,0.21578853053748606,0.5170269278887659
1761914295512602400,4.009602294921875,-0.39287235962748523,0.3515086681038141,0.25844715724252165
1761914295522658300,4.019658203125,-0.5154910235583782,0.4492950885951519,0.07305665104556829
1761914295532714200,4.02971435546875,-0.587745527908206,0.4832394437730312,-0.03668318729093298
1761914295542770400,4.0397705078125,-0.5708890856534242,0.5236263992190361,-0.10845672145709395
1761914295552826400,4.049826416015625,-0.3646931438475847,0.548500143712759,-0.14783453639317304
1761914295562882300,4.05988232421875,-0.034088732084631916,0.5007207399278879,-0.14356325228214262
1761914295572938500,4.0699384765625,0.23393676616847514,0.40369595145881176,-0.1167142165269237
1761914295582994400,4.079994384765625,0.5075906256973743,0.25144670389592644,-0.08232981683081016
1761914295593050400,4.09005029296875,0.820738875746727,0.0674953271239996,-0.04692477798322216
1761914295603106600,4.1001064453125,1.1579875478297472,-0.08198036407232284,-0.00725806766974274
1761914295613162200,4.110162353515625,1.4352765489906072,-0.1906511666715145,0.02332717035555979
1761914295623218200,4.12021826171875,1.5899252589106558,-0.24956512793302535,0.05883229716031346
1761914295633274400,4.1302744140625,1.5874287659198045,-0.23026830678880214,0.08385420425334013
1761914295643330300,4.140330322265625,1.465991420727968,-0.1763479160308838,0.09982406379878521
1761914295653386200,4.15038623046875,1.3232342241317032,-0.12661504009068011,0.05206069783326238
1761914295663442400,4.1604423828125,1.1652321121305227,-0.09418284304141998,-0.054573886230587954
1761914295673498400,4.170498291015625,1.0764169336020946,-0.07444236978292465,-0.16908124949615447
1761914295683554300,4.18055419921875,1.0100707765132189,-0.05095101955831051,-0.2582291123113595
1761914295693611000,4.190611083984375,0.8890817596107721,-0.007927870389819144,-0.3477854828622192
1761914295703667000,4.2006669921875,0.7716706011950969,0.05656769039630889,-0.4349538440316915
1761914295713724000,4.210723876953125,0.6139741941422223,0.15560498773157597,-0.4682148565879091
1761914295723779800,4.22077978515625,0.5090425780713558,0.26554654091894625,-0.4560474854648113
1761914295733836000,4.2308359375,0.47428339937925335,0.26861937249302864,-0.3957485726509243
1761914295743892000,4.24089208984375,0.4482990632951259,0.1834136166334152,-0.3408012865306809
1761914295753947600,4.25094775390625,0.41410511727035043,0.13095219251215456,-0.3383690178824588
1761914295764003800,4.26100390625,0.363273340177536,0.04430851280391216,-0.36023693162370474
1761914295774059800,4.271059814453125,0.29544951175153256,-0.13348638716489075,-0.4139760109979659
1761914295784115700,4.28111572265625,0.21907003642618655,-0.2944865119382739,-0.4530717941222712
1761914295794172000,4.291171875,0.20170038395226,-0.4309586369156837,-0.48758938261084256
1761914295804227800,4.301227783203125,0.2581406485766172,-0.5526081635534763,-0.4455154604585841
1761914295814283800,4.31128369140625,0.21185645178556442,-0.6575143529221416,-0.3528742573685944
1761914295824340000,4.321340087890625,0.09963818583786486,-0.7015367422610521,-0.219687437672168
1761914295834396000,4.33139599609375,0.007736731731891632,-0.718432055221498,-0.06593874533176422
1761914295844451800,4.341451904296875,-0.03870002527236938,-0.748298201175034,0.06571480038277805
1761914295854508000,4.351508056640625,0.05534545512497425,-0.7925216660439968,0.2144662689577788
1761914295864564000,4.36156396484375,0.1593418361723423,-0.8632841782703995,0.4287497652271762
1761914295874619600,4.37161962890625,0.19268939450085162,-0.9382976259395479,0.6456329226009547
1761914295884675800,4.38167578125,0.22262100690603254,-0.9594514731273055,0.8305994677647948
1761914295894731800,4.391731689453125,0.23222820868492125,-0.9437465389952063,0.9601583792876451
1761914295904788700,4.401788818359375,0.1740899079710245,-0.8876520190685987,1.050635280483216
1761914295914844700,4.4118447265625,0.13656535621881485,-0.7941659261196852,1.1041214445423335
1761914295924900900,4.42190087890625,0.08549684776067733,-0.6922521965652704,1.1477039080940186
1761914295934956800,4.431956787109375,0.05931845040917396,-0.5750339303731918,1.1550807204723357
1761914295945012700,4.4420126953125,0.08999532822370529,-0.43504795205593105,1.119033986187726
1761914295955069000,4.45206884765625,0.17382687312066555,-0.40026071631312365,1.078860454296693
1761914295965124900,4.462124755859375,0.28715280804932114,-0.5752987187892198,1.0297991940077393
1761914295975180800,4.472180908203125,0.3834066121459007,-0.9942378320872783,0.9800340232331305
1761914295985237000,4.482237060546875,0.40044484070837494,-1.386773507106304,0.8723527431279421
1761914295995293000,4.49229296875,0.35764965507686136,-1.6055980443388223,0.6936618441674858
1761914296005348900,4.502348876953125,0.29823008238077164,-1.696706302240491,0.4870054452430457
1761914296015405000,4.512405029296875,0.12091302905678748,-1.7217781996548174,0.28020311677558346
1761914296025461000,4.5224609375,-0.17736498411893845,-1.6740297755300997,0.17271164188776164
1761914296035516700,4.5325166015625,-0.5866209077924489,-1.5612649816155433,0.22617765820799393
1761914296045572900,4.54257275390625,-1.083676695472002,-1.301257370123267,0.4684876456473022
1761914296055628800,4.55262890625,-1.5143968474566936,-0.8182061423987149,0.724833227500692
1761914296065684700,4.562684814453125,-1.7269886277794837,-0.09309972397983074,0.8196491077486425
1761914296075741000,4.572740966796875,-1.7261626983493565,0.5885790561228991,0.7463412218883633
1761914296085796900,4.582796875,-1.6913187639832497,1.062294300225377,0.5648203236663714
1761914296095853800,4.592853759765625,-1.630515043452382,1.3044307394623755,0.33385596090480685
1761914296105910800,4.602910888671875,-1.2938999930977821,1.4173551078528166,0.062302142395079134
1761914296115966700,4.612966796875,-0.8322206392258406,1.4947645107477903,-0.19659982767654582
1761914296126023000,4.62302294921875,-0.41857904781401156,1.5305086088240145,-0.439784186797589
1761914296136078800,4.633078857421875,-0.033550387424230575,1.4854478163480758,-0.5724485169898719
1761914296146134800,4.643134765625,0.3587415419667959,1.3541741367965936,-0.6394408630277961
1761914296156191000,4.65319091796875,0.6364525679320097,1.1962719780385493,-0.7048081651471555
1761914296166247000,4.663246826171875,0.8788754228949547,1.0212380672156811,-0.7632230908453465
1761914296176302800,4.673302734375,1.0438257465988396,0.7396569218188523,-0.8057062879182398
1761914296186359000,4.683359130859375,1.0707441486626863,0.4383884946554899,-0.9119742671594023
1761914296196415000,4.6934150390625,0.9916022228866815,0.25287293730676175,-1.023597197562456
1761914296206470700,4.703470703125,0.8275912258595227,0.23491817842125892,-1.1573670047786087
1761914296216526800,4.71352685546875,0.5479343265235423,0.2915963434547186,-1.2370254287093878
1761914296226582800,4.723582763671875,0.26448738725483417,0.3075239804267883,-1.2404586180284618
1761914296236638700,4.733638671875,0.013384966751933097,0.34730595571696754,-1.1994905016936361
1761914296246695000,4.74369482421875,-0.10359539903104305,0.47321956954002375,-1.1222574052136391
1761914296256750800,4.753750732421875,-0.10674421845078468,0.6975380280137061,-1.0424924521684646
1761914296266806800,4.763806884765625,-0.026603344765305518,0.9607669396400451,-1.0042848135229199
1761914296276863000,4.773863037109375,0.1461094296336174,1.1385147855967284,-0.8993466215807944
1761914296286920000,4.783919921875,0.3202560362279415,1.2589508447915314,-0.7914131933454424
1761914296296976000,4.793975830078125,0.4060544972836971,1.262502984315157,-0.7056338023163378
1761914296307031800,4.80403173828125,0.5017103354871273,1.1223954254448414,-0.6327897345755249
1761914296317088000,4.814087890625,0.6573901420205831,0.8781786728024482,-0.5745337988313287
1761914296327144000,4.82414404296875,0.7911965549200772,0.5795791725873947,-0.4986211007675156
1761914296337199900,4.834199951171875,0.9132406338334083,0.28276538674533364,-0.3716923185525462
1761914296347256000,4.844256103515625,0.976856489175558,0.060901335686445235,-0.22697315596723927
1761914296357311700,4.854311767578125,1.051570661637187,-0.09236439544260501,-0.0383929686171934
1761914296367367700,4.86436767578125,1.130514434492588,-0.1729746402055025,0.16904486300852148
1761914296377424000,4.874423828125,1.085373562517762,-0.21415420733392238,0.3509429239798337
1761914296387479800,4.884479736328125,0.918612389999628,-0.18981296228170394,0.4272065178405493
1761914296397535700,4.89453564453125,0.6656961980730295,-0.1831394758671522,0.39729002993926404
1761914296407592000,4.904592041015625,0.47944355862140653,-0.14088731107115746,0.3070307900823653
1761914296417647900,4.91464794921875,0.3215308784693479,-0.11303835015892982,0.2730377734571695
1761914296427703800,4.924703857421875,0.1913788964241743,-0.09782149180471897,0.20255754877086726
1761914296437760000,4.934760009765625,0.10464169321358203,-0.09254910435974598,0.109571660429053
1761914296447816000,4.94481591796875,0.04211304858624935,-0.11487491793632507,0.0100358755197376
1761914296457872000,4.954871826171875,0.02282090361714363,-0.17248773347139357,-0.100964904396981
1761914296467928800,4.9649287109375,-0.008313654837012291,-0.2550315766453743,-0.16769721125923095
1761914296477985000,4.974985107421875,-0.08636427824497223,-0.31187574589550493,-0.17691870165616272
1761914296488041000,4.985041015625,-0.1496259133219719,-0.3374550083100796,-0.14811477810665966
1761914296498097000,4.995096923828125,-0.1123246489316225,-0.418719917589426,-0.11012421627789735
1761914296508152800,5.00515283203125,0.005927051961421966,-0.547250435912609,-0.04524835093729198
1761914296518208800,5.015208740234375,0.15469839428067206,-0.6535954259127378,0.05384758125003427
1761914296528264700,5.0252646484375,0.2728057182669639,-0.7548340326845645,0.10997048702090978
1761914296538321000,5.03532080078125,0.3275228123605251,-0.8225900565713643,0.1540842809703201
1761914296548376800,5.045376953125,0.32880642243027686,-0.8368670037269592,0.15087660750281065
1761914296558432800,5.055432861328125,0.31706045505702496,-0.8519318863898515,0.1433354348756373
1761914296568489000,5.065489013671875,0.2789981431663036,-0.9586123919546604,0.17217483159732072
1761914296578545000,5.075544921875,0.2975087823688984,-1.0373860689401626,0.18456881455052643
1761914296588600800,5.085600830078125,0.3841004396289587,-1.0485580358177422,0.1538088250298053
1761914296598656800,5.09565673828125,0.5378519084483385,-1.0229869567096233,0.09357826474439353
1761914296608713000,5.105712890625,0.6707873837321996,-0.9583511106699705,-0.014617303292173891
1761914296618769000,5.115768798828125,0.714515466299653,-0.90682199896276,-0.15489406298324465
1761914296628824800,5.125824951171875,0.6883990282684564,-0.8648650177210568,-0.2979578413106501
1761914296638880800,5.135880859375,0.6174503458201885,-0.7963584677278995,-0.41103769252374767
1761914296648938000,5.14593798828125,0.4519909035503864,-0.6913450185924768,-0.5235165821690112
1761914296658994000,5.155993896484375,0.36544425447583195,-0.5757569839507342,-0.6164125272050499
1761914296669049900,5.1660498046875,0.33095570941865443,-0.46761049748659134,-0.6940337462197989
1761914296679105800,5.176105712890625,0.28944530290067194,-0.5397872604250907,-0.746237469252944
1761914296689165300,5.186165283203125,0.2431318800151348,-0.9813654910326003,-0.7139937805131077
1761914296699221200,5.19622119140625,0.08023556623160838,-1.353011522758007,-0.6923446971543132
1761914296709277400,5.20627734375,-0.032983401191234586,-1.3878981272220612,-0.7252063716620206
1761914296719333400,5.21633349609375,-0.12013970659673213,-1.3554670992165803,-0.7493539207730442
1761914296729389300,5.226389404296875,-0.31109540917277334,-1.3310130414396524,-0.6046046005114912
1761914296739445500,5.236445556640625,-0.665581631782651,-1.239217970317602,-0.3125052029054612
1761914296749501200,5.246501220703125,-1.02549221752882,-1.0852052202135323,-0.029178035825211553
1761914296759557000,5.25655712890625,-1.3695663517177104,-0.8834352781563997,0.13895689099784939
1761914296769613300,5.26661328125,-1.593735172587633,-0.5589373665750026,0.2641870343350805
1761914296779669200,5.276669189453125,-1.6567542310804129,-0.24978315459787845,0.3579154664061963
1761914296789725200,5.28672509765625,-1.744461156105995,-0.06429506977796554,0.4286266137715429
1761914296799781400,5.296781494140625,-1.7327561052650213,0.15291267990767954,0.45058187700267877
1761914296809837300,5.30683740234375,-1.6095283695250748,0.47191608572602267,0.3736010382506996
1761914296819893200,5.316893310546875,-1.4172165761649609,0.8382160802483558,0.2666553789436817
1761914296829950200,5.3269501953125,-1.140688037982583,1.1810860993444918,0.27135599438268687
1761914296840006400,5.33700634765625,-0.8656213890463114,1.3681769431859254,0.38125085888411847
1761914296850062300,5.347062255859375,-0.557538021171093,1.4068851517647505,0.5463552771711722
1761914296860118300,5.3571181640625,-0.1308370416998863,1.336860598424077,0.7504124168500304
1761914296870174500,5.367174560546875,0.3588543546915054,1.1723702934473752,0.9834379864577203
1761914296880230400,5.37723046875,0.6947218015491962,1.056564816662669,1.1668993146903812
1761914296890286300,5.387286376953125,0.7854542118757962,0.9974398429989814,1.3086144548878074
1761914296900342300,5.39734228515625,0.855418559461832,0.8037024007499217,1.3958604844033717
1761914296910398200,5.407398193359375,0.9407663541406392,0.5646317788243294,1.490132174772024
1761914296920454100,5.4174541015625,0.9350947382450103,0.39243455273211,1.565104267517477
1761914296930510300,5.42751025390625,0.9123375475138426,0.27934067299365994,1.6006471439331769
1761914296940566300,5.437566162109375,0.7582669297426938,0.3001958294957876,1.5593321138568221
1761914296950622200,5.447622314453125,0.6443149718701839,0.30120003810226914,1.528701705532521
1761914296960678400,5.457678466796875,0.48360301638841624,0.2725584655076265,1.4671968509949742
1761914296970734300,5.467734375,0.20433190149962902,0.3525941252529621,1.4038532367229462
1761914296980790300,5.477790283203125,-0.09618892216682433,0.5237620082974433,1.3412049112387001
1761914296990846500,5.487846435546875,-0.43888358469605443,0.7544500018030404,1.248344256711751
1761914297000902400,5.49790234375,-0.7046504903674126,0.9506687394738197,1.158024957230687
1761914297010959400,5.50795947265625,-0.8929483719110488,1.0474643953621388,1.063588431689143
1761914297021015300,5.518015380859375,-0.96521515122056,1.0710586214393376,0.9515589663118124
1761914297031071500,5.528071533203125,-0.8761807769834995,1.0153004938602448,0.8392445465132594
1761914297041127400,5.53812744140625,-0.6838438491821288,0.8478975163072348,0.78334905629009
1761914297051183000,5.54818310546875,-0.3868354175508022,0.686655983993411,0.8420097734428942
1761914297061239300,5.5582392578125,-0.13676584722697735,0.5413491029143334,0.8552234022159129
1761914297071295200,5.568295166015625,0.2708551687210798,0.3710065647780895,0.8645404619418084
1761914297081351200,5.57835107421875,0.6634294221848249,0.19035890572667122,0.8907831567011774
1761914297091407400,5.588407470703125,0.9233610458314419,0.01614332554936409,0.9068402652718126
1761914297101463300,5.59846337890625,1.0212076720774173,-0.1034627125620842,0.8923105854641645
1761914297111519200,5.608519287109375,1.0779986498355865,-0.1849696139037609,0.8607565594889223
1761914297121575400,5.618575439453125,1.0605910034388304,-0.21161212163567542,0.8130875572759657
1761914297131631400,5.62863134765625,0.9996201096475124,-0.20436521924734113,0.7363058578252792
1761914297141687300,5.638687255859375,0.8961842850923538,-0.2049561708778143,0.6074426734816283
1761914297151743500,5.648743408203125,0.8385212006747722,-0.22937165021002293,0.4755749004945159
1761914297161799400,5.65879931640625,0.770998985543847,-0.2307791789203882,0.38092122507095333
1761914297171855400,5.66885546875,0.6467214484900236,-0.20858137563765047,0.3227233031243086
1761914297181911300,5.678911376953125,0.5745008464097976,-0.17105974649488925,0.235135510966368
1761914297191968500,5.688968505859375,0.5441460401564836,-0.06750526399612426,0.14959719868414104
1761914297202024200,5.699024169921875,0.5350923806071282,0.07194295418262481,0.09381872243676334
1761914297212080000,5.709080078125,0.6123883862555026,0.10252455492913723,0.07246909694857895
1761914297222136300,5.71913623046875,0.746278385785222,0.05488952805101871,0.11325096999630331
1761914297232192300,5.729192138671875,0.898546922570467,0.00827449187040329,0.11805457088574767
1761914297242248200,5.739248291015625,1.0187661241441965,-0.003101473146677017,0.08128799789398908
1761914297252304400,5.749304443359375,1.1013292565405368,-0.007237550038099288,0.026908867050521073
1761914297262360300,5.7593603515625,1.075386421510577,-0.09634089785814284,-0.01036971058398485
1761914297272416300,5.769416259765625,0.9342354910671711,-0.29302725304067134,-0.03963047452289611
1761914297282472400,5.779472412109375,0.7982780376136303,-0.4223965602755546,-0.10094068327117711
1761914297292528400,5.7895283203125,0.6721732851326465,-0.4964531456112861,-0.19493443348128348
1761914297302584300,5.799584228515625,0.6048971537172794,-0.5684925459057092,-0.3006998334951699
1761914297312640500,5.809640625,0.5819558385908603,-0.6964537399083376,-0.3906840558029711
1761914297322696400,5.819696533203125,0.5026327110290527,-0.8046937498748302,-0.4346890556156635
1761914297332752100,5.829752197265625,0.38945232205092906,-0.8580833947569131,-0.4143708555344492
1761914297342808300,5.839808349609375,0.2638935130149126,-0.8533481829285621,-0.32704383320454505
1761914297352864300,5.8498642578125,0.11164894162714481,-0.7798948241829872,-0.1894488416770473
1761914297362920200,5.859920166015625,-0.0002665419816970825,-0.6229489432364702,-0.04263232321999967
1761914297372977200,5.86997705078125,-0.10922376030683517,-0.4821288521826267,0.07453092484921217
1761914297383033300,5.880033447265625,-0.26092472633719443,-0.3673503803580999,0.21327833781484512
1761914297393089300,5.89008935546875,-0.40365094327330586,-0.3297457491070032,0.356371378769353
1761914297403145200,5.900145263671875,-0.4645359123468399,-0.4819985038012266,0.4240774260345846
1761914297413201400,5.910201416015625,-0.5144441448539495,-0.806906165227294,0.48098012053892014
1761914297423257300,5.92025732421875,-0.6557786151707172,-0.8831880253970622,0.43308322785422204
1761914297433313300,5.930313232421875,-0.6629214726626873,-0.8117062589854002,0.3171910956993699
1761914297443369500,5.940369384765625,-0.5633890852868557,-0.9535960250973701,0.1998790502766147
1761914297453425400,5.95042529296875,-0.5173936423093081,-1.4031915579438208,0.1659908457327634
1761914297463481300,5.9604814453125,-0.5383633651018143,-1.9337141464173793,0.1853450596200302
1761914297473537500,5.97053759765625,-0.5957745205849408,-2.0418986268043517,0.10903989163991064
1761914297483593200,5.98059326171875,-0.6280553264647721,-1.6127777267098427,-0.09718995243553072
1761914297493649200,5.990649169921875,-0.6947329074651003,-0.9912018253922462,-0.2455065915235318
1761914297503705300,6.000705322265625,-0.8804799354821443,-0.6379892759799957,-0.1551301002288237
1761914297513761300,6.01076123046875,-1.0725549974769353,-0.37366087867915626,0.03455448643285781
1761914297523817200,6.020817138671875,-1.2118950791060923,0.01728080514669418,0.13001312156375497
1761914297533873400,6.030873291015625,-1.2413427073866128,0.49518473311066624,0.11572192668709903
1761914297543930400,6.040930419921875,-1.2553583732575178,0.9801946936875581,0.02879382228059694
1761914297553986300,6.050986328125,-1.1591074917703865,1.4028905291706322,-0.03869734012493863
1761914297564042200,6.061042236328125,-0.9620470425784587,1.725717877191305,-0.12240427226154132
1761914297574098400,6.071098388671875,-0.6715203741818666,1.880077248775959,-0.26720062826890495
1761914297584154400,6.081154296875,-0.28182430650293827,1.918242436519265,-0.4617693337103352
1761914297594210300,6.091210205078125,0.26925708587467667,1.7833675176054238,-0.7184751637108624
1761914297604266500,6.1012666015625,0.8412748832970857,1.530886209964752,-0.9643656217191368
1761914297614322400,6.111322509765625,1.2277730317175388,1.2042951254963874,-1.1855926900487392
1761914297624378400,6.12137841796875,1.2539525981128214,0.8124094388186931,-1.3787591274768114
1761914297634434300,6.131434326171875,0.25329554663300513,-0.28484219301939007,-1.5332915175408124
1761914297644490200,6.141490234375,-0.12182605224847792,-0.4612865551620722,-1.2531658316493033
1761914297654546200,6.151546142578125,0.5738607949405908,0.08625847978293895,-1.201957330198586
1761914297664602400,6.161602294921875,0.9946996043801307,0.005051438170671462,-1.590544267591834
1761914297674658300,6.171658203125,1.0795499709308147,-0.002828501424193382,-1.763821982397139
1761914297684714200,6.18171435546875,0.8771212727040052,0.16452888342142105,-1.7768626657560467
1761914297694770700,6.191770751953125,0.5446504825472831,0.25440847631096836,-1.8235285553410647
1761914297704827000,6.201826904296875,0.2940776388764381,0.4615151032209396,-1.723053041896224
1761914297714882600,6.211882568359375,-0.03517360471189022,0.8546925832748412,-1.4981716888427734
1761914297724939800,6.221939697265625,-0.5190507618665695,1.3498323082000017,-1.2262779708541929
1761914297734995700,6.23199560546875,-1.0551929437875747,1.8339841906428336,-1.0433419086046516
1761914297745051600,6.2420517578125,-1.3103116141945124,2.1556524317562578,-1.0049600824359803
1761914297755107600,6.252107666015625,-0.9334785352200269,2.1625351770073173,-0.8958996229320764
1761914297765163800,6.262163818359375,-0.8264695283532142,1.8678806150257585,-0.7444456174001097
1761914297775219700,6.2722197265625,-0.789641726693511,1.4807891768872736,-0.5338651768997311
1761914297785275600,6.282275634765625,-0.19409107799232006,1.207186755284667,-0.36314072677381337
1761914297795331800,6.292331787109375,0.3338321416378021,0.7750117283165454,-0.3023317455459386
1761914297805387800,6.3023876953125,0.6893295871168375,0.37774551764428616,-0.26958829059042033
1761914297815443700,6.312443603515625,0.8777063791155815,0.13143909924626349,-0.20086228916030377
1761914297825499600,6.322499755859375,0.8791554088801145,-0.022662498185038564,-0.14795779744666068
1761914297835555800,6.332555908203125,0.7105325341433286,-0.0932628055870533,-0.11877638235427439
1761914297845611800,6.34261181640625,0.532134699845314,-0.20300503681004045,-0.08270784722981042
1761914297855667700,6.352667724609375,0.36816403482854365,-0.31874563166499137,-0.0776588841440156
1761914297865723600,6.3627236328125,-0.016315759506821632,-0.6008557693719864,-0.15772921334393322
1761914297875779600,6.372779541015625,-0.4928998370438814,-0.9448246896207332,-0.2282218591203913
1761914297885835500,6.38283544921875,-0.8108347368478774,-1.1146236223995685,-0.24930227574575692
1761914297895892700,6.392892822265625,-0.5344067364305257,-0.9924205535322427,-0.26006277574561537
1761914297905948700,6.40294873046875,-0.05218494526743889,-0.7791776158243418,-0.32088333781342954
1761914297916004600,6.413004638671875,0.23925649988651274,-0.5241577296167612,-0.4900306748157367
1761914297926060800,6.423060791015625,0.5961755026012658,-0.3857856162369251,-0.6580651186726987
1761914297936116700,6.43311669921875,1.0217769963979721,-0.368195014488697,-0.6193367440886796
1761914297946172700,6.443172607421875,1.1686340295284985,-0.23407471333444116,-0.4432470406025648
1761914297956228600,6.453228515625,1.0253940178513525,0.01796878741085529,-0.3065675199521705
1761914297966284800,6.463284912109375,0.797303055101633,0.2049111626923084,-0.3320916546460241
1761914297976340700,6.4733408203125,0.676247402703762,0.33669162272214886,-0.3991942926580086
1761914297986396700,6.483396728515625,0.5562333683133125,0.3982517145782709,-0.48425567161086946
1761914297996452900,6.493452880859375,0.5261702384829521,0.3721820382982492,-0.5009863685941324
1761914298006508800,6.5035087890625,0.5100923793852329,0.2871405330896377,-0.48509752926249056
1761914298016564500,6.513564453125,0.3644365387380123,0.19935528213083742,-0.47002128495536744
1761914298026620700,6.52362060546875,0.12417933737635611,0.09666238489747046,-0.2830849558222107
1761914298036676600,6.533676513671875,-0.36779753960371014,-0.20364684184491633,0.20997281172974033
1761914298046732500,6.543732666015625,-0.9097732499837875,-0.6033820729792118,0.6638789195179939
1761914298056788700,6.553788818359375,-0.9698100777953863,-0.6636024406641722,0.6041861559037118
1761914298066844700,6.5638447265625,-0.714772655931115,-0.754965550109744,0.28893815709613263
1761914298076901600,6.573901611328125,-0.47704117365479465,-0.8140940309047698,-0.010296809744555503
1761914298086957600,6.58395751953125,-0.169527130100131,-0.7618260835289955,-0.2162363839028403
1761914298097013800,6.594013671875,0.18658347884118556,-0.772384886944294,-0.38598778774552045
1761914298107069700,6.604069580078125,0.6377309173047542,-0.9833137024909258,-0.36515075142197306
1761914298117125600,6.614125732421875,0.7824228813558817,-1.4743436540096997,-0.40278132083192464
1761914298127181800,6.624181884765625,0.6066805300027132,-1.8378040411919354,-0.6218287801001221
1761914298137237800,6.63423779296875,0.6538543691098689,-1.7239935376167297,-0.883278041768074
1761914298147293700,6.644293701171875,0.8363736672520637,-1.498854994931817,-1.202195084477216
1761914298157350000,6.654349853515625,1.0290800128877162,-1.2322031231194734,-1.6196863370545207
1761914298167405600,6.664405517578125,0.9661994860827923,-1.0067758266210556,-1.9120500116199255
1761914298177461500,6.67446142578125,0.4969020584225654,-0.78846859126091,-2.04077312990576
1761914298187517700,6.684517578125,0.0641658904403448,-0.791109461158514,-1.948103321775794
1761914298197573600,6.69457373046875,0.13685411003232,-1.497536313548684,-1.5759280054792761
1761914298207629600,6.704629638671875,-0.4868880294084549,-1.809199293476343,-1.1843945663053541
1761914298217685800,6.714685791015625,-1.0117968696534634,-3.0636832219868895,-0.2001112881299108
1761914298227741700,6.72474169921875,-0.9017553632229566,-2.383758592075109,-0.352555619873479
1761914298237797600,6.734797607421875,-2.458832830020785,-0.35859482697248457,-0.4059820896346122
1761914298247854600,6.7448544921875,-1.6971803494930267,-0.8444570204645395,0.47551286810897286
1761914298257910800,6.754910888671875,-1.2250006443947552,-0.23186814320087432,0.7887601946186273
1761914298267966700,6.764966796875,-2.257073409357667,0.8310609477967024,0.3511527673382312
1761914298278022700,6.775022705078125,-1.952780665937066,0.3481020745307207,0.7510993762008845
1761914298288078800,6.785078857421875,-0.7470400178074836,0.14552432322204112,0.6030532794162631
1761914298298134800,6.795134765625,-1.2667676560223102,0.6439636742144823,0.11710388256479054
1761914298308190700,6.805190673828125,-0.9356377590805292,0.703159375026822,0.23533377348482606
1761914298318246700,6.81524658203125,-0.16894903795123098,0.8735176952540874,0.1442847349571064
1761914298328302600,6.825302490234375,0.8653437411487102,1.8118150289326904,-1.168121623026952
1761914298338358500,6.835358642578125,1.5455442653924225,1.9798446139514445,-1.6951323309220372
1761914298348414700,6.845414794921875,1.3149281680792568,1.2603735710710287,-1.6199246758550405
1761914298358470700,6.855470703125,1.0268021310836075,0.5855494791686534,-1.3633353483736514
1761914298368526600,6.865526611328125,0.9935668009579182,0.39427579668462276,-1.050443265042454
1761914298378582800,6.875582763671875,1.4079530732572079,0.45990591445863244,-0.7438774621233344
1761914298388638700,6.885638671875,1.9699860677599905,0.5772054291933775,-0.4239674628540873
1761914298398694700,6.895694580078125,1.9983505769789218,0.8287766362518072,-0.16693356994297354
1761914298408750800,6.905750732421875,1.500130421695113,0.9570435352027415,-0.11006729845888912
1761914298418806800,6.915806884765625,0.9281623086333274,0.8082482274860143,-0.008822554207220673
1761914298428863700,6.92586376953125,0.553080457240343,0.6098223351597786,0.18597089990079402
1761914298438919700,6.935919677734375,0.3048100452929735,0.5174380659729242,0.4107828409798443
1761914298448976000,6.945975830078125,0.14134382266700268,0.5875567273378371,0.5813964511424303
1761914298459031800,6.95603173828125,0.04728372922241687,0.7253332129120826,0.6485502713523805
1761914298469087500,6.96608740234375,-0.2444821255803108,0.7884469639509916,0.6385362423382699
1761914298479143700,6.976143798828125,-0.5838520276010036,0.7623585829705,0.5914150102011859
1761914298489199600,6.98619970703125,-0.5955979949742555,0.6788742440760135,0.4977234578080475
1761914298499255600,6.996255615234375,-0.4460860634207725,0.5997153671652078,0.35850554125383494
1761914298509311700,7.006311767578125,-0.2991688245356083,0.6031278059571981,0.1714442157678306
1761914298519367700,7.01636767578125,-0.1664998912334442,0.6306739845305681,0.022415391556173562
1761914298529423600,7.026423583984375,0.014748656320571898,0.6120639766067266,-0.1024677101753652
1761914298539479800,7.036479736328125,0.1597813966333866,0.5005775320649146,-0.21085691935420034
1761914298549535700,7.04653564453125,0.20120529391169548,0.38884266571998594,-0.3305113266520202
1761914298559591700,7.056591796875,0.0483282698392868,0.3975321681320667,-0.4811885025925934
1761914298569647900,7.06664794921875,0.014477438163757324,0.4880938980668783,-0.6543193562731147
1761914298579703800,7.076703857421875,0.16495266179144383,0.5233043276578188,-0.7503903511486947
1761914298589759700,7.086759765625,0.3301180895507336,0.4769751226812601,-0.7843390902407467
1761914298599815700,7.096815673828125,0.4035772935152054,0.41326282122731206,-0.7634004932388663
1761914298609873000,7.106872802734375,0.35818156999647616,0.34909693078696724,-0.7280529932647943
1761914298619928600,7.116928466796875,0.26295769346952436,0.23435820645093916,-0.7093471237510443
1761914298629984500,7.126984619140625,0.22603578378558156,0.12516717936992644,-0.662828533682227
1761914298640040700,7.137040771484375,0.18765140033364294,0.060033905202150344,-0.5354100682541728
1761914298650096600,7.1470966796875,0.06622340749204159,-0.06296002178192138,-0.4145220275081694
1761914298660152600,7.157152587890625,-0.20917817248702048,-0.2103057152122259,-0.37639351851344105
1761914298670208800,7.167208740234375,-0.4376864838659763,-0.2565817286968231,-0.44050387937426566
1761914298680264700,7.1772646484375,-0.6466472142100333,-0.13032675409018993,-0.6033078386992216
1761914298690316500,7.187316650390625,-0.7911901251792908,0.04906535194218158,-0.8066039674103259
1761914298700372500,7.19737255859375,-0.8518558985441923,0.17099077291190623,-0.9464356319487094
1761914298710428200,7.20742822265625,-0.8193839540064335,0.20643910291194914,-1.0343839645147324
1761914298720484400,7.217484375,-0.8080787161380052,0.2048766759008169,-1.084125900544226
1761914298730540300,7.227540283203125,-0.6940028396248817,0.21365502564013003,-1.0855126787275076
1761914298740596200,7.23759619140625,-0.43405192675590515,0.2505874567180872,-1.072623824929446
1761914298750652400,7.24765234375,-0.196886846190691,0.2255862864524126,-1.0546508728001267
1761914298760708400,7.257708251953125,-0.14417758478820322,0.22688100243806839,-1.0491362740971146
1761914298770764300,7.267764404296875,-0.032252748829126356,0.31983985664248465,-1.022922440106049
1761914298780820500,7.277820556640625,0.1512204890370369,0.3941255745589733,-0.9000808541394769
1761914298790877400,7.28787744140625,0.3105968120008707,0.30001521223187444,-0.7124834490153938
1761914298800933400,7.297933349609375,0.4402274005204439,0.1457867735505104,-0.5372354205178097
1761914298810989300,7.3079892578125,0.5390905103325844,0.0543541060000658,-0.3536197785062715
1761914298821045500,7.31804541015625,0.6830529910653829,0.017730302479863166,-0.12361227807812392
1761914298831101400,7.328101318359375,0.7973574156373738,-0.01751227581501007,0.09946032678661867
1761914298841157400,7.338157470703125,0.8826075951606035,-0.07001227838099003,0.30095548875667155
1761914298851213600,7.348213623046875,0.9115729928821324,-0.12758125477433205,0.497855669352971
1761914298861269200,7.358269287109375,0.8698831381440162,-0.18845453341007232,0.69560757140778
1761914298871325200,7.3683251953125,0.9162520906090735,-0.24965806691348552,0.874511528597027
1761914298881381400,7.37838134765625,0.9506406824231147,-0.30316227808594703,1.0309078128367661
1761914298891437300,7.388437255859375,0.9764794725567102,-0.3580395311772823,1.1429911272931843
1761914298901493200,7.3984931640625,0.9566717792809009,-0.3704045072317123,1.1804532082684338
1761914298911549400,7.408549560546875,0.9271984320372343,-0.35370997754037375,1.1518257372643799
1761914298921605400,7.41860546875,0.922262144678831,-0.3566623976051807,1.0926455262821166
1761914298931661300,7.428661376953125,1.071332177683711,-0.34917467219829557,0.9976017555624246
1761914298941717500,7.438717529296875,1.1718331178307533,-0.3207394358307123,0.9359306776124984
1761914298951773400,7.4487734375,1.0336357764959334,-0.35313889965414996,0.9424953698903321
1761914298961829400,7.458829345703125,0.8044318840682506,-0.41993455407619473,0.963838236844167
1761914298971886300,7.46888623046875,0.7320400170743465,-0.33645839848816395,0.9344652081698178
1761914298981942500,7.478942626953125,0.8369447451382875,-0.23671967488527296,0.8120589448805898
1761914298991998500,7.48899853515625,1.0132681112498045,-0.17192600793540477,0.6883753551319242
1761914299002054400,7.499054443359375,1.046376600125432,-0.0325906024813652,0.6520016539152711
1761914299012110300,7.5091103515625,0.7945306677788495,0.029973697981238362,0.6617293402686715
1761914299022166300,7.519166259765625,0.3362929787933826,-0.02770458400547504,0.7676124849107115
1761914299032222200,7.52922216796875,-0.06840308961868286,-0.2598591429322958,0.8960836011968553
1761914299042278400,7.5392783203125,-0.21508418166041374,-0.4903945762246847,0.918633213591948
1761914299052334300,7.549334228515625,-0.4364408677190542,-0.4768383445590734,0.8873646534945815
1761914299062390300,7.559390380859375,-0.7187497428685427,-0.4297475075602531,0.8531253339581191
1761914299072446500,7.569446533203125,-1.1352286035329102,-0.49007016657590863,0.838334299800545
1761914299082502400,7.57950244140625,-1.665735409915447,-0.642334027186036,0.8420476212352513
1761914299092558300,7.589558349609375,-2.014773303991556,-0.7059720943599939,0.7355158034261315
1761914299102614500,7.599614501953125,-2.1459493683874604,-0.6145785897761583,0.5147446621704846
1761914299112670500,7.60967041015625,-2.301833757582307,-0.2979255464762449,0.2240748955087736
1761914299122726400,7.619726318359375,-2.4095272395819425,0.18605214844346046,-0.13124801538726313
1761914299132782300,7.6297822265625,-2.2870050217628477,0.6829097832024097,-0.4800215046398341
1761914299142839600,7.639839599609375,-1.9683949991762637,1.1343605885267256,-0.7638701565772295
1761914299152895500,7.6498955078125,-1.5923340736180542,1.3801111266076564,-0.9660627079606056
1761914299162951200,7.659951171875,-1.2713812872976065,1.3752151712596417,-1.0654720534786581
1761914299173007400,7.67000732421875,-0.9809504804909228,1.1961550736606121,-1.1161479824226348
1761914299183063300,7.680063232421875,-0.9514613511562346,1.0858899876073003,-1.157735545830056
1761914299193119200,7.690119140625,-0.8648825533777474,0.830621387335658,-1.149773700105399
1761914299203175400,7.700175537109375,-0.8755722896963357,0.5976040740996599,-1.1910961097706108
1761914299213231400,7.7102314453125,-0.8111363501429557,0.47672377826869483,-1.220808818728104
1761914299223287300,7.720287353515625,-0.6739443864583968,0.3584054418802261,-1.1526800890713929
1761914299233343500,7.730343505859375,-0.6215396609604358,0.27482582591772076,-0.9965759196460247
1761914299243399400,7.7403994140625,-0.6507452971786261,0.1683569172769785,-0.9128661014325916
1761914299253455400,7.750455322265625,-0.593801174685359,0.04724047460258007,-0.8851128559798002
1761914299263511300,7.76051123046875,-0.5213280591487884,-0.029670915642380714,-0.8814467346876859
1761914299273567500,7.7705673828125,-0.5393757570147514,-0.05867080015540123,-0.8996610212922096
1761914299283623400,7.78062353515625,-0.6500432863891125,-0.0906482391744852,-0.9286030381381511
1761914299293679400,7.790679443359375,-0.7289186701834202,-0.14342296702861784,-0.9246918560437858
1761914299303735300,7.8007353515625,-0.5709229879230261,-0.15743571029007433,-0.9791359784148633
1761914299313791200,7.810791259765625,-0.21921324428915975,0.005330255112051963,-1.131095303120464
1761914299323848200,7.82084814453125,0.12365209863185882,0.21600772624611853,-1.2254551101639866
1761914299333904400,7.830904296875,0.35880525485277176,0.32998774116933344,-1.1745035060837865
1761914299343960300,7.840960205078125,0.4593552948385477,0.3403600821018219,-1.0585461997382342
1761914299354016300,7.851016357421875,0.5186772523790597,0.27934184203743934,-0.9311739115394652
1761914299364072400,7.861072509765625,0.568916324275732,0.17882102814614773,-0.7829388680540025
1761914299374128400,7.87112841796875,0.6610282062619924,0.1080026940792799,-0.6148925510961561
1761914299384184300,7.881184326171875,0.7448819629907607,0.05084580561816692,-0.42452754442226137
1761914299394240300,7.891240234375,0.7855787150382996,0.023391396981477738,-0.24068010294884443
1761914299404296400,7.90129638671875,0.8294178567647933,0.018002689680457113,-0.12139387137629092
1761914299414352400,7.911352294921875,0.7933382431238889,0.037333997616171836,-0.05117993294335901
1761914299424408300,7.921408203125,0.7733230445772409,0.06629179655313491,-0.008675473886728286
1761914299434464500,7.931464599609375,0.8289473166435957,0.09510054240822792,0.03386412954851985
1761914299444520200,7.941520263671875,0.8436562254756689,0.12996902669370175,0.0801695152580738
1761914299454576000,7.951576171875,0.821376589128375,0.1640817241758108,0.14104315921999513
1761914299464632300,7.96163232421875,0.9490057746976613,0.16517711819708347,0.20538141055256126
1761914299474688300,7.971688232421875,1.1734428911149501,0.14758943905830382,0.2373139144513756
1761914299484744200,7.981744140625,1.344525433963537,0.08985387392640114,0.30626630851589143
1761914299494800400,7.99180029296875,1.3859844025552273,-0.03856032454073429,0.39025421301834284
1761914299504856300,8.001856201171876,1.4066554346621036,-0.17549802120327948,0.42135384628959
1761914299514912300,8.011912353515624,1.4614333190321922,-0.26529344294071194,0.3968448434550315
1761914299524968400,8.021968505859375,1.6047919886529445,-0.2584510297000408,0.32685463077537713
1761914299535024400,8.0320244140625,1.759941049310565,-0.21020693101286886,0.21419695049710571
1761914299545080300,8.042080322265624,1.7679817324250935,-0.216422736787796,0.06227094353921711
1761914299555136500,8.052136474609375,1.7242559879451989,-0.3389057916402817,-0.07632869498617946
1761914299565192200,8.062192138671875,1.628929820087552,-0.49250236215889454,-0.10406389332562685
1761914299575248100,8.072248046875,1.4424614920586347,-0.6569722088694572,-0.053205885813012714
1761914299585304300,8.08230419921875,1.2813888865709304,-0.8384896364927291,-0.031406872589513656
1761914299595360300,8.0923603515625,1.1613029559880494,-0.9646458269000053,-0.08389438100010156
1761914299605416200,8.102416259765626,1.0426695623010396,-1.0885732353419064,-0.14010032541193068
1761914299615472400,8.112472412109375,0.8772668186545372,-1.218589608308673,-0.1959991766359657
1761914299625528300,8.1225283203125,0.6172504393339157,-1.2838503082484005,-0.28475677975825964
1761914299635584300,8.132584228515626,0.38842531709074973,-1.2490087119698523,-0.43040326805524526
1761914299645640400,8.142640380859374,0.2112602394580841,-1.178400221261382,-0.5770072032075375
1761914299655696400,8.1526962890625,-0.04431728063225746,-1.135943473803997,-0.7475294818248599
1761914299665752300,8.16275244140625,-0.31801497930288314,-1.0526321533888578,-0.9263808320440351
1761914299675808500,8.17280859375,-0.5754536170899868,-0.8883955309122801,-1.1008235720407218
1761914299685864400,8.182864501953125,-0.5923462997019291,-0.6329974590420723,-1.3247107264250517
1761914299695921000,8.1929208984375,-0.47076808473467824,-0.3763976101666689,-1.5551646189138293
1761914299705977900,8.202977783203124,-0.43270869545340535,-0.17287994765937328,-1.7168739148698746
1761914299716034000,8.213033935546875,-0.5774082582890987,-0.0037613983601331707,-1.8005474927261471
1761914299726090000,8.223090087890625,-0.7392536017149687,-0.06328969212770462,-1.8305206061854957
1761914299736146000,8.23314599609375,-0.8757797949671745,-0.09112345547080039,-1.784215658867359
1761914299746202000,8.2432021484375,-1.1050947465538978,0.04252279843091965,-1.7944006605342029
1761914299756258000,8.253258056640625,-1.4270494033932686,0.16119360151886938,-1.7874800674907863
1761914299766314000,8.26331396484375,-1.6069044507622718,0.10818214229941367,-1.690293074197322
1761914299776370200,8.2733701171875,-1.803574439331889,-0.06994622740745544,-1.534813174150139
1761914299786426000,8.283426025390625,-2.0080396118223667,-0.24928455742597577,-1.4412128071717918
1761914299796481800,8.293481689453126,-2.180857600161433,-0.48908057101666924,-1.3655145921088754
1761914299806538000,8.3035380859375,-2.4945582233965395,-0.6901666224628686,-1.2362455303780733
1761914299816594000,8.313593994140625,-2.4298703549087044,-0.619832857042551,-0.9523023320250212
1761914299826649900,8.32364990234375,-1.3150427343696356,-1.0471008227467535,-0.46913785318434237
1761914299836706000,8.3337060546875,-1.8683201754868028,-2.0197259579628706,-0.28935353296399113
1761914299846762000,8.343761962890625,-2.9764678798705337,-1.939199884352088,-0.14234057861939073
1761914299856818000,8.35381787109375,-2.646887550458312,-1.6455471928894518,0.13921367877051233
1761914299866873900,8.363873779296876,-2.2928677763164043,-1.2268173384279013,0.2365802664145827
1761914299876930000,8.373929931640625,-2.1559020226031542,-0.7214093174666166,0.07664923217743634
1761914299886987000,8.383987060546875,-1.9693506924659012,-0.2214420262545347,-0.12561433861553667
1761914299897043000,8.39404296875,-1.7459247989177702,0.25698972497582434,-0.3625185762874782
1761914299907099100,8.40409912109375,-1.4448025022268294,0.7382002932697534,-0.6034104222908616
1761914299917155000,8.414155029296875,-1.128971881225705,1.158729890629649,-0.8227942008413374
1761914299927211000,8.4242109375,-0.8253174357086419,1.5529489886909722,-0.979876129257679
1761914299937267000,8.434266845703124,-0.3949222778946161,1.847211921006441,-1.1258080834325401
1761914299947323100,8.4443232421875,0.1372901633620262,1.9450696531683205,-1.2263617036148906
1761914299957378800,8.45437890625,0.5490840810805558,1.9077116901546716,-1.1953965103782713
1761914299967435000,8.46443505859375,0.6035615211993456,1.8099293613165617,-1.0315803052708505
1761914299977491000,8.474490966796875,0.28092355827093124,1.6888491589993238,-0.8449541563317179
1761914299987547000,8.484546875,0.018240590089559555,1.3955863436371088,-0.6070179452635347
1761914299997602800,8.494602783203124,-0.22764321898221967,1.128680789324641,-0.3097390261277556
1761914300007659000,8.504658935546875,-0.5243453611433506,0.9146990159481764,-0.07404357972368597
1761914300017715000,8.51471484375,-0.5407721798092127,0.7115431724905967,0.17034224587529898
1761914300027771000,8.52477099609375,-0.5084913739293814,0.5308154339402914,0.3579182428851723
1761914300037827000,8.5348271484375,-0.5773796167165041,0.3742313720434904,0.4858085636086762
1761914300047883000,8.544883056640625,-0.7215151159286498,0.3202946146726608,0.5346510665804147
1761914300057939000,8.55493896484375,-0.7701052515745163,0.4114490498036146,0.4686306343145668
1761914300067996000,8.564995849609375,-0.7051350590139627,0.6742594437569379,0.22645123271867632
1761914300078053000,8.57505322265625,-0.5547077661812305,0.9315911140382289,-0.05454831339791417
1761914300088109000,8.585109130859376,-0.3554173659801483,1.1478349871277809,-0.3250492618538439
1761914300098165000,8.5951650390625,-0.20629881765842437,1.381439744862914,-0.5624819073140621
1761914300108221000,8.605220947265625,-0.16333762781023978,1.576019483155012,-0.7589052276462316
1761914300118277000,8.615277099609376,-0.09859832139611244,1.6171277386128902,-0.8658183729231357
1761914300128332800,8.625332763671874,-0.00007657236754894256,1.5551602349996565,-0.90572134424448
1761914300138389000,8.635388916015625,0.07721475710570812,1.4312357491672039,-0.9718616034977138
1761914300148445000,8.64544482421875,0.1558294441372156,1.255620823585987,-1.0724980065926908
1761914300158500900,8.6555009765625,0.20136369934380052,1.0130354715377092,-1.1589572696447372
1761914300168557000,8.66555712890625,0.2999877397030592,0.7815203795582055,-1.1938932662084698
1761914300178613000,8.675613037109375,0.3841729203432798,0.5922182894080877,-1.2138435828253626
1761914300188669000,8.6856689453125,0.38177170442044733,0.42905426459908486,-1.186155073171854
1761914300198724900,8.695724853515625,0.3552344106286764,0.21274434053599833,-1.16580582036525
1761914300208781000,8.705781005859375,0.2750292395353317,0.03419453054666519,-1.157351880274713
1761914300218837000,8.7158369140625,0.0025099369943141934,0.037543840974569316,-1.1378799217592923
1761914300228893000,8.725892822265624,-0.43618075547814367,0.07813304099440574,-1.0497813670676202
1761914300238949000,8.73594921875,-0.5698182415515184,0.06733867525756358,-0.9537814646668732
1761914300249005000,8.746005126953126,-0.4112923979371786,0.09320961409509182,-0.9210240542512387
1761914300259060700,8.756060791015624,-0.4307768506079912,0.15850889247953892,-0.9202318809602409
1761914300269118000,8.766117919921875,-0.4946019647866487,0.21795886031389236,-0.9854482303015887
1761914300279174000,8.776173828125,-0.47817163898944853,0.28805881697833535,-1.0994836286738514
1761914300289229800,8.786229736328124,-0.42602176503539085,0.4390595257848501,-1.2118084237359463
1761914300299286000,8.7962861328125,-0.31035891159176826,0.591270194903016,-1.2461881015911698
1761914300309342000,8.806342041015625,-0.2256248648971319,0.6536719982802868,-1.1947482025373726
1761914300319398000,8.81639794921875,-0.07524024216234683,0.6678881551593542,-1.048159026562795
1761914300329453800,8.826453857421875,0.1581646090865135,0.6655395462065935,-0.903906696037948
1761914300339510000,8.836510009765625,0.1540863998621702,0.6809931359261274,-0.8223117510866373
1761914300349566000,8.84656591796875,0.08371054886579513,0.6609820290327072,-0.7202877660907805
1761914300359622000,8.856621826171875,-0.0063613517254590985,0.5510515817612409,-0.5944741420434787
1761914300369678000,8.866677978515625,-0.06171849728822708,0.4257061232149601,-0.48277401821836824
1761914300379734000,8.876734130859376,-0.014880758267641066,0.3926660234004259,-0.37968444981761273
1761914300389790000,8.8867900390625,0.12239011587202549,0.4485580064922571,-0.3171310726078227
1761914300399846100,8.89684619140625,0.2753735229283571,0.49466626219451426,-0.295585193895176
1761914300409901800,8.90690185546875,0.34851299341917036,0.5321750318557024,-0.24170973825752734
1761914300419957800,8.916957763671874,0.31402327931821344,0.4924070850908756,-0.2048079763124697
1761914300430014000,8.927013916015625,0.20521452955305575,0.4934790982365608,-0.1712615709436126
1761914300440070000,8.93706982421875,0.2051204215288162,0.521541409638524,-0.11334416470509022
1761914300450125800,8.947125732421876,0.2644809575140476,0.5599421597033739,-0.0988785813759081
1761914300460182800,8.957182861328125,0.26026421660184856,0.5580442171275616,-0.038895675708632914
1761914300470239000,8.967239013671875,0.2745616220235824,0.4425011906713247,0.0801443899499718
1761914300480295000,8.977294921875,0.19704875875413416,0.3112795335680246,0.17449856183715165
1761914300490350800,8.987350830078125,0.1764770953685045,0.2937210805237293,0.2258367175495252
1761914300500407000,8.997406982421875,0.3325561303526163,0.4150163868963718,0.21224285728726536
1761914300510463000,9.007462890625,0.5116477921336889,0.5120908597260714,0.2144163288688287
1761914300520519000,9.017518798828124,0.5675719239294529,0.4760153377383947,0.2579546610178426
1761914300530575000,9.0275751953125,0.4905383686095476,0.3577086917877197,0.3821131382692605
1761914300540631000,9.037631103515626,0.39852994699776173,0.21110066498219965,0.5251888627627864
1761914300550687000,9.04768701171875,0.19396014508903026,0.14184183531701564,0.617279300102219
1761914300560743000,9.057742919921875,-0.01628361080288887,0.07192249591648578,0.7088342788580805
1761914300570798800,9.067798828125,-0.07977379393875599,-0.033334698846936225,0.7680184353630989
1761914300580854800,9.077854736328124,-0.10595219129025936,-0.1471416952908039,0.8046460382755846
1761914300590911000,9.087910888671875,-0.05148468804359436,-0.29444179601371284,0.7381607649769634
1761914300600967000,9.097966796875,-0.1128910506427288,-0.44412382343709467,0.5592904908616095
1761914300611022800,9.10802294921875,-0.35917876434028145,-0.6175783561140299,0.41263139145597816
1761914300621079000,9.1180791015625,-0.7543547247350215,-0.5995873568713664,0.3025729704232886
1761914300631135000,9.128135009765625,-0.8768214129745959,-0.4157447011709213,0.12207098518656566
1761914300641191000,9.13819091796875,-0.7195978841304779,-0.2517670218914747,-0.06403565165679902
1761914300651247900,9.148247802734375,-0.483741548076272,-0.2435147418528795,-0.1916162671103142
1761914300661304000,9.158303955078125,-0.29592765065729615,-0.34265374599695203,-0.19059353646645322
1761914300671360000,9.168360107421876,-0.27347324226498604,-0.50849371201694,-0.03168052016543224
1761914300681416000,9.178416015625,-0.3093628862917423,-0.7168646597743034,0.11475915520270355
1761914300691475500,9.188475341796876,-0.28368776228725906,-0.756743081176281,0.1519584479227662
1761914300701531400,9.198531494140624,-0.19392507377564905,-0.7314373750060796,0.13240996270556935
1761914300711587300,9.20858740234375,-0.07370294959247112,-0.8319523436784744,0.15348134664110838
1761914300721643500,9.2186435546875,0.05068623114228248,-1.0083090275377034,0.2489753453463316
1761914300731699500,9.228699462890624,0.09216273539066314,-1.0581231520205736,0.32418336573950945
1761914300741755400,9.23875537109375,0.06255903976559639,-0.9812404033482074,0.33406956712286917
1761914300751811600,9.2488115234375,0.09749006789326667,-0.8696592662602662,0.2922460395351052
1761914300761867500,9.258867431640626,0.1692185025423765,-0.807221222525835,0.2486966745354235
1761914300771923500,9.26892333984375,0.23021979147195815,-0.7691139024496078,0.2138040056567639
1761914300781979600,9.278979736328125,0.25421441504359243,-0.7046265249699354,0.1846751610018313
1761914300792035600,9.28903564453125,0.28527707730531693,-0.5769108301609754,0.1035416960824281
1761914300802091300,9.29909130859375,0.20150281555354593,-0.4712491462498903,-0.019910313400067388
1761914300812147500,9.3091474609375,-0.030163667595386502,-0.5054951147228479,-0.19639325398746876
1761914300822203400,9.319203369140626,-0.30622634183168407,-0.5393108750849962,-0.35197687013745305
1761914300832259300,9.32925927734375,-0.5987216799527406,-0.5537906513363122,-0.4728291819829494
1761914300842315500,9.3393154296875,-0.766019443565607,-0.4921528180688619,-0.6475723662309348
1761914300852372500,9.34937255859375,-0.7699497687518596,-0.32118601055443285,-0.8624901052832603
1761914300862428400,9.359428466796874,-0.7083510984510183,-0.06573766980171203,-1.0768903963327408
1761914300872484400,9.369484375,-0.5694517463266849,0.16387012725174427,-1.2203837251838296
1761914300882540500,9.37954052734375,-0.4317927496522665,0.3404460068196058,-1.2872893427863716
1761914300892596500,9.389596435546874,-0.44087329720854757,0.4308417325377464,-1.311188689289987
1761914300902652400,9.39965234375,-0.6577993073433637,0.4563005834430456,-1.242384909915924
1761914300912708600,9.40970849609375,-1.006307040065527,0.4316290835231542,-1.119652264216542
1761914300922764500,9.4197646484375,-1.138537581950426,0.4366945502191782,-1.0759404751967638
1761914300932820500,9.429820556640625,-1.0056325018048287,0.5635200181901454,-1.0836657356865704
1761914300942876700,9.439876708984375,-0.8153367244422435,0.7847977937936782,-1.1300842994470148
1761914300952932400,9.449932373046876,-0.6058686290979385,0.9617758244216441,-1.1785369263183325
1761914300962988300,9.45998828125,-0.5024871650785208,1.0122142182826994,-1.1983334406130015
1761914300973044500,9.47004443359375,-0.48025662856996054,1.0363403592795133,-1.2289129955329001
1761914300983100400,9.480100341796875,-0.4828524902820587,1.06898415325284,-1.2819623025447129
1761914300993156400,9.49015625,-0.37723932168781754,1.1329203265905379,-1.3462543035827577
1761914301003212500,9.500212646484375,-0.23321312806904315,1.1967080313682557,-1.339735130947083
1761914301013268500,9.5102685546875,-0.14703355874121188,1.1985995442032813,-1.2650237349644302
1761914301023324400,9.520324462890626,0.0256499895632267,1.0891665250599383,-1.1686596023611724
1761914301033380600,9.530380615234375,0.1895148561179638,0.906433876428008,-1.0715725623108445
1761914301043437600,9.5404375,0.2258902378350496,0.806723209875822,-0.9844289702564477
1761914301053493500,9.550493408203126,0.23426351390480993,0.7978174343645572,-0.9668957977838814
1761914301063549400,9.560549560546875,0.2818132005870342,0.792595900323987,-1.0018998911477626
1761914301073605600,9.570605712890625,0.35289047785103317,0.7422685656219721,-1.034555083297938
1761914301083661600,9.58066162109375,0.35238720450401306,0.6395435196846723,-1.0263134707838297
1761914301093717500,9.590717529296874,0.33717326875925063,0.49410921283364295,-0.9888884338833391
1761914301103773400,9.6007734375,0.2848164740562439,0.36954526005387306,-0.9486701130025088
1761914301113829400,9.610829345703126,0.26316929039359094,0.2694189984381199,-0.9265470554564148
1761914301123885300,9.62088525390625,0.34447453168332576,0.15761866564154625,-0.9329977659657597
1761914301133941500,9.63094140625,0.43943771144747734,0.04309153822958469,-0.9619555649027228
1761914301143997400,9.64099755859375,0.6426525916159153,0.001463058289885521,-1.0371795135173947
1761914301154053400,9.651053466796874,0.9137743023186922,0.05400689999759197,-1.0755985298912971
1761914301164109600,9.661109619140625,1.0087725533962248,-0.04427694862186909,-1.0068399048332124
1761914301174165500,9.67116552734375,0.9138222331136464,-0.28857027363181115,-0.8151631945062429
1761914301184221400,9.681221435546876,0.6988432653933763,-0.41389468939006324,-0.6198199244957416
1761914301194277600,9.691277587890625,0.5606383252739906,-0.36388416555225844,-0.5335456626217812
1761914301204333600,9.70133349609375,0.5077542918264866,-0.33069735074341294,-0.5209617831196636
1761914301214389500,9.711389404296876,0.5137888958156108,-0.421946478420496,-0.5257167225617915
1761914301224445700,9.72144580078125,0.5972106908679008,-0.5471908146798611,-0.5497684831481426
1761914301234501400,9.73150146484375,0.6172901868224143,-0.5839461356252431,-0.626121362727508
1761914301244557300,9.741557373046875,0.6372714830994606,-0.6194073251068591,-0.648886298373714
1761914301254614300,9.7516142578125,0.7172282323896885,-0.7108966912806034,-0.6133813428156077
1761914301264670500,9.76167041015625,0.7219938393563031,-0.7763637274473905,-0.5950774782314896
1761914301274726400,9.771726318359375,0.7681143700182438,-0.7521580914735794,-0.5775265143739059
1761914301284782300,9.7817822265625,0.9067197076320648,-0.7326181092232465,-0.5970182735683396
1761914301294838500,9.791838623046875,0.93944065849483,-0.7092758120805025,-0.5980358165804296
1761914301304894500,9.80189453125,0.93684830391407,-0.7797650603234767,-0.5508442956861108
1761914301314950400,9.811950439453126,0.9009551527559757,-0.8186281672030686,-0.5343505127312616
1761914301325006600,9.822006591796875,0.8251338958352804,-0.7953910840004682,-0.5230128704305738
1761914301335062500,9.8320625,0.8549497729063034,-0.773598938909173,-0.445720591109246
1761914301345118500,9.842118408203126,0.9631669865190983,-0.792360922524333,-0.34372104643490164
1761914301355174700,9.852174560546874,1.0577040498256682,-0.7774293108522892,-0.32694431835282595
1761914301365230600,9.862230712890625,1.0897300041615963,-0.6984826153874397,-0.29968053691741076
1761914301375286500,9.87228662109375,1.0285130266547202,-0.6597445961922407,-0.2381113119067624
1761914301385342500,9.882342529296874,0.900111687669158,-0.7416992413014173,-0.16794000703915954
1761914301395398400,9.8923984375,0.7371744573533534,-0.8798749553263187,-0.09959420056566595
1761914301405454300,9.902454345703125,0.5654372499883175,-0.9507131631374358,-0.08326558157727122
1761914301415510500,9.912510498046874,0.4125198939055204,-0.8981950403928756,-0.06575199058800936
1761914301425566500,9.92256640625,0.39163083513379093,-0.8495119657665491,-0.08798822618499398
1761914301435622400,9.932622314453125,0.4474608589053154,-0.8007856365203857,-0.11812186396829784
1761914301445678600,9.9426787109375,0.3950391822725534,-0.7087438971608877,-0.13204298342354595
1761914301455734500,9.952734619140625,0.37712183278799055,-0.6433142703950405,-0.13423019126951694
1761914301465790500,9.96279052734375,0.3840408183962106,-0.7083119354844093,-0.14855346178486942
1761914301475847400,9.972847412109376,0.2565378895550966,-0.7015513553082943,-0.09982625575587153
1761914301485903600,9.982903564453125,0.1269505556553602,-0.6682184100270271,-0.07155716973543166
1761914301495959600,9.99295947265625,0.06836158856451512,-0.7179933715432882,-0.048492666620761155
1761914301506015500,10.003015380859376,0.02639408592879772,-0.7133411618232727,-0.024625468821078536
1761914301516071700,10.01307177734375,-0.06381868443787098,-0.6378630192518234,0.005740589478611946
1761914301526127600,10.023127685546875,-0.04492927505075931,-0.640590398389101,-0.003016936668381095
1761914301536183300,10.033183349609375,-0.018003858724236488,-0.6909265009194612,0.02264335509315133
1761914301546239500,10.043239501953124,-0.13219780865907668,-0.7255348729640245,0.09508081479445099
1761914301556295400,10.05329541015625,-0.2627431739360094,-0.7226029111653566,0.18947364732474087
1761914301566351400,10.063351318359375,-0.33557869304418564,-0.7637935842096805,0.2874170850086957
1761914301576407600,10.073407470703126,-0.4461035990774631,-0.8949988747000693,0.3777054048296064
1761914301586463500,10.08346337890625,-0.6568757627576589,-1.1129092196971178,0.43752004125788807
1761914301596519400,10.09351953125,-0.9306652313649654,-1.2524953850418328,0.4533625572297722
1761914301606575600,10.10357568359375,-1.1942647298693656,-1.2603192105352878,0.45060251793190836
1761914301616631600,10.113631591796874,-1.3623124350667,-1.2023317164689302,0.46641500409170983
1761914301626687500,10.1236875,-1.396620947381854,-1.0905337217599154,0.4682816016811877
1761914301636743400,10.133743408203125,-1.3669324960827827,-0.9121236125022172,0.4373374512325972
1761914301646799600,10.143799560546874,-1.2799112152338028,-0.6799234608680009,0.3699441231783479
1761914301656855600,10.15385546875,-1.157939032512903,-0.3452817564129829,0.23839571833871304
1761914301666911500,10.163911376953125,-0.9756471133857965,0.06745850224494934,0.09914265740588307
1761914301676968400,10.173968505859374,-0.7824737347602844,0.4204980331778526,-0.008148892729356885
1761914301687024400,10.1840244140625,-0.6721241852939128,0.5991548106729984,-0.026708631770685314
1761914301697077000,10.194076904296875,-0.7101765603125095,0.7172855155348777,0.04562156816385686
1761914301707133000,10.2041328125,-0.8496645259797573,0.8516448861420154,0.11596906984858214
1761914301717189000,10.214189208984376,-0.9458096090048551,0.9815887783944606,0.14977335896864533
1761914301727245000,10.2242451171875,-0.9104074562340975,1.053252915635705,0.16313713680207728
1761914301737301000,10.234301025390625,-0.7074386597812176,1.1034539936095475,0.19012151677422223
1761914301747357000,10.24435693359375,-0.5106184490859508,1.1172136388927698,0.1744678744379431
1761914301757412900,10.254412841796874,-0.4435889859080314,1.1296084255635739,0.19262495096251367
1761914301767469000,10.264468994140625,-0.3419938207834959,1.221174364104867,0.2241658982604742
1761914301777525000,10.27452490234375,-0.14345686929821969,1.2476678187549113,0.2667958833929151
1761914301787581000,10.284580810546874,-0.10850889003574847,1.1815478716373442,0.40529257300049065
1761914301797636900,10.294636962890625,-0.17783435519635676,1.0773796411544083,0.513816003018245
1761914301807693000,10.304693115234375,-0.16242343557476996,0.9611129765987396,0.6220464414387941
1761914301817749000,10.3147490234375,-0.16544775183200836,0.8497522042632103,0.7558141297630965
1761914301827805000,10.324804931640625,-0.06998071419894696,0.8584516435474157,0.8521316467456519
1761914301837861000,10.334861083984375,0.11303601207137107,0.9163339236736298,0.8609319891210645
1761914301847917000,10.3449169921875,0.27230010683238504,0.928179844290018,0.7951436120454222
1761914301857973000,10.354972900390624,0.40006022530496116,0.8635779005199671,0.7185850538261235
1761914301868029200,10.365029296875,0.5200602311700582,0.8378659516364335,0.6396483682986348
1761914301878084900,10.3750849609375,0.6245739140897989,0.9204875362217426,0.5567376645736396
1761914301888140800,10.385140869140624,0.7295324181675911,1.055925349715352,0.5041356629379093
1761914301898198000,10.395197998046875,0.7727835308730602,1.1269862603664398,0.4881756580661982
1761914301908254000,10.40525390625,0.8559960670888423,1.1274322505682706,0.4952203158807009
1761914301918310000,10.415309814453124,0.9061702570557594,1.0607605147868395,0.5435577919397503
1761914301928365800,10.42536572265625,0.8053606893509626,0.9416022204428911,0.6334030441682785
1761914301938422000,10.435422119140625,0.6843886235833168,0.8120283305466175,0.7291231797795742
1761914301948478000,10.44547802734375,0.593957826551795,0.7220522915452718,0.7892762543819845
1761914301958534000,10.455533935546875,0.6308657077103853,0.6364695190668106,0.8056092572845518
1761914301968590000,10.465590087890625,0.6461497860819101,0.5577770906239747,0.8161530092611908
1761914301978646000,10.47564599609375,0.5500409434139728,0.4356172763764858,0.81486070442833
1761914301988702000,10.485701904296874,0.5367775572150946,0.30806641674041746,0.7947161073483526
1761914301998758100,10.495758056640625,0.5222919357448816,0.20378537353277204,0.7809110154882073
1761914302008814000,10.50581396484375,0.4671662608504295,0.11975626023709773,0.7894881435669958
1761914302018870000,10.5158701171875,0.523143584138155,0.040299277162551876,0.7821493981767446
1761914302028926000,10.525926025390625,0.5689508110672236,-0.056066755136847495,0.7480516060028225
1761914302038982000,10.53598193359375,0.514831098344922,-0.08998714491724967,0.7061362719457596
1761914302049037800,10.546037841796876,0.46357378931641574,-0.0939157165378332,0.6828212281361222
1761914302059094000,10.556093994140625,0.5306634582489729,-0.07763444382250309,0.637899990261346
1761914302069150000,10.56614990234375,0.6230839677929878,-0.03397299675047397,0.5670908624142408
1761914302079206000,10.576205810546876,0.6771393831074237,0.018014964640140532,0.4768245717620477
1761914302089262000,10.586261962890624,0.662315907984972,0.04171908083260059,0.4165372763207182
1761914302099318000,10.596318115234375,0.6661468644499778,0.022214169895648957,0.3993806820755824
1761914302109374000,10.6063740234375,0.676540248170495,0.035379356417059894,0.38534759014584125
1761914302119430100,10.61643017578125,0.6679185502976178,0.02486731475293636,0.3125347577935085
1761914302129487000,10.626487060546875,0.6218348445147276,-0.0822346310943365,0.3016130028173327
1761914302139543000,10.63654296875,0.5569605135440826,-0.28664076687395573,0.34255729988515377
1761914302149599000,10.646598876953124,0.5433534284740686,-0.39875849505662914,0.392521536895819
1761914302159655200,10.6566552734375,0.6197124455332755,-0.4058452384471893,0.4270066844195127
1761914302169711000,10.666711181640625,0.7372901926875114,-0.3601671908557415,0.43929074072483926
1761914302179766800,10.676766845703124,0.788106772211194,-0.3372358126014471,0.4028465315552428
1761914302189823000,10.686822998046875,0.8933388325333594,-0.4033984298169613,0.3149729447258636
1761914302199879000,10.69687890625,0.9654361004948615,-0.519448821273446,0.23543493230435997
1761914302209934800,10.706934814453126,0.9760019181728362,-0.5700011969029903,0.1818790640098974
1761914302219991000,10.716990966796875,1.1507798084080219,-0.526049242451787,0.12174980867449194
1761914302230047000,10.727046875,1.213342939826846,-0.4252911126732826,0.17950751257296652
1761914302240103000,10.73710302734375,1.0961188284158705,-0.39307752681076524,0.37276601219866423
1761914302250159000,10.7471591796875,0.9658709847807884,-0.5011123695939779,0.5764504095749929
1761914302260215000,10.757215087890625,0.7791916443496942,-0.5751508347511292,0.8839066219951957
1761914302270271000,10.76727099609375,-0.07703589340746403,-0.5129068522840738,1.5237864609621465
1761914302280327200,10.7773271484375,-0.9437480002999306,-0.9704232412576674,1.482625744664669
1761914302290383000,10.787383056640625,-0.15212299083471298,-0.9844792391389607,1.1429655544605106
1761914302300439000,10.79743896484375,-0.2790244466513395,-1.1103396614700556,0.9386517731394618
