time,seconds_elapsed,z,y,x
1761914291568120600,0.06512060546875,-0.8554229736328125,-0.5542755126953125,-0.105255126953125
1761914291578177500,0.075177490234375,-0.8481292724609375,-0.5604705810546875,-0.1071319580078125
1761914291588233500,0.0852333984375,-0.8434600830078125,-0.5560302734375,-0.1056671142578125
1761914291598289400,0.095289306640625,-0.8402557373046875,-0.5514678955078125,-0.107391357421875
1761914291608345600,0.105345703125,-0.84124755859375,-0.5496978759765625,-0.112579345703125
1761914291618401500,0.115401611328125,-0.8507537841796875,-0.54852294921875,-0.1128692626953125
1761914291628457500,0.12545751953125,-0.8624725341796875,-0.5449066162109375,-0.1088409423828125
1761914291638513700,0.135513671875,-0.87591552734375,-0.5330047607421875,-0.10595703125
1761914291648569600,0.145569580078125,-0.8875885009765625,-0.522674560546875,-0.1022491455078125
1761914291658625300,0.155625244140625,-0.9038238525390625,-0.516571044921875,-0.0995330810546875
1761914291668681500,0.165681396484375,-0.9207611083984375,-0.525726318359375,-0.092864990234375
1761914291678737000,0.17573681640625,-0.9266815185546875,-0.5521240234375,-0.0821990966796875
1761914291688792800,0.185792724609375,-0.9193878173828125,-0.565582275390625,-0.07208251953125
1761914291698849000,0.19584912109375,-0.9094696044921875,-0.5641021728515625,-0.0687713623046875
1761914291708905000,0.205905029296875,-0.907012939453125,-0.56219482421875,-0.06744384765625
1761914291718961000,0.2159609375,-0.9207916259765625,-0.5532073974609375,-0.057586669921875
1761914291729016800,0.226016845703125,-0.945892333984375,-0.534332275390625,-0.042236328125
1761914291739072800,0.23607275390625,-0.9780426025390625,-0.5074310302734375,-0.024444580078125
1761914291749128700,0.246128662109375,-0.999969482421875,-0.4848480224609375,-0.00592041015625
1761914291759185000,0.256184814453125,-1.0031280517578125,-0.47503662109375,0.00592041015625
1761914291769240800,0.26624072265625,-1.0021209716796875,-0.4804840087890625,0.0121002197265625
1761914291779296800,0.276296875,-1.0025177001953125,-0.4828338623046875,0.0094146728515625
1761914291789353000,0.28635302734375,-1.003875732421875,-0.4787445068359375,-0.005645751953125
1761914291799409000,0.296408935546875,-1.006744384765625,-0.470947265625,-0.020477294921875
1761914291809465900,0.3064658203125,-1.01824951171875,-0.463958740234375,-0.0268707275390625
1761914291819521800,0.316521728515625,-1.019012451171875,-0.462005615234375,-0.02569580078125
1761914291829578000,0.326577880859375,-1.0117645263671875,-0.45916748046875,-0.0194091796875
1761914291839634000,0.336634033203125,-1.00201416015625,-0.4580535888671875,-0.0101776123046875
1761914291849689900,0.34668994140625,-0.9801177978515625,-0.4681396484375,-0.0026397705078125
1761914291859746000,0.35674609375,-0.954986572265625,-0.478240966796875,-0.0006866455078125
1761914291869802000,0.366802001953125,-0.9292144775390625,-0.4805908203125,-0.0009613037109375
1761914291879857700,0.376857666015625,-0.9005889892578125,-0.4798126220703125,0.0012969970703125
1761914291889913900,0.386913818359375,-0.879241943359375,-0.474517822265625,0.00537109375
1761914291899969800,0.3969697265625,-0.8625640869140625,-0.4712371826171875,0.0144805908203125
1761914291910025700,0.407025634765625,-0.84564208984375,-0.4691314697265625,0.0247039794921875
1761914291920082000,0.41708203125,-0.827972412109375,-0.465545654296875,0.0348663330078125
1761914291930137900,0.427137939453125,-0.8134765625,-0.459381103515625,0.040557861328125
1761914291940193800,0.43719384765625,-0.8048248291015625,-0.4541168212890625,0.045379638671875
1761914291950250000,0.44725,-0.8018035888671875,-0.44830322265625,0.0500946044921875
1761914291960306000,0.457305908203125,-0.79571533203125,-0.4472503662109375,0.0540008544921875
1761914291970361900,0.46736181640625,-0.786102294921875,-0.448486328125,0.057586669921875
1761914291980418000,0.47741796875,-0.776824951171875,-0.4491729736328125,0.0604095458984375
1761914291990474000,0.487473876953125,-0.7694549560546875,-0.4483795166015625,0.06201171875
1761914292000529700,0.49752978515625,-0.76873779296875,-0.4492645263671875,0.062591552734375
1761914292010585900,0.5075859375,-0.76617431640625,-0.4462890625,0.064849853515625
1761914292020641800,0.517641845703125,-0.7651519775390625,-0.4452056884765625,0.067962646484375
1761914292030698800,0.52769873046875,-0.7694549560546875,-0.4410400390625,0.0735015869140625
1761914292040754700,0.537754638671875,-0.767730712890625,-0.43939208984375,0.078704833984375
1761914292050811000,0.547810791015625,-0.769561767578125,-0.4425201416015625,0.082672119140625
1761914292060866800,0.55786669921875,-0.7722930908203125,-0.4463653564453125,0.0832366943359375
1761914292070922800,0.5679228515625,-0.769073486328125,-0.4542694091796875,0.078094482421875
1761914292080979000,0.57797900390625,-0.764312744140625,-0.46295166015625,0.075927734375
1761914292091035000,0.588034912109375,-0.768096923828125,-0.476043701171875,0.0743408203125
1761914292101090800,0.5980908203125,-0.7704620361328125,-0.4843597412109375,0.072052001953125
1761914292111147000,0.60814697265625,-0.7755126953125,-0.4891204833984375,0.0673065185546875
1761914292121203000,0.618202880859375,-0.78387451171875,-0.493255615234375,0.061279296875
1761914292131259000,0.6282587890625,-0.7944793701171875,-0.4967803955078125,0.055084228515625
1761914292141315000,0.638315185546875,-0.7976837158203125,-0.5011749267578125,0.0524139404296875
1761914292151370800,0.648370849609375,-0.8049774169921875,-0.504913330078125,0.05255126953125
1761914292161426700,0.6584267578125,-0.81646728515625,-0.506988525390625,0.05126953125
1761914292171483000,0.66848291015625,-0.8204498291015625,-0.5101776123046875,0.0418548583984375
1761914292181538800,0.678538818359375,-0.820068359375,-0.5163726806640625,0.030181884765625
1761914292191594800,0.6885947265625,-0.821075439453125,-0.5285797119140625,0.0220489501953125
1761914292201651000,0.69865087890625,-0.8184051513671875,-0.5432281494140625,0.0159149169921875
1761914292211707000,0.708706787109375,-0.816864013671875,-0.556549072265625,0.011474609375
1761914292221762800,0.7187626953125,-0.814208984375,-0.567718505859375,0.0079803466796875
1761914292231819000,0.728819091796875,-0.812835693359375,-0.5751800537109375,0.0072174072265625
1761914292241876000,0.7388759765625,-0.80853271484375,-0.578765869140625,0.008270263671875
1761914292251932000,0.748931884765625,-0.8074188232421875,-0.57708740234375,0.0094146728515625
1761914292261987800,0.75898779296875,-0.8049163818359375,-0.5755157470703125,0.0128021240234375
1761914292272044000,0.7690439453125,-0.7960662841796875,-0.5764617919921875,0.0149383544921875
1761914292282100000,0.779099853515625,-0.7847137451171875,-0.5808258056640625,0.01800537109375
1761914292292156000,0.789156005859375,-0.7815704345703125,-0.5839385986328125,0.01904296875
1761914292302212000,0.799212158203125,-0.7793731689453125,-0.58685302734375,0.0164947509765625
1761914292312267800,0.809267822265625,-0.7812042236328125,-0.590911865234375,0.01141357421875
1761914292322323700,0.81932373046875,-0.78717041015625,-0.5926513671875,0.0036163330078125
1761914292332380000,0.8293798828125,-0.7906494140625,-0.5924072265625,-0.001251220703125
1761914292342435800,0.839435791015625,-0.7845001220703125,-0.59161376953125,-0.0020294189453125
1761914292352491800,0.84949169921875,-0.7798004150390625,-0.594329833984375,-0.0028533935546875
1761914292362548000,0.8595478515625,-0.7774505615234375,-0.5931396484375,-0.0078582763671875
1761914292372604000,0.86960400390625,-0.779327392578125,-0.5909271240234375,-0.014892578125
1761914292382659800,0.879659912109375,-0.7827911376953125,-0.5892333984375,-0.02166748046875
1761914292392716000,0.889716064453125,-0.7843170166015625,-0.5876617431640625,-0.0276336669921875
1761914292402772000,0.89977197265625,-0.7836761474609375,-0.588348388671875,-0.0301971435546875
1761914292412828000,0.909827880859375,-0.782562255859375,-0.59149169921875,-0.0300445556640625
1761914292422884000,0.919884033203125,-0.7823486328125,-0.595672607421875,-0.024993896484375
1761914292432939800,0.929939697265625,-0.785430908203125,-0.6053009033203125,-0.0124053955078125
1761914292442995700,0.93999560546875,-0.7870330810546875,-0.61749267578125,0.0044097900390625
1761914292453053000,0.950052978515625,-0.7928009033203125,-0.62884521484375,0.0225067138671875
1761914292463108900,0.96010888671875,-0.8060302734375,-0.6299285888671875,0.0365447998046875
1761914292473164800,0.970164794921875,-0.8224029541015625,-0.6224822998046875,0.0478668212890625
1761914292483220700,0.980220703125,-0.834808349609375,-0.6177520751953125,0.060577392578125
1761914292493277000,0.99027685546875,-0.8465423583984375,-0.604400634765625,0.0726776123046875
1761914292503332900,1.000332763671875,-0.85009765625,-0.5888519287109375,0.0853271484375
1761914292513388800,1.010388916015625,-0.846282958984375,-0.58782958984375,0.0988616943359375
1761914292523445000,1.020445068359375,-0.8282318115234375,-0.6156768798828125,0.119354248046875
1761914292533501000,1.0305009765625,-0.8224334716796875,-0.6640472412109375,0.1319122314453125
1761914292543556900,1.040556884765625,-0.8173675537109375,-0.6820831298828125,0.1323089599609375
1761914292553613000,1.050613037109375,-0.8050994873046875,-0.67620849609375,0.11627197265625
1761914292563669000,1.0606689453125,-0.7982025146484375,-0.6642608642578125,0.10211181640625
1761914292573725000,1.070724853515625,-0.7986907958984375,-0.6540985107421875,0.0937957763671875
1761914292583780900,1.08078076171875,-0.8044586181640625,-0.6433563232421875,0.0880889892578125
1761914292593836800,1.0908369140625,-0.80084228515625,-0.6320953369140625,0.08746337890625
1761914292603892700,1.100892822265625,-0.79205322265625,-0.6316070556640625,0.0895843505859375
1761914292613949000,1.110948974609375,-0.7855682373046875,-0.6324005126953125,0.09130859375
1761914292624004900,1.1210048828125,-0.7799530029296875,-0.62744140625,0.092864990234375
1761914292634060800,1.131060791015625,-0.767730712890625,-0.626861572265625,0.09210205078125
1761914292644117000,1.141116943359375,-0.76202392578125,-0.6273193359375,0.0931396484375
1761914292654173000,1.1511728515625,-0.7532501220703125,-0.6349639892578125,0.0978240966796875
1761914292664228900,1.161228759765625,-0.7419891357421875,-0.659637451171875,0.1016693115234375
1761914292674285800,1.171285888671875,-0.7357635498046875,-0.68096923828125,0.10650634765625
1761914292684342800,1.1813427734375,-0.729522705078125,-0.6965789794921875,0.107666015625
1761914292694399000,1.19139892578125,-0.728424072265625,-0.7095184326171875,0.10504150390625
1761914292704455000,1.201454833984375,-0.7332611083984375,-0.7204437255859375,0.1016387939453125
1761914292714510800,1.2115107421875,-0.7450408935546875,-0.7225341796875,0.09967041015625
1761914292724567000,1.221567138671875,-0.75885009765625,-0.7104339599609375,0.095245361328125
1761914292734623000,1.231623046875,-0.782806396484375,-0.6939544677734375,0.0903167724609375
1761914292744679000,1.241678955078125,-0.8062744140625,-0.680084228515625,0.083740234375
1761914292754735000,1.251735107421875,-0.8298492431640625,-0.665313720703125,0.076934814453125
1761914292764790800,1.261790771484375,-0.8535308837890625,-0.64886474609375,0.065093994140625
1761914292774846700,1.2718466796875,-0.8695068359375,-0.6334075927734375,0.0482330322265625
1761914292784903000,1.28190283203125,-0.8719329833984375,-0.6184234619140625,0.030029296875
1761914292794958800,1.291958740234375,-0.8745574951171875,-0.601287841796875,0.0098419189453125
1761914292805014800,1.302014892578125,-0.8810882568359375,-0.580322265625,-0.0024566650390625
1761914292815071000,1.312071044921875,-0.8929595947265625,-0.558563232421875,-0.009002685546875
1761914292825127000,1.322126953125,-0.896942138671875,-0.5455322265625,-0.0076904296875
1761914292835182800,1.332182861328125,-0.8975677490234375,-0.532073974609375,-0.0136566162109375
1761914292845239000,1.342239013671875,-0.88836669921875,-0.5061798095703125,-0.0230712890625
1761914292855295000,1.352294921875,-0.8634490966796875,-0.480682373046875,-0.0382080078125
1761914292865351000,1.362350830078125,-0.82666015625,-0.462158203125,-0.0519866943359375
1761914292875407000,1.372406982421875,-0.783111572265625,-0.448089599609375,-0.0633392333984375
1761914292885463000,1.382463134765625,-0.742706298828125,-0.442840576171875,-0.0735626220703125
1761914292895520000,1.39252001953125,-0.7069091796875,-0.444671630859375,-0.083953857421875
1761914292905576000,1.402575927734375,-0.6779327392578125,-0.4515228271484375,-0.0924835205078125
1761914292915631900,1.4126318359375,-0.6570587158203125,-0.4535064697265625,-0.09521484375
1761914292925687800,1.422687744140625,-0.6537322998046875,-0.4636993408203125,-0.1015167236328125
1761914292935743700,1.43274365234375,-0.6690826416015625,-0.477935791015625,-0.108856201171875
1761914292945800000,1.442800048828125,-0.693511962890625,-0.4799652099609375,-0.114715576171875
1761914292955856000,1.45285595703125,-0.7244415283203125,-0.4789276123046875,-0.1234130859375
1761914292965911800,1.462911865234375,-0.750091552734375,-0.4865875244140625,-0.13653564453125
1761914292975968000,1.472968017578125,-0.7629241943359375,-0.497802734375,-0.1498870849609375
1761914292986024000,1.48302392578125,-0.7683258056640625,-0.50897216796875,-0.164093017578125
1761914292996079900,1.493079833984375,-0.7792816162109375,-0.5189666748046875,-0.1771392822265625
1761914293006136000,1.503135986328125,-0.802215576171875,-0.5221099853515625,-0.19146728515625
1761914293016192000,1.51319189453125,-0.8272857666015625,-0.5237884521484375,-0.2033538818359375
1761914293026248000,1.523248046875,-0.85186767578125,-0.5285491943359375,-0.2082061767578125
1761914293036304000,1.533303955078125,-0.8710784912109375,-0.534881591796875,-0.202362060546875
1761914293046359800,1.54335986328125,-0.8827667236328125,-0.5423736572265625,-0.1860198974609375
1761914293056415700,1.553415771484375,-0.884979248046875,-0.543487548828125,-0.168853759765625
1761914293066472000,1.563471923828125,-0.8880767822265625,-0.5441436767578125,-0.15191650390625
1761914293076527900,1.57352783203125,-0.8932342529296875,-0.541748046875,-0.130340576171875
1761914293086583800,1.583583740234375,-0.89007568359375,-0.535125732421875,-0.1088409423828125
1761914293096639700,1.5936396484375,-0.8852081298828125,-0.5264892578125,-0.0933074951171875
1761914293106697000,1.603697021484375,-0.874725341796875,-0.5200042724609375,-0.0815277099609375
1761914293116753000,1.6137529296875,-0.8629913330078125,-0.515350341796875,-0.069915771484375
1761914293126808800,1.623808837890625,-0.8548126220703125,-0.5149993896484375,-0.0589141845703125
1761914293136865000,1.633864990234375,-0.8404083251953125,-0.511505126953125,-0.0525054931640625
1761914293146921000,1.6439208984375,-0.8200531005859375,-0.507904052734375,-0.055267333984375
1761914293156977000,1.653976806640625,-0.7744903564453125,-0.5053863525390625,-0.065216064453125
1761914293167032800,1.66403271484375,-0.8099365234375,-0.52923583984375,-0.0548553466796875
1761914293177089000,1.674089111328125,-0.84454345703125,-0.5673828125,-0.0467987060546875
1761914293187145000,1.68414501953125,-0.830657958984375,-0.5658721923828125,-0.0526123046875
1761914293197201000,1.694200927734375,-0.84161376953125,-0.5623626708984375,-0.0637664794921875
1761914293207256800,1.7042568359375,-0.8409881591796875,-0.5752105712890625,-0.06768798828125
1761914293217312800,1.714312744140625,-0.834930419921875,-0.585906982421875,-0.0696868896484375
1761914293227368700,1.72436865234375,-0.8356781005859375,-0.59429931640625,-0.0684967041015625
1761914293237425000,1.7344248046875,-0.8411407470703125,-0.5952606201171875,-0.0655059814453125
1761914293247480800,1.744480712890625,-0.8499298095703125,-0.5908203125,-0.059417724609375
1761914293257536800,1.754536865234375,-0.8571319580078125,-0.583526611328125,-0.0541229248046875
1761914293267593000,1.764593017578125,-0.858184814453125,-0.572418212890625,-0.052490234375
1761914293277649000,1.77464892578125,-0.8481292724609375,-0.5662689208984375,-0.059906005859375
1761914293287704800,1.784704833984375,-0.837127685546875,-0.5650787353515625,-0.0692138671875
1761914293297761000,1.794760986328125,-0.831085205078125,-0.5703277587890625,-0.07403564453125
1761914293307817000,1.80481689453125,-0.8282318115234375,-0.572784423828125,-0.074737548828125
1761914293317873000,1.814872802734375,-0.82427978515625,-0.571807861328125,-0.0759735107421875
1761914293327928800,1.8249287109375,-0.8195648193359375,-0.569244384765625,-0.0790252685546875
1761914293337986000,1.834986083984375,-0.813385009765625,-0.5650634765625,-0.08453369140625
1761914293348041700,1.845041748046875,-0.803558349609375,-0.5626373291015625,-0.091064453125
1761914293358097700,1.85509765625,-0.7880096435546875,-0.566864013671875,-0.0955963134765625
1761914293368153900,1.86515380859375,-0.7727508544921875,-0.574432373046875,-0.0977783203125
1761914293378209800,1.875209716796875,-0.7725830078125,-0.57464599609375,-0.0988311767578125
1761914293388265700,1.885265625,-0.7791595458984375,-0.5726776123046875,-0.0973968505859375
1761914293398322000,1.895322021484375,-0.7847442626953125,-0.57177734375,-0.09356689453125
1761914293408377900,1.9053779296875,-0.7926177978515625,-0.5713348388671875,-0.0902099609375
1761914293418433800,1.915433837890625,-0.7928924560546875,-0.572052001953125,-0.088165283203125
1761914293428490000,1.925489990234375,-0.7864227294921875,-0.56878662109375,-0.0941009521484375
1761914293438546000,1.9355458984375,-0.77630615234375,-0.5684967041015625,-0.0987396240234375
1761914293448601900,1.945601806640625,-0.7646026611328125,-0.5721588134765625,-0.1064453125
1761914293458658000,1.955657958984375,-0.75885009765625,-0.571044921875,-0.1107330322265625
1761914293468714000,1.9657138671875,-0.75933837890625,-0.564666748046875,-0.107421875
1761914293478769700,1.975769775390625,-0.7602081298828125,-0.58624267578125,-0.124420166015625
1761914293488825900,1.985825927734375,-0.7646636962890625,-0.590423583984375,-0.1243133544921875
1761914293498881800,1.9958818359375,-0.7696990966796875,-0.5878448486328125,-0.127227783203125
1761914293508937700,2.005937744140625,-0.782012939453125,-0.584228515625,-0.1318817138671875
1761914293518994000,2.015993896484375,-0.7959747314453125,-0.581329345703125,-0.1331939697265625
1761914293529049900,2.0260498046875,-0.802001953125,-0.582916259765625,-0.1341400146484375
1761914293539105800,2.036105712890625,-0.805145263671875,-0.5891571044921875,-0.134246826171875
1761914293549162000,2.046161865234375,-0.8028564453125,-0.597808837890625,-0.1351776123046875
1761914293559219000,2.056218994140625,-0.79498291015625,-0.6106719970703125,-0.139739990234375
1761914293569275000,2.06627490234375,-0.7887115478515625,-0.640472412109375,-0.143829345703125
1761914293579330800,2.076330810546875,-0.7881622314453125,-0.676849365234375,-0.14642333984375
1761914293589387000,2.086386962890625,-0.786590576171875,-0.7020263671875,-0.1498870849609375
1761914293599443000,2.09644287109375,-0.78173828125,-0.731781005859375,-0.148895263671875
1761914293609499000,2.106498779296875,-0.7884063720703125,-0.75701904296875,-0.13330078125
1761914293619555000,2.11655517578125,-0.7958526611328125,-0.778717041015625,-0.1089019775390625
1761914293629610800,2.12661083984375,-0.802886962890625,-0.7910614013671875,-0.0844573974609375
1761914293639666700,2.136666748046875,-0.829742431640625,-0.775848388671875,-0.069427490234375
1761914293649723000,2.146722900390625,-0.8734893798828125,-0.7372589111328125,-0.0649566650390625
1761914293659778800,2.15677880859375,-0.920135498046875,-0.6873016357421875,-0.061614990234375
1761914293669834800,2.166834716796875,-0.955047607421875,-0.647003173828125,-0.05255126953125
1761914293679890200,2.17689013671875,-0.9739990234375,-0.6175079345703125,-0.039764404296875
1761914293689946000,2.186946044921875,-0.9771881103515625,-0.5757293701171875,-0.0323944091796875
1761914293700002300,2.197002197265625,-0.973358154296875,-0.5248870849609375,-0.0301666259765625
1761914293710058000,2.20705810546875,-0.9660491943359375,-0.47955322265625,-0.0313568115234375
1761914293720114000,2.217114013671875,-0.9486083984375,-0.450164794921875,-0.031890869140625
1761914293730170000,2.227170166015625,-0.9187774658203125,-0.4344635009765625,-0.0260009765625
1761914293740226000,2.23722607421875,-0.8807830810546875,-0.4285125732421875,-0.0164642333984375
1761914293750282000,2.247281982421875,-0.8431396484375,-0.428497314453125,-0.0032806396484375
1761914293760338200,2.257338134765625,-0.8025970458984375,-0.434173583984375,0.013031005859375
1761914293770394000,2.26739404296875,-0.7657470703125,-0.44866943359375,0.0309906005859375
1761914293780450000,2.277449951171875,-0.738372802734375,-0.4648895263671875,0.0481109619140625
1761914293790507000,2.287507080078125,-0.7201995849609375,-0.4816436767578125,0.0615081787109375
1761914293800563200,2.297563232421875,-0.713165283203125,-0.49822998046875,0.069427490234375
1761914293810619100,2.307619140625,-0.7134246826171875,-0.5122528076171875,0.0717010498046875
1761914293820675000,2.317675048828125,-0.710784912109375,-0.529327392578125,0.0719451904296875
1761914293830731300,2.327731201171875,-0.7205047607421875,-0.55230712890625,0.071929931640625
1761914293840787200,2.337787109375,-0.7411041259765625,-0.5718841552734375,0.0700225830078125
1761914293850843100,2.347843017578125,-0.7600860595703125,-0.58502197265625,0.0645294189453125
1761914293860899000,2.357899169921875,-0.7733154296875,-0.5877685546875,0.059234619140625
1761914293870955000,2.367955078125,-0.791748046875,-0.575469970703125,0.0509490966796875
1761914293881011000,2.378010986328125,-0.82489013671875,-0.544769287109375,0.0394287109375
1761914293891067100,2.388067138671875,-0.8660125732421875,-0.513275146484375,0.031280517578125
1761914293901123000,2.398123046875,-0.899139404296875,-0.494659423828125,0.023468017578125
1761914293911179000,2.408178955078125,-0.923187255859375,-0.4839935302734375,0.0185089111328125
1761914293921235200,2.418235107421875,-0.9307098388671875,-0.4793701171875,0.0132293701171875
1761914293931291100,2.428291015625,-0.9151458740234375,-0.4865875244140625,-0.0010223388671875
1761914293941347000,2.43834716796875,-0.8836822509765625,-0.4991607666015625,-0.021392822265625
1761914293951403300,2.4484033203125,-0.8491973876953125,-0.5099639892578125,-0.043487548828125
1761914293961459200,2.458459228515625,-0.825439453125,-0.5267333984375,-0.0611572265625
1761914293971515100,2.46851513671875,-0.814117431640625,-0.5538330078125,-0.0756378173828125
1761914293981571000,2.478571044921875,-0.807830810546875,-0.57794189453125,-0.0894927978515625
1761914293991627000,2.488626953125,-0.8017425537109375,-0.5938568115234375,-0.100433349609375
1761914294001683000,2.498682861328125,-0.7969207763671875,-0.608184814453125,-0.1087646484375
1761914294011740200,2.508740234375,-0.7940216064453125,-0.6175994873046875,-0.1114044189453125
1761914294021796000,2.518796142578125,-0.79046630859375,-0.6209869384765625,-0.1050872802734375
1761914294031852000,2.52885205078125,-0.785125732421875,-0.615631103515625,-0.094940185546875
1761914294041908000,2.538907958984375,-0.7831878662109375,-0.603485107421875,-0.0845489501953125
1761914294051964200,2.548964111328125,-0.787841796875,-0.589019775390625,-0.0751953125
1761914294062020000,2.55902001953125,-0.7946319580078125,-0.57916259765625,-0.0685577392578125
1761914294072076000,2.569075927734375,-0.8008575439453125,-0.571075439453125,-0.063995361328125
1761914294082132200,2.57913232421875,-0.7996063232421875,-0.56121826171875,-0.0628814697265625
1761914294092188200,2.589188232421875,-0.7901611328125,-0.549835205078125,-0.062774658203125
1761914294102244000,2.599244140625,-0.78204345703125,-0.54022216796875,-0.065826416015625
1761914294112300000,2.609300048828125,-0.7762298583984375,-0.5327911376953125,-0.067718505859375
1761914294122356200,2.619356201171875,-0.7639007568359375,-0.5269775390625,-0.069244384765625
1761914294132412200,2.629412109375,-0.7477264404296875,-0.5211944580078125,-0.0721588134765625
1761914294142468000,2.639468017578125,-0.72998046875,-0.5206298828125,-0.0734100341796875
1761914294152524000,2.64952392578125,-0.7167205810546875,-0.524810791015625,-0.0723419189453125
1761914294162580000,2.659580078125,-0.7052764892578125,-0.5286407470703125,-0.072967529296875
1761914294172636200,2.66963623046875,-0.6966705322265625,-0.5356903076171875,-0.07257080078125
1761914294182692000,2.679692138671875,-0.693817138671875,-0.5434112548828125,-0.071685791015625
1761914294192748000,2.689748046875,-0.6994171142578125,-0.552215576171875,-0.0697479248046875
1761914294202804000,2.699803955078125,-0.708404541015625,-0.556732177734375,-0.071197509765625
1761914294212860200,2.709860107421875,-0.7165069580078125,-0.5614013671875,-0.075042724609375
1761914294222916000,2.719916015625,-0.72296142578125,-0.5710296630859375,-0.0719146728515625
1761914294232973000,2.72997314453125,-0.735076904296875,-0.58001708984375,-0.067840576171875
1761914294243029000,2.740029052734375,-0.750244140625,-0.5860443115234375,-0.0653076171875
1761914294253085200,2.750085205078125,-0.7593994140625,-0.588348388671875,-0.0605316162109375
1761914294263141000,2.76014111328125,-0.76092529296875,-0.5931243896484375,-0.05169677734375
1761914294273197000,2.770197021484375,-0.7609405517578125,-0.5974578857421875,-0.0399322509765625
1761914294283253200,2.780253173828125,-0.762939453125,-0.6026153564453125,-0.0261077880859375
1761914294293309000,2.790308837890625,-0.766326904296875,-0.6049041748046875,-0.0089111328125
1761914294303365000,2.800365234375,-0.7725372314453125,-0.6055145263671875,0.0069732666015625
1761914294313421000,2.810421142578125,-0.7818603515625,-0.6043243408203125,0.019378662109375
1761914294323477000,2.82047705078125,-0.7893829345703125,-0.6031951904296875,0.030059814453125
1761914294333533000,2.830532958984375,-0.7955322265625,-0.6067657470703125,0.0404815673828125
1761914294343589000,2.840589111328125,-0.8013458251953125,-0.6111602783203125,0.0521240234375
1761914294353645000,2.85064501953125,-0.8033599853515625,-0.6168212890625,0.063140869140625
1761914294363701000,2.860700927734375,-0.8024749755859375,-0.6244659423828125,0.0726776123046875
1761914294373757200,2.870757080078125,-0.8032379150390625,-0.6320343017578125,0.07879638671875
1761914294383813000,2.880813232421875,-0.802886962890625,-0.6371612548828125,0.084228515625
1761914294393869000,2.890869140625,-0.802093505859375,-0.6397247314453125,0.0879364013671875
1761914294403925200,2.90092529296875,-0.8059234619140625,-0.6429443359375,0.092864990234375
1761914294413981200,2.910981201171875,-0.8184814453125,-0.6439971923828125,0.0981292724609375
1761914294424036900,2.921036865234375,-0.831451416015625,-0.6414031982421875,0.1012115478515625
1761914294434093000,2.931093017578125,-0.846038818359375,-0.644866943359375,0.1029052734375
1761914294444149000,2.94114892578125,-0.8452911376953125,-0.6715240478515625,0.1103057861328125
1761914294454206000,2.9512060546875,-0.8386993408203125,-0.70965576171875,0.1150665283203125
1761914294464262000,2.961261962890625,-0.8364715576171875,-0.7313995361328125,0.108001708984375
1761914294474318000,2.971318115234375,-0.8347625732421875,-0.743927001953125,0.0944061279296875
1761914294484374000,2.9813740234375,-0.8401641845703125,-0.76580810546875,0.0795135498046875
1761914294494430000,2.991429931640625,-0.8536376953125,-0.7902984619140625,0.073577880859375
1761914294504486100,3.001486083984375,-0.868896484375,-0.7906494140625,0.06658935546875
1761914294514542000,3.0115419921875,-0.8983306884765625,-0.767486572265625,0.0589447021484375
1761914294524598000,3.021597900390625,-0.9396820068359375,-0.7338104248046875,0.0551300048828125
1761914294534654200,3.031654296875,-0.9815826416015625,-0.6936798095703125,0.055328369140625
1761914294544710100,3.041710205078125,-1.0134429931640625,-0.647369384765625,0.0566558837890625
1761914294554766000,3.05176611328125,-1.0298919677734375,-0.5992279052734375,0.0520172119140625
1761914294564822300,3.061822265625,-1.0316925048828125,-0.5436859130859375,0.0407867431640625
1761914294574878000,3.0718779296875,-1.019866943359375,-0.488739013671875,0.016632080078125
1761914294584934000,3.081933837890625,-0.9920654296875,-0.44061279296875,-0.0140228271484375
1761914294594990000,3.091989990234375,-0.9478302001953125,-0.4109039306640625,-0.0453948974609375
1761914294605046000,3.1020458984375,-0.886962890625,-0.3989410400390625,-0.076751708984375
1761914294615102000,3.11210205078125,-0.827239990234375,-0.3896636962890625,-0.102569580078125
1761914294625158100,3.122158203125,-0.772613525390625,-0.3936309814453125,-0.1236114501953125
1761914294635214000,3.132214111328125,-0.7195892333984375,-0.410888671875,-0.1410369873046875
1761914294645270000,3.14227001953125,-0.6744842529296875,-0.432342529296875,-0.1591644287109375
1761914294655326200,3.152326171875,-0.6439056396484375,-0.4554595947265625,-0.1783447265625
1761914294665382100,3.162382080078125,-0.6295623779296875,-0.4775543212890625,-0.1941986083984375
1761914294675439000,3.172439208984375,-0.6325531005859375,-0.5029754638671875,-0.202301025390625
1761914294685495300,3.182495361328125,-0.6474151611328125,-0.527740478515625,-0.2000579833984375
1761914294695551500,3.192551513671875,-0.666107177734375,-0.54559326171875,-0.1970977783203125
1761914294705607400,3.202607421875,-0.6866302490234375,-0.5462646484375,-0.1939239501953125
1761914294715663400,3.212663330078125,-0.71240234375,-0.52874755859375,-0.1944732666015625
1761914294725719600,3.222719482421875,-0.738616943359375,-0.504852294921875,-0.1941070556640625
1761914294735775500,3.232775390625,-0.7652435302734375,-0.484466552734375,-0.1884918212890625
1761914294745831400,3.24283154296875,-0.7941131591796875,-0.46221923828125,-0.18096923828125
1761914294755887400,3.252887451171875,-0.81219482421875,-0.4356536865234375,-0.1709442138671875
1761914294765943300,3.262943359375,-0.8212127685546875,-0.4136505126953125,-0.15716552734375
1761914294775999200,3.272999267578125,-0.8199920654296875,-0.397064208984375,-0.1407318115234375
1761914294786055400,3.283055419921875,-0.81695556640625,-0.392669677734375,-0.1221466064453125
1761914294796111400,3.293111328125,-0.818756103515625,-0.3972320556640625,-0.110321044921875
1761914294806167300,3.303167236328125,-0.814422607421875,-0.414031982421875,-0.10662841796875
1761914294816223500,3.313223388671875,-0.8108978271484375,-0.4376678466796875,-0.1058807373046875
1761914294826279400,3.323279541015625,-0.810546875,-0.466705322265625,-0.1025848388671875
1761914294836335400,3.33333544921875,-0.8172760009765625,-0.49462890625,-0.0981292724609375
1761914294846391600,3.3433916015625,-0.808929443359375,-0.513214111328125,-0.08843994140625
1761914294856447500,3.353447509765625,-0.789398193359375,-0.52496337890625,-0.0732421875
1761914294866503400,3.36350341796875,-0.7759246826171875,-0.526580810546875,-0.054595947265625
1761914294876559600,3.3735595703125,-0.767059326171875,-0.520294189453125,-0.0362396240234375
1761914294886616600,3.383616455078125,-0.7644500732421875,-0.5108184814453125,-0.0225982666015625
1761914294896672500,3.393672607421875,-0.774566650390625,-0.508758544921875,-0.0114288330078125
1761914294906728200,3.403728271484375,-0.7965545654296875,-0.5088958740234375,-0.00689697265625
1761914294916784400,3.413784423828125,-0.817291259765625,-0.5086669921875,-0.0031890869140625
1761914294926840300,3.42384033203125,-0.8365325927734375,-0.511474609375,-0.000946044921875
1761914294936896300,3.433896240234375,-0.85235595703125,-0.5156402587890625,-0.0003509521484375
1761914294946952400,3.443952392578125,-0.8642120361328125,-0.514129638671875,-0.001708984375
1761914294957008400,3.45400830078125,-0.8749237060546875,-0.5146636962890625,-0.0052490234375
1761914294967064300,3.464064208984375,-0.8903045654296875,-0.5208282470703125,-0.0051116943359375
1761914294977120500,3.47412060546875,-0.9124603271484375,-0.5290374755859375,-0.0020751953125
1761914294987176400,3.484176513671875,-0.933929443359375,-0.5379180908203125,0.001617431640625
1761914294997232400,3.494232421875,-0.9565887451171875,-0.5408477783203125,0.0069732666015625
1761914295007288600,3.50428857421875,-0.9747314453125,-0.5350189208984375,0.011688232421875
1761914295017344500,3.514344482421875,-0.977996826171875,-0.52801513671875,0.0162811279296875
1761914295027400400,3.524400390625,-0.9779052734375,-0.5254669189453125,0.0216217041015625
1761914295037456400,3.534456298828125,-0.9807586669921875,-0.522003173828125,0.0254364013671875
1761914295047512300,3.54451220703125,-0.9868316650390625,-0.5211639404296875,0.027191162109375
1761914295057568300,3.554568359375,-0.986328125,-0.52191162109375,0.028533935546875
1761914295067624400,3.56462451171875,-0.976654052734375,-0.5222015380859375,0.02996826171875
1761914295077680400,3.574680419921875,-0.967071533203125,-0.52099609375,0.0283355712890625
1761914295087737300,3.5847373046875,-0.9485931396484375,-0.5191650390625,0.0211639404296875
1761914295097793300,3.594793212890625,-0.913818359375,-0.5150604248046875,0.011871337890625
1761914295107849500,3.604849365234375,-0.8690643310546875,-0.5113677978515625,-0.002044677734375
1761914295117905400,3.614905517578125,-0.830596923828125,-0.512664794921875,-0.020233154296875
1761914295127961300,3.62496142578125,-0.8004608154296875,-0.5174102783203125,-0.041717529296875
1761914295138017500,3.635017578125,-0.784820556640625,-0.5201416015625,-0.064300537109375
1761914295148073500,3.645073486328125,-0.776641845703125,-0.516021728515625,-0.088623046875
1761914295158129400,3.65512939453125,-0.7747039794921875,-0.506439208984375,-0.1125946044921875
1761914295168185600,3.665185546875,-0.785614013671875,-0.493377685546875,-0.1311187744140625
1761914295178241500,3.675241455078125,-0.8034210205078125,-0.480194091796875,-0.1453857421875
1761914295188297200,3.685297119140625,-0.8184967041015625,-0.4698028564453125,-0.16162109375
1761914295198353400,3.695353515625,-0.8322296142578125,-0.4663848876953125,-0.1776580810546875
1761914295208409300,3.705409423828125,-0.8474884033203125,-0.478515625,-0.1895751953125
1761914295218465300,3.71546533203125,-0.8509521484375,-0.5131072998046875,-0.1992034912109375
1761914295228521500,3.725521484375,-0.84246826171875,-0.5661163330078125,-0.20941162109375
1761914295238577400,3.735577392578125,-0.8425140380859375,-0.609283447265625,-0.2213897705078125
1761914295248633300,3.74563330078125,-0.856231689453125,-0.62945556640625,-0.2313232421875
1761914295258689300,3.755689208984375,-0.8742218017578125,-0.6380615234375,-0.2293548583984375
1761914295268745500,3.765745361328125,-0.8959197998046875,-0.654083251953125,-0.2117156982421875
1761914295278801400,3.775801513671875,-0.9208984375,-0.678375244140625,-0.1822357177734375
1761914295288857300,3.785857421875,-0.9504241943359375,-0.68914794921875,-0.1576690673828125
1761914295298914600,3.79591455078125,-0.9688568115234375,-0.6744842529296875,-0.13653564453125
1761914295308970500,3.805970458984375,-0.98193359375,-0.64013671875,-0.1177520751953125
1761914295319026400,3.8160263671875,-0.9897613525390625,-0.588592529296875,-0.100341796875
1761914295329082400,3.826082275390625,-0.9836273193359375,-0.5372772216796875,-0.0794525146484375
1761914295339138300,3.83613818359375,-0.9789276123046875,-0.493438720703125,-0.0557098388671875
1761914295349194200,3.8461943359375,-0.9719390869140625,-0.4550628662109375,-0.0323333740234375
1761914295359250400,3.85625048828125,-0.949859619140625,-0.4245147705078125,-0.01361083984375
1761914295369306400,3.866306396484375,-0.917236328125,-0.4162445068359375,0.0005645751953125
1761914295379362300,3.8763623046875,-0.8698883056640625,-0.4313507080078125,0.0150146484375
1761914295389418200,3.886418212890625,-0.8176422119140625,-0.46136474609375,0.030181884765625
1761914295399474400,3.896474365234375,-0.7742462158203125,-0.486846923828125,0.049652099609375
1761914295409530400,3.9065302734375,-0.7378387451171875,-0.5038299560546875,0.06817626953125
1761914295419586300,3.91658642578125,-0.714630126953125,-0.52252197265625,0.089691162109375
1761914295429642500,3.926642578125,-0.7066802978515625,-0.549072265625,0.11053466796875
1761914295439698400,3.936698486328125,-0.7096099853515625,-0.5775909423828125,0.1287994384765625
1761914295449754400,3.94675439453125,-0.72589111328125,-0.5962677001953125,0.1417083740234375
1761914295459810600,3.956810546875,-0.74755859375,-0.6000823974609375,0.1464385986328125
1761914295469866200,3.9668662109375,-0.7693634033203125,-0.5897064208984375,0.141510009765625
1761914295479922200,3.976922119140625,-0.791717529296875,-0.57733154296875,0.125213623046875
1761914295489978400,3.986978271484375,-0.816162109375,-0.5612030029296875,0.1021881103515625
1761914295500035300,3.997035400390625,-0.8408050537109375,-0.543731689453125,0.077301025390625
1761914295510088400,4.00708837890625,-0.86468505859375,-0.5278167724609375,0.0513763427734375
1761914295520144400,4.017144287109375,-0.8800048828125,-0.514190673828125,0.03179931640625
1761914295530200600,4.02720068359375,-0.8900909423828125,-0.507354736328125,0.0196075439453125
1761914295540256500,4.037256591796875,-0.892364501953125,-0.4998321533203125,0.01068115234375
1761914295550312200,4.047312255859375,-0.876434326171875,-0.493194580078125,0.0048370361328125
1761914295560368400,4.057368408203125,-0.8456573486328125,-0.493255615234375,0.00286865234375
1761914295570424300,4.06742431640625,-0.8198394775390625,-0.4987030029296875,0.0029754638671875
1761914295580480300,4.077480224609375,-0.7950592041015625,-0.509918212890625,0.00347900390625
1761914295590536400,4.087536376953125,-0.765411376953125,-0.5257720947265625,0.003662109375
1761914295600592400,4.09759228515625,-0.7327117919921875,-0.5389556884765625,0.004425048828125
1761914295610648300,4.1076484375,-0.7047271728515625,-0.5481414794921875,0.004486083984375
1761914295620704500,4.11770458984375,-0.6882171630859375,-0.5531768798828125,0.005279541015625
1761914295630760400,4.127760498046875,-0.6871795654296875,-0.5510711669921875,0.0048980712890625
1761914295640816400,4.13781640625,-0.69927978515625,-0.5442962646484375,0.004241943359375
1761914295650872600,4.14787255859375,-0.71429443359375,-0.538116455078125,-0.002349853515625
1761914295660928500,4.157928466796875,-0.731231689453125,-0.53387451171875,-0.0156707763671875
1761914295670984200,4.167984130859375,-0.741790771484375,-0.53021240234375,-0.0306854248046875
1761914295681040400,4.178040283203125,-0.7491455078125,-0.526763916015625,-0.043121337890625
1761914295691096800,4.188096923828125,-0.761962890625,-0.5208892822265625,-0.0551910400390625
1761914295701152800,4.19815283203125,-0.775360107421875,-0.5121002197265625,-0.06768798828125
1761914295711209700,4.208209716796875,-0.792633056640625,-0.4995574951171875,-0.0751800537109375
1761914295721266000,4.218265869140625,-0.80657958984375,-0.484588623046875,-0.0776824951171875
1761914295731321900,4.22832177734375,-0.8126373291015625,-0.4785919189453125,-0.0753936767578125
1761914295741377800,4.238377685546875,-0.817352294921875,-0.4835357666015625,-0.071868896484375
1761914295751433700,4.248433837890625,-0.82293701171875,-0.4852752685546875,-0.0733642578125
1761914295761490000,4.258489990234375,-0.8298187255859375,-0.48974609375,-0.0770721435546875
1761914295771545900,4.2685458984375,-0.8380584716796875,-0.5035400390625,-0.0836029052734375
1761914295781601800,4.278601806640625,-0.847137451171875,-0.5186767578125,-0.08905029296875
1761914295791658000,4.288657958984375,-0.85162353515625,-0.5305938720703125,-0.0935211181640625
1761914295801714000,4.2987138671875,-0.8458099365234375,-0.5425872802734375,-0.090789794921875
1761914295811769600,4.30876953125,-0.84906005859375,-0.553680419921875,-0.0821990966796875
1761914295821825800,4.31882568359375,-0.8600921630859375,-0.5594635009765625,-0.068634033203125
1761914295831881700,4.3288818359375,-0.8691558837890625,-0.56207275390625,-0.052154541015625
1761914295841937700,4.338937744140625,-0.8745880126953125,-0.566131591796875,-0.0366973876953125
1761914295851993900,4.348993896484375,-0.8657684326171875,-0.5720977783203125,-0.0204315185546875
1761914295862049800,4.3590498046875,-0.85345458984375,-0.580657958984375,0.0037384033203125
1761914295872105700,4.369105712890625,-0.848846435546875,-0.59002685546875,0.0290985107421875
1761914295882162000,4.379161865234375,-0.8451995849609375,-0.594635009765625,0.0520782470703125
1761914295892217900,4.3892177734375,-0.8424835205078125,-0.5949859619140625,0.0694580078125
1761914295902273800,4.399273681640625,-0.847137451171875,-0.5916748046875,0.0827178955078125
1761914295912330800,4.409330810546875,-0.850311279296875,-0.5841827392578125,0.091552734375
1761914295922387000,4.419386962890625,-0.854217529296875,-0.5756683349609375,0.0986785888671875
1761914295932443000,4.42944287109375,-0.8560943603515625,-0.56634521484375,0.1023101806640625
1761914295942498800,4.439498779296875,-0.852508544921875,-0.5545654296875,0.0998382568359375
1761914295952555000,4.449554931640625,-0.842376708984375,-0.55206298828125,0.09661865234375
1761914295962610700,4.459610595703125,-0.8292694091796875,-0.569976806640625,0.091400146484375
1761914295972666600,4.46966650390625,-0.8163604736328125,-0.614532470703125,0.085906982421875
1761914295982722800,4.479722900390625,-0.8107452392578125,-0.6609649658203125,0.074981689453125
1761914295992778800,4.48977880859375,-0.8121490478515625,-0.6899261474609375,0.0566253662109375
1761914296002834700,4.499834716796875,-0.814453125,-0.704833984375,0.035003662109375
1761914296012891000,4.509890869140625,-0.82794189453125,-0.7126922607421875,0.0127410888671875
1761914296022946800,4.51994677734375,-0.85467529296875,-0.7121734619140625,0.0000152587890625
1761914296033002800,4.530002685546875,-0.8927001953125,-0.7056427001953125,0.0032806396484375
1761914296043059000,4.540058837890625,-0.9414215087890625,-0.6835479736328125,0.0266265869140625
1761914296053115000,4.550114990234375,-0.98583984375,-0.6399078369140625,0.054595947265625
1761914296063170800,4.5601708984375,-1.009796142578125,-0.5689544677734375,0.067596435546875
1761914296073227000,4.57022705078125,-1.011749267578125,-0.497802734375,0.063201904296875
1761914296083283000,4.580282958984375,-1.0071868896484375,-0.446746826171875,0.046295166015625
1761914296093342000,4.590342041015625,-1.0027923583984375,-0.4196929931640625,0.0235748291015625
1761914296103399000,4.60039892578125,-0.97210693359375,-0.4078826904296875,-0.00494384765625
1761914296113454800,4.610454833984375,-0.9237060546875,-0.40069580078125,-0.03265380859375
1761914296123510800,4.6205107421875,-0.8796234130859375,-0.3987579345703125,-0.06011962890625
1761914296133567000,4.63056689453125,-0.83819580078125,-0.40521240234375,-0.078094482421875
1761914296143623000,4.640622802734375,-0.794921875,-0.4219512939453125,-0.0878448486328125
1761914296153678800,4.650678955078125,-0.7621612548828125,-0.4423675537109375,-0.0977630615234375
1761914296163735000,4.660735107421875,-0.7337493896484375,-0.463958740234375,-0.1062774658203125
1761914296173791000,4.670791015625,-0.7123260498046875,-0.4959564208984375,-0.112213134765625
1761914296183847000,4.680846923828125,-0.704986572265625,-0.5309906005859375,-0.123260498046875
1761914296193902800,4.69090283203125,-0.7097015380859375,-0.5551300048828125,-0.1350555419921875
1761914296203958800,4.700958740234375,-0.7233428955078125,-0.5615386962890625,-0.1484222412109375
1761914296214014700,4.7110146484375,-0.74957275390625,-0.5574493408203125,-0.1573638916015625
1761914296224071000,4.72107080078125,-0.7784576416015625,-0.55621337890625,-0.15740966796875
1761914296234126800,4.731126953125,-0.8047943115234375,-0.5525665283203125,-0.1535186767578125
1761914296244182800,4.741182861328125,-0.8198394775390625,-0.54010009765625,-0.1454010009765625
1761914296254238700,4.75123876953125,-0.82232666015625,-0.516265869140625,-0.1361236572265625
1761914296264295000,4.761294921875,-0.817474365234375,-0.4864501953125,-0.13128662109375
1761914296274350800,4.771350830078125,-0.8035125732421875,-0.463134765625,-0.1200408935546875
1761914296284407800,4.78140771484375,-0.7883453369140625,-0.446075439453125,-0.1063232421875
1761914296294464000,4.791464111328125,-0.7819061279296875,-0.438720703125,-0.094818115234375
1761914296304520000,4.80152001953125,-0.7767181396484375,-0.44622802734375,-0.0834197998046875
1761914296314576000,4.811575927734375,-0.7644805908203125,-0.46539306640625,-0.074127197265625
1761914296324631800,4.8216318359375,-0.753631591796875,-0.4905242919921875,-0.0630340576171875
1761914296334688000,4.83168798828125,-0.7438507080078125,-0.516693115234375,-0.0471649169921875
1761914296344743700,4.84174365234375,-0.739501953125,-0.53662109375,-0.0291595458984375
1761914296354799900,4.8517998046875,-0.7345123291015625,-0.549774169921875,-0.0066986083984375
1761914296364855800,4.861855712890625,-0.7274017333984375,-0.555877685546875,0.0185089111328125
1761914296374911700,4.871911865234375,-0.732086181640625,-0.5577545166015625,0.04254150390625
1761914296384967700,4.8819677734375,-0.7486724853515625,-0.5539093017578125,0.05682373046875
1761914296395024000,4.89202392578125,-0.775604248046875,-0.5511322021484375,0.06011962890625
1761914296405079800,4.902079833984375,-0.79608154296875,-0.545623779296875,0.055328369140625
1761914296415135700,4.9121357421875,-0.8134765625,-0.5411529541015625,0.0558929443359375
1761914296425192000,4.92219189453125,-0.8274688720703125,-0.538360595703125,0.0534820556640625
1761914296435247900,4.932247802734375,-0.83746337890625,-0.5367279052734375,0.0475311279296875
1761914296445303800,4.9423037109375,-0.8442840576171875,-0.53759765625,0.0411834716796875
1761914296455360000,4.952360107421875,-0.847015380859375,-0.54254150390625,0.0324249267578125
1761914296465417000,4.9624169921875,-0.8498077392578125,-0.5505828857421875,0.0276641845703125
1761914296475473000,4.972472900390625,-0.85711669921875,-0.5570220947265625,0.0277252197265625
1761914296485528800,4.98252880859375,-0.8639068603515625,-0.5598602294921875,0.03179931640625
1761914296495584800,4.992584716796875,-0.861297607421875,-0.56787109375,0.0360870361328125
1761914296505640700,5.002640625,-0.849578857421875,-0.581207275390625,0.0420074462890625
1761914296515696600,5.012696533203125,-0.834197998046875,-0.5934295654296875,0.051666259765625
1761914296525752800,5.0227529296875,-0.8206939697265625,-0.6046600341796875,0.0568695068359375
1761914296535808800,5.032808837890625,-0.8136444091796875,-0.6134185791015625,0.06005859375
1761914296545864700,5.04286474609375,-0.8122100830078125,-0.616973876953125,0.0582275390625
1761914296555921000,5.0529208984375,-0.812255859375,-0.61968994140625,0.0545654296875
1761914296565976800,5.062976806640625,-0.8146514892578125,-0.631927490234375,0.0541534423828125
1761914296576032800,5.07303271484375,-0.81231689453125,-0.6440277099609375,0.05224609375
1761914296586089000,5.0830888671875,-0.8025665283203125,-0.64801025390625,0.0452728271484375
1761914296596145000,5.093144775390625,-0.78570556640625,-0.6496429443359375,0.03497314453125
1761914296606200800,5.103200927734375,-0.7692108154296875,-0.646270751953125,0.0201873779296875
1761914296616257000,5.113257080078125,-0.7617034912109375,-0.6437225341796875,0.0019378662109375
1761914296626312700,5.123312744140625,-0.761932373046875,-0.64227294921875,-0.0169219970703125
1761914296636368600,5.13336865234375,-0.7664031982421875,-0.63885498046875,-0.032135009765625
1761914296646425600,5.143425537109375,-0.780731201171875,-0.63134765625,-0.0471038818359375
1761914296656481800,5.153481689453125,-0.7890472412109375,-0.622589111328125,-0.0599517822265625
1761914296666537700,5.163537841796875,-0.79058837890625,-0.614044189453125,-0.0708160400390625
1761914296676593700,5.17359375,-0.7930755615234375,-0.6202850341796875,-0.0796051025390625
1761914296686653400,5.1836533203125,-0.7939453125,-0.665435791015625,-0.0796356201171875
1761914296696709400,5.19370947265625,-0.807403564453125,-0.7105560302734375,-0.0784912109375
1761914296706765300,5.203765380859375,-0.8177032470703125,-0.7208251953125,-0.08349609375
1761914296716821500,5.213821533203125,-0.82373046875,-0.7205657958984375,-0.0883636474609375
1761914296726877400,5.22387744140625,-0.8391571044921875,-0.721649169921875,-0.077789306640625
1761914296736933000,5.23393310546875,-0.872039794921875,-0.7154541015625,-0.0503082275390625
1761914296746989300,5.2439892578125,-0.9075775146484375,-0.7022857666015625,-0.0214691162109375
1761914296757045200,5.254045166015625,-0.9418792724609375,-0.684661865234375,-0.0052032470703125
1761914296767101200,5.26410107421875,-0.966339111328125,-0.6538238525390625,0.006011962890625
1761914296777157400,5.274157470703125,-0.9727783203125,-0.6220855712890625,0.013763427734375
1761914296787213300,5.28421337890625,-0.9811859130859375,-0.60235595703125,0.0186614990234375
1761914296797269200,5.294269287109375,-0.9817657470703125,-0.58160400390625,0.0193634033203125
1761914296807325400,5.304325439453125,-0.97039794921875,-0.5496826171875,0.009918212890625
1761914296817381400,5.31438134765625,-0.9521331787109375,-0.5121612548828125,-0.003753662109375
1761914296827438300,5.324438232421875,-0.924560546875,-0.4757843017578125,-0.0065765380859375
1761914296837494300,5.334494384765625,-0.896484375,-0.454559326171875,0.002838134765625
1761914296847550500,5.344550537109375,-0.8657989501953125,-0.4496307373046875,0.019439697265625
1761914296857606400,5.3546064453125,-0.8228302001953125,-0.4567108154296875,0.04071044921875
1761914296867662300,5.364662353515625,-0.7713775634765625,-0.474822998046875,0.0666351318359375
1761914296877718500,5.374718505859375,-0.7321014404296875,-0.4904327392578125,0.08935546875
1761914296887774200,5.384774169921875,-0.71856689453125,-0.499114990234375,0.1077880859375
1761914296897830100,5.394830078125,-0.7102203369140625,-0.5193634033203125,0.1209869384765625
1761914296907886300,5.40488623046875,-0.698974609375,-0.5470123291015625,0.134246826171875
1761914296917942300,5.4149423828125,-0.697174072265625,-0.5675811767578125,0.1465606689453125
1761914296927998200,5.424998291015625,-0.697845458984375,-0.5815887451171875,0.1549224853515625
1761914296938054400,5.435054443359375,-0.71099853515625,-0.5821380615234375,0.1548309326171875
1761914296948110300,5.4451103515625,-0.723724365234375,-0.58111572265625,0.1548309326171875
1761914296958166300,5.455166259765625,-0.738311767578125,-0.584320068359375,0.15228271484375
1761914296968222500,5.465222412109375,-0.76690673828125,-0.5770263671875,0.1484527587890625
1761914296978278400,5.4752783203125,-0.7985382080078125,-0.558807373046875,0.144012451171875
1761914296988334300,5.485334228515625,-0.8351287841796875,-0.5330963134765625,0.13641357421875
1761914296998390500,5.495390625,-0.8660125732421875,-0.509124755859375,0.12762451171875
1761914297008447500,5.505447509765625,-0.889068603515625,-0.4940338134765625,0.11773681640625
1761914297018503400,5.51550341796875,-0.9020233154296875,-0.4859466552734375,0.105743408203125
1761914297028559400,5.525559326171875,-0.89910888671875,-0.4839630126953125,0.0926361083984375
1761914297038615300,5.535615234375,-0.885986328125,-0.4934234619140625,0.0839080810546875
1761914297048671200,5.545671142578125,-0.860992431640625,-0.50341796875,0.0871734619140625
1761914297058727200,5.55572705078125,-0.8408966064453125,-0.5110931396484375,0.0870361328125
1761914297068783400,5.565783447265625,-0.80560302734375,-0.52099609375,0.085174560546875
1761914297078839300,5.57583935546875,-0.7687835693359375,-0.533172607421875,0.08551025390625
1761914297088895200,5.585895263671875,-0.7436065673828125,-0.545623779296875,0.0851287841796875
1761914297098951400,5.595951416015625,-0.7354583740234375,-0.5540771484375,0.0820465087890625
1761914297109007400,5.60600732421875,-0.73077392578125,-0.559539794921875,0.076751708984375
1761914297119063300,5.616063232421875,-0.7330780029296875,-0.5609893798828125,0.0697784423828125
1761914297129119500,5.626119384765625,-0.73974609375,-0.5594635009765625,0.0594329833984375
1761914297139175400,5.636175537109375,-0.749908447265625,-0.5584564208984375,0.043609619140625
1761914297149231400,5.6462314453125,-0.7571563720703125,-0.560882568359375,0.02630615234375
1761914297159287600,5.65628759765625,-0.76275634765625,-0.560760498046875,0.012115478515625
1761914297169343200,5.66634326171875,-0.775787353515625,-0.5582733154296875,0.0023040771484375
1761914297179399200,5.676399169921875,-0.784637451171875,-0.5541229248046875,-0.00994873046875
1761914297189456100,5.6864560546875,-0.7881317138671875,-0.543670654296875,-0.0229339599609375
1761914297199512300,5.69651220703125,-0.790374755859375,-0.5275421142578125,-0.0325775146484375
1761914297209568300,5.706568359375,-0.78411865234375,-0.521697998046875,-0.039215087890625
1761914297219624200,5.716624267578125,-0.7718353271484375,-0.5244903564453125,-0.0384674072265625
1761914297229680400,5.726680419921875,-0.7572174072265625,-0.528045654296875,-0.0397796630859375
1761914297239736300,5.736736328125,-0.7451019287109375,-0.5282135009765625,-0.0447998046875
1761914297249792300,5.746792236328125,-0.736663818359375,-0.5269775390625,-0.051177978515625
1761914297259848400,5.756848388671875,-0.73828125,-0.5335235595703125,-0.0551605224609375
1761914297269904400,5.766904296875,-0.7519378662109375,-0.5523834228515625,-0.0574493408203125
1761914297279960300,5.776960205078125,-0.7663421630859375,-0.566802978515625,-0.061767578125
1761914297290016500,5.7870166015625,-0.77923583984375,-0.5756378173828125,-0.0701141357421875
1761914297300072400,5.797072509765625,-0.786163330078125,-0.58367919921875,-0.0792083740234375
1761914297310128400,5.80712841796875,-0.78717041015625,-0.59857177734375,-0.087432861328125
1761914297320184300,5.817184326171875,-0.7931365966796875,-0.61285400390625,-0.0905303955078125
1761914297330240300,5.827240234375,-0.802642822265625,-0.62164306640625,-0.08740234375
1761914297340296200,5.837296142578125,-0.8136138916015625,-0.624298095703125,-0.077178955078125
1761914297350352400,5.847352294921875,-0.828277587890625,-0.6201324462890625,-0.0611114501953125
1761914297360408300,5.857408203125,-0.83917236328125,-0.606231689453125,-0.0434417724609375
1761914297370465300,5.86746533203125,-0.8494720458984375,-0.59246826171875,-0.0289459228515625
1761914297380521200,5.877521240234375,-0.8635711669921875,-0.58123779296875,-0.0129852294921875
1761914297390577400,5.887577392578125,-0.8783416748046875,-0.5771331787109375,0.0038299560546875
1761914297400633300,5.89763330078125,-0.8846282958984375,-0.591217041015625,0.0127716064453125
1761914297410689300,5.907689208984375,-0.887481689453125,-0.6260833740234375,0.019866943359375
1761914297420745500,5.917745361328125,-0.90020751953125,-0.6405181884765625,0.0166778564453125
1761914297430801400,5.927801513671875,-0.9016571044921875,-0.6352386474609375,0.0050506591796875
1761914297440857300,5.937857421875,-0.890106201171875,-0.64892578125,-0.007781982421875
1761914297450913500,5.94791357421875,-0.882171630859375,-0.693817138671875,-0.01239013671875
1761914297460969500,5.957969482421875,-0.8818359375,-0.7525482177734375,-0.010009765625
1761914297471025200,5.968025146484375,-0.886138916015625,-0.77264404296875,-0.015838623046875
1761914297481081300,5.978081298828125,-0.88873291015625,-0.7370758056640625,-0.035186767578125
1761914297491137300,5.98813720703125,-0.8934173583984375,-0.6735992431640625,-0.0517425537109375
1761914297501193200,5.998193115234375,-0.910400390625,-0.6353912353515625,-0.043548583984375
1761914297511249400,6.00824951171875,-0.9300994873046875,-0.60968017578125,-0.0220489501953125
1761914297521305300,6.018305419921875,-0.94512939453125,-0.57220458984375,-0.008758544921875
1761914297531361300,6.028361328125,-0.9486083984375,-0.52490234375,-0.0068817138671875
1761914297541418200,6.038418212890625,-0.9490966796875,-0.4768524169921875,-0.0148162841796875
1761914297551474400,6.048474365234375,-0.9394073486328125,-0.43463134765625,-0.021820068359375
1761914297561530400,6.0585302734375,-0.9185791015625,-0.4028778076171875,-0.0306243896484375
1761914297571586300,6.06858642578125,-0.8874969482421875,-0.38848876953125,-0.046295166015625
1761914297581642500,6.078642578125,-0.84674072265625,-0.387176513671875,-0.067779541015625
1761914297591698400,6.088698486328125,-0.7894287109375,-0.4022674560546875,-0.096893310546875
1761914297601754400,6.09875439453125,-0.7275238037109375,-0.4306488037109375,-0.12530517578125
1761914297611810600,6.108810546875,-0.68243408203125,-0.46551513671875,-0.1507568359375
1761914297621866200,6.1188662109375,-0.67205810546875,-0.5052032470703125,-0.1730804443359375
1761914297631922200,6.128922119140625,-0.7598724365234375,-0.6086883544921875,-0.1942901611328125
1761914297641978400,6.138978271484375,-0.820465087890625,-0.649627685546875,-0.1758270263671875
1761914297652034300,6.149034423828125,-0.7526702880859375,-0.5882720947265625,-0.167236328125
1761914297662090200,6.15909033203125,-0.7059783935546875,-0.589569091796875,-0.2092742919921875
1761914297672146400,6.169146484375,-0.6948394775390625,-0.5920562744140625,-0.233917236328125
1761914297682202400,6.179202392578125,-0.7144012451171875,-0.57171630859375,-0.2365570068359375
1761914297692258600,6.189258544921875,-0.7513885498046875,-0.5577392578125,-0.24237060546875
1761914297702314500,6.199314453125,-0.781524658203125,-0.5341339111328125,-0.2339019775390625
1761914297712370700,6.20937060546875,-0.817169189453125,-0.4895782470703125,-0.2105560302734375
1761914297722427600,6.219427734375,-0.870574951171875,-0.4337310791015625,-0.1813201904296875
1761914297732483600,6.229483642578125,-0.9285888671875,-0.376373291015625,-0.15826416015625
1761914297742539500,6.23953955078125,-0.9673919677734375,-0.334686279296875,-0.1532745361328125
1761914297752595700,6.249595703125,-0.9365997314453125,-0.32366943359375,-0.142242431640625
1761914297762651600,6.259651611328125,-0.922698974609375,-0.3456573486328125,-0.1259765625
1761914297772707600,6.26970751953125,-0.9275970458984375,-0.380950927734375,-0.1034393310546875
1761914297782763800,6.279763671875,-0.8743133544921875,-0.4038238525390625,-0.0836639404296875
1761914297792819700,6.28981982421875,-0.8208465576171875,-0.44110107421875,-0.0737457275390625
1761914297802875600,6.299875732421875,-0.78558349609375,-0.4795379638671875,-0.0670166015625
1761914297812931800,6.309931884765625,-0.7673187255859375,-0.5010833740234375,-0.0546112060546875
1761914297822987800,6.31998779296875,-0.7672882080078125,-0.513885498046875,-0.0413665771484375
1761914297833043700,6.330043701171875,-0.785675048828125,-0.517181396484375,-0.0298919677734375
1761914297843100000,6.340099853515625,-0.8062744140625,-0.524993896484375,-0.017181396484375
1761914297853155600,6.350155517578125,-0.8231658935546875,-0.5346221923828125,-0.0065765380859375
1761914297863211500,6.36021142578125,-0.8593902587890625,-0.5600738525390625,-0.006378173828125
1761914297873267700,6.370267822265625,-0.9077606201171875,-0.59661865234375,-0.008941650390625
1761914297883323600,6.38032373046875,-0.943695068359375,-0.619537353515625,-0.0105743408203125
1761914297893380600,6.390380615234375,-0.9210205078125,-0.613311767578125,-0.0122833251953125
1761914297903436500,6.4004365234375,-0.868621826171875,-0.5957794189453125,-0.0199127197265625
1761914297913492700,6.41049267578125,-0.834228515625,-0.5738067626953125,-0.0383758544921875
1761914297923548700,6.420548583984375,-0.7988433837890625,-0.560943603515625,-0.0598602294921875
1761914297933604600,6.4306044921875,-0.7510528564453125,-0.5621490478515625,-0.0597686767578125
1761914297943660800,6.440660888671875,-0.73089599609375,-0.553802490234375,-0.04254150390625
1761914297953716700,6.450716796875,-0.7408905029296875,-0.530364990234375,-0.0258026123046875
1761914297963772700,6.460772705078125,-0.7636566162109375,-0.512115478515625,-0.0249786376953125
1761914297973828900,6.470828857421875,-0.7762908935546875,-0.499298095703125,-0.02996826171875
1761914297983884800,6.480884765625,-0.78729248046875,-0.4934844970703125,-0.03741455078125
1761914297993940700,6.490940673828125,-0.7911224365234375,-0.496368408203125,-0.038604736328125
1761914298003996700,6.50099658203125,-0.791290283203125,-0.5061187744140625,-0.03509521484375
1761914298014052600,6.511052490234375,-0.803070068359375,-0.5164337158203125,-0.0319366455078125
1761914298024108500,6.521108642578125,-0.8255615234375,-0.527069091796875,-0.0134124755859375
1761914298034164700,6.531164794921875,-0.8708953857421875,-0.55560302734375,0.0362091064453125
1761914298044220700,6.541220703125,-0.9285430908203125,-0.599212646484375,0.0884857177734375
1761914298054276600,6.551276611328125,-0.940643310546875,-0.6103515625,0.08935546875
1761914298064332800,6.561332763671875,-0.9149169921875,-0.619293212890625,0.0585174560546875
1761914298074389800,6.5713896484375,-0.8889312744140625,-0.629974365234375,0.0249176025390625
1761914298084445700,6.58144580078125,-0.856597900390625,-0.62811279296875,0.00146484375
1761914298094501600,6.591501708984375,-0.818359375,-0.6321258544921875,-0.0195465087890625
1761914298104557800,6.601557861328125,-0.76947021484375,-0.6545562744140625,-0.019805908203125
1761914298114613800,6.61161376953125,-0.74456787109375,-0.707550048828125,-0.021209716796875
1761914298124669700,6.621669677734375,-0.758056640625,-0.755950927734375,-0.042449951171875
1761914298134726000,6.631725830078125,-0.7518768310546875,-0.75543212890625,-0.06988525390625
1761914298144781800,6.64178173828125,-0.72930908203125,-0.73956298828125,-0.101348876953125
1761914298154837500,6.65183740234375,-0.703277587890625,-0.7196044921875,-0.143310546875
1761914298164893700,6.661893798828125,-0.7003631591796875,-0.70294189453125,-0.173248291015625
1761914298174949600,6.67194970703125,-0.7373504638671875,-0.6877899169921875,-0.184844970703125
1761914298185005600,6.682005615234375,-0.78179931640625,-0.688934326171875,-0.174285888671875
1761914298195061800,6.692061767578125,-0.7703399658203125,-0.762481689453125,-0.1300506591796875
1761914298205117700,6.70211767578125,-0.8124237060546875,-0.8112945556640625,-0.08038330078125
1761914298215173600,6.712173583984375,-0.888763427734375,-0.9095458984375,0.012237548828125
1761914298225229800,6.722229736328125,-0.8388824462890625,-0.926116943359375,0.0403289794921875
1761914298235285800,6.73228564453125,-1.010833740234375,-0.67742919921875,0.0102386474609375
1761914298245342700,6.7423427734375,-0.94915771484375,-0.724853515625,0.1036834716796875
1761914298255398700,6.752398681640625,-0.8833770751953125,-0.6868743896484375,0.1462249755859375
1761914298265454800,6.762454833984375,-0.9742584228515625,-0.56622314453125,0.0990447998046875
1761914298275510800,6.7725107421875,-0.9814453125,-0.6013336181640625,0.128265380859375
1761914298285566700,6.782566650390625,-0.8372650146484375,-0.637451171875,0.12451171875
1761914298295623000,6.792622802734375,-0.8837432861328125,-0.5881805419921875,0.064971923828125
1761914298305678600,6.8026787109375,-0.86553955078125,-0.574737548828125,0.0640869140625
1761914298315734500,6.812734619140625,-0.7901458740234375,-0.562408447265625,0.055450439453125
1761914298325790700,6.822790771484375,-0.69219970703125,-0.4686279296875,-0.07373046875
1761914298335846700,6.8328466796875,-0.6125640869140625,-0.433746337890625,-0.1443939208984375
1761914298345902600,6.842902587890625,-0.628143310546875,-0.501312255859375,-0.1377105712890625
1761914298355958800,6.852958740234375,-0.65850830078125,-0.5766448974609375,-0.109527587890625
1761914298366014700,6.8630146484375,-0.6641845703125,-0.6045379638671875,-0.07421875
1761914298376070700,6.873070556640625,-0.623260498046875,-0.604095458984375,-0.0386199951171875
1761914298386126800,6.883126953125,-0.5583343505859375,-0.597808837890625,0.0001373291015625
1761914298396182800,6.893182861328125,-0.5413055419921875,-0.5798187255859375,0.0364990234375
1761914298406238700,6.90323876953125,-0.582000732421875,-0.568450927734375,0.054107666015625
1761914298416295000,6.913294921875,-0.636749267578125,-0.5857696533203125,0.073028564453125
1761914298426351900,6.923351806640625,-0.672271728515625,-0.6111907958984375,0.1028289794921875
1761914298436407800,6.93340771484375,-0.694122314453125,-0.6258697509765625,0.135955810546875
1761914298446463700,6.943463623046875,-0.7077484130859375,-0.6237030029296875,0.1640167236328125
1761914298456519700,6.953519775390625,-0.7136077880859375,-0.612060546875,0.1807708740234375
1761914298466575600,6.96357568359375,-0.7368316650390625,-0.60552978515625,0.188720703125
1761914298476631600,6.973631591796875,-0.77191162109375,-0.6090850830078125,0.1899566650390625
1761914298486687700,6.983687744140625,-0.775634765625,-0.6173248291015625,0.18505859375
1761914298496743700,6.99374365234375,-0.7601165771484375,-0.6266632080078125,0.1737213134765625
1761914298506799600,7.003799560546875,-0.74407958984375,-0.6283111572265625,0.1546630859375
1761914298516855800,7.013855712890625,-0.730072021484375,-0.6260528564453125,0.1380157470703125
1761914298526911700,7.023911865234375,-0.711273193359375,-0.628082275390625,0.1230316162109375
1761914298536967700,7.0339677734375,-0.6960296630859375,-0.638885498046875,0.110595703125
1761914298547024000,7.04402392578125,-0.689361572265625,-0.650726318359375,0.0973968505859375
1761914298557079800,7.054079833984375,-0.7056427001953125,-0.6501312255859375,0.082366943359375
1761914298567135700,7.0641357421875,-0.714324951171875,-0.6382598876953125,0.0649261474609375
1761914298577192000,7.07419189453125,-0.7036590576171875,-0.62982177734375,0.0555572509765625
1761914298587247600,7.08424755859375,-0.6905059814453125,-0.628692626953125,0.054290771484375
1761914298597303600,7.094303466796875,-0.6861724853515625,-0.629547119140625,0.05987548828125
1761914298607360500,7.104360595703125,-0.694580078125,-0.629058837890625,0.068389892578125
1761914298617416700,7.114416748046875,-0.7100830078125,-0.633056640625,0.075714111328125
1761914298627472600,7.12447265625,-0.7198486328125,-0.6371307373046875,0.084381103515625
1761914298637528600,7.134528564453125,-0.72955322265625,-0.6364288330078125,0.1016082763671875
1761914298647584800,7.144584716796875,-0.7451324462890625,-0.6402587890625,0.118621826171875
1761914298657640700,7.154640625,-0.7780609130859375,-0.6478424072265625,0.127105712890625
1761914298667696600,7.164696533203125,-0.80816650390625,-0.6473236083984375,0.1229248046875
1761914298677752800,7.1747529296875,-0.8356475830078125,-0.6287078857421875,0.1069488525390625
1761914298687804200,7.18480419921875,-0.857879638671875,-0.6033782958984375,0.0831146240234375
1761914298697860400,7.1948603515625,-0.8714752197265625,-0.583099365234375,0.063201904296875
1761914298707916300,7.204916259765625,-0.8748321533203125,-0.572265625,0.046539306640625
1761914298717972200,7.21497216796875,-0.8786773681640625,-0.5673065185546875,0.0319366455078125
1761914298728028400,7.2250283203125,-0.8744354248046875,-0.5627288818359375,0.020416259765625
1761914298738084400,7.23508447265625,-0.852691650390625,-0.5561065673828125,0.0104522705078125
1761914298748140300,7.245140380859375,-0.82977294921875,-0.5565643310546875,-0.0003662109375
1761914298758196500,7.255196533203125,-0.8240509033203125,-0.557403564453125,-0.010772705078125
1761914298768252400,7.26525244140625,-0.8149871826171875,-0.54962158203125,-0.02081298828125
1761914298778308400,7.275308349609375,-0.7965545654296875,-0.54229736328125,-0.0202178955078125
1761914298788365300,7.285365234375,-0.778900146484375,-0.5521697998046875,-0.0114593505859375
1761914298798421500,7.29542138671875,-0.76409912109375,-0.5705718994140625,-0.002105712890625
1761914298808477400,7.3054775390625,-0.7530059814453125,-0.5830841064453125,0.007904052734375
1761914298818533400,7.315533447265625,-0.73748779296875,-0.5893096923828125,0.0230865478515625
1761914298828589300,7.32558935546875,-0.724273681640625,-0.5943450927734375,0.039093017578125
1761914298838645500,7.3356455078125,-0.7149658203125,-0.60064697265625,0.0539703369140625
1761914298848701200,7.345701171875,-0.7101898193359375,-0.60693359375,0.0683746337890625
1761914298858757400,7.35575732421875,-0.7152862548828125,-0.612640380859375,0.0842132568359375
1761914298868813300,7.365813232421875,-0.7122039794921875,-0.61773681640625,0.0990142822265625
1761914298878869200,7.375869140625,-0.7099609375,-0.621185302734375,0.112640380859375
1761914298888925400,7.385925537109375,-0.7093505859375,-0.6241912841796875,0.1231842041015625
1761914298898981400,7.3959814453125,-0.7138519287109375,-0.621856689453125,0.1278228759765625
1761914298909037300,7.406037353515625,-0.72076416015625,-0.6150665283203125,0.1263275146484375
1761914298919093200,7.41609326171875,-0.7263031005859375,-0.608734130859375,0.1227264404296875
1761914298929149400,7.4261494140625,-0.7179107666015625,-0.60162353515625,0.11676025390625
1761914298939205400,7.436205322265625,-0.710174560546875,-0.59112548828125,0.1138916015625
1761914298949261300,7.44626123046875,-0.7257080078125,-0.5862884521484375,0.11846923828125
1761914298959317500,7.4563173828125,-0.7541351318359375,-0.5866241455078125,0.125274658203125
1761914298969374500,7.46637451171875,-0.767364501953125,-0.57464599609375,0.127227783203125
1761914298979430400,7.476430419921875,-0.762298583984375,-0.5581207275390625,0.1189422607421875
1761914298989486300,7.486486328125,-0.746063232421875,-0.5482635498046875,0.10833740234375
1761914298999542300,7.496542236328125,-0.741363525390625,-0.5316162109375,0.1070098876953125
1761914299009598200,7.50659814453125,-0.76507568359375,-0.521209716796875,0.1103973388671875
1761914299019654400,7.516654296875,-0.81060791015625,-0.5237579345703125,0.1219329833984375
1761914299029710300,7.52671044921875,-0.8558502197265625,-0.543792724609375,0.1375579833984375
1761914299039766300,7.536766357421875,-0.8724517822265625,-0.569000244140625,0.14227294921875
1761914299049822200,7.546822265625,-0.8939208984375,-0.5697479248046875,0.1395111083984375
1761914299059878400,7.55687841796875,-0.92169189453125,-0.5646209716796875,0.135955810546875
1761914299069934300,7.566934326171875,-0.961578369140625,-0.5693359375,0.13336181640625
1761914299079990300,7.576990234375,-1.0158843994140625,-0.5845489501953125,0.132720947265625
1761914299090046500,7.58704638671875,-1.055328369140625,-0.59234619140625,0.1209564208984375
1761914299100102400,7.597102294921875,-1.07147216796875,-0.5838623046875,0.0959320068359375
1761914299110158300,7.607158447265625,-1.087493896484375,-0.553070068359375,0.0635223388671875
1761914299120214300,7.61721435546875,-1.102630615234375,-0.5017547607421875,0.0232391357421875
1761914299130270200,7.627270263671875,-1.0948638916015625,-0.4482421875,-0.01776123046875
1761914299140327400,7.637327392578125,-1.0667572021484375,-0.3975982666015625,-0.0519256591796875
1761914299150383400,7.64738330078125,-1.0294189453125,-0.3662872314453125,-0.076690673828125
1761914299160439300,7.657439208984375,-0.998138427734375,-0.36077880859375,-0.089141845703125
1761914299170495200,7.6674951171875,-0.967742919921875,-0.376861572265625,-0.09429931640625
1761914299180551200,7.67755126953125,-0.962982177734375,-0.3871612548828125,-0.0975341796875
1761914299190607400,7.687607421875,-0.9553680419921875,-0.410980224609375,-0.094329833984375
1761914299200663300,7.697663330078125,-0.9543914794921875,-0.4371337890625,-0.095245361328125
1761914299210719200,7.70771923828125,-0.9488983154296875,-0.4515838623046875,-0.0958404541015625
1761914299220775400,7.717775390625,-0.9328460693359375,-0.466522216796875,-0.087615966796875
1761914299230831400,7.727831298828125,-0.924163818359375,-0.478912353515625,-0.068450927734375
1761914299240887300,7.73788720703125,-0.9241790771484375,-0.4933929443359375,-0.0547332763671875
1761914299250943500,7.747943603515625,-0.916717529296875,-0.5106658935546875,-0.0483856201171875
1761914299260999400,7.75799951171875,-0.905517578125,-0.5244903564453125,-0.0450897216796875
1761914299271055000,7.76805517578125,-0.9024810791015625,-0.532989501953125,-0.0446929931640625
1761914299281111300,7.778111328125,-0.909942626953125,-0.540863037109375,-0.047882080078125
1761914299291167200,7.788167236328125,-0.9163970947265625,-0.5511627197265625,-0.04876708984375
1761914299301223200,7.79822314453125,-0.9011383056640625,-0.5586090087890625,-0.0553436279296875
1761914299311279400,7.808279296875,-0.8631744384765625,-0.548828125,-0.07257080078125
1761914299321336300,7.81833642578125,-0.825103759765625,-0.5313568115234375,-0.0850830078125
1761914299331392300,7.828392333984375,-0.7962493896484375,-0.5224761962890625,-0.081787109375
1761914299341448200,7.8384482421875,-0.7820587158203125,-0.5239410400390625,-0.0690460205078125
1761914299351504400,7.84850439453125,-0.773590087890625,-0.5321807861328125,-0.0533294677734375
1761914299361560300,7.858560302734375,-0.7673797607421875,-0.544342041015625,-0.03515625
1761914299371616300,7.8686162109375,-0.7575531005859375,-0.55322265625,-0.013671875
1761914299381672400,7.87867236328125,-0.7478790283203125,-0.5596160888671875,0.0100860595703125
1761914299391728400,7.888728271484375,-0.743377685546875,-0.5626220703125,0.034881591796875
1761914299401784300,7.898784423828125,-0.738616943359375,-0.56268310546875,0.0533294677734375
1761914299411840500,7.908840576171875,-0.7413330078125,-0.5597686767578125,0.0666351318359375
1761914299421896400,7.918896484375,-0.7450103759765625,-0.5552520751953125,0.0764312744140625
1761914299431952100,7.9289521484375,-0.74053955078125,-0.5506744384765625,0.0860748291015625
1761914299442008300,7.93900830078125,-0.7387847900390625,-0.5456695556640625,0.0954437255859375
1761914299452064300,7.949064208984375,-0.7421722412109375,-0.5400390625,0.1056365966796875
1761914299462120200,7.9591201171875,-0.7320098876953125,-0.5382843017578125,0.1163787841796875
1761914299472176400,7.96917626953125,-0.7097930908203125,-0.5382232666015625,0.1231536865234375
1761914299482232300,7.979232421875,-0.691314697265625,-0.542388916015625,0.13214111328125
1761914299492288300,7.989288330078125,-0.6858367919921875,-0.5543060302734375,0.1439361572265625
1761914299502344400,7.999344482421875,-0.6840362548828125,-0.568328857421875,0.1500091552734375
1761914299512398300,8.0093984375,-0.6784820556640625,-0.578857421875,0.1490631103515625
1761914299522454300,8.019454345703124,-0.6646270751953125,-0.579925537109375,0.1433258056640625
1761914299532510200,8.02951025390625,-0.646942138671875,-0.57623291015625,0.1326446533203125
1761914299542566400,8.03956640625,-0.6437530517578125,-0.576690673828125,0.118316650390625
1761914299552622300,8.049622314453124,-0.6472320556640625,-0.588653564453125,0.1041107177734375
1761914299562678300,8.05967822265625,-0.6554107666015625,-0.60455322265625,0.1008453369140625
1761914299572734500,8.069734375,-0.673797607421875,-0.620697021484375,0.1067047119140625
1761914299582790400,8.079790283203126,-0.691314697265625,-0.638916015625,0.1110992431640625
1761914299592846300,8.089846435546875,-0.7045440673828125,-0.651123046875,0.1081390380859375
1761914299602902500,8.099902587890625,-0.7174530029296875,-0.661529541015625,0.103668212890625
1761914299612958500,8.10995849609375,-0.7346954345703125,-0.67303466796875,0.0996551513671875
1761914299623014400,8.120014404296874,-0.7618408203125,-0.6781158447265625,0.092437744140625
1761914299633070300,8.1300703125,-0.7881927490234375,-0.6725921630859375,0.0789337158203125
1761914299643126300,8.140126220703126,-0.808258056640625,-0.661834716796875,0.063720703125
1761914299653182200,8.15018212890625,-0.836029052734375,-0.6533355712890625,0.04638671875
1761914299663238400,8.16023828125,-0.8669891357421875,-0.641204833984375,0.0260467529296875
1761914299673294300,8.17029443359375,-0.8977508544921875,-0.620941162109375,0.0061492919921875
1761914299683350300,8.180350341796874,-0.9066925048828125,-0.590667724609375,-0.018646240234375
1761914299693407000,8.190406982421875,-0.8976287841796875,-0.5592193603515625,-0.044403076171875
1761914299703464000,8.2004638671875,-0.894256591796875,-0.5341339111328125,-0.062652587890625
1761914299713520000,8.21052001953125,-0.9089813232421875,-0.511627197265625,-0.070770263671875
1761914299723576000,8.220576171875,-0.9276275634765625,-0.5130157470703125,-0.0737457275390625
1761914299733631700,8.2306318359375,-0.941619873046875,-0.5165557861328125,-0.0662994384765625
1761914299743688000,8.24068798828125,-0.9629364013671875,-0.50421142578125,-0.0636138916015625
1761914299753744000,8.250743896484375,-0.9944915771484375,-0.4921875,-0.0603179931640625
1761914299763799800,8.2607998046875,-1.0126495361328125,-0.4974517822265625,-0.04827880859375
1761914299773856000,8.27085595703125,-1.0289459228515625,-0.518951416015625,-0.029022216796875
1761914299783912000,8.280911865234375,-1.047088623046875,-0.5419769287109375,-0.015838623046875
1761914299793967900,8.2909677734375,-1.059661865234375,-0.572113037109375,-0.0063934326171875
1761914299804024000,8.301024169921876,-1.0862884521484375,-0.6006927490234375,0.007354736328125
1761914299814080000,8.311080078125,-1.0864410400390625,-0.6053466796875,0.0329742431640625
1761914299824136000,8.321135986328125,-0.97052001953125,-0.6409759521484375,0.08758544921875
1761914299834192100,8.331192138671875,-0.9903411865234375,-0.75567626953125,0.11138916015625
1761914299844248000,8.341248046875,-1.111114501953125,-0.7673492431640625,0.126617431640625
1761914299854304000,8.351303955078125,-1.0838470458984375,-0.7448883056640625,0.153717041015625
1761914299864360000,8.36135986328125,-1.03741455078125,-0.712371826171875,0.1667633056640625
1761914299874415900,8.371415771484376,-1.0193939208984375,-0.6673583984375,0.1494293212890625
1761914299884471800,8.381471923828125,-0.997314453125,-0.6211700439453125,0.1265716552734375
1761914299894528800,8.39152880859375,-0.9730072021484375,-0.5763092041015625,0.0989227294921875
1761914299904585000,8.4015849609375,-0.9411773681640625,-0.5303192138671875,0.07086181640625
1761914299914641000,8.411640869140625,-0.9072418212890625,-0.4891204833984375,0.044219970703125
1761914299924696800,8.42169677734375,-0.8753814697265625,-0.4513702392578125,0.02471923828125
1761914299934753000,8.4317529296875,-0.8312530517578125,-0.4220123291015625,0.0076446533203125
1761914299944809000,8.44180908203125,-0.774566650390625,-0.4141082763671875,-0.0038909912109375
1761914299954865000,8.451864990234375,-0.7245025634765625,-0.421844482421875,-0.0004119873046875
1761914299964921000,8.461921142578126,-0.7075042724609375,-0.43878173828125,0.0189666748046875
1761914299974977000,8.47197705078125,-0.7301025390625,-0.4573516845703125,0.0430755615234375
1761914299985033000,8.482032958984375,-0.7516632080078125,-0.4940185546875,0.0709228515625
1761914299995089200,8.492089111328125,-0.76678466796875,-0.530975341796875,0.1056671142578125
1761914300005145000,8.50214501953125,-0.790985107421875,-0.561279296875,0.132904052734375
1761914300015200800,8.51220068359375,-0.7885894775390625,-0.5900421142578125,0.159393310546875
1761914300025257000,8.522257080078125,-0.777191162109375,-0.6160736083984375,0.1800537109375
1761914300035313000,8.53231298828125,-0.776397705078125,-0.6399993896484375,0.1937103271484375
1761914300045368800,8.542368896484374,-0.784698486328125,-0.6535491943359375,0.199188232421875
1761914300055425000,8.552425048828125,-0.7860260009765625,-0.652496337890625,0.192840576171875
1761914300065484000,8.562484130859374,-0.775970458984375,-0.6321563720703125,0.168060302734375
1761914300075541000,8.572541015625,-0.7582550048828125,-0.608978271484375,0.137451171875
1761914300085597000,8.582596923828126,-0.735809326171875,-0.589630126953125,0.1079559326171875
1761914300095653000,8.592653076171874,-0.7179412841796875,-0.5671234130859375,0.08203125
1761914300105709000,8.602708984375,-0.7129974365234375,-0.5462493896484375,0.0601959228515625
1761914300115764700,8.6127646484375,-0.7086334228515625,-0.538818359375,0.046905517578125
1761914300125821000,8.622821044921874,-0.7010498046875,-0.5420074462890625,0.0412445068359375
1761914300135876900,8.632876953125,-0.6959381103515625,-0.5511627197265625,0.03338623046875
1761914300145932800,8.642932861328125,-0.691009521484375,-0.5656890869140625,0.020782470703125
1761914300155989000,8.652989013671874,-0.689727783203125,-0.586883544921875,0.008209228515625
1761914300166045000,8.663044921875,-0.683013916015625,-0.608978271484375,0.00054931640625
1761914300176100900,8.673100830078125,-0.6762237548828125,-0.626953125,-0.005767822265625
1761914300186157000,8.683156982421876,-0.6775970458984375,-0.6417694091796875,-0.0071563720703125
1761914300196213000,8.693212890625,-0.6819305419921875,-0.6616058349609375,-0.007720947265625
1761914300206269000,8.70326904296875,-0.6904449462890625,-0.680267333984375,-0.0100860595703125
1761914300216325000,8.7133251953125,-0.7176055908203125,-0.6799774169921875,-0.01104736328125
1761914300226381000,8.723381103515624,-0.7645721435546875,-0.6733551025390625,-0.006195068359375
1761914300236437000,8.73343701171875,-0.78680419921875,-0.6717681884765625,0.0002899169921875
1761914300246493000,8.743492919921875,-0.7736358642578125,-0.6677093505859375,0.0006561279296875
1761914300256548900,8.753548828125,-0.7752227783203125,-0.65948486328125,-0.002960205078125
1761914300266605800,8.763605712890625,-0.7839508056640625,-0.65203857421875,-0.012664794921875
1761914300276661800,8.773661865234375,-0.784271240234375,-0.6448211669921875,-0.02801513671875
1761914300286718000,8.783718017578124,-0.7799530029296875,-0.6306304931640625,-0.0435943603515625
1761914300296774000,8.79377392578125,-0.768646240234375,-0.6146392822265625,-0.051910400390625
1761914300306829800,8.803829833984375,-0.758544921875,-0.6085662841796875,-0.0509490966796875
1761914300316886000,8.813885986328126,-0.7437286376953125,-0.6082916259765625,-0.0397491455078125
1761914300326942000,8.82394189453125,-0.7170867919921875,-0.6110992431640625,-0.02679443359375
1761914300336998000,8.833997802734375,-0.7123260498046875,-0.6123046875,-0.0202484130859375
1761914300347054000,8.84405419921875,-0.717315673828125,-0.6162872314453125,-0.013458251953125
1761914300357110000,8.854110107421874,-0.7242431640625,-0.6287384033203125,-0.0040740966796875
1761914300367166000,8.864166015625,-0.72906494140625,-0.6440887451171875,0.003173828125
1761914300377222100,8.87422216796875,-0.7245635986328125,-0.650543212890625,0.00836181640625
1761914300387278000,8.884278076171874,-0.7104644775390625,-0.6466217041015625,0.009918212890625
1761914300397333800,8.894333740234375,-0.693603515625,-0.643280029296875,0.00665283203125
1761914300407390000,8.904389892578125,-0.6842193603515625,-0.6396636962890625,0.0068511962890625
1761914300417446000,8.91444580078125,-0.6859588623046875,-0.6436004638671875,0.00653076171875
1761914300427501800,8.924501708984375,-0.6968841552734375,-0.644439697265625,0.00579833984375
1761914300437558000,8.93455810546875,-0.69964599609375,-0.641357421875,0.0083770751953125
1761914300447614000,8.944614013671876,-0.6934356689453125,-0.6366119384765625,0.0070648193359375
1761914300457671000,8.9546708984375,-0.6948394775390625,-0.6348876953125,0.009368896484375
1761914300467726800,8.964726806640625,-0.6942291259765625,-0.6444854736328125,0.0192413330078125
1761914300477783000,8.974782958984376,-0.702392578125,-0.657073974609375,0.02734375
1761914300487839000,8.9848388671875,-0.70782470703125,-0.6594390869140625,0.0317535400390625
1761914300497895000,8.99489501953125,-0.6947479248046875,-0.6468963623046875,0.0295867919921875
1761914300507951000,9.004951171875,-0.677093505859375,-0.634796142578125,0.0287017822265625
1761914300518007000,9.015007080078124,-0.670074462890625,-0.635894775390625,0.0323486328125
1761914300528063000,9.02506298828125,-0.677520751953125,-0.6460723876953125,0.0439605712890625
1761914300538119200,9.035119140625,-0.68798828125,-0.6609039306640625,0.0590667724609375
1761914300548174800,9.0451748046875,-0.7074737548828125,-0.667388916015625,0.0681304931640625
1761914300558230800,9.055230712890625,-0.731719970703125,-0.673095703125,0.075836181640625
1761914300568287000,9.065286865234375,-0.740447998046875,-0.6823577880859375,0.0793609619140625
1761914300578343000,9.075343017578126,-0.745086669921875,-0.69268798828125,0.079742431640625
1761914300588398800,9.08539892578125,-0.7405853271484375,-0.706390380859375,0.0704498291015625
1761914300598455000,9.095455078125,-0.745086669921875,-0.7207183837890625,0.0489654541015625
1761914300608511000,9.105510986328126,-0.7677154541015625,-0.7385711669921875,0.02874755859375
1761914300618567000,9.11556689453125,-0.8079833984375,-0.740020751953125,0.01446533203125
1761914300628623000,9.125623046875,-0.8247528076171875,-0.7229156494140625,-0.0062713623046875
1761914300638679000,9.135678955078125,-0.8097076416015625,-0.7061309814453125,-0.02691650390625
1761914300648736000,9.145736083984374,-0.78460693359375,-0.704986572265625,-0.040802001953125
1761914300658792000,9.1557919921875,-0.7612457275390625,-0.7168731689453125,-0.0402984619140625
1761914300668848000,9.16584814453125,-0.754241943359375,-0.736114501953125,-0.0214996337890625
1761914300678904000,9.175904052734374,-0.753997802734375,-0.7617340087890625,0.0001068115234375
1761914300688963300,9.18596337890625,-0.74884033203125,-0.7725982666015625,0.0107421875
1761914300699019500,9.19601953125,-0.735809326171875,-0.7739715576171875,0.0144500732421875
1761914300709075500,9.206075439453125,-0.7201385498046875,-0.786102294921875,0.0210418701171875
1761914300719131400,9.21613134765625,-0.7033233642578125,-0.8079833984375,0.036163330078125
1761914300729187600,9.2261875,-0.6940460205078125,-0.818511962890625,0.0500946044921875
1761914300739243500,9.236243408203125,-0.6941375732421875,-0.8144989013671875,0.057891845703125
1761914300749299500,9.246299560546875,-0.68927001953125,-0.8050384521484375,0.059844970703125
1761914300759355600,9.256355712890626,-0.6806182861328125,-0.798858642578125,0.0604400634765625
1761914300769411600,9.26641162109375,-0.6738739013671875,-0.7952423095703125,0.0622406005859375
1761914300779467500,9.276467529296875,-0.6717681884765625,-0.788360595703125,0.0645294189453125
1761914300789523500,9.2865234375,-0.670196533203125,-0.774139404296875,0.0617523193359375
1761914300799579400,9.296579345703124,-0.678985595703125,-0.7589263916015625,0.0543212890625
1761914300809635300,9.30663525390625,-0.70550537109375,-0.7570953369140625,0.0404052734375
1761914300819691500,9.31669140625,-0.7371826171875,-0.7562408447265625,0.026153564453125
1761914300829747500,9.32674755859375,-0.7729644775390625,-0.752777099609375,0.0145416259765625
1761914300839803400,9.336803466796875,-0.7975616455078125,-0.742431640625,-0.0028839111328125
1761914300849860400,9.3468603515625,-0.8050537109375,-0.7206573486328125,-0.025909423828125
1761914300859916500,9.35691650390625,-0.804443359375,-0.6897735595703125,-0.04888916015625
1761914300869972500,9.366972412109375,-0.79595947265625,-0.660736083984375,-0.064727783203125
1761914300880028400,9.3770283203125,-0.7855224609375,-0.6370849609375,-0.0707550048828125
1761914300890084600,9.387084716796876,-0.78741455078125,-0.6221923828125,-0.0701751708984375
1761914300900140500,9.397140625,-0.810150146484375,-0.6147003173828125,-0.060272216796875
1761914300910196500,9.407196533203125,-0.848541259765625,-0.613037109375,-0.041656494140625
1761914300920252700,9.417252685546876,-0.8682403564453125,-0.610565185546875,-0.03070068359375
1761914300930308600,9.42730859375,-0.8582916259765625,-0.5966339111328125,-0.024871826171875
1761914300940364300,9.4373642578125,-0.840179443359375,-0.5727996826171875,-0.022796630859375
1761914300950420500,9.44742041015625,-0.8182373046875,-0.5523223876953125,-0.021331787109375
1761914300960476400,9.457476318359374,-0.8057708740234375,-0.545684814453125,-0.0166168212890625
1761914300970532400,9.467532470703125,-0.8013916015625,-0.5435791015625,-0.0130157470703125
1761914300980588500,9.477588623046875,-0.8008575439453125,-0.540924072265625,-0.012664794921875
1761914300990644500,9.48764453125,-0.79034423828125,-0.5357666015625,-0.0149688720703125
1761914301000700400,9.497700439453125,-0.774017333984375,-0.5292205810546875,-0.0116119384765625
1761914301010756600,9.507756591796875,-0.7639617919921875,-0.5283203125,-0.00164794921875
1761914301020812500,9.5178125,-0.747772216796875,-0.538055419921875,0.0105743408203125
1761914301030868500,9.527868408203124,-0.7288818359375,-0.556640625,0.0223846435546875
1761914301040925400,9.537925537109375,-0.72412109375,-0.568359375,0.0331268310546875
1761914301050981600,9.547981689453126,-0.7234344482421875,-0.569580078125,0.0364837646484375
1761914301061037600,9.55803759765625,-0.720062255859375,-0.5689697265625,0.032623291015625
1761914301071093500,9.568093505859375,-0.7128753662109375,-0.5732879638671875,0.0279083251953125
1761914301081149700,9.578149658203126,-0.7135009765625,-0.581939697265625,0.02593994140625
1761914301091205400,9.588205322265624,-0.7158660888671875,-0.5961456298828125,0.0263824462890625
1761914301101261300,9.59826123046875,-0.72235107421875,-0.6082611083984375,0.026641845703125
1761914301111317500,9.6083173828125,-0.7270965576171875,-0.6176910400390625,0.0240325927734375
1761914301121373400,9.61837353515625,-0.7208251953125,-0.628570556640625,0.0185699462890625
1761914301131429400,9.628429443359375,-0.7123565673828125,-0.6402740478515625,0.0102386474609375
1761914301141485600,9.638485595703125,-0.69415283203125,-0.646697998046875,-0.002471923828125
1761914301151541500,9.64854150390625,-0.6651763916015625,-0.6425628662109375,-0.0119476318359375
1761914301161597400,9.658597412109375,-0.6515655517578125,-0.65118408203125,-0.009552001953125
1761914301171653600,9.668653564453125,-0.6579132080078125,-0.67779541015625,0.0066375732421875
1761914301181709600,9.67870947265625,-0.6771240234375,-0.69573974609375,0.0252532958984375
1761914301191765500,9.688765625,-0.690673828125,-0.694793701171875,0.033416748046875
1761914301201821400,9.698821533203125,-0.694427490234375,-0.6927947998046875,0.032806396484375
1761914301211877400,9.70887744140625,-0.692535400390625,-0.7036895751953125,0.0289459228515625
1761914301221933300,9.718933349609374,-0.6823272705078125,-0.7203216552734375,0.0235443115234375
1761914301231989500,9.728989501953125,-0.6764678955078125,-0.72808837890625,0.0115966796875
1761914301242045400,9.73904541015625,-0.6732635498046875,-0.733917236328125,0.004241943359375
1761914301252102400,9.749102294921874,-0.66265869140625,-0.7461090087890625,0.0034637451171875
1761914301262158300,9.759158447265625,-0.6588592529296875,-0.756622314453125,0.001800537109375
1761914301272214500,9.769214599609375,-0.6531982421875,-0.7578582763671875,0.0001678466796875
1761914301282270500,9.7792705078125,-0.6367034912109375,-0.758514404296875,-0.004425048828125
1761914301292326400,9.789326416015625,-0.6298370361328125,-0.7580413818359375,-0.007537841796875
1761914301302382600,9.799382568359375,-0.6287078857421875,-0.766021728515625,-0.004302978515625
1761914301312438500,9.8094384765625,-0.6309356689453125,-0.7718353271484375,-0.003265380859375
1761914301322494500,9.819494384765624,-0.638641357421875,-0.7699432373046875,-0.0028839111328125
1761914301332550400,9.82955029296875,-0.637786865234375,-0.7671661376953125,0.003875732421875
1761914301342606600,9.839606689453126,-0.6280364990234375,-0.767608642578125,0.0155181884765625
1761914301352662500,9.84966259765625,-0.6184539794921875,-0.7659912109375,0.018829345703125
1761914301362718500,9.859718505859375,-0.615386962890625,-0.757659912109375,0.0228729248046875
1761914301372774400,9.8697744140625,-0.62060546875,-0.7516326904296875,0.0313568115234375
1761914301382830300,9.879830322265626,-0.6334228515625,-0.7581024169921875,0.041534423828125
1761914301392886500,9.889886474609375,-0.65020751953125,-0.771148681640625,0.051788330078125
1761914301402942500,9.8999423828125,-0.6683807373046875,-0.77935791015625,0.0565948486328125
1761914301412998400,9.909998291015626,-0.6846160888671875,-0.774505615234375,0.060211181640625
1761914301423054300,9.920054443359374,-0.6894073486328125,-0.768463134765625,0.059967041015625
1761914301433110500,9.930110595703125,-0.6827239990234375,-0.76458740234375,0.0576629638671875
1761914301443166500,9.94016650390625,-0.68597412109375,-0.756378173828125,0.0566864013671875
1761914301453222400,9.950222412109374,-0.6876678466796875,-0.7499542236328125,0.0576629638671875
1761914301463278600,9.960278564453125,-0.6832427978515625,-0.7581634521484375,0.056854248046875
1761914301473335600,9.97033544921875,-0.6924591064453125,-0.7615966796875,0.0626983642578125
1761914301483391500,9.9803916015625,-0.70343017578125,-0.76043701171875,0.0670166015625
1761914301493447400,9.990447509765625,-0.70684814453125,-0.76824951171875,0.0711669921875
1761914301503503600,10.000503662109375,-0.706787109375,-0.772796630859375,0.074920654296875
1761914301513559600,10.0105595703125,-0.7120819091796875,-0.76904296875,0.08038330078125
1761914301523615500,10.020615478515625,-0.70770263671875,-0.77191162109375,0.082550048828125
1761914301533671400,10.03067138671875,-0.6986541748046875,-0.7812042236328125,0.08758544921875
1761914301543727400,10.040727294921876,-0.7039642333984375,-0.7899932861328125,0.097686767578125
1761914301553783300,10.050783203125,-0.7122955322265625,-0.794342041015625,0.110748291015625
1761914301563839500,10.060839599609375,-0.714813232421875,-0.8027496337890625,0.123443603515625
1761914301573895400,10.0708955078125,-0.7191009521484375,-0.8195037841796875,0.1353759765625
1761914301583951400,10.080951416015624,-0.7340087890625,-0.84619140625,0.1439971923828125
1761914301594007600,10.091007568359375,-0.7565765380859375,-0.86688232421875,0.1463623046875
1761914301604063500,10.1010634765625,-0.7794342041015625,-0.8726654052734375,0.14556884765625
1761914301614119400,10.111119384765624,-0.7952728271484375,-0.87103271484375,0.144744873046875
1761914301624175600,10.121175537109375,-0.7972412109375,-0.862640380859375,0.1423187255859375
1761914301634231600,10.1312314453125,-0.79296875,-0.84747314453125,0.1362152099609375
1761914301644287200,10.141287353515626,-0.7834014892578125,-0.826141357421875,0.12664794921875
1761914301654343400,10.151343505859375,-0.7711334228515625,-0.7945098876953125,0.1113128662109375
1761914301664399400,10.1613994140625,-0.7527923583984375,-0.7528839111328125,0.0954437255859375
1761914301674456300,10.171456298828126,-0.7335357666015625,-0.7146453857421875,0.0832366943359375
1761914301684512300,10.18151220703125,-0.721405029296875,-0.6939544677734375,0.080780029296875
1761914301694565000,10.191565185546875,-0.7239990234375,-0.680877685546875,0.088134765625
1761914301704621000,10.20162109375,-0.7390289306640625,-0.6665191650390625,0.0965423583984375
1761914301714677000,10.211677001953126,-0.75042724609375,-0.6524658203125,0.10064697265625
1761914301724733200,10.221733154296874,-0.7491912841796875,-0.6444244384765625,0.101409912109375
1761914301734788900,10.231788818359375,-0.7287445068359375,-0.6398468017578125,0.1031341552734375
1761914301744844800,10.2418447265625,-0.705474853515625,-0.6396942138671875,0.100982666015625
1761914301754901000,10.25190087890625,-0.69378662109375,-0.642822265625,0.10076904296875
1761914301764957000,10.26195703125,-0.680389404296875,-0.6376495361328125,0.1032562255859375
1761914301775012900,10.272012939453125,-0.654296875,-0.638397216796875,0.106109619140625
1761914301785069000,10.282069091796876,-0.6416778564453125,-0.6498870849609375,0.1187744140625
1761914301795125000,10.292125,-0.6421356201171875,-0.6656036376953125,0.13031005859375
1761914301805181000,10.302180908203125,-0.6349029541015625,-0.6825714111328125,0.1402587890625
1761914301815237000,10.312237060546876,-0.6287384033203125,-0.6997222900390625,0.1526947021484375
1761914301825293000,10.32229296875,-0.615386962890625,-0.7049407958984375,0.1624755859375
1761914301835349000,10.332348876953125,-0.591552734375,-0.7029571533203125,0.1637115478515625
1761914301845405200,10.3424052734375,-0.570037841796875,-0.704437255859375,0.15673828125
1761914301855461000,10.352461181640624,-0.5526885986328125,-0.7137908935546875,0.1482086181640625
1761914301865516800,10.362516845703125,-0.5363616943359375,-0.720367431640625,0.139373779296875
1761914301875573000,10.372572998046875,-0.5222320556640625,-0.7158355712890625,0.1308441162109375
1761914301885629000,10.38262890625,-0.5083160400390625,-0.704010009765625,0.1246337890625
1761914301895686000,10.392685791015625,-0.5009307861328125,-0.6976318359375,0.123016357421875
1761914301905741800,10.402741943359375,-0.4914398193359375,-0.697662353515625,0.1242218017578125
1761914301915798000,10.412798095703126,-0.482879638671875,-0.70477294921875,0.129180908203125
1761914301925854000,10.42285400390625,-0.490936279296875,-0.71685791015625,0.1399078369140625
1761914301935910000,10.432909912109375,-0.5026092529296875,-0.7311859130859375,0.15008544921875
1761914301945966000,10.442966064453126,-0.511932373046875,-0.740814208984375,0.157379150390625
1761914301956022000,10.45302197265625,-0.508819580078125,-0.7507476806640625,0.1588134765625
1761914301966078000,10.463077880859375,-0.504730224609375,-0.759307861328125,0.15911865234375
1761914301976134100,10.473134033203126,-0.5125274658203125,-0.772247314453125,0.1579742431640625
1761914301986190000,10.483190185546874,-0.513824462890625,-0.7869720458984375,0.154205322265625
1761914301996246000,10.49324609375,-0.512451171875,-0.7989044189453125,0.1505279541015625
1761914302006302200,10.50330224609375,-0.516845703125,-0.809356689453125,0.1492919921875
1761914302016358000,10.51335791015625,-0.5106048583984375,-0.81842041015625,0.1471099853515625
1761914302026413800,10.523413818359375,-0.5035400390625,-0.8295440673828125,0.1419525146484375
1761914302036470000,10.533469970703125,-0.506866455078125,-0.8347625732421875,0.13568115234375
1761914302046526000,10.54352587890625,-0.51275634765625,-0.835845947265625,0.13116455078125
1761914302056582000,10.553581787109374,-0.506744384765625,-0.8347320556640625,0.125244140625
1761914302066638000,10.56363818359375,-0.4972686767578125,-0.83087158203125,0.1161041259765625
1761914302076694000,10.573694091796876,-0.490966796875,-0.825531005859375,0.1055908203125
1761914302086750000,10.58375,-0.4918060302734375,-0.8226165771484375,0.097503662109375
1761914302096806100,10.59380615234375,-0.4918975830078125,-0.8249359130859375,0.0939178466796875
1761914302106862000,10.603862060546875,-0.490081787109375,-0.8239898681640625,0.091827392578125
1761914302116918000,10.61391796875,-0.489776611328125,-0.8252410888671875,0.0831756591796875
1761914302126975000,10.62397509765625,-0.4931488037109375,-0.834991455078125,0.0794677734375
1761914302137031200,10.63403125,-0.49884033203125,-0.8563690185546875,0.081512451171875
1761914302147087000,10.644087158203124,-0.4999847412109375,-0.8705291748046875,0.084136962890625
1761914302157143000,10.65414306640625,-0.492431640625,-0.873260498046875,0.0856781005859375
1761914302167199000,10.664198974609375,-0.4782257080078125,-0.8701324462890625,0.0848388671875
1761914302177255000,10.6742548828125,-0.4709320068359375,-0.8682098388671875,0.0799560546875
1761914302187310800,10.684310791015625,-0.45916748046875,-0.8751220703125,0.06976318359375
1761914302197367000,10.694366943359375,-0.44830322265625,-0.88818359375,0.060150146484375
1761914302207423000,10.704423095703126,-0.4462738037109375,-0.8961181640625,0.0537872314453125
1761914302217479000,10.71447900390625,-0.4281158447265625,-0.893646240234375,0.047149658203125
1761914302227535000,10.72453515625,-0.417633056640625,-0.8842926025390625,0.0509185791015625
1761914302237591000,10.734591064453125,-0.427764892578125,-0.8802032470703125,0.0701751708984375
1761914302247647000,10.74464697265625,-0.4410247802734375,-0.88916015625,0.0914154052734375
1761914302257703200,10.754703125,-0.4594268798828125,-0.8991546630859375,0.11895751953125
1761914302267759000,10.764759033203125,-0.531707763671875,-0.8888397216796875,0.1828765869140625
1761914302277815000,10.77481494140625,-0.645660400390625,-0.931549072265625,0.1864013671875
1761914302287871200,10.784871337890625,-0.567840576171875,-0.9389801025390625,0.1473541259765625
1761914302297927000,10.794927001953125,-0.576568603515625,-0.9443817138671875,0.1195220947265625
1761914302307982800,10.80498291015625,-0.5896148681640625,-0.9314422607421875,0.133575439453125
