time,seconds_elapsed,z,y,x
1761914291620913400,0.117913330078125,-0.6867860555648804,-0.035235967487096786,-0.13223876059055328
1761914291630969600,0.127969482421875,-0.6422345638275146,0.07253549993038177,-0.0579402893781662
1761914291641025500,0.138025634765625,-0.6019164323806763,0.16023334860801697,0.049747589975595474
1761914291651081500,0.14808154296875,-0.5794545412063599,0.22046713531017303,0.16377802193164825
1761914291661137700,0.1581376953125,-0.5761671662330627,0.266289085149765,0.26565253734588623
1761914291671193300,0.168193359375,-0.5681009888648987,0.3099888861179352,0.3465932011604309
1761914291681249000,0.1782490234375,-0.5184937715530396,0.36473730206489563,0.3994773030281067
1761914291691305000,0.188304931640625,-0.4647538661956787,0.4176521897315979,0.4018770754337311
1761914291701361000,0.19836083984375,-0.4230329096317291,0.4461449384689331,0.3676382303237915
1761914291711416800,0.208416748046875,-0.41045665740966797,0.43894028663635254,0.2997814118862152
1761914291721473000,0.21847314453125,-0.41731706261634827,0.37400853633880615,0.21806320548057556
1761914291731529000,0.228529052734375,-0.4475780427455902,0.25961270928382874,0.1398477703332901
1761914291741585000,0.2385849609375,-0.49945881962776184,0.1264258772134781,0.08252055197954178
1761914291751640800,0.248640869140625,-0.555975615978241,0.016677815467119217,0.046170808374881744
1761914291761696800,0.25869677734375,-0.5938650965690613,-0.04026280716061592,0.029794830828905106
1761914291771753000,0.2687529296875,-0.6116155982017517,-0.057188525795936584,0.02795911207795143
1761914291781809000,0.278808837890625,-0.6161150932312012,-0.046675488352775574,0.0438116118311882
1761914291791864800,0.28886474609375,-0.6134753227233887,-0.03732060268521309,0.06185505911707878
1761914291801920800,0.298920654296875,-0.6096335649490356,-0.04243003576993942,0.08505761623382568
1761914291811978000,0.30897802734375,-0.6010395288467407,-0.0794501081109047,0.1191956177353859
1761914291822034000,0.319033935546875,-0.5997372269630432,-0.13109846413135529,0.17387843132019043
1761914291832089900,0.32908984375,-0.6030502319335938,-0.20121337473392487,0.22976620495319366
1761914291842145800,0.339145751953125,-0.6001604795455933,-0.25434520840644836,0.28807905316352844
1761914291852202000,0.349201904296875,-0.5866526365280151,-0.2772766351699829,0.33537226915359497
1761914291862258000,0.3592578125,-0.5640580058097839,-0.28446975350379944,0.3754180669784546
1761914291872313900,0.36931396484375,-0.5394852757453918,-0.2760555148124695,0.40292108058929443
1761914291882370000,0.3793701171875,-0.5119343996047974,-0.2703581750392914,0.42731454968452454
1761914291892425700,0.38942578125,-0.49112042784690857,-0.27716362476348877,0.4467566907405853
1761914291902482000,0.39948193359375,-0.47733718156814575,-0.29256606101989746,0.4636112153530121
1761914291912537900,0.409537841796875,-0.4748481810092926,-0.31277814507484436,0.4788338243961334
1761914291922593800,0.41959375,-0.476238489151001,-0.3362453281879425,0.4848473370075226
1761914291932649700,0.429649658203125,-0.4899606704711914,-0.3556235432624817,0.48077696561813354
1761914291942706000,0.439705810546875,-0.5053091049194336,-0.37006404995918274,0.4675312340259552
1761914291952761900,0.449761962890625,-0.5108687281608582,-0.376430869102478,0.44135740399360657
1761914291962817800,0.45981787109375,-0.512847363948822,-0.3761304020881653,0.4062023162841797
1761914291972874000,0.4698740234375,-0.5116260051727295,-0.3652932047843933,0.3645124137401581
1761914291982930000,0.479929931640625,-0.5086058974266052,-0.3389122486114502,0.3241196274757385
1761914291992985900,0.48998583984375,-0.5018659830093384,-0.32094043493270874,0.2979993522167206
1761914292003042000,0.5000419921875,-0.49584460258483887,-0.30210697650909424,0.28469449281692505
1761914292013097700,0.51009765625,-0.4941718876361847,-0.28968706727027893,0.2913020849227905
1761914292023153700,0.520153564453125,-0.494148850440979,-0.30683693289756775,0.3065544664859772
1761914292033211000,0.5302109375,-0.49603143334388733,-0.3368726074695587,0.31733787059783936
1761914292043266800,0.540266845703125,-0.5031139850616455,-0.3818318545818329,0.31056511402130127
1761914292053322800,0.55032275390625,-0.5244041085243225,-0.4293287992477417,0.2837667763233185
1761914292063378700,0.560378662109375,-0.5505965352058411,-0.45935600996017456,0.23086698353290558
1761914292073435000,0.570434814453125,-0.5761367678642273,-0.44882693886756897,0.17197172343730927
1761914292083490800,0.58049072265625,-0.5963661670684814,-0.4215754270553589,0.11175596714019775
1761914292093546800,0.590546630859375,-0.6027334928512573,-0.3830176293849945,0.06475916504859924
1761914292103603000,0.60060302734375,-0.5992239713668823,-0.33587175607681274,0.03234037011861801
1761914292113659000,0.610658935546875,-0.5941501259803772,-0.291692316532135,0.005224329419434071
1761914292123714800,0.62071484375,-0.6001670956611633,-0.26154202222824097,-0.01740236207842827
1761914292133771000,0.63077099609375,-0.6081408858299255,-0.2349199801683426,-0.02950216829776764
1761914292143827000,0.640826904296875,-0.6127842664718628,-0.20627465844154358,-0.03748106583952904
1761914292153883000,0.6508828125,-0.6099226474761963,-0.2055303156375885,-0.039573512971401215
1761914292163939000,0.66093896484375,-0.6075029373168945,-0.2131010890007019,-0.044847358018159866
1761914292173994800,0.670994873046875,-0.6061660647392273,-0.21360762417316437,-0.055005986243486404
1761914292184050700,0.68105078125,-0.603477954864502,-0.21702326834201813,-0.05663178861141205
1761914292194107000,0.69110693359375,-0.5885131359100342,-0.2320818454027176,-0.06826847046613693
1761914292204162800,0.701162841796875,-0.5760357975959778,-0.25739696621894836,-0.08197672665119171
1761914292214218800,0.71121875,-0.5624321103096008,-0.2916465401649475,-0.08982186764478683
1761914292224275000,0.72127490234375,-0.5488926768302917,-0.3267256021499634,-0.09463691711425781
1761914292234331000,0.731330810546875,-0.5431530475616455,-0.3507523834705353,-0.08533182740211487
1761914292244387800,0.741387939453125,-0.5398586392402649,-0.37469980120658875,-0.06676653772592545
1761914292254443800,0.75144384765625,-0.5460691452026367,-0.4098513722419739,-0.04713078588247299
1761914292264500000,0.7615,-0.5590686202049255,-0.4533790647983551,-0.03288079798221588
1761914292274556000,0.771555908203125,-0.5752856731414795,-0.4956793785095215,-0.028745438903570175
1761914292284611800,0.78161181640625,-0.603791356086731,-0.5357799530029297,-0.034759655594825745
1761914292294668000,0.79166796875,-0.6338475346565247,-0.5702942609786987,-0.04326392710208893
1761914292304724000,0.801723876953125,-0.6622235178947449,-0.5989874601364136,-0.05145828425884247
1761914292314780000,0.81177978515625,-0.6900436878204346,-0.626815676689148,-0.060751646757125854
1761914292324835800,0.8218359375,-0.7212414741516113,-0.6591665744781494,-0.07626425474882126
1761914292334891800,0.831891845703125,-0.7501308917999268,-0.6804460287094116,-0.10121035575866699
1761914292344947700,0.84194775390625,-0.7791352272033691,-0.6791355609893799,-0.13085296750068665
1761914292355004000,0.85200390625,-0.807845950126648,-0.6728017926216125,-0.15948887169361115
1761914292365059800,0.862059814453125,-0.8417695760726929,-0.6657384037971497,-0.17623162269592285
1761914292375115800,0.87211572265625,-0.8732201457023621,-0.6625117063522339,-0.18116165697574615
1761914292385172000,0.882171875,-0.9101572632789612,-0.6570854187011719,-0.17655828595161438
1761914292395228000,0.892227783203125,-0.9343171715736389,-0.6374039053916931,-0.16251277923583984
1761914292405283800,0.902283935546875,-0.9521285891532898,-0.6074892282485962,-0.14045783877372742
1761914292415340000,0.912340087890625,-0.9555568695068359,-0.5627787113189697,-0.1112312525510788
1761914292425396000,0.92239599609375,-0.9490808248519897,-0.5051775574684143,-0.07342299073934555
1761914292435452000,0.932451904296875,-0.9269906878471375,-0.4434417486190796,-0.026626724749803543
1761914292445507800,0.9425078125,-0.896059513092041,-0.37767308950424194,0.029050732031464577
1761914292455565000,0.95256494140625,-0.8655391335487366,-0.3394295573234558,0.09356208145618439
1761914292465621000,0.96262109375,-0.8401734828948975,-0.32854408025741577,0.15751239657402039
1761914292475676700,0.9726767578125,-0.8318892121315002,-0.33584192395210266,0.22846940159797668
1761914292485732900,0.98273291015625,-0.8493218421936035,-0.37580111622810364,0.2960606813430786
1761914292495788800,0.992788818359375,-0.8847613334655762,-0.4319024682044983,0.36015579104423523
1761914292505844700,1.0028447265625,-0.9350788593292236,-0.49850332736968994,0.40794837474823
1761914292515901000,1.01290087890625,-0.9714190363883972,-0.5508924722671509,0.4319745898246765
1761914292525956900,1.022956787109375,-0.9610266089439392,-0.5910892486572266,0.4196315109729767
1761914292536012800,1.0330126953125,-0.9173771142959595,-0.6382316946983337,0.39410698413848877
1761914292546069000,1.043069091796875,-0.8690476417541504,-0.6666068434715271,0.3829992115497589
1761914292556125000,1.053125,-0.8225429654121399,-0.6774949431419373,0.37997308373451233
1761914292566180900,1.063180908203125,-0.7775659561157227,-0.6900287866592407,0.3805825114250183
1761914292576237000,1.073237060546875,-0.7375463843345642,-0.7274819016456604,0.38576024770736694
1761914292586293000,1.08329296875,-0.7151352763175964,-0.7701882719993591,0.39029183983802795
1761914292596349000,1.093348876953125,-0.6883755922317505,-0.8182548880577087,0.3938378393650055
1761914292606404900,1.10340478515625,-0.6643728613853455,-0.8657006025314331,0.38202959299087524
1761914292616460800,1.113460693359375,-0.6452521681785583,-0.9143661260604858,0.36127158999443054
1761914292626516700,1.123516845703125,-0.6387845277786255,-0.9313189387321472,0.33367496728897095
1761914292636573000,1.133572998046875,-0.6424522399902344,-0.9430416226387024,0.3100218176841736
1761914292646628900,1.14362890625,-0.6491872668266296,-0.9512218832969666,0.2903573215007782
1761914292656684800,1.153684814453125,-0.6568604111671448,-0.9426766037940979,0.2746116518974304
1761914292666741000,1.163740966796875,-0.6736006140708923,-0.9214192032814026,0.25249260663986206
1761914292676798000,1.1737978515625,-0.6988950967788696,-0.8860191106796265,0.22051630914211273
1761914292686855000,1.18385498046875,-0.720364511013031,-0.8393981456756592,0.17680828273296356
1761914292696910800,1.193910888671875,-0.7385754585266113,-0.7473185658454895,0.13825343549251556
1761914292706966800,1.203966796875,-0.7485446333885193,-0.6147933006286621,0.09833502769470215
1761914292717023000,1.21402294921875,-0.7472213506698608,-0.4393114745616913,0.0729828029870987
1761914292727079000,1.224078857421875,-0.7275679707527161,-0.25078141689300537,0.05323076993227005
1761914292737134800,1.234134765625,-0.712936520576477,-0.07727247476577759,0.04421143978834152
1761914292747191000,1.24419091796875,-0.7040097713470459,0.059656012803316116,0.04145924374461174
1761914292757247000,1.2542470703125,-0.6914689540863037,0.13392038643360138,0.05823982134461403
1761914292767303000,1.264302978515625,-0.6629905700683594,0.14834071695804596,0.07394600659608841
1761914292777358800,1.27435888671875,-0.6175730228424072,0.12888605892658234,0.08518242090940475
1761914292787414800,1.284414794921875,-0.562005877494812,0.08634986728429794,0.07526315748691559
1761914292797470700,1.294470703125,-0.5009034276008606,0.012781372293829918,0.05072133243083954
1761914292807527000,1.30452685546875,-0.44622722268104553,-0.09091010689735413,0.008297691121697426
1761914292817582800,1.314582763671875,-0.39778220653533936,-0.2065400332212448,-0.038527071475982666
1761914292827638800,1.324638671875,-0.367861270904541,-0.3341733515262604,-0.0827200710773468
1761914292837695000,1.334695068359375,-0.3591386079788208,-0.47147074341773987,-0.10952664911746979
1761914292847751000,1.3447509765625,-0.36633989214897156,-0.5993050336837769,-0.11880771070718765
1761914292857806800,1.354806884765625,-0.40094631910324097,-0.6990873217582703,-0.11365476250648499
1761914292867863000,1.364863037109375,-0.4494006633758545,-0.7597467303276062,-0.09274759143590927
1761914292877919000,1.3749189453125,-0.517194926738739,-0.8074556589126587,-0.06502781063318253
1761914292887975000,1.384974853515625,-0.5911549925804138,-0.8336321115493774,-0.038222312927246094
1761914292898031900,1.395031982421875,-0.6676798462867737,-0.8405033349990845,-0.015905290842056274
1761914292908088000,1.405088134765625,-0.7461898326873779,-0.8171412944793701,-0.010144608095288277
1761914292918144000,1.41514404296875,-0.8164522051811218,-0.7770812511444092,-0.008095118217170238
1761914292928199700,1.42519970703125,-0.8746317028999329,-0.7464484572410583,-0.01452444214373827
1761914292938256000,1.435255859375,-0.9335384368896484,-0.7229931950569153,-0.00771367410197854
1761914292948311800,1.445311767578125,-1.0017216205596924,-0.7235191464424133,0.0006461227312684059
1761914292958367700,1.45536767578125,-1.06778085231781,-0.7444776892662048,0.002760672941803932
1761914292968424000,1.465423828125,-1.1158705949783325,-0.7356466054916382,-0.009227579459547997
1761914292978479900,1.47547998046875,-1.1416910886764526,-0.6914205551147461,-0.021239500492811203
1761914292988535800,1.485535888671875,-1.142520546913147,-0.6233243346214294,-0.037978969514369965
1761914292998592000,1.495592041015625,-1.1265860795974731,-0.5761544108390808,-0.05445248633623123
1761914293008648000,1.50564794921875,-1.1046257019042969,-0.5676944255828857,-0.0659337043762207
1761914293018704000,1.515703857421875,-1.0604654550552368,-0.5934215784072876,-0.09171789884567261
1761914293028760000,1.525760009765625,-0.9963470697402954,-0.6384649872779846,-0.13588549196720123
1761914293038816000,1.53581591796875,-0.9214917421340942,-0.6843786835670471,-0.2046818733215332
1761914293048872000,1.545871826171875,-0.8279998302459717,-0.716745138168335,-0.2971307039260864
1761914293058927900,1.555927978515625,-0.7305536866188049,-0.7368999719619751,-0.39745572209358215
1761914293068983800,1.56598388671875,-0.6413353085517883,-0.7573676705360413,-0.5014505386352539
1761914293079039700,1.576039794921875,-0.5843149423599243,-0.7712975740432739,-0.5849621891975403
1761914293089096000,1.586095947265625,-0.5578743815422058,-0.7828423380851746,-0.6397948861122131
1761914293099152000,1.59615185546875,-0.5592166185379028,-0.7953898310661316,-0.6555466651916504
1761914293109208800,1.606208740234375,-0.5787400603294373,-0.8219961524009705,-0.6294393539428711
1761914293119264800,1.6162646484375,-0.6203591227531433,-0.8605446219444275,-0.5716024041175842
1761914293129321000,1.626321044921875,-0.6795785427093506,-0.883713960647583,-0.49953025579452515
1761914293139377000,1.636376953125,-0.7489205598831177,-0.855995237827301,-0.4279263913631439
1761914293149432800,1.646432861328125,-0.838647723197937,-0.7167771458625793,-0.3533712327480316
1761914293159489000,1.656489013671875,-0.9174131155014038,-0.7025635838508606,-0.26136353611946106
1761914293169545000,1.666544921875,-0.9511416554450989,-0.7937034964561462,-0.1686871349811554
1761914293179601000,1.676600830078125,-0.9985009431838989,-0.8296774625778198,-0.09137637168169022
1761914293189657000,1.686656982421875,-1.0496397018432617,-0.8472240567207336,-0.037968672811985016
1761914293199713000,1.696713134765625,-1.0733431577682495,-0.8485564589500427,-0.02596420794725418
1761914293209768700,1.706768798828125,-1.078985333442688,-0.8210176825523376,-0.037779197096824646
1761914293219825000,1.716824951171875,-1.0595901012420654,-0.7773898243904114,-0.06632668524980545
1761914293229880800,1.726880859375,-1.0294840335845947,-0.7466039061546326,-0.08798221498727798
1761914293239936800,1.736936767578125,-0.9984616637229919,-0.7334913015365601,-0.10707734525203705
1761914293249993000,1.746992919921875,-0.9632728695869446,-0.7422155737876892,-0.10959694534540176
1761914293260049000,1.757048828125,-0.9303327798843384,-0.7658154368400574,-0.09679459780454636
1761914293270104800,1.767104736328125,-0.8957241773605347,-0.766711950302124,-0.0678270161151886
1761914293280161000,1.7771611328125,-0.8525559306144714,-0.7511695027351379,-0.03352337330579758
1761914293290217000,1.787217041015625,-0.8067696690559387,-0.7282010912895203,0.011197902262210846
1761914293300273000,1.79727294921875,-0.7587238550186157,-0.7165151834487915,0.05731719359755516
1761914293310329000,1.8073291015625,-0.7194823026657104,-0.7102305293083191,0.09429313987493515
1761914293320385000,1.817385009765625,-0.6930301785469055,-0.695531964302063,0.11479415744543076
1761914293330441000,1.82744091796875,-0.6761605739593506,-0.6796268820762634,0.1322173774242401
1761914293340498000,1.837497802734375,-0.6604596376419067,-0.6664319634437561,0.1383245438337326
1761914293350554000,1.84755419921875,-0.6400086879730225,-0.6319894194602966,0.14179788529872894
1761914293360609800,1.85760986328125,-0.6149976253509521,-0.5772601366043091,0.1381072700023651
1761914293370665700,1.867665771484375,-0.5939359664916992,-0.5238012671470642,0.13936685025691986
1761914293380722000,1.877721923828125,-0.5773442387580872,-0.4941605031490326,0.14737418293952942
1761914293390777900,1.88777783203125,-0.5699064135551453,-0.49442872405052185,0.1594092696905136
1761914293400833800,1.897833740234375,-0.5695482492446899,-0.5282642245292664,0.16455157101154327
1761914293410890000,1.907889892578125,-0.5731496214866638,-0.5688084363937378,0.15888266265392303
1761914293420946000,1.91794580078125,-0.5820459127426147,-0.6094293594360352,0.1430051624774933
1761914293431001900,1.928001953125,-0.593381941318512,-0.6322158575057983,0.1108446717262268
1761914293441058000,1.93805810546875,-0.6016169786453247,-0.6278155446052551,0.0727769136428833
1761914293451114000,1.948114013671875,-0.6086458563804626,-0.6059187650680542,0.02789972350001335
1761914293461170000,1.958169921875,-0.6388226747512817,-0.5787078738212585,-0.047469597309827805
1761914293471225900,1.968225830078125,-0.6331880688667297,-0.5499610304832458,-0.10271284729242325
1761914293481282000,1.978281982421875,-0.6249610185623169,-0.5183290243148804,-0.1383478045463562
1761914293491337700,1.988337646484375,-0.6251091361045837,-0.4775911867618561,-0.14303989708423615
1761914293501394000,1.998393798828125,-0.622769296169281,-0.44617947936058044,-0.11865198612213135
1761914293511449900,2.008449951171875,-0.6257603764533997,-0.4300841689109802,-0.06399542838335037
1761914293521505800,2.018505859375,-0.6441835761070251,-0.4285997152328491,0.0036978628486394882
1761914293531561700,2.028561767578125,-0.6686071753501892,-0.432491272687912,0.07187724113464355
1761914293541618000,2.038617919921875,-0.6930720210075378,-0.43796807527542114,0.1386575996875763
1761914293551673900,2.048673828125,-0.7201279997825623,-0.41997554898262024,0.20251969993114471
1761914293561730800,2.058730712890625,-0.7516560554504395,-0.3825687766075134,0.26816582679748535
1761914293571787000,2.068787109375,-0.7768827080726624,-0.341719388961792,0.3394981026649475
1761914293581843000,2.078843017578125,-0.7718357443809509,-0.2915925681591034,0.421463280916214
1761914293591899000,2.08889892578125,-0.7496601343154907,-0.22753188014030457,0.4963226318359375
1761914293601954800,2.098954833984375,-0.7363531589508057,-0.16541098058223724,0.5351755023002625
1761914293612011000,2.109010986328125,-0.7292967438697815,-0.1114339828491211,0.5181291699409485
1761914293622067000,2.11906689453125,-0.711026132106781,-0.07211373746395111,0.4448205530643463
1761914293632123000,2.129122802734375,-0.6741184592247009,-0.07470614463090897,0.3413256108760834
1761914293642178800,2.1391787109375,-0.6297203302383423,-0.14996734261512756,0.21506300568580627
1761914293652234800,2.14923486328125,-0.6095657348632812,-0.27501192688941956,0.0862991139292717
1761914293662290700,2.159290771484375,-0.620115339756012,-0.40463969111442566,-0.045547593384981155
1761914293672347000,2.169346923828125,-0.6360401511192322,-0.49988242983818054,-0.1826705038547516
1761914293682402000,2.179402099609375,-0.6349503993988037,-0.5296698212623596,-0.31214621663093567
1761914293692458200,2.189458251953125,-0.6176419854164124,-0.49973806738853455,-0.40858688950538635
1761914293702514200,2.19951416015625,-0.6030124425888062,-0.45118385553359985,-0.4622056484222412
1761914293712570000,2.209570068359375,-0.5957363247871399,-0.4043038785457611,-0.4534694254398346
1761914293722626300,2.219626220703125,-0.5898872017860413,-0.36192604899406433,-0.37419459223747253
1761914293732682000,2.229681884765625,-0.5681906938552856,-0.3185243606567383,-0.24923263490200043
1761914293742738000,2.239738037109375,-0.5420706868171692,-0.2883603572845459,-0.08966216444969177
1761914293752794000,2.249794189453125,-0.5058750510215759,-0.2655212879180908,0.0777832567691803
1761914293762850000,2.25985009765625,-0.4813430607318878,-0.2526443600654602,0.2326657921075821
1761914293772906000,2.269906005859375,-0.47241514921188354,-0.24984580278396606,0.3635290563106537
1761914293782962200,2.279962158203125,-0.49402856826782227,-0.2656079828739166,0.4625224769115448
1761914293793019100,2.29001904296875,-0.5295017957687378,-0.2938380837440491,0.5292341709136963
1761914293803075000,2.300074951171875,-0.5731693506240845,-0.3350672721862793,0.5571625232696533
1761914293813131000,2.310131103515625,-0.6090966463088989,-0.35504183173179626,0.55389803647995
1761914293823187200,2.320187255859375,-0.6332293748855591,-0.34674370288848877,0.524462103843689
1761914293833243100,2.3302431640625,-0.6408209800720215,-0.3260745108127594,0.47000694274902344
1761914293843299000,2.340299072265625,-0.6348975896835327,-0.2987512946128845,0.3906972110271454
1761914293853355300,2.350355224609375,-0.6172969937324524,-0.25112250447273254,0.2934654653072357
1761914293863411200,2.3604111328125,-0.581902801990509,-0.18782076239585876,0.1885952204465866
1761914293873467100,2.370467041015625,-0.5305612087249756,-0.13718152046203613,0.07556060701608658
1761914293883523000,2.380523193359375,-0.4855186343193054,-0.12594804167747498,-0.03672891482710838
1761914293893579000,2.3905791015625,-0.4492156207561493,-0.14786572754383087,-0.14146654307842255
1761914293903635000,2.400635009765625,-0.43290242552757263,-0.20756420493125916,-0.23928338289260864
1761914293913691100,2.410691162109375,-0.42613694071769714,-0.2967754900455475,-0.3210967779159546
1761914293923747000,2.4207470703125,-0.4193331003189087,-0.38188132643699646,-0.3869865834712982
1761914293933803000,2.430802978515625,-0.4011533558368683,-0.44317030906677246,-0.4383237659931183
1761914293943859200,2.440859130859375,-0.38589608669281006,-0.46634113788604736,-0.4798720180988312
1761914293953915100,2.4509150390625,-0.3805542588233948,-0.469900518655777,-0.4975449740886688
1761914293963971000,2.46097119140625,-0.37712597846984863,-0.48561209440231323,-0.48210132122039795
1761914293974027300,2.47102734375,-0.3734699487686157,-0.5131447911262512,-0.4375407099723816
1761914293984083200,2.481083251953125,-0.37593814730644226,-0.5347672700881958,-0.36306193470954895
1761914293994139100,2.49113916015625,-0.3763268291950226,-0.5359228253364563,-0.2641904950141907
1761914294004195000,2.501195068359375,-0.37721046805381775,-0.5266422629356384,-0.16271206736564636
1761914294014252300,2.511252197265625,-0.375807523727417,-0.5106644034385681,-0.06929650157690048
1761914294024308200,2.52130810546875,-0.38141801953315735,-0.4842088222503662,0.0076683200895786285
1761914294034364000,2.531364013671875,-0.39914873242378235,-0.46095308661460876,0.06535087525844574
1761914294044420000,2.541420166015625,-0.4294475018978119,-0.4634186625480652,0.10797050595283508
1761914294054476000,2.55147607421875,-0.4669937193393707,-0.49454978108406067,0.13085375726222992
1761914294064532000,2.561531982421875,-0.5052058100700378,-0.5475483536720276,0.1412307620048523
1761914294074588200,2.571588134765625,-0.5417676568031311,-0.6147904992103577,0.12451527267694473
1761914294084644000,2.58164404296875,-0.5785840153694153,-0.6601574420928955,0.09128514677286148
1761914294094700000,2.591699951171875,-0.6179100871086121,-0.7020858526229858,0.046306855976581573
1761914294104756200,2.601756103515625,-0.66767418384552,-0.7450690269470215,-0.011335664428770542
1761914294114812200,2.611812255859375,-0.7206929922103882,-0.7782210111618042,-0.07951486855745316
1761914294124868000,2.6218681640625,-0.780566394329071,-0.7922393679618835,-0.14852482080459595
1761914294134924300,2.63192431640625,-0.8450006246566772,-0.7832677364349365,-0.2078903317451477
1761914294144980200,2.641980224609375,-0.8937340378761292,-0.7491430640220642,-0.25518035888671875
1761914294155036000,2.652035888671875,-0.9315851330757141,-0.7086275219917297,-0.28137362003326416
1761914294165092000,2.662092041015625,-0.9675580263137817,-0.6644163727760315,-0.29545456171035767
1761914294175148000,2.67214794921875,-0.9998645186424255,-0.6245611906051636,-0.2961111068725586
1761914294185204000,2.682203857421875,-1.0273127555847168,-0.5971655249595642,-0.2794114947319031
1761914294195260200,2.69226025390625,-1.0401053428649902,-0.5712601542472839,-0.2507683038711548
1761914294205316000,2.702316162109375,-1.0399119853973389,-0.5465508103370667,-0.2131761759519577
1761914294215372000,2.7123720703125,-1.0379990339279175,-0.5244449377059937,-0.1761518269777298
1761914294225428200,2.72242822265625,-1.0249197483062744,-0.5101584196090698,-0.13919220864772797
1761914294235485200,2.732485107421875,-1.0055623054504395,-0.5122193098068237,-0.11239726841449738
1761914294245541000,2.742541015625,-0.9759691953659058,-0.5198002457618713,-0.10102317482233047
1761914294255597000,2.75259716796875,-0.9480898976325989,-0.5111605525016785,-0.09826485067605972
1761914294265653200,2.7626533203125,-0.919152557849884,-0.492096871137619,-0.10140072554349899
1761914294275709200,2.772709228515625,-0.8885813355445862,-0.47878941893577576,-0.11010483652353287
1761914294285765000,2.78276513671875,-0.862503707408905,-0.45494985580444336,-0.11789777874946594
1761914294295821300,2.7928212890625,-0.8328986167907715,-0.4374445080757141,-0.12474668771028519
1761914294305877200,2.802877197265625,-0.8116875886917114,-0.4244333803653717,-0.12434108555316925
1761914294315933000,2.812932861328125,-0.7880092263221741,-0.42802244424819946,-0.12265562266111374
1761914294325989000,2.822989013671875,-0.7697088122367859,-0.43965139985084534,-0.12188463658094406
1761914294336045000,2.833045166015625,-0.7468081712722778,-0.46772053837776184,-0.1216813176870346
1761914294346101000,2.84310107421875,-0.7200928926467896,-0.49079522490501404,-0.12357189506292343
1761914294356157200,2.8531572265625,-0.6961854100227356,-0.5035293102264404,-0.1265348196029663
1761914294366213000,2.863213134765625,-0.6594580411911011,-0.4961656928062439,-0.12187030166387558
1761914294376269000,2.87326904296875,-0.621647298336029,-0.4782677888870239,-0.11915051937103271
1761914294386325200,2.8833251953125,-0.5766345262527466,-0.4468954801559448,-0.10730770975351334
1761914294396381200,2.893381103515625,-0.5214493274688721,-0.40764060616493225,-0.08396750688552856
1761914294406437000,2.90343701171875,-0.4566948413848877,-0.379194051027298,-0.05133580043911934
1761914294416493000,2.9134931640625,-0.3929302394390106,-0.36872825026512146,-0.009677920490503311
1761914294426549200,2.92354931640625,-0.34026995301246643,-0.38603585958480835,0.0374927893280983
1761914294436605000,2.93360498046875,-0.3179902136325836,-0.40678468346595764,0.07371239364147186
1761914294446661000,2.9436611328125,-0.29426997900009155,-0.4270673096179962,0.10378800332546234
1761914294456718000,2.953718017578125,-0.2508200407028198,-0.43140366673469543,0.1255108267068863
1761914294466774000,2.96377392578125,-0.197503000497818,-0.4177938401699066,0.13519461452960968
1761914294476830000,2.973829833984375,-0.15784752368927002,-0.37386298179626465,0.11793139576911926
1761914294486886100,2.98388623046875,-0.11238735169172287,-0.3027653694152832,0.08342242240905762
1761914294496942000,2.993942138671875,-0.043925121426582336,-0.1961061805486679,0.04301764816045761
1761914294506998000,3.003998046875,0.052790768444538116,-0.05831902474164963,0.0001263730227947235
1761914294517054200,3.01405419921875,0.14866992831230164,0.06257185339927673,-0.032210685312747955
1761914294527110100,3.024110107421875,0.22355827689170837,0.1496090143918991,-0.06131184101104736
1761914294537166000,3.034166015625,0.27351754903793335,0.19092601537704468,-0.07598716765642166
1761914294547222000,3.044221923828125,0.2937416136264801,0.17513160407543182,-0.06923232972621918
1761914294557278200,3.0542783203125,0.29175761342048645,0.10218194127082825,-0.03632599115371704
1761914294567334100,3.064334228515625,0.2691396474838257,-0.029797131195664406,0.027484146878123283
1761914294577390000,3.07439013671875,0.23039579391479492,-0.1968306601047516,0.10264775156974792
1761914294587446000,3.084446044921875,0.18393933773040771,-0.36263906955718994,0.19102129340171814
1761914294597502000,3.094501953125,0.12763778865337372,-0.4922085404396057,0.2894713580608368
1761914294607558000,3.104557861328125,0.053660497069358826,-0.5846511125564575,0.38947731256484985
1761914294617614000,3.114614013671875,-0.026559632271528244,-0.6414568424224854,0.4751238524913788
1761914294627670000,3.124669921875,-0.1025574579834938,-0.6640763878822327,0.5325203537940979
1761914294637726000,3.134725830078125,-0.17124803364276886,-0.6357089877128601,0.5572441816329956
1761914294647782100,3.1447822265625,-0.22598451375961304,-0.5717047452926636,0.5435741543769836
1761914294657838000,3.154838134765625,-0.27889421582221985,-0.4612956643104553,0.49232059717178345
1761914294667894000,3.16489404296875,-0.3276185989379883,-0.34502923488616943,0.4156516492366791
1761914294677951000,3.174950927734375,-0.38075554370880127,-0.2520175576210022,0.31120553612709045
1761914294688007400,3.18500732421875,-0.4331202208995819,-0.18064935505390167,0.1789097934961319
1761914294698063400,3.1950634765625,-0.4634566009044647,-0.1454637199640274,0.03963290527462959
1761914294708119300,3.205119384765625,-0.46154260635375977,-0.12768658995628357,-0.1010187566280365
1761914294718175500,3.215175537109375,-0.4464988112449646,-0.12236189842224121,-0.22966672480106354
1761914294728231400,3.2252314453125,-0.4292532503604889,-0.12665383517742157,-0.3560486435890198
1761914294738287400,3.235287353515625,-0.4021759033203125,-0.14004886150360107,-0.48327434062957764
1761914294748343600,3.245343505859375,-0.3688621520996094,-0.15045276284217834,-0.6047884821891785
1761914294758399500,3.2553994140625,-0.32867467403411865,-0.15132887661457062,-0.7231734991073608
1761914294768455200,3.265455078125,-0.28453943133354187,-0.13273468613624573,-0.824558436870575
1761914294778511400,3.275511474609375,-0.22367054224014282,-0.08685082942247391,-0.9030876159667969
1761914294788567300,3.2855673828125,-0.15184536576271057,-0.043136369436979294,-0.9529726505279541
1761914294798623200,3.295623291015625,-0.07842573523521423,-0.0034130974672734737,-0.9709755778312683
1761914294808679400,3.305679443359375,-0.004331804811954498,0.036219000816345215,-0.9527601003646851
1761914294818735400,3.3157353515625,0.06554827094078064,0.042533308267593384,-0.916864275932312
1761914294828791300,3.325791259765625,0.12873975932598114,0.022193683311343193,-0.8627115488052368
1761914294838847500,3.335847412109375,0.169457346200943,0.009014863520860672,-0.8002875447273254
1761914294848903400,3.3459033203125,0.19032801687717438,0.040433503687381744,-0.7349516749382019
1761914294858959400,3.35595947265625,0.19139325618743896,0.1137872114777565,-0.6747353672981262
1761914294869015600,3.366015625,0.17541135847568512,0.21150179207324982,-0.6144805550575256
1761914294879071500,3.376071533203125,0.14395515620708466,0.33097246289253235,-0.5501097440719604
1761914294889128400,3.38612841796875,0.09696155786514282,0.43525972962379456,-0.4685075581073761
1761914294899184400,3.396184326171875,0.0409826822578907,0.49564820528030396,-0.37882763147354126
1761914294909240600,3.406240478515625,-0.01571175642311573,0.5014139413833618,-0.29342350363731384
1761914294919296300,3.416296142578125,-0.05555379390716553,0.4785892069339752,-0.22098296880722046
1761914294929352200,3.426352294921875,-0.0717918872833252,0.4383544325828552,-0.1751433163881302
1761914294939408400,3.436408447265625,-0.07160382717847824,0.4190331995487213,-0.15577244758605957
1761914294949464300,3.44646435546875,-0.04437566176056862,0.42035067081451416,-0.16201703250408173
1761914294959520300,3.456520263671875,0.006244983524084091,0.44619694352149963,-0.17827557027339935
1761914294969576400,3.466576416015625,0.08645220100879669,0.4707257151603699,-0.20582997798919678
1761914294979632400,3.47663232421875,0.18917454779148102,0.5039123296737671,-0.22634483873844147
1761914294989688300,3.486688232421875,0.2970983386039734,0.5306155681610107,-0.24809673428535461
1761914294999744500,3.49674462890625,0.386722594499588,0.5408974289894104,-0.2667554020881653
1761914295009800400,3.506800537109375,0.4593792259693146,0.5521988272666931,-0.280750572681427
1761914295019856400,3.5168564453125,0.5204206705093384,0.5646505951881409,-0.28739872574806213
1761914295029912600,3.52691259765625,0.580897331237793,0.5579572916030884,-0.264432430267334
1761914295039968500,3.536968505859375,0.640090823173523,0.5148324966430664,-0.21535122394561768
1761914295050024200,3.547024169921875,0.6984593272209167,0.449187695980072,-0.13997311890125275
1761914295060080400,3.557080322265625,0.7472197413444519,0.36544689536094666,-0.03599429130554199
1761914295070136300,3.56713623046875,0.7845034599304199,0.2728985846042633,0.08044843375682831
1761914295080192300,3.577192138671875,0.7964528203010559,0.17642216384410858,0.20072633028030396
1761914295090249200,3.587249267578125,0.7963676452636719,0.08951707929372787,0.30349984765052795
1761914295100305400,3.597305419921875,0.7782649993896484,0.04321330413222313,0.3849167823791504
1761914295110361300,3.607361328125,0.7350019216537476,0.03155877813696861,0.4427955448627472
1761914295120417300,3.617417236328125,0.6801325678825378,0.05556047335267067,0.4694821536540985
1761914295130473500,3.627473388671875,0.6208010315895081,0.08420303463935852,0.47299113869667053
1761914295140529400,3.637529296875,0.548495888710022,0.1118064671754837,0.4583953619003296
1761914295150585300,3.64758544921875,0.4704569876194,0.14347410202026367,0.43677929043769836
1761914295160641500,3.6576416015625,0.3912407457828522,0.16445069015026093,0.4220600724220276
1761914295170697500,3.667697509765625,0.31935805082321167,0.15571285784244537,0.42056363821029663
1761914295180753400,3.67775341796875,0.2612006366252899,0.1338067352771759,0.43169206380844116
1761914295190809600,3.6878095703125,0.21301928162574768,0.11944431811571121,0.4518793523311615
1761914295200865300,3.697865234375,0.1655285805463791,0.10847406089305878,0.4790097177028656
1761914295210921200,3.707921142578125,0.12555639445781708,0.11727527529001236,0.5018332600593567
1761914295220977400,3.717977294921875,0.09413402527570724,0.15972782671451569,0.5074570178985596
1761914295231033300,3.728033447265625,0.08517222851514816,0.2156882882118225,0.49016907811164856
1761914295241089300,3.73808935546875,0.1042407900094986,0.25074532628059387,0.459537148475647
1761914295251145500,3.7481455078125,0.12308637797832489,0.27481576800346375,0.4134700298309326
1761914295261201400,3.758201416015625,0.12428576499223709,0.287319540977478,0.37579697370529175
1761914295271257300,3.76825732421875,0.08757941424846649,0.2605116069316864,0.3345390260219574
1761914295281313500,3.7783134765625,0.056628402322530746,0.18393714725971222,0.2909572422504425
1761914295291369500,3.788369384765625,0.04847939684987068,0.08897176384925842,0.23209421336650848
1761914295301426400,3.798426513671875,0.03578261286020279,0.01918058842420578,0.150417760014534
1761914295311482400,3.808482421875,-0.0010875215521082282,-0.02402147836983204,0.06342027336359024
1761914295321538600,3.81853857421875,-0.061445608735084534,-0.026604337617754936,-0.00251805130392313
1761914295331594500,3.828594482421875,-0.11331146955490112,-0.010671444237232208,-0.02704549767076969
1761914295341650400,3.838650390625,-0.14031128585338593,0.015259601175785065,-0.0019804276525974274
1761914295351706400,3.848706298828125,-0.14384156465530396,0.033734213560819626,0.0763322189450264
1761914295361762300,3.85876220703125,-0.1386895626783371,0.050548724830150604,0.19325771927833557
1761914295371818200,3.868818359375,-0.13207000494003296,0.07286814600229263,0.32177361845970154
1761914295381874400,3.87887451171875,-0.13619649410247803,0.09685879945755005,0.43107062578201294
1761914295391930400,3.888930419921875,-0.14929763972759247,0.12260544300079346,0.49159419536590576
1761914295401986300,3.898986328125,-0.1668616533279419,0.15336933732032776,0.5121425986289978
1761914295412042500,3.90904248046875,-0.19241467118263245,0.20081327855587006,0.495429664850235
1761914295422098400,3.919098388671875,-0.22775258123874664,0.2498861402273178,0.43984830379486084
1761914295432154400,3.929154296875,-0.2757006883621216,0.28837868571281433,0.3680635988712311
1761914295442210600,3.93921044921875,-0.3196209967136383,0.2968660891056061,0.2943965792655945
1761914295452266500,3.9492666015625,-0.34806010127067566,0.269106924533844,0.22400976717472076
1761914295462322400,3.959322509765625,-0.35988572239875793,0.21641641855239868,0.15015637874603271
1761914295472378400,3.96937841796875,-0.36705946922302246,0.1583874672651291,0.06723032891750336
1761914295482434300,3.979434326171875,-0.3622492551803589,0.09495417028665543,-0.016231268644332886
1761914295492490200,3.989490234375,-0.32888317108154297,0.02927928790450096,-0.10494153946638107
1761914295502547200,3.999547119140625,-0.2738891839981079,-0.028174761682748795,-0.19533559679985046
1761914295512602400,4.009602294921875,-0.19962826371192932,-0.05973401665687561,-0.2780938446521759
1761914295522658300,4.019658203125,-0.11145542562007904,-0.07765970379114151,-0.35191696882247925
1761914295532714200,4.02971435546875,-0.025690721347928047,-0.10192350298166275,-0.4082436263561249
1761914295542770400,4.0397705078125,0.061219677329063416,-0.12405863404273987,-0.44482746720314026
1761914295552826400,4.049826416015625,0.12514273822307587,-0.13615578413009644,-0.4614301323890686
1761914295562882300,4.05988232421875,0.16619618237018585,-0.16039793193340302,-0.452798068523407
1761914295572938500,4.0699384765625,0.18959897756576538,-0.20337362587451935,-0.43242010474205017
1761914295582994400,4.079994384765625,0.20545092225074768,-0.24444574117660522,-0.3923521637916565
1761914295593050400,4.09005029296875,0.2101639211177826,-0.2691710591316223,-0.3415478467941284
1761914295603106600,4.1001064453125,0.20294731855392456,-0.2607952356338501,-0.2795824408531189
1761914295613162200,4.110162353515625,0.1881318837404251,-0.23930086195468903,-0.2205449342727661
1761914295623218200,4.12021826171875,0.15616345405578613,-0.22819842398166656,-0.17119485139846802
1761914295633274400,4.1302744140625,0.09957927465438843,-0.251006543636322,-0.1343287080526352
1761914295643330300,4.140330322265625,0.03170086815953255,-0.3006703555583954,-0.11298073083162308
1761914295653386200,4.15038623046875,-0.03621772676706314,-0.36586669087409973,-0.10868638753890991
1761914295663442400,4.1604423828125,-0.09891002625226974,-0.4193984866142273,-0.12424273043870926
1761914295673498400,4.170498291015625,-0.15571604669094086,-0.4530182480812073,-0.15497374534606934
1761914295683554300,4.18055419921875,-0.2038918137550354,-0.48470211029052734,-0.20478089153766632
1761914295693611000,4.190611083984375,-0.24922387301921844,-0.5232409834861755,-0.26324182748794556
1761914295703667000,4.2006669921875,-0.29576537013053894,-0.5655080676078796,-0.32623007893562317
1761914295713724000,4.210723876953125,-0.35213702917099,-0.6056984066963196,-0.38818374276161194
1761914295723779800,4.22077978515625,-0.4114208519458771,-0.6180161237716675,-0.433668851852417
1761914295733836000,4.2308359375,-0.4643903076648712,-0.6081541776657104,-0.4614698588848114
1761914295743892000,4.24089208984375,-0.5101243257522583,-0.5803630948066711,-0.4640854001045227
1761914295753947600,4.25094775390625,-0.5575709342956543,-0.5384710431098938,-0.44577616453170776
1761914295764003800,4.26100390625,-0.5908073782920837,-0.5022956728935242,-0.4070466458797455
1761914295774059800,4.271059814453125,-0.6191269159317017,-0.47704362869262695,-0.34111157059669495
1761914295784115700,4.28111572265625,-0.6289092302322388,-0.4657166302204132,-0.2586170434951782
1761914295794172000,4.291171875,-0.6277539134025574,-0.4376106858253479,-0.16374512016773224
1761914295804227800,4.301227783203125,-0.6120906472206116,-0.3798144459724426,-0.07566292583942413
1761914295814283800,4.31128369140625,-0.5944640040397644,-0.3213442265987396,0.002741606906056404
1761914295824340000,4.321340087890625,-0.5811133980751038,-0.25323808193206787,0.06600019335746765
1761914295834396000,4.33139599609375,-0.5899471044540405,-0.1886148899793625,0.1150878518819809
1761914295844451800,4.341451904296875,-0.6053889393806458,-0.11699178069829941,0.14527595043182373
1761914295854508000,4.351508056640625,-0.592515766620636,-0.03934120014309883,0.1586918979883194
1761914295864564000,4.36156396484375,-0.5637588500976562,0.03015809692442417,0.15991102159023285
1761914295874619600,4.37161962890625,-0.5139603614807129,0.08760061860084534,0.16283570230007172
1761914295884675800,4.38167578125,-0.45916852355003357,0.14341722428798676,0.16595520079135895
1761914295894731800,4.391731689453125,-0.3955426812171936,0.17702604830265045,0.17980895936489105
1761914295904788700,4.401788818359375,-0.33135220408439636,0.18442800641059875,0.1903904229402542
1761914295914844700,4.4118447265625,-0.2720784842967987,0.16834756731987,0.21250398457050323
1761914295924900900,4.42190087890625,-0.2194627821445465,0.12655925750732422,0.24016204476356506
1761914295934956800,4.431956787109375,-0.18270955979824066,0.06565490365028381,0.27084776759147644
1761914295945012700,4.4420126953125,-0.15929196774959564,-0.002073257230222225,0.31773197650909424
1761914295955069000,4.45206884765625,-0.14837513864040375,-0.07618876546621323,0.3742152154445648
1761914295965124900,4.462124755859375,-0.1583707630634308,-0.14047564566135406,0.43793413043022156
1761914295975180800,4.472180908203125,-0.1705872118473053,-0.19100673496723175,0.49966728687286377
1761914295985237000,4.482237060546875,-0.16696041822433472,-0.21621446311473846,0.5336716175079346
1761914295995293000,4.49229296875,-0.14817661046981812,-0.20748381316661835,0.5355733633041382
1761914296005348900,4.502348876953125,-0.1250043511390686,-0.1639586240053177,0.5126753449440002
1761914296015405000,4.512405029296875,-0.0834481343626976,-0.0932261198759079,0.47420650720596313
1761914296025461000,4.5224609375,-0.024801619350910187,0.0011022097896784544,0.4198400676250458
1761914296035516700,4.5325166015625,0.034734148532152176,0.07720176875591278,0.34590113162994385
1761914296045572900,4.54257275390625,0.0760655477643013,0.12611430883407593,0.25776973366737366
1761914296055628800,4.55262890625,0.08810436725616455,0.15854734182357788,0.16317664086818695
1761914296065684700,4.562684814453125,0.08114601671695709,0.17502830922603607,0.08487482368946075
1761914296075741000,4.572740966796875,0.05967401713132858,0.16739115118980408,0.03605428338050842
1761914296085796900,4.582796875,0.05817006528377533,0.0947655588388443,0.017129652202129364
1761914296095853800,4.592853759765625,0.07042992860078812,-0.012560900300741196,0.04707450047135353
1761914296105910800,4.602910888671875,0.07567262649536133,-0.09950441122055054,0.12133011221885681
1761914296115966700,4.612966796875,0.06347082555294037,-0.17987941205501556,0.22312597930431366
1761914296126023000,4.62302294921875,0.043719712644815445,-0.26914146542549133,0.336976557970047
1761914296136078800,4.633078857421875,0.014878476969897747,-0.33430635929107666,0.43809226155281067
1761914296146134800,4.643134765625,-0.012976916506886482,-0.3653716444969177,0.5140589475631714
1761914296156191000,4.65319091796875,-0.0598813071846962,-0.36493730545043945,0.5536162257194519
1761914296166247000,4.663246826171875,-0.12206695973873138,-0.3310588598251343,0.546303927898407
1761914296176302800,4.673302734375,-0.18559587001800537,-0.2923884391784668,0.4990839958190918
1761914296186359000,4.683359130859375,-0.2507399022579193,-0.25521498918533325,0.4216342568397522
1761914296196415000,4.6934150390625,-0.3105960488319397,-0.2220679670572281,0.32739192247390747
1761914296206470700,4.703470703125,-0.34632712602615356,-0.20060749351978302,0.22564372420310974
1761914296216526800,4.71352685546875,-0.36916080117225647,-0.195493683218956,0.12007948011159897
1761914296226582800,4.723582763671875,-0.3942859172821045,-0.21028771996498108,0.008981671184301376
1761914296236638700,4.733638671875,-0.40477052330970764,-0.22355426847934723,-0.10519763082265854
1761914296246695000,4.74369482421875,-0.3994443714618683,-0.22229216992855072,-0.21702151000499725
1761914296256750800,4.753750732421875,-0.38374796509742737,-0.18814991414546967,-0.32828307151794434
1761914296266806800,4.763806884765625,-0.36273664236068726,-0.11159488558769226,-0.43093329668045044
1761914296276863000,4.773863037109375,-0.3528113067150116,-0.00694704195484519,-0.5222411155700684
1761914296286920000,4.783919921875,-0.34073442220687866,0.08876000344753265,-0.5850678086280823
1761914296296976000,4.793975830078125,-0.3392880856990814,0.15517763793468475,-0.6170142889022827
1761914296307031800,4.80403173828125,-0.33852720260620117,0.195171058177948,-0.6142701506614685
1761914296317088000,4.814087890625,-0.34190887212753296,0.20756834745407104,-0.5869439840316772
1761914296327144000,4.82414404296875,-0.3471483886241913,0.19836148619651794,-0.5411561131477356
1761914296337199900,4.834199951171875,-0.3536670207977295,0.18550214171409607,-0.4863511919975281
1761914296347256000,4.844256103515625,-0.36505481600761414,0.18638035655021667,-0.42736345529556274
1761914296357311700,4.854311767578125,-0.3938577175140381,0.2183031290769577,-0.3698623478412628
1761914296367367700,4.86436767578125,-0.43129199743270874,0.257686972618103,-0.3181634843349457
1761914296377424000,4.874423828125,-0.47142958641052246,0.2845073938369751,-0.2738865613937378
1761914296387479800,4.884479736328125,-0.5015237927436829,0.27178362011909485,-0.2276761680841446
1761914296397535700,4.89453564453125,-0.5207544565200806,0.24011117219924927,-0.18563337624073029
1761914296407592000,4.904592041015625,-0.5262506604194641,0.20312851667404175,-0.1477118730545044
1761914296417647900,4.91464794921875,-0.5126128792762756,0.16406287252902985,-0.12131062895059586
1761914296427703800,4.924703857421875,-0.48357611894607544,0.1389584243297577,-0.09851203113794327
1761914296437760000,4.934760009765625,-0.4315717816352844,0.13131514191627502,-0.08074954152107239
1761914296447816000,4.94481591796875,-0.346327006816864,0.14704447984695435,-0.061462774872779846
1761914296457872000,4.954871826171875,-0.22514066100120544,0.17589718103408813,-0.03479680418968201
1761914296467928800,4.9649287109375,-0.0955144613981247,0.1941768079996109,-0.006718672811985016
1761914296477985000,4.974985107421875,0.028732918202877045,0.19269394874572754,0.02437373250722885
1761914296488041000,4.985041015625,0.12853465974330902,0.1709989607334137,0.043489955365657806
1761914296498097000,4.995096923828125,0.21011340618133545,0.1479514241218567,0.05571306124329567
1761914296508152800,5.00515283203125,0.28304043412208557,0.1351102739572525,0.06765341013669968
1761914296518208800,5.015208740234375,0.3511848747730255,0.1240091472864151,0.07906265556812286
1761914296528264700,5.0252646484375,0.41765135526657104,0.10790853947401047,0.10458052903413773
1761914296538321000,5.03532080078125,0.4664180874824524,0.08133231848478317,0.13728360831737518
1761914296548376800,5.045376953125,0.5012866854667664,0.041602723300457,0.18300770223140717
1761914296558432800,5.055432861328125,0.5206921100616455,-0.01876874268054962,0.22628460824489594
1761914296568489000,5.065489013671875,0.531297504901886,-0.08428262174129486,0.2758708894252777
1761914296578545000,5.075544921875,0.5278455018997192,-0.142679363489151,0.3164915442466736
1761914296588600800,5.085600830078125,0.5279015898704529,-0.1871529370546341,0.3453315198421478
1761914296598656800,5.09565673828125,0.5202271342277527,-0.19636933505535126,0.3576614260673523
1761914296608713000,5.105712890625,0.5023020505905151,-0.1863262802362442,0.3547850549221039
1761914296618769000,5.115768798828125,0.47642385959625244,-0.16795393824577332,0.3450021743774414
1761914296628824800,5.125824951171875,0.4396773874759674,-0.14052017033100128,0.34157800674438477
1761914296638880800,5.135880859375,0.40319395065307617,-0.1342843770980835,0.34014442563056946
1761914296648938000,5.14593798828125,0.36057963967323303,-0.1458548754453659,0.34030866622924805
1761914296658994000,5.155993896484375,0.3208511471748352,-0.15422013401985168,0.3566458523273468
1761914296669049900,5.1660498046875,0.2827202081680298,-0.1498994380235672,0.3791417181491852
1761914296679105800,5.176105712890625,0.23422619700431824,-0.12404386699199677,0.40123769640922546
1761914296689165300,5.186165283203125,0.2117195576429367,-0.10523894429206848,0.4159415364265442
1761914296699221200,5.19622119140625,0.22930893301963806,-0.08109499514102936,0.42961686849594116
1761914296709277400,5.20627734375,0.25594279170036316,-0.03690725192427635,0.4204603433609009
1761914296719333400,5.21633349609375,0.26872941851615906,0.012726879678666592,0.38576945662498474
1761914296729389300,5.226389404296875,0.25740283727645874,0.029285097494721413,0.33457058668136597
1761914296739445500,5.236445556640625,0.22795039415359497,0.008194193243980408,0.27084699273109436
1761914296749501200,5.246501220703125,0.20599474012851715,-0.04979867860674858,0.21707093715667725
1761914296759557000,5.25655712890625,0.16455169022083282,-0.11530312150716782,0.1728249043226242
1761914296769613300,5.26661328125,0.11257109045982361,-0.1792505830526352,0.12480419129133224
1761914296779669200,5.276669189453125,0.051356472074985504,-0.25532111525535583,0.07226695120334625
1761914296789725200,5.28672509765625,0.00045629843953065574,-0.32055866718292236,0.019518129527568817
1761914296799781400,5.296781494140625,-0.026327643543481827,-0.35276347398757935,-0.025880509987473488
1761914296809837300,5.30683740234375,-0.01790306530892849,-0.3227662742137909,-0.05534513667225838
1761914296819893200,5.316893310546875,0.02421562559902668,-0.22794392704963684,-0.059556394815444946
1761914296829950200,5.3269501953125,0.06809913367033005,-0.0902000367641449,-0.02779547870159149
1761914296840006400,5.33700634765625,0.0929807797074318,0.04537297040224075,0.042231276631355286
1761914296850062300,5.347062255859375,0.09852675348520279,0.16864778101444244,0.13672369718551636
1761914296860118300,5.3571181640625,0.09245634824037552,0.29791444540023804,0.23050691187381744
1761914296870174500,5.367174560546875,0.08410796523094177,0.4066495895385742,0.3040490746498108
1761914296880230400,5.37723046875,0.08086450397968292,0.47958052158355713,0.3456993103027344
1761914296890286300,5.387286376953125,0.07088664174079895,0.5159707069396973,0.3569679856300354
1761914296900342300,5.39734228515625,0.057490408420562744,0.5390581488609314,0.3338826298713684
1761914296910398200,5.407398193359375,0.052900657057762146,0.5477349758148193,0.29003986716270447
1761914296920454100,5.4174541015625,0.07280192524194717,0.5537300109863281,0.23137575387954712
1761914296930510300,5.42751025390625,0.12024714052677155,0.558784544467926,0.15472151339054108
1761914296940566300,5.437566162109375,0.1827576607465744,0.5745161175727844,0.08036445081233978
1761914296950622200,5.447622314453125,0.2530863881111145,0.6064745187759399,-0.002914590761065483
1761914296960678400,5.457678466796875,0.3245379328727722,0.6206880807876587,-0.08803268522024155
1761914296970734300,5.467734375,0.4050799012184143,0.6135814189910889,-0.18010199069976807
1761914296980790300,5.477790283203125,0.4749812185764313,0.5750947594642639,-0.2684648633003235
1761914296990846500,5.487846435546875,0.5482970476150513,0.5155285596847534,-0.35840457677841187
1761914297000902400,5.49790234375,0.6078474521636963,0.45922374725341797,-0.46124598383903503
1761914297010959400,5.50795947265625,0.6628791093826294,0.41137421131134033,-0.580306887626648
1761914297021015300,5.518015380859375,0.7245006561279297,0.3884153664112091,-0.7039406895637512
1761914297031071500,5.528071533203125,0.7851951718330383,0.36926504969596863,-0.8086931705474854
1761914297041127400,5.53812744140625,0.8482827544212341,0.3737165331840515,-0.8623055219650269
1761914297051183000,5.54818310546875,0.892605721950531,0.3554438650608063,-0.8779814839363098
1761914297061239300,5.5582392578125,0.9110893607139587,0.3336386978626251,-0.85569828748703
1761914297071295200,5.568295166015625,0.9255067110061646,0.33235737681388855,-0.792532742023468
1761914297081351200,5.57835107421875,0.9340397715568542,0.3574392795562744,-0.6937137246131897
1761914297091407400,5.588407470703125,0.9380530714988708,0.3663369119167328,-0.5671053528785706
1761914297101463300,5.59846337890625,0.9310300946235657,0.34817469120025635,-0.42576470971107483
1761914297111519200,5.608519287109375,0.9037966132164001,0.3041042387485504,-0.28205031156539917
1761914297121575400,5.618575439453125,0.8643432259559631,0.23296189308166504,-0.15638239681720734
1761914297131631400,5.62863134765625,0.8050426840782166,0.14020714163780212,-0.07024575769901276
1761914297141687300,5.638687255859375,0.7321303486824036,0.05219154432415962,-0.02445855922996998
1761914297151743500,5.648743408203125,0.663077175617218,-0.004373339936137199,-0.01675960049033165
1761914297161799400,5.65879931640625,0.5965389013290405,-0.06815631687641144,-0.026769090443849564
1761914297171855400,5.66885546875,0.5392792224884033,-0.11767838895320892,-0.056415461003780365
1761914297181911300,5.678911376953125,0.4720788896083832,-0.15831904113292694,-0.09030658006668091
1761914297191968500,5.688968505859375,0.39492958784103394,-0.19844189286231995,-0.12163470685482025
1761914297202024200,5.699024169921875,0.31102457642555237,-0.23660792410373688,-0.14328621327877045
1761914297212080000,5.709080078125,0.22649462521076202,-0.24405963718891144,-0.1582227200269699
1761914297222136300,5.71913623046875,0.1645987629890442,-0.22496184706687927,-0.16867269575595856
1761914297232192300,5.729192138671875,0.10827019065618515,-0.1794133335351944,-0.17037495970726013
1761914297242248200,5.739248291015625,0.05411427840590477,-0.10775671154260635,-0.1573515683412552
1761914297252304400,5.749304443359375,0.0026968601159751415,-0.02302534691989422,-0.12809869647026062
1761914297262360300,5.7593603515625,-0.03700554743409157,0.03971020504832268,-0.0861363410949707
1761914297272416300,5.769416259765625,-0.06548867374658585,0.0792449340224266,-0.03103801980614662
1761914297282472400,5.779472412109375,-0.08753965049982071,0.09482229501008987,0.04210276901721954
1761914297292528400,5.7895283203125,-0.11009760200977325,0.09177500009536743,0.12545526027679443
1761914297302584300,5.799584228515625,-0.13046811521053314,0.09835194051265717,0.21082156896591187
1761914297312640500,5.809640625,-0.14790084958076477,0.10926084965467453,0.27582848072052
1761914297322696400,5.819696533203125,-0.1559731513261795,0.13187773525714874,0.3056902587413788
1761914297332752100,5.829752197265625,-0.15061359107494354,0.16289345920085907,0.3015040159225464
1761914297342808300,5.839808349609375,-0.1479078084230423,0.18556681275367737,0.25871527194976807
1761914297352864300,5.8498642578125,-0.13897192478179932,0.19565153121948242,0.19615663588047028
1761914297362920200,5.859920166015625,-0.14478693902492523,0.19513487815856934,0.14260685443878174
1761914297372977200,5.86997705078125,-0.15915188193321228,0.1643899530172348,0.11330395936965942
1761914297383033300,5.880033447265625,-0.1710740625858307,0.11702163517475128,0.11863453686237335
1761914297393089300,5.89008935546875,-0.197860985994339,0.05071480572223663,0.15212887525558472
1761914297403145200,5.900145263671875,-0.2294229120016098,-0.013074027374386787,0.2013227790594101
1761914297413201400,5.910201416015625,-0.22563056647777557,-0.09804066270589828,0.25610509514808655
1761914297423257300,5.92025732421875,-0.20284056663513184,-0.17038436233997345,0.2929246425628662
1761914297433313300,5.930313232421875,-0.20646479725837708,-0.1832832545042038,0.32325848937034607
1761914297443369500,5.940369384765625,-0.22953124344348907,-0.15611767768859863,0.3268764019012451
1761914297453425400,5.95042529296875,-0.24546590447425842,-0.12523499131202698,0.3110802173614502
1761914297463481300,5.9604814453125,-0.2022092491388321,-0.10566261410713196,0.2760061025619507
1761914297473537500,5.97053759765625,-0.12576548755168915,-0.05724773555994034,0.23317623138427734
1761914297483593200,5.98059326171875,-0.06609602272510529,0.041213858872652054,0.1913323849439621
1761914297493649200,5.990649169921875,-0.052020907402038574,0.14269405603408813,0.14176061749458313
1761914297503705300,6.000705322265625,-0.06137046590447426,0.20163166522979736,0.09756971895694733
1761914297513761300,6.01076123046875,-0.07733722031116486,0.19872517883777618,0.06724078953266144
1761914297523817200,6.020817138671875,-0.08828068524599075,0.16525989770889282,0.08609837293624878
1761914297533873400,6.030873291015625,-0.07960128039121628,0.10238543897867203,0.14596910774707794
1761914297543930400,6.040930419921875,-0.05840490758419037,0.009864029474556446,0.22396883368492126
1761914297553986300,6.050986328125,-0.05769861862063408,-0.09934984892606735,0.31005674600601196
1761914297564042200,6.061042236328125,-0.09223209321498871,-0.22427529096603394,0.39009326696395874
1761914297574098400,6.071098388671875,-0.14370109140872955,-0.37402138113975525,0.4519614279270172
1761914297584154400,6.081154296875,-0.19758562743663788,-0.5035056471824646,0.47353169322013855
1761914297594210300,6.091210205078125,-0.23099267482757568,-0.562767744064331,0.4476560950279236
1761914297604266500,6.1012666015625,-0.2592661380767822,-0.5464614629745483,0.3694712817668915
1761914297614322400,6.111322509765625,-0.276283323764801,-0.4806467890739441,0.2600506842136383
1761914297624378400,6.12137841796875,-0.22106215357780457,-0.5113506317138672,0.12524919211864471
1761914297634434300,6.131434326171875,-0.12380581349134445,-0.6668518781661987,-0.022750621661543846
1761914297644490200,6.141490234375,-0.10737810283899307,-0.6923580765724182,-0.11285760998725891
1761914297654546200,6.151546142578125,-0.08039607107639313,-0.5959955453872681,-0.1722368448972702
1761914297664602400,6.161602294921875,-0.042448680847883224,-0.4224652349948883,-0.25488749146461487
1761914297674658300,6.171658203125,-0.01591874472796917,-0.2323426604270935,-0.3592917025089264
1761914297684714200,6.18171435546875,0.03983746096491814,-0.08163383603096008,-0.4737889766693115
1761914297694770700,6.191770751953125,0.11042614281177521,0.08383235335350037,-0.5917380452156067
1761914297704827000,6.201826904296875,0.17013341188430786,0.25179100036621094,-0.6956417560577393
1761914297714882600,6.211882568359375,0.18810096383094788,0.3540089726448059,-0.772537350654602
1761914297724939800,6.221939697265625,0.16449789702892303,0.35355544090270996,-0.8070271611213684
1761914297734995700,6.23199560546875,0.12836073338985443,0.20786647498607635,-0.7691208124160767
1761914297745051600,6.2420517578125,0.04613616317510605,0.12737348675727844,-0.6851816773414612
1761914297755107600,6.252107666015625,-0.0688883438706398,0.11334371566772461,-0.6233701705932617
1761914297765163800,6.262163818359375,-0.17229250073432922,0.04752342030405998,-0.6169466376304626
1761914297775219700,6.2722197265625,-0.2680839002132416,-0.012676565907895565,-0.5963923335075378
1761914297785275600,6.282275634765625,-0.36755242943763733,0.0027495278045535088,-0.5699101090431213
1761914297795331800,6.292331787109375,-0.45397964119911194,0.09306852519512177,-0.5628206133842468
1761914297805387800,6.3023876953125,-0.539772629737854,0.24210619926452637,-0.5661189556121826
1761914297815443700,6.312443603515625,-0.6150587201118469,0.41199663281440735,-0.5565705299377441
1761914297825499600,6.322499755859375,-0.6942323446273804,0.5277701020240784,-0.5048879384994507
1761914297835555800,6.332555908203125,-0.7742055058479309,0.5786455273628235,-0.40286940336227417
1761914297845611800,6.34261181640625,-0.8222350478172302,0.588014543056488,-0.27116331458091736
1761914297855667700,6.352667724609375,-0.8153893947601318,0.5028985142707825,-0.11651604622602463
1761914297865723600,6.3627236328125,-0.7336226105690002,0.2889268696308136,0.038920409977436066
1761914297875779600,6.372779541015625,-0.6043258905410767,-0.03541221097111702,0.19877271354198456
1761914297885835500,6.38283544921875,-0.46257174015045166,-0.31906256079673767,0.3428635895252228
1761914297895892700,6.392892822265625,-0.34510481357574463,-0.44144725799560547,0.43289467692375183
1761914297905948700,6.40294873046875,-0.24007637798786163,-0.4517851173877716,0.453244149684906
1761914297916004600,6.413004638671875,-0.12615416944026947,-0.40872353315353394,0.4337257742881775
1761914297926060800,6.423060791015625,-0.03167320787906647,-0.24579961597919464,0.4120654761791229
1761914297936116700,6.43311669921875,0.031290434300899506,-0.018960757181048393,0.35294854640960693
1761914297946172700,6.443172607421875,0.06612564623355865,0.16895028948783875,0.2701719105243683
1761914297956228600,6.453228515625,0.08605489879846573,0.2368864119052887,0.21060355007648468
1761914297966284800,6.463284912109375,0.0729667916893959,0.24308279156684875,0.1842252016067505
1761914297976340700,6.4733408203125,0.04273582994937897,0.2120286524295807,0.17670011520385742
1761914297986396700,6.483396728515625,0.017218219116330147,0.18227927386760712,0.16977882385253906
1761914297996452900,6.493452880859375,-0.015700919553637505,0.17870964109897614,0.15678773820400238
1761914298006508800,6.5035087890625,-0.06636356562376022,0.1996772289276123,0.14591272175312042
1761914298016564500,6.513564453125,-0.1261037141084671,0.221419095993042,0.1443505883216858
1761914298026620700,6.52362060546875,-0.2005004584789276,0.20534397661685944,0.14064612984657288
1761914298036676600,6.533676513671875,-0.25062790513038635,0.10608226805925369,0.13610471785068512
1761914298046732500,6.543732666015625,-0.2872796654701233,-0.03849382326006889,0.13963180780410767
1761914298056788700,6.553788818359375,-0.30180880427360535,-0.18549872934818268,0.18603578209877014
1761914298066844700,6.5638447265625,-0.284423291683197,-0.32532063126564026,0.2723023295402527
1761914298076901600,6.573901611328125,-0.2544391453266144,-0.4087872803211212,0.3623325824737549
1761914298086957600,6.58395751953125,-0.2192947268486023,-0.4113662838935852,0.45884767174720764
1761914298097013800,6.594013671875,-0.18078775703907013,-0.2737213671207428,0.5362135171890259
1761914298107069700,6.604069580078125,-0.1037725955247879,-0.06413937360048294,0.6084278225898743
1761914298117125600,6.614125732421875,0.056068774312734604,0.017275311052799225,0.7037221193313599
1761914298127181800,6.624181884765625,0.23609793186187744,0.06863517314195633,0.7740064263343811
1761914298137237800,6.63423779296875,0.3731527626514435,0.16050347685813904,0.8246659636497498
1761914298147293700,6.644293701171875,0.44518354535102844,0.3203861117362976,0.8454343676567078
1761914298157350000,6.654349853515625,0.4582536816596985,0.5088750123977661,0.8506101965904236
1761914298167405600,6.664405517578125,0.44105634093284607,0.7001749277114868,0.870381236076355
1761914298177461500,6.67446142578125,0.379171222448349,0.8609108924865723,0.9049206972122192
1761914298187517700,6.684517578125,0.24149538576602936,1.0814601182937622,0.9381194114685059
1761914298197573600,6.69457373046875,0.09974846243858337,1.2317287921905518,0.8801745772361755
1761914298207629600,6.704629638671875,0.05302037298679352,1.0943541526794434,0.7689761519432068
1761914298217685800,6.714685791015625,0.01800062693655491,1.1026986837387085,0.7481805086135864
1761914298227741700,6.72474169921875,-0.05600915104150772,0.5330846905708313,0.5060014128684998
1761914298237797600,6.734797607421875,-0.030719034373760223,0.12710994482040405,0.36193376779556274
1761914298247854600,6.7448544921875,0.009105876088142395,0.010211024433374405,0.2793012261390686
1761914298257910800,6.754910888671875,-0.036725692451000214,-0.2576654553413391,0.1385696828365326
1761914298267966700,6.764966796875,-0.1063484400510788,-0.5032957196235657,0.11021926999092102
1761914298278022700,6.775022705078125,-0.10016091912984848,-0.4147105813026428,0.17754776775836945
1761914298288078800,6.785078857421875,-0.08017762750387192,-0.5511339902877808,0.12806303799152374
1761914298298134800,6.795134765625,-0.023571157827973366,-0.8746916055679321,-0.05266450345516205
1761914298308190700,6.805190673828125,0.0011269993847236037,-1.2074249982833862,-0.300606906414032
1761914298318246700,6.81524658203125,-0.3735120892524719,-1.3040283918380737,-0.4085615873336792
1761914298328302600,6.825302490234375,-0.8634918928146362,-1.0289126634597778,-0.2332552820444107
1761914298338358500,6.835358642578125,-1.1243181228637695,-0.7288947701454163,-0.0304570272564888
1761914298348414700,6.845414794921875,-1.1482508182525635,-0.5311034321784973,0.19760650396347046
1761914298358470700,6.855470703125,-1.0358742475509644,-0.398183673620224,0.3680478632450104
1761914298368526600,6.865526611328125,-0.8885335922241211,-0.24789084494113922,0.5461891293525696
1761914298378582800,6.875582763671875,-0.79371577501297,0.001814389368519187,0.7236779928207397
1761914298388638700,6.885638671875,-0.7759333252906799,0.31943097710609436,0.8133143782615662
1761914298398694700,6.895694580078125,-0.8060522675514221,0.5490379333496094,0.811326801776886
1761914298408750800,6.905750732421875,-0.8453171253204346,0.6372074484825134,0.7590923309326172
1761914298418806800,6.915806884765625,-0.8811331391334534,0.6230484843254089,0.6953858137130737
1761914298428863700,6.92586376953125,-0.9238249659538269,0.5435677766799927,0.6319543719291687
1761914298438919700,6.935919677734375,-0.9886701107025146,0.4185057580471039,0.5709419846534729
1761914298448976000,6.945975830078125,-1.0596479177474976,0.26929494738578796,0.5136566162109375
1761914298459031800,6.95603173828125,-1.1268279552459717,0.08356011658906937,0.4551447927951813
1761914298469087500,6.96608740234375,-1.1652240753173828,-0.1849387288093567,0.39004117250442505
1761914298479143700,6.976143798828125,-1.1686283349990845,-0.4715542793273926,0.3306299149990082
1761914298489199600,6.98619970703125,-1.1232563257217407,-0.7120824456214905,0.2992464005947113
1761914298499255600,6.996255615234375,-1.0462027788162231,-0.9016759395599365,0.2949761152267456
1761914298509311700,7.006311767578125,-0.9613166451454163,-1.032944679260254,0.30234798789024353
1761914298519367700,7.01636767578125,-0.8880134224891663,-1.0865564346313477,0.28997310996055603
1761914298529423600,7.026423583984375,-0.8357206583023071,-1.0641930103302002,0.24782724678516388
1761914298539479800,7.036479736328125,-0.8079923987388611,-0.9774764776229858,0.1547659933567047
1761914298549535700,7.04653564453125,-0.809715211391449,-0.8694030046463013,0.01045461930334568
1761914298559591700,7.056591796875,-0.8278106451034546,-0.7709341049194336,-0.15440241992473602
1761914298569647900,7.06664794921875,-0.8482720255851746,-0.6447197198867798,-0.3199852406978607
1761914298579703800,7.076703857421875,-0.8556933999061584,-0.48334333300590515,-0.4693846106529236
1761914298589759700,7.086759765625,-0.8466581106185913,-0.30295678973197937,-0.6060391068458557
1761914298599815700,7.096815673828125,-0.8218922019004822,-0.13560247421264648,-0.7240297794342041
1761914298609873000,7.106872802734375,-0.7672278881072998,-0.008878352120518684,-0.8088842034339905
1761914298619928600,7.116928466796875,-0.6923112273216248,0.08178723603487015,-0.8615965247154236
1761914298629984500,7.126984619140625,-0.6187589764595032,0.12705139815807343,-0.8899868726730347
1761914298640040700,7.137040771484375,-0.5550364255905151,0.12219486385583878,-0.8959189057350159
1761914298650096600,7.1470966796875,-0.5035748481750488,0.03799530118703842,-0.8963274359703064
1761914298660152600,7.157152587890625,-0.4633624255657196,-0.11807581037282944,-0.8857265710830688
1761914298670208800,7.167208740234375,-0.4472537636756897,-0.33977144956588745,-0.8657137155532837
1761914298680264700,7.1772646484375,-0.4469258189201355,-0.6062009334564209,-0.8372804522514343
1761914298690316500,7.187316650390625,-0.45875880122184753,-0.8872597813606262,-0.7910114526748657
1761914298700372500,7.19737255859375,-0.4653053879737854,-1.1539376974105835,-0.7168393731117249
1761914298710428200,7.20742822265625,-0.4574088752269745,-1.3949031829833984,-0.6102362275123596
1761914298720484400,7.217484375,-0.4499266743659973,-1.6032683849334717,-0.47939831018447876
1761914298730540300,7.227540283203125,-0.4514814019203186,-1.7391191720962524,-0.3280002772808075
1761914298740596200,7.23759619140625,-0.4648055136203766,-1.8010151386260986,-0.16438370943069458
1761914298750652400,7.24765234375,-0.48908182978630066,-1.8264179229736328,-0.002530624158680439
1761914298760708400,7.257708251953125,-0.5491417646408081,-1.829064130783081,0.1352153867483139
1761914298770764300,7.267764404296875,-0.6256769895553589,-1.8083782196044922,0.24430377781391144
1761914298780820500,7.277820556640625,-0.7138811349868774,-1.761342167854309,0.316448450088501
1761914298790877400,7.28787744140625,-0.7812902927398682,-1.7109583616256714,0.3527795672416687
1761914298800933400,7.297933349609375,-0.8302683234214783,-1.6611794233322144,0.3517870604991913
1761914298810989300,7.3079892578125,-0.8710916638374329,-1.6158604621887207,0.32399964332580566
1761914298821045500,7.31804541015625,-0.9126955270767212,-1.566705584526062,0.264932245016098
1761914298831101400,7.328101318359375,-0.9582829475402832,-1.5118476152420044,0.2012171894311905
1761914298841157400,7.338157470703125,-1.0073481798171997,-1.443669080734253,0.11412416398525238
1761914298851213600,7.348213623046875,-1.0552678108215332,-1.3837319612503052,0.01699201762676239
1761914298861269200,7.358269287109375,-1.1071765422821045,-1.3181967735290527,-0.08492447435855865
1761914298871325200,7.3683251953125,-1.157884120941162,-1.232298731803894,-0.1971849650144577
1761914298881381400,7.37838134765625,-1.1990936994552612,-1.1182005405426025,-0.31484460830688477
1761914298891437300,7.388437255859375,-1.240580677986145,-0.9925801157951355,-0.44053542613983154
1761914298901493200,7.3984931640625,-1.270638346672058,-0.8621475696563721,-0.5768579840660095
1761914298911549400,7.408549560546875,-1.2746334075927734,-0.7162766456604004,-0.7048979997634888
1761914298921605400,7.41860546875,-1.254437804222107,-0.536685049533844,-0.7981043457984924
1761914298931661300,7.428661376953125,-1.1979566812515259,-0.337677925825119,-0.8456644415855408
1761914298941717500,7.438717529296875,-1.1161518096923828,-0.1754281222820282,-0.853171706199646
1761914298951773400,7.4487734375,-1.0179682970046997,-0.10531321913003922,-0.809994637966156
1761914298961829400,7.458829345703125,-0.9223400950431824,-0.10987871885299683,-0.721229076385498
1761914298971886300,7.46888623046875,-0.8424497842788696,-0.1341118961572647,-0.6127883791923523
1761914298981942500,7.478942626953125,-0.7789512872695923,-0.14271807670593262,-0.47359368205070496
1761914298991998500,7.48899853515625,-0.751472532749176,-0.11946922540664673,-0.337937593460083
1761914299002054400,7.499054443359375,-0.767837405204773,-0.11862557381391525,-0.2444232702255249
1761914299012110300,7.5091103515625,-0.802206814289093,-0.17802418768405914,-0.1850166767835617
1761914299022166300,7.519166259765625,-0.8260245323181152,-0.280069500207901,-0.13484936952590942
1761914299032222200,7.52922216796875,-0.7996363043785095,-0.3508627414703369,-0.06955771893262863
1761914299042278400,7.5392783203125,-0.7493352890014648,-0.38639286160469055,0.004011753015220165
1761914299052334300,7.549334228515625,-0.6982969045639038,-0.4087493121623993,0.061869990080595016
1761914299062390300,7.559390380859375,-0.6588606238365173,-0.44868022203445435,0.07957030832767487
1761914299072446500,7.569446533203125,-0.6361017823219299,-0.5325000286102295,0.05533473566174507
1761914299082502400,7.57950244140625,-0.6225697994232178,-0.6456291675567627,-0.008367219939827919
1761914299092558300,7.589558349609375,-0.6190330982208252,-0.7324673533439636,-0.08932332694530487
1761914299102614500,7.599614501953125,-0.6197165250778198,-0.8092092871665955,-0.175436869263649
1761914299112670500,7.60967041015625,-0.6394596099853516,-0.9069206714630127,-0.2534661591053009
1761914299122726400,7.619726318359375,-0.6722868084907532,-0.974548876285553,-0.3121446371078491
1761914299132782300,7.6297822265625,-0.7095111608505249,-0.9554643630981445,-0.34534040093421936
1761914299142839600,7.639839599609375,-0.7384346127510071,-0.8379090428352356,-0.3417883515357971
1761914299152895500,7.6498955078125,-0.7295705080032349,-0.6506765484809875,-0.3020888566970825
1761914299162951200,7.659951171875,-0.665482759475708,-0.4104137420654297,-0.2313157021999359
1761914299173007400,7.67000732421875,-0.559385359287262,-0.1860773116350174,-0.15177027881145477
1761914299183063300,7.680063232421875,-0.42425501346588135,0.008335663005709648,-0.05715567246079445
1761914299193119200,7.690119140625,-0.26086023449897766,0.1583659052848816,0.04145532101392746
1761914299203175400,7.700175537109375,-0.10046142339706421,0.26597028970718384,0.15008947253227234
1761914299213231400,7.7102314453125,0.023411517962813377,0.363654762506485,0.26279711723327637
1761914299223287300,7.720287353515625,0.08359850198030472,0.4431245028972626,0.3688025176525116
1761914299233343500,7.730343505859375,0.0887029841542244,0.46948501467704773,0.45837873220443726
1761914299243399400,7.7403994140625,0.06453248113393784,0.44707372784614563,0.5306234955787659
1761914299253455400,7.750455322265625,0.03629019111394882,0.3755854368209839,0.5870734453201294
1761914299263511300,7.76051123046875,-0.006426073610782623,0.2505439817905426,0.6144412159919739
1761914299273567500,7.7705673828125,-0.059077564626932144,0.05828746780753136,0.6093285083770752
1761914299283623400,7.78062353515625,-0.12560264766216278,-0.17941156029701233,0.5870286226272583
1761914299293679400,7.790679443359375,-0.20420025289058685,-0.381125271320343,0.564054548740387
1761914299303735300,7.8007353515625,-0.2878430485725403,-0.48213812708854675,0.5646607279777527
1761914299313791200,7.810791259765625,-0.3864268958568573,-0.4818321466445923,0.565608024597168
1761914299323848200,7.82084814453125,-0.510171115398407,-0.41222143173217773,0.5486587882041931
1761914299333904400,7.830904296875,-0.6367170810699463,-0.3257232904434204,0.49971306324005127
1761914299343960300,7.840960205078125,-0.7527180910110474,-0.24963600933551788,0.4245986044406891
1761914299354016300,7.851016357421875,-0.8436464071273804,-0.19104646146297455,0.3251681327819824
1761914299364072400,7.861072509765625,-0.9167463183403015,-0.13875557482242584,0.22402197122573853
1761914299374128400,7.87112841796875,-0.9635787606239319,-0.08592165261507034,0.13453149795532227
1761914299384184300,7.881184326171875,-0.9840822815895081,-0.0466478206217289,0.06372888386249542
1761914299394240300,7.891240234375,-0.9911170601844788,-0.01525021716952324,0.007303686812520027
1761914299404296400,7.90129638671875,-0.9891425371170044,0.0005125997704453766,-0.04165446013212204
1761914299414352400,7.911352294921875,-0.9718756675720215,0.0014641471207141876,-0.08115021139383316
1761914299424408300,7.921408203125,-0.9460734724998474,-0.0035620504058897495,-0.10601546615362167
1761914299434464500,7.931464599609375,-0.9136635661125183,-0.017234185710549355,-0.11848971247673035
1761914299444520200,7.941520263671875,-0.869960367679596,-0.04551501199603081,-0.12049059569835663
1761914299454576000,7.951576171875,-0.8097454905509949,-0.07727400213479996,-0.1081942543387413
1761914299464632300,7.96163232421875,-0.7337872385978699,-0.07725096493959427,-0.08697344362735748
1761914299474688300,7.971688232421875,-0.6390583515167236,-0.04118509963154793,-0.05763658881187439
1761914299484744200,7.981744140625,-0.5284044742584229,-0.012041179463267326,-0.020563483238220215
1761914299494800400,7.99180029296875,-0.40257754921913147,0.0017132482025772333,0.018012670800089836
1761914299504856300,8.001856201171876,-0.26661890745162964,0.002526803407818079,0.05652480199933052
1761914299514912300,8.011912353515624,-0.136476069688797,0.0044847591780126095,0.08946650475263596
1761914299524968400,8.021968505859375,-0.03414970263838768,0.03544613718986511,0.11967447400093079
1761914299535024400,8.0320244140625,0.030319832265377045,0.07415678352117538,0.12423993647098541
1761914299545080300,8.042080322265624,0.06976018846035004,0.12223589420318604,0.10113700479269028
1761914299555136500,8.052136474609375,0.08472555130720139,0.17345941066741943,0.05915414169430733
1761914299565192200,8.062192138671875,0.08324173837900162,0.19727352261543274,-0.0033408887684345245
1761914299575248100,8.072248046875,0.07238030433654785,0.21297872066497803,-0.0737340971827507
1761914299585304300,8.08230419921875,0.05593303218483925,0.21511270105838776,-0.14504578709602356
1761914299595360300,8.0923603515625,0.03709329664707184,0.20694345235824585,-0.20412294566631317
1761914299605416200,8.102416259765626,0.013692550361156464,0.19599641859531403,-0.2551071345806122
1761914299615472400,8.112472412109375,-0.01334732212126255,0.15621358156204224,-0.2989068329334259
1761914299625528300,8.1225283203125,-0.05054444819688797,0.07870087772607803,-0.339009165763855
1761914299635584300,8.132584228515626,-0.09656760096549988,-0.02265184186398983,-0.3808996379375458
1761914299645640400,8.142640380859374,-0.1527223438024521,-0.14977848529815674,-0.42829903960227966
1761914299655696400,8.1526962890625,-0.21750053763389587,-0.30056318640708923,-0.47893238067626953
1761914299665752300,8.16275244140625,-0.3009002208709717,-0.45851096510887146,-0.5210275650024414
1761914299675808500,8.17280859375,-0.40274667739868164,-0.5615467429161072,-0.5341119170188904
1761914299685864400,8.182864501953125,-0.5008500218391418,-0.5681719183921814,-0.5058306455612183
1761914299695921000,8.1929208984375,-0.591400682926178,-0.4841390550136566,-0.43337908387184143
1761914299705977900,8.202977783203124,-0.6711421608924866,-0.3682878911495209,-0.3504178524017334
1761914299716034000,8.213033935546875,-0.7050428986549377,-0.26452019810676575,-0.23770327866077423
1761914299726090000,8.223090087890625,-0.7087022066116333,-0.15800347924232483,-0.10826559364795685
1761914299736146000,8.23314599609375,-0.6923194527626038,-0.05991365760564804,0.025958525016903877
1761914299746202000,8.2432021484375,-0.6712178587913513,-0.007524386048316956,0.17376963794231415
1761914299756258000,8.253258056640625,-0.6467876434326172,0.016470694914460182,0.32519856095314026
1761914299766314000,8.26331396484375,-0.6341102123260498,0.017024941742420197,0.48307618498802185
1761914299776370200,8.2733701171875,-0.640453577041626,-0.03613947331905365,0.6426202654838562
1761914299786426000,8.283426025390625,-0.6710448861122131,-0.1326248049736023,0.7914742827415466
1761914299796481800,8.293481689453126,-0.7540614604949951,-0.295762300491333,0.9130446314811707
1761914299806538000,8.3035380859375,-0.9155539870262146,-0.4982012212276459,1.007298469543457
1761914299816594000,8.313593994140625,-1.0773231983184814,-0.4314160645008087,1.1156188249588013
1761914299826649900,8.32364990234375,-1.1255015134811401,-0.30366984009742737,1.235640048980713
1761914299836706000,8.3337060546875,-1.1169918775558472,-0.5208487510681152,1.266692042350769
1761914299846762000,8.343761962890625,-1.1324880123138428,-0.8014612793922424,1.2338981628417969
1761914299856818000,8.35381787109375,-1.186745047569275,-0.9907239079475403,1.1710928678512573
1761914299866873900,8.363873779296876,-1.2415465116500854,-1.1549206972122192,1.0651212930679321
1761914299876930000,8.373929931640625,-1.2806121110916138,-1.2810360193252563,0.9274457693099976
1761914299886987000,8.383987060546875,-1.295234203338623,-1.3843616247177124,0.7785593867301941
1761914299897043000,8.39404296875,-1.275418758392334,-1.419966220855713,0.6403828263282776
1761914299907099100,8.40409912109375,-1.2202136516571045,-1.391875982284546,0.545530378818512
1761914299917155000,8.414155029296875,-1.1399651765823364,-1.2982951402664185,0.49577879905700684
1761914299927211000,8.4242109375,-1.0360839366912842,-1.1186938285827637,0.5114355683326721
1761914299937267000,8.434266845703124,-0.9046960473060608,-0.8229576349258423,0.5990144610404968
1761914299947323100,8.4443232421875,-0.758997917175293,-0.43483564257621765,0.7528691291809082
1761914299957378800,8.45437890625,-0.6274508237838745,-0.05558128282427788,0.9251503348350525
1761914299967435000,8.46443505859375,-0.538011372089386,0.18841972947120667,1.0627453327178955
1761914299977491000,8.474490966796875,-0.4839142858982086,0.260873943567276,1.150565505027771
1761914299987547000,8.484546875,-0.45908862352371216,0.20906312763690948,1.1941640377044678
1761914299997602800,8.494602783203124,-0.46898677945137024,0.029947973787784576,1.1970255374908447
1761914300007659000,8.504658935546875,-0.5186590552330017,-0.19599418342113495,1.1830883026123047
1761914300017715000,8.51471484375,-0.5911673307418823,-0.404739111661911,1.162194013595581
1761914300027771000,8.52477099609375,-0.681140661239624,-0.6082390546798706,1.136919617652893
1761914300037827000,8.5348271484375,-0.7754181623458862,-0.8192481994628906,1.0988417863845825
1761914300047883000,8.544883056640625,-0.8771533966064453,-1.0292367935180664,1.0421528816223145
1761914300057939000,8.55493896484375,-0.9841914176940918,-1.222695231437683,0.9565266966819763
1761914300067996000,8.564995849609375,-1.0884745121002197,-1.362730860710144,0.8342463374137878
1761914300078053000,8.57505322265625,-1.1840558052062988,-1.435058832168579,0.6812629103660583
1761914300088109000,8.585109130859376,-1.2526439428329468,-1.4583877325057983,0.5104309320449829
1761914300098165000,8.5951650390625,-1.296486258506775,-1.4708648920059204,0.33091333508491516
1761914300108221000,8.605220947265625,-1.3100098371505737,-1.4736970663070679,0.1479852795600891
1761914300118277000,8.615277099609376,-1.2802300453186035,-1.45262610912323,-0.014955971390008926
1761914300128332800,8.625332763671874,-1.1954301595687866,-1.4169402122497559,-0.140721395611763
1761914300138389000,8.635388916015625,-1.0498812198638916,-1.3530104160308838,-0.21808089315891266
1761914300148445000,8.64544482421875,-0.8615161776542664,-1.2629917860031128,-0.24454548954963684
1761914300158500900,8.6555009765625,-0.6585012674331665,-1.1459949016571045,-0.23379191756248474
1761914300168557000,8.66555712890625,-0.47942784428596497,-1.0061933994293213,-0.19923080503940582
1761914300178613000,8.675613037109375,-0.35568752884864807,-0.8713807463645935,-0.16552051901817322
1761914300188669000,8.6856689453125,-0.3011632263660431,-0.7631237506866455,-0.14722925424575806
1761914300198724900,8.695724853515625,-0.2939457893371582,-0.6947031617164612,-0.14578129351139069
1761914300208781000,8.705781005859375,-0.34053850173950195,-0.6992461681365967,-0.16524462401866913
1761914300218837000,8.7158369140625,-0.44289788603782654,-0.8307639956474304,-0.21048668026924133
1761914300228893000,8.725892822265624,-0.5768820643424988,-1.0310943126678467,-0.23275461792945862
1761914300238949000,8.73594921875,-0.710244357585907,-1.183409333229065,-0.21184507012367249
1761914300249005000,8.746005126953126,-0.8251230120658875,-1.2911884784698486,-0.15566319227218628
1761914300259060700,8.756060791015624,-0.9144590497016907,-1.387825846672058,-0.08518663048744202
1761914300269118000,8.766117919921875,-0.9757646918296814,-1.449399709701538,-0.005800300743430853
1761914300279174000,8.776173828125,-1.0214115381240845,-1.476212978363037,0.07810205221176147
1761914300289229800,8.786229736328124,-1.0681818723678589,-1.471335768699646,0.15843161940574646
1761914300299286000,8.7962861328125,-1.104096531867981,-1.456455111503601,0.2388492226600647
1761914300309342000,8.806342041015625,-1.130549430847168,-1.4368144273757935,0.3253536522388458
1761914300319398000,8.81639794921875,-1.1481342315673828,-1.3989444971084595,0.40798115730285645
1761914300329453800,8.826453857421875,-1.1537237167358398,-1.3863471746444702,0.46162500977516174
1761914300339510000,8.836510009765625,-1.1514780521392822,-1.42893648147583,0.4704054296016693
1761914300349566000,8.84656591796875,-1.1383106708526611,-1.5208107233047485,0.4437013268470764
1761914300359622000,8.856621826171875,-1.1167266368865967,-1.6285150051116943,0.38920292258262634
1761914300369678000,8.866677978515625,-1.0970017910003662,-1.7319600582122803,0.3322924077510834
1761914300379734000,8.876734130859376,-1.0834394693374634,-1.8039785623550415,0.28170245885849
1761914300389790000,8.8867900390625,-1.0904852151870728,-1.829525113105774,0.23490093648433685
1761914300399846100,8.89684619140625,-1.1191011667251587,-1.8038992881774902,0.19433113932609558
1761914300409901800,8.90690185546875,-1.151984453201294,-1.7513256072998047,0.14317671954631805
1761914300419957800,8.916957763671874,-1.1812922954559326,-1.7112399339675903,0.07624907791614532
1761914300430014000,8.927013916015625,-1.207802176475525,-1.672228455543518,0.012621292844414711
1761914300440070000,8.93706982421875,-1.2267372608184814,-1.6217862367630005,-0.04104246944189072
1761914300450125800,8.947125732421876,-1.2386897802352905,-1.5715354681015015,-0.08709914982318878
1761914300460182800,8.957182861328125,-1.238877534866333,-1.5068957805633545,-0.12385450303554535
1761914300470239000,8.967239013671875,-1.2309212684631348,-1.4532562494277954,-0.1516803652048111
1761914300480295000,8.977294921875,-1.219643235206604,-1.4112989902496338,-0.16742950677871704
1761914300490350800,8.987350830078125,-1.208957314491272,-1.352379560470581,-0.16633303463459015
1761914300500407000,8.997406982421875,-1.2071501016616821,-1.2667371034622192,-0.14589940011501312
1761914300510463000,9.007462890625,-1.2079987525939941,-1.1816504001617432,-0.12049786001443863
1761914300520519000,9.017518798828124,-1.2208245992660522,-1.1345995664596558,-0.10220035165548325
1761914300530575000,9.0275751953125,-1.229291558265686,-1.13692307472229,-0.1055792048573494
1761914300540631000,9.037631103515626,-1.2407463788986206,-1.202077865600586,-0.11692772805690765
1761914300550687000,9.04768701171875,-1.2412751913070679,-1.332423448562622,-0.1399095505475998
1761914300560743000,9.057742919921875,-1.2228572368621826,-1.4769073724746704,-0.15548370778560638
1761914300570798800,9.067798828125,-1.1992161273956299,-1.5981310606002808,-0.1551293581724167
1761914300580854800,9.077854736328124,-1.1798714399337769,-1.669030785560608,-0.14052484929561615
1761914300590911000,9.087910888671875,-1.1724928617477417,-1.6707231998443604,-0.11774740368127823
1761914300600967000,9.097966796875,-1.1662150621414185,-1.6281962394714355,-0.0798221230506897
1761914300611022800,9.10802294921875,-1.1852880716323853,-1.6058648824691772,-0.03353435918688774
1761914300621079000,9.1180791015625,-1.2473154067993164,-1.5897655487060547,0.016617756336927414
1761914300631135000,9.128135009765625,-1.3412115573883057,-1.523114800453186,0.08120660483837128
1761914300641191000,9.13819091796875,-1.4316688776016235,-1.376503586769104,0.16506366431713104
1761914300651247900,9.148247802734375,-1.5020878314971924,-1.1723403930664062,0.2699562907218933
1761914300661304000,9.158303955078125,-1.5473206043243408,-0.9660487771034241,0.3817049264907837
1761914300671360000,9.168360107421876,-1.56411874294281,-0.8051226139068604,0.48215946555137634
1761914300681416000,9.178416015625,-1.5528011322021484,-0.7264459133148193,0.5584179759025574
1761914300691475500,9.188475341796876,-1.5322753190994263,-0.6987830400466919,0.5873484015464783
1761914300701531400,9.198531494140624,-1.514803409576416,-0.6992600560188293,0.583473265171051
1761914300711587300,9.20858740234375,-1.4990954399108887,-0.6945033073425293,0.5581902265548706
1761914300721643500,9.2186435546875,-1.49704909324646,-0.6890558004379272,0.5191882848739624
1761914300731699500,9.228699462890624,-1.5181459188461304,-0.7114611864089966,0.45660632848739624
1761914300741755400,9.23875537109375,-1.5465126037597656,-0.7660306692123413,0.3729996085166931
1761914300751811600,9.2488115234375,-1.5850647687911987,-0.829452633857727,0.2686127722263336
1761914300761867500,9.258867431640626,-1.6111047267913818,-0.8885849714279175,0.14509110152721405
1761914300771923500,9.26892333984375,-1.622412085533142,-0.9340921640396118,0.013793498277664185
1761914300781979600,9.278979736328125,-1.6278446912765503,-0.9566688537597656,-0.12020904570817947
1761914300792035600,9.28903564453125,-1.6163887977600098,-0.9744913578033447,-0.2608964741230011
1761914300802091300,9.29909130859375,-1.5744837522506714,-1.0144755840301514,-0.3916933834552765
1761914300812147500,9.3091474609375,-1.4984019994735718,-1.090132236480713,-0.508830726146698
1761914300822203400,9.319203369140626,-1.3999614715576172,-1.1975224018096924,-0.600662887096405
1761914300832259300,9.32925927734375,-1.3034849166870117,-1.2903151512145996,-0.6533547639846802
1761914300842315500,9.3393154296875,-1.2250769138336182,-1.3300769329071045,-0.6687201857566833
1761914300852372500,9.34937255859375,-1.2008308172225952,-1.295158863067627,-0.6529425382614136
1761914300862428400,9.359428466796874,-1.2188403606414795,-1.1912816762924194,-0.6114802956581116
1761914300872484400,9.369484375,-1.2772653102874756,-1.0286487340927124,-0.5600358247756958
1761914300882540500,9.37954052734375,-1.3523534536361694,-0.8507416248321533,-0.49914634227752686
1761914300892596500,9.389596435546874,-1.4392868280410767,-0.7160403728485107,-0.43982183933258057
1761914300902652400,9.39965234375,-1.5151869058609009,-0.6510675549507141,-0.3813380002975464
1761914300912708600,9.40970849609375,-1.561200737953186,-0.6303921341896057,-0.3064396381378174
1761914300922764500,9.4197646484375,-1.5790268182754517,-0.5946991443634033,-0.2052949219942093
1761914300932820500,9.429820556640625,-1.581921935081482,-0.5368348360061646,-0.09172438085079193
1761914300942876700,9.439876708984375,-1.570208191871643,-0.46563202142715454,0.024279989302158356
1761914300952932400,9.449932373046876,-1.5361307859420776,-0.4062510132789612,0.1331557333469391
1761914300962988300,9.45998828125,-1.466691493988037,-0.38524743914604187,0.21692626178264618
1761914300973044500,9.47004443359375,-1.3881405591964722,-0.4220066964626312,0.26710325479507446
1761914300983100400,9.480100341796875,-1.3074569702148438,-0.49592113494873047,0.29706859588623047
1761914300993156400,9.49015625,-1.255834937095642,-0.5613614916801453,0.2905193567276001
1761914301003212500,9.500212646484375,-1.2188944816589355,-0.6280880570411682,0.2662595808506012
1761914301013268500,9.5102685546875,-1.180537223815918,-0.6663585901260376,0.22938792407512665
1761914301023324400,9.520324462890626,-1.1127324104309082,-0.6751576662063599,0.1965780407190323
1761914301033380600,9.530380615234375,-1.0278816223144531,-0.6743274331092834,0.16847749054431915
1761914301043437600,9.5404375,-0.9280051589012146,-0.6920683979988098,0.13367077708244324
1761914301053493500,9.550493408203126,-0.82768714427948,-0.7307642102241516,0.09162985533475876
1761914301063549400,9.560549560546875,-0.7244318723678589,-0.75920170545578,0.05483722314238548
1761914301073605600,9.570605712890625,-0.623109757900238,-0.7984369397163391,0.01576041802763939
1761914301083661600,9.58066162109375,-0.5318682193756104,-0.835655689239502,-0.008032795041799545
1761914301093717500,9.590717529296874,-0.4665602743625641,-0.8885091543197632,-0.029803987592458725
1761914301103773400,9.6007734375,-0.4158446192741394,-0.957108199596405,-0.03471165895462036
1761914301113829400,9.610829345703126,-0.3718854784965515,-1.0148060321807861,-0.019313763827085495
1761914301123885300,9.62088525390625,-0.335126668214798,-1.0407423973083496,0.015950217843055725
1761914301133941500,9.63094140625,-0.3173246383666992,-1.0126458406448364,0.07512747496366501
1761914301143997400,9.64099755859375,-0.32529255747795105,-0.9145649075508118,0.1590500771999359
1761914301154053400,9.651053466796874,-0.3590048551559448,-0.7932913899421692,0.2399081587791443
1761914301164109600,9.661109619140625,-0.40058639645576477,-0.6886112689971924,0.31528520584106445
1761914301174165500,9.67116552734375,-0.4557401239871979,-0.6521683931350708,0.3707425892353058
1761914301184221400,9.681221435546876,-0.5174232125282288,-0.7068234086036682,0.4111395478248596
1761914301194277600,9.691277587890625,-0.581940770149231,-0.8162121772766113,0.43940234184265137
1761914301204333600,9.70133349609375,-0.6288190484046936,-0.9547452926635742,0.46260273456573486
1761914301214389500,9.711389404296876,-0.6592284440994263,-1.0707062482833862,0.4832969605922699
1761914301224445700,9.72144580078125,-0.6876039505004883,-1.1532962322235107,0.487699955701828
1761914301234501400,9.73150146484375,-0.7178636789321899,-1.2075879573822021,0.48505786061286926
1761914301244557300,9.741557373046875,-0.7457059621810913,-1.2228952646255493,0.47790542244911194
1761914301254614300,9.7516142578125,-0.7565021514892578,-1.2294214963912964,0.4768793284893036
1761914301264670500,9.76167041015625,-0.7690685391426086,-1.2228718996047974,0.4710262417793274
1761914301274726400,9.771726318359375,-0.7730850577354431,-1.177571177482605,0.4567514955997467
1761914301284782300,9.7817822265625,-0.7868649959564209,-1.1013644933700562,0.4098297953605652
1761914301294838500,9.791838623046875,-0.799746572971344,-1.0100371837615967,0.33466213941574097
1761914301304894500,9.80189453125,-0.8103139996528625,-0.9231172204017639,0.22841668128967285
1761914301314950400,9.811950439453126,-0.8123540878295898,-0.8496175408363342,0.10836730152368546
1761914301325006600,9.822006591796875,-0.7975514531135559,-0.7851687669754028,-0.00010538008064031601
1761914301335062500,9.8320625,-0.7643278241157532,-0.6957355737686157,-0.0630936473608017
1761914301345118500,9.842118408203126,-0.7226464748382568,-0.5815762877464294,-0.07615140080451965
1761914301355174700,9.852174560546874,-0.6945940256118774,-0.4461229741573334,-0.06734717637300491
1761914301365230600,9.862230712890625,-0.6887108683586121,-0.32405513525009155,-0.05050774663686752
1761914301375286500,9.87228662109375,-0.6937928199768066,-0.25336650013923645,-0.04314497113227844
1761914301385342500,9.882342529296874,-0.6937276124954224,-0.23324285447597504,-0.044284798204898834
1761914301395398400,9.8923984375,-0.6705995798110962,-0.25076696276664734,-0.04345626384019852
1761914301405454300,9.902454345703125,-0.6397479176521301,-0.307685911655426,-0.03366648405790329
1761914301415510500,9.912510498046874,-0.6116048693656921,-0.37602415680885315,0.001168426126241684
1761914301425566500,9.92256640625,-0.5917605757713318,-0.41025349497795105,0.067844919860363
1761914301435622400,9.932622314453125,-0.5883523225784302,-0.43073928356170654,0.15311971306800842
1761914301445678600,9.9426787109375,-0.5993980169296265,-0.44390755891799927,0.23954249918460846
1761914301455734500,9.952734619140625,-0.60545814037323,-0.43739521503448486,0.3350067436695099
1761914301465790500,9.96279052734375,-0.6152359247207642,-0.4227297306060791,0.4118482768535614
1761914301475847400,9.972847412109376,-0.6238442659378052,-0.4228039085865021,0.4680970013141632
1761914301485903600,9.982903564453125,-0.628489077091217,-0.411080926656723,0.5137068033218384
1761914301495959600,9.99295947265625,-0.6195667386054993,-0.3709518611431122,0.5532127022743225
1761914301506015500,10.003015380859376,-0.6048133969306946,-0.3207233250141144,0.5877313017845154
1761914301516071700,10.01307177734375,-0.5782442688941956,-0.24530410766601562,0.6209895610809326
1761914301526127600,10.023127685546875,-0.5408159494400024,-0.12609462440013885,0.6575379371643066
1761914301536183300,10.033183349609375,-0.4831278622150421,-0.019182823598384857,0.6975202560424805
1761914301546239500,10.043239501953124,-0.41649797558784485,0.04860394820570946,0.7301173806190491
1761914301556295400,10.05329541015625,-0.35355159640312195,0.0825190618634224,0.754275918006897
1761914301566351400,10.063351318359375,-0.2902602553367615,0.09890123456716537,0.7606496810913086
1761914301576407600,10.073407470703126,-0.2239130139350891,0.06809566915035248,0.7482361197471619
1761914301586463500,10.08346337890625,-0.15858380496501923,-0.019174516201019287,0.7077930569648743
1761914301596519400,10.09351953125,-0.11307801306247711,-0.16207434237003326,0.637492835521698
1761914301606575600,10.10357568359375,-0.08842220157384872,-0.3422670066356659,0.5459213852882385
1761914301616631600,10.113631591796874,-0.08390283584594727,-0.5017231702804565,0.45314836502075195
1761914301626687500,10.1236875,-0.09057112783193588,-0.6084006428718567,0.3677080571651459
1761914301636743400,10.133743408203125,-0.10036615282297134,-0.6388934850692749,0.28017935156822205
1761914301646799600,10.143799560546874,-0.11826738715171814,-0.5827844142913818,0.18637672066688538
1761914301656855600,10.15385546875,-0.12947295606136322,-0.45514732599258423,0.0845889151096344
1761914301666911500,10.163911376953125,-0.12718503177165985,-0.27132129669189453,-0.00761957373470068
1761914301676968400,10.173968505859374,-0.09282957017421722,-0.06714513897895813,-0.0804341658949852
1761914301687024400,10.1840244140625,-0.023880328983068466,0.11160783469676971,-0.12667275965213776
1761914301697077000,10.194076904296875,0.06645619124174118,0.21358157694339752,-0.1478491872549057
1761914301707133000,10.2041328125,0.1568816900253296,0.24191121757030487,-0.13623780012130737
1761914301717189000,10.214189208984376,0.2497299313545227,0.23916761577129364,-0.07830215245485306
1761914301727245000,10.2242451171875,0.3392427861690521,0.2506074905395508,0.03481961041688919
1761914301737301000,10.234301025390625,0.40904101729393005,0.29542532563209534,0.18423211574554443
1761914301747357000,10.24435693359375,0.45709294080734253,0.3459172546863556,0.3541063666343689
1761914301757412900,10.254412841796874,0.46892544627189636,0.37714242935180664,0.518958568572998
1761914301767469000,10.264468994140625,0.4460020363330841,0.39982056617736816,0.6687251329421997
1761914301777525000,10.27452490234375,0.3904663920402527,0.3902510702610016,0.7747703194618225
1761914301787581000,10.284580810546874,0.31927984952926636,0.327086478471756,0.8252414464950562
1761914301797636900,10.294636962890625,0.2462545484304428,0.21854311227798462,0.8291181325912476
1761914301807693000,10.304693115234375,0.17231135070323944,0.08931189775466919,0.7942879796028137
1761914301817749000,10.3147490234375,0.09770660102367401,-0.037414222955703735,0.7490760684013367
1761914301827805000,10.324804931640625,0.03223012015223503,-0.12151019275188446,0.6929430365562439
1761914301837861000,10.334861083984375,-0.015811359509825706,-0.1649419069290161,0.6311157941818237
1761914301847917000,10.3449169921875,-0.02960600145161152,-0.1640462726354599,0.5718908309936523
1761914301857973000,10.354972900390624,-0.011173647828400135,-0.12835191190242767,0.5121133923530579
1761914301868029200,10.365029296875,0.019019408151507378,-0.06731519103050232,0.4448552429676056
1761914301878084900,10.3750849609375,0.039823856204748154,0.005920553579926491,0.37831851840019226
1761914301888140800,10.385140869140624,0.04556776210665703,0.08644602447748184,0.3091423809528351
1761914301898198000,10.395197998046875,0.045344896614551544,0.16701118648052216,0.2445983737707138
1761914301908254000,10.40525390625,0.04934389889240265,0.2599778473377228,0.18117253482341766
1761914301918310000,10.415309814453124,0.073270782828331,0.32446813583374023,0.12357108294963837
1761914301928365800,10.42536572265625,0.11435750126838684,0.3436242640018463,0.07849495112895966
1761914301938422000,10.435422119140625,0.17656341195106506,0.3226443827152252,0.05748499184846878
1761914301948478000,10.44547802734375,0.24004890024662018,0.30511465668678284,0.06302303820848465
1761914301958534000,10.455533935546875,0.3013632297515869,0.30875974893569946,0.09278073161840439
1761914301968590000,10.465590087890625,0.3451820909976959,0.29323911666870117,0.1270952969789505
1761914301978646000,10.47564599609375,0.38132965564727783,0.2695721685886383,0.16385188698768616
1761914301988702000,10.485701904296874,0.3962497413158417,0.24846073985099792,0.18785016238689423
1761914301998758100,10.495758056640625,0.3876532316207886,0.2083919495344162,0.1998824030160904
1761914302008814000,10.50581396484375,0.36614659428596497,0.1722017079591751,0.19717450439929962
1761914302018870000,10.5158701171875,0.3319355249404907,0.14256316423416138,0.17665590345859528
1761914302028926000,10.525926025390625,0.2945750951766968,0.09992434829473495,0.13446477055549622
1761914302038982000,10.53598193359375,0.26041099429130554,0.03409573808312416,0.08507631719112396
1761914302049037800,10.546037841796876,0.23014682531356812,-0.015027864836156368,0.03536974638700485
1761914302059094000,10.556093994140625,0.2126278579235077,-0.02022014930844307,0.00801667757332325
1761914302069150000,10.56614990234375,0.20909571647644043,0.016082732006907463,-0.007698901928961277
1761914302079206000,10.576205810546876,0.22379185259342194,0.07343945652246475,-0.003547940868884325
1761914302089262000,10.586261962890624,0.24644123017787933,0.1338849514722824,0.010532723739743233
1761914302099318000,10.596318115234375,0.2698456048965454,0.1859501153230667,0.03623859956860542
1761914302109374000,10.6063740234375,0.2900795042514801,0.21160994470119476,0.06803327798843384
1761914302119430100,10.61643017578125,0.3049817383289337,0.2032998651266098,0.08672957122325897
1761914302129487000,10.626487060546875,0.326137900352478,0.16104987263679504,0.10270906984806061
1761914302139543000,10.63654296875,0.33989936113357544,0.10752047598361969,0.12008064240217209
1761914302149599000,10.646598876953124,0.3444746732711792,0.0654984563589096,0.14407441020011902
1761914302159655200,10.6566552734375,0.329155296087265,0.06245258450508118,0.1737871617078781
1761914302169711000,10.666711181640625,0.3057469129562378,0.08047739416360855,0.1999513804912567
1761914302179766800,10.676766845703124,0.29275959730148315,0.13100990653038025,0.219300776720047
1761914302189823000,10.686822998046875,0.2982744574546814,0.21954935789108276,0.2252497524023056
1761914302199879000,10.69687890625,0.3208778202533722,0.3186414837837219,0.21017354726791382
1761914302209934800,10.706934814453126,0.3633784055709839,0.46508070826530457,0.1859731376171112
1761914302219991000,10.716990966796875,0.3986048996448517,0.6190771460533142,0.14816908538341522
1761914302230047000,10.727046875,0.4258280098438263,0.7240879535675049,0.08800213783979416
1761914302240103000,10.73710302734375,0.44137492775917053,0.7588591575622559,0.0013587018474936485
1761914302250159000,10.7471591796875,0.43842601776123047,0.7121225595474243,-0.10804448276758194
1761914302260215000,10.757215087890625,0.34483104944229126,0.44366514682769775,-0.13429991900920868
1761914302270271000,10.76727099609375,0.23517325520515442,-0.08628182858228683,-0.20227603614330292
1761914302280327200,10.7773271484375,0.19727376103401184,-0.3265920877456665,-0.2508563995361328
1761914302290383000,10.787383056640625,0.20591865479946136,-0.45457589626312256,-0.2608336806297302
1761914302300439000,10.79743896484375,0.20353272557258606,-0.4902459979057312,-0.23851637542247772
