time,seconds_elapsed,z,y,x
1761914291573148400,0.0701484375,-0.8505678176879883,-0.49671149253845215,-0.08274734020233154
1761914291583205400,0.080205322265625,-0.8028373122215271,-0.43072476983070374,-0.09097065031528473
1761914291593261600,0.090261474609375,-0.7734112739562988,-0.3449150323867798,-0.11617161333560944
1761914291603317500,0.1003173828125,-0.7495051622390747,-0.23372700810432434,-0.13974884152412415
1761914291613373400,0.11037353515625,-0.715567946434021,-0.12100604921579361,-0.14300775527954102
1761914291623429600,0.1204296875,-0.6750175952911377,-0.0057465690188109875,-0.10812007635831833
1761914291633485600,0.130485595703125,-0.630543053150177,0.09740564972162247,-0.02424754947423935
1761914291643541500,0.14054150390625,-0.5967020392417908,0.17727091908454895,0.08926516771316528
1761914291653597400,0.150597412109375,-0.5806018710136414,0.23156611621379852,0.19855330884456635
1761914291663653400,0.1606533203125,-0.575702965259552,0.2772614359855652,0.29816538095474243
1761914291673709300,0.170709228515625,-0.5593692660331726,0.3211609721183777,0.3742412328720093
1761914291683765000,0.180764892578125,-0.5024945735931396,0.37750229239463806,0.41476815938949585
1761914291693821000,0.190821044921875,-0.44951683282852173,0.42878517508506775,0.4106346666812897
1761914291703876900,0.200876953125,-0.42289745807647705,0.4528377950191498,0.3648410737514496
1761914291713933000,0.21093310546875,-0.40862664580345154,0.43038201332092285,0.29279085993766785
1761914291723988700,0.22098876953125,-0.4205179214477539,0.3520704209804535,0.20804853737354279
1761914291734044700,0.231044677734375,-0.4602658748626709,0.22936634719371796,0.13519351184368134
1761914291744100900,0.241100830078125,-0.5159832239151001,0.09426045417785645,0.08529678732156754
1761914291754156800,0.25115673828125,-0.5682789087295532,-0.00404534162953496,0.05200008302927017
1761914291764212700,0.261212646484375,-0.5994237661361694,-0.04670305550098419,0.04151228815317154
1761914291774269000,0.27126904296875,-0.6135294437408447,-0.05799299478530884,0.04484283924102783
1761914291784324900,0.281324951171875,-0.6177223324775696,-0.0430433414876461,0.06046627461910248
1761914291794380800,0.291380859375,-0.6115992069244385,-0.03477076441049576,0.07915899902582169
1761914291804437800,0.301437744140625,-0.6065344214439392,-0.0486796535551548,0.10401161760091782
1761914291814494000,0.311493896484375,-0.6010791659355164,-0.09075786918401718,0.14439046382904053
1761914291824550000,0.3215498046875,-0.5991814136505127,-0.14819931983947754,0.19764409959316254
1761914291834605800,0.331605712890625,-0.6033966541290283,-0.21678370237350464,0.25188738107681274
1761914291844662000,0.341662109375,-0.5972111821174622,-0.2625277638435364,0.30978554487228394
1761914291854718000,0.351718017578125,-0.5846844911575317,-0.28004950284957886,0.3548997640609741
1761914291864774000,0.36177392578125,-0.5596446394920349,-0.28166523575782776,0.3943720757961273
1761914291874829800,0.371829833984375,-0.5333091616630554,-0.27607738971710205,0.42025667428970337
1761914291884885800,0.3818857421875,-0.507926881313324,-0.27217185497283936,0.44239872694015503
1761914291894941700,0.391941650390625,-0.48676592111587524,-0.27852723002433777,0.4629066586494446
1761914291904998000,0.401997802734375,-0.4755137860774994,-0.2977350056171417,0.4802084267139435
1761914291915053800,0.4120537109375,-0.4727853834629059,-0.32173967361450195,0.49096038937568665
1761914291925109800,0.42210986328125,-0.47845658659935,-0.3432774543762207,0.4960821866989136
1761914291935166000,0.432166015625,-0.4961269199848175,-0.36189669370651245,0.49035772681236267
1761914291945222000,0.442221923828125,-0.5035851001739502,-0.3757810890674591,0.4716724455356598
1761914291955277800,0.45227783203125,-0.5116060376167297,-0.3753216862678528,0.4447694718837738
1761914291965334000,0.462333984375,-0.5134598612785339,-0.37461036443710327,0.40681275725364685
1761914291975390000,0.472389892578125,-0.5117501020431519,-0.35845720767974854,0.3638181686401367
1761914291985446000,0.48244580078125,-0.5084152817726135,-0.33409276604652405,0.33000800013542175
1761914291995502000,0.492502197265625,-0.4997922480106354,-0.3153446316719055,0.3033345639705658
1761914292005557800,0.502557861328125,-0.4930661618709564,-0.29611048102378845,0.2979145050048828
1761914292015613700,0.51261376953125,-0.4944984018802643,-0.28935033082962036,0.3079375922679901
1761914292025670700,0.522670654296875,-0.4947250485420227,-0.31435179710388184,0.32145926356315613
1761914292035726800,0.532726806640625,-0.4956126809120178,-0.3457808494567871,0.327146977186203
1761914292045782800,0.54278271484375,-0.5045126676559448,-0.3976554870605469,0.3209577798843384
1761914292055838700,0.552838623046875,-0.5323398113250732,-0.4404365122318268,0.283967524766922
1761914292065895000,0.56289501953125,-0.5588070750236511,-0.45695608854293823,0.229122132062912
1761914292075950800,0.572950927734375,-0.5838626623153687,-0.44399288296699524,0.16622892022132874
1761914292086006800,0.5830068359375,-0.6002330780029297,-0.40982693433761597,0.11046845465898514
1761914292096063000,0.59306298828125,-0.6016906499862671,-0.3717306852340698,0.06653694808483124
1761914292106119000,0.603118896484375,-0.5968484878540039,-0.32311999797821045,0.03711727634072304
1761914292116174800,0.6131748046875,-0.5960207581520081,-0.28231877088546753,0.009488310664892197
1761914292126231000,0.62323095703125,-0.6027417778968811,-0.2561843693256378,-0.0076179723255336285
1761914292136287000,0.633286865234375,-0.6084891557693481,-0.22588185966014862,-0.0202778410166502
1761914292146343000,0.643343017578125,-0.6112242341041565,-0.2079468071460724,-0.02540229633450508
1761914292156398800,0.65339892578125,-0.610667884349823,-0.20925894379615784,-0.03202557563781738
1761914292166454800,0.663454833984375,-0.6080875396728516,-0.21252398192882538,-0.03762407600879669
1761914292176510700,0.6735107421875,-0.6033745408058167,-0.2124001383781433,-0.04476108029484749
1761914292186567000,0.68356689453125,-0.5976612567901611,-0.2207246571779251,-0.04854436591267586
1761914292196622800,0.693622802734375,-0.5867719054222107,-0.2372887134552002,-0.06048118695616722
1761914292206678800,0.7036787109375,-0.5738992094993591,-0.2670607268810272,-0.06984806060791016
1761914292216735000,0.71373486328125,-0.5589548945426941,-0.2995007038116455,-0.08095770329236984
1761914292226791000,0.723791015625,-0.5485233068466187,-0.3330618441104889,-0.0844392478466034
1761914292236846800,0.733846923828125,-0.5417754054069519,-0.3567027151584625,-0.06825362145900726
1761914292246903800,0.74390380859375,-0.5446990132331848,-0.3839511275291443,-0.05048074945807457
1761914292256960000,0.7539599609375,-0.5483259558677673,-0.42003002762794495,-0.03148575499653816
1761914292267016000,0.764015869140625,-0.5628582835197449,-0.46368324756622314,-0.019208049401640892
1761914292277072000,0.77407177734375,-0.5831145644187927,-0.5061838030815125,-0.017475130036473274
1761914292287128000,0.784128173828125,-0.6108859777450562,-0.5472843647003174,-0.02473011426627636
1761914292297184000,0.79418408203125,-0.6404966115951538,-0.5788114070892334,-0.03406502678990364
1761914292307239700,0.80423974609375,-0.6701415777206421,-0.6030887961387634,-0.042575955390930176
1761914292317295900,0.8142958984375,-0.6968246102333069,-0.6337987780570984,-0.05517270788550377
1761914292327351800,0.824351806640625,-0.7290821671485901,-0.666627049446106,-0.07397249341011047
1761914292337407700,0.83440771484375,-0.7569766640663147,-0.6800155639648438,-0.09894894808530807
1761914292347464000,0.8444638671875,-0.7848615050315857,-0.6795742511749268,-0.12717339396476746
1761914292357520000,0.854519775390625,-0.8140090107917786,-0.6681886911392212,-0.15415868163108826
1761914292367575800,0.864575927734375,-0.850875973701477,-0.6651982665061951,-0.16962817311286926
1761914292377632000,0.874632080078125,-0.8873860239982605,-0.6617001891136169,-0.16897223889827728
1761914292387688000,0.88468798828125,-0.9157934188842773,-0.655716061592102,-0.16406936943531036
1761914292397743900,0.894743896484375,-0.9388420581817627,-0.6290324926376343,-0.14900065958499908
1761914292407800000,0.904800048828125,-0.955340564250946,-0.5994048714637756,-0.12404312193393707
1761914292417856000,0.91485595703125,-0.9561560750007629,-0.5476734638214111,-0.09449800848960876
1761914292427912000,0.924911865234375,-0.943911612033844,-0.49086374044418335,-0.04957341030240059
1761914292437968000,0.9349677734375,-0.9187828302383423,-0.4252205491065979,-0.00430073868483305
1761914292448023800,0.94502392578125,-0.891455888748169,-0.36576440930366516,0.054789211601018906
1761914292458080800,0.955080810546875,-0.856342077255249,-0.3304274380207062,0.12135492265224457
1761914292468136700,0.96513671875,-0.8363322019577026,-0.32424864172935486,0.1882934719324112
1761914292478193000,0.97519287109375,-0.8338794112205505,-0.34162843227386475,0.2576078474521637
1761914292488248800,0.985248779296875,-0.8582771420478821,-0.38629576563835144,0.32503268122673035
1761914292498304800,0.9953046875,-0.8986101746559143,-0.446811318397522,0.3862481117248535
1761914292508361000,1.00536083984375,-0.9467732310295105,-0.5136476159095764,0.4307212829589844
1761914292518417000,1.0154169921875,-0.9724263548851013,-0.5565961599349976,0.44182881712913513
1761914292528472800,1.025472900390625,-0.9511740803718567,-0.6052667498588562,0.4230034649372101
1761914292538529000,1.035529052734375,-0.9068878293037415,-0.6424463391304016,0.40174850821495056
1761914292548585000,1.0455849609375,-0.8582294583320618,-0.665514349937439,0.38979676365852356
1761914292558641000,1.055640869140625,-0.8092696666717529,-0.6807116866111755,0.3875868618488312
1761914292568697000,1.065697021484375,-0.7686184048652649,-0.6960227489471436,0.3930943012237549
1761914292578753000,1.0757529296875,-0.7321842312812805,-0.7361621856689453,0.39541390538215637
1761914292588808700,1.08580859375,-0.7086818218231201,-0.7846934795379639,0.4020747244358063
1761914292598865000,1.095864990234375,-0.68582683801651,-0.8300747871398926,0.4031541049480438
1761914292608920800,1.1059208984375,-0.6575890779495239,-0.8787334561347961,0.390250563621521
1761914292618976800,1.115976806640625,-0.6411848068237305,-0.9177588820457458,0.36348074674606323
1761914292629033000,1.126032958984375,-0.6392457485198975,-0.9345165491104126,0.3401455879211426
1761914292639089000,1.1360888671875,-0.644660234451294,-0.9455912709236145,0.31661415100097656
1761914292649144800,1.146144775390625,-0.6478307247161865,-0.946516215801239,0.29823142290115356
1761914292659201000,1.156200927734375,-0.6615092158317566,-0.9348936676979065,0.2803483009338379
1761914292669258000,1.166258056640625,-0.6817774772644043,-0.9178904294967651,0.25756868720054626
1761914292679315000,1.17631494140625,-0.704736590385437,-0.8781818747520447,0.22184397280216217
1761914292689371000,1.186370849609375,-0.7280664443969727,-0.8196072578430176,0.18273545801639557
1761914292699426800,1.1964267578125,-0.742388904094696,-0.7159770131111145,0.14043433964252472
1761914292709483000,1.20648291015625,-0.75180584192276,-0.5708014369010925,0.10273250192403793
1761914292719539000,1.2165390625,-0.7413238883018494,-0.3946913778781891,0.07850279659032822
1761914292729595000,1.226594970703125,-0.7244706153869629,-0.20609138906002045,0.05763932690024376
1761914292739651000,1.236651123046875,-0.7085028290748596,-0.04092772677540779,0.05278278887271881
1761914292749707000,1.24670703125,-0.7043973207473755,0.08377639204263687,0.057488325983285904
1761914292759762700,1.2567626953125,-0.6845365166664124,0.1403917372226715,0.07341083139181137
1761914292769819000,1.26681884765625,-0.6521559357643127,0.14555878937244415,0.09020206332206726
1761914292779874800,1.276874755859375,-0.6056861877441406,0.12312885373830795,0.09500613808631897
1761914292789930800,1.2869306640625,-0.5493597984313965,0.07243958115577698,0.08105224370956421
1761914292799987000,1.296987060546875,-0.486226886510849,-0.006127933505922556,0.052551623433828354
1761914292810043000,1.30704296875,-0.43133994936943054,-0.12411635369062424,0.010630007833242416
1761914292820098800,1.317098876953125,-0.38819488883018494,-0.23848527669906616,-0.038715969771146774
1761914292830155000,1.327155029296875,-0.3624487519264221,-0.3689332902431488,-0.07842902839183807
1761914292840211000,1.3372109375,-0.3599057197570801,-0.5038889646530151,-0.10358631610870361
1761914292850267000,1.347266845703125,-0.3754652440547943,-0.6267350316047668,-0.10833073407411575
1761914292860323000,1.357322998046875,-0.4115777015686035,-0.7134166359901428,-0.10098174214363098
1761914292870379000,1.36737890625,-0.466383695602417,-0.7761819958686829,-0.0750926211476326
1761914292880435000,1.37743505859375,-0.5325496792793274,-0.8142809271812439,-0.04629186540842056
1761914292890492000,1.387491943359375,-0.6093560457229614,-0.8365569710731506,-0.018317222595214844
1761914292900548000,1.397548095703125,-0.6868228316307068,-0.8405032157897949,-0.0007214503129944205
1761914292910604000,1.40760400390625,-0.7666646838188171,-0.8074773550033569,0.005077316425740719
1761914292920659700,1.41765966796875,-0.8328586220741272,-0.7649677395820618,-0.0001781654718797654
1761914292930716000,1.4277158203125,-0.8873615264892578,-0.7369973063468933,0.0006538060260936618
1761914292940771800,1.437771728515625,-0.9514995217323303,-0.7223384976387024,0.00729386555030942
1761914292950827800,1.447827880859375,-1.0190441608428955,-0.7290027737617493,0.011785020120441914
1761914292960884000,1.457884033203125,-1.0851739645004272,-0.747846782207489,0.014094513840973377
1761914292970940000,1.46793994140625,-1.1258550882339478,-0.7311511635780334,0.0006780407857149839
1761914292980995800,1.477995849609375,-1.1444127559661865,-0.6741858720779419,-0.014099573716521263
1761914292991052000,1.488052001953125,-1.1401114463806152,-0.6079839468002319,-0.029137911275029182
1761914293001108000,1.49810791015625,-1.1239311695098877,-0.5692621469497681,-0.04152507334947586
1761914293011164000,1.508163818359375,-1.0942505598068237,-0.5671486258506775,-0.06364821642637253
1761914293021220000,1.51822021484375,-1.0446223020553589,-0.6046704649925232,-0.09217572957277298
1761914293031276000,1.528276123046875,-0.9814795255661011,-0.648086667060852,-0.13927054405212402
1761914293041331700,1.538331787109375,-0.9013622999191284,-0.6948589086532593,-0.21373358368873596
1761914293051388000,1.548387939453125,-0.8055340647697449,-0.7185989022254944,-0.30937808752059937
1761914293061443800,1.55844384765625,-0.7074288129806519,-0.7440562844276428,-0.41383790969848633
1761914293071499800,1.568499755859375,-0.6247597336769104,-0.7611988186836243,-0.5138412117958069
1761914293081556000,1.578555908203125,-0.5757067203521729,-0.772652268409729,-0.5889319777488708
1761914293091612000,1.58861181640625,-0.5571500658988953,-0.784903347492218,-0.6375330686569214
1761914293101667800,1.598667724609375,-0.5619813203811646,-0.8004871010780334,-0.6416314244270325
1761914293111724800,1.608724853515625,-0.5865553617477417,-0.8315818905830383,-0.6037048101425171
1761914293121781000,1.618781005859375,-0.6327638626098633,-0.8697119951248169,-0.5414376854896545
1761914293131837000,1.6288369140625,-0.6972438097000122,-0.88346266746521,-0.46775496006011963
1761914293141892900,1.638892822265625,-0.769068717956543,-0.8249695301055908,-0.39985260367393494
1761914293151949000,1.648948974609375,-0.8704712390899658,-0.69389408826828,-0.31793031096458435
1761914293162005000,1.6590048828125,-0.9249118566513062,-0.724679172039032,-0.22767071425914764
1761914293172061000,1.66906103515625,-0.964675784111023,-0.8057079315185547,-0.1373828947544098
1761914293182116900,1.679116943359375,-1.0130866765975952,-0.83616042137146,-0.06222955137491226
1761914293192172800,1.6891728515625,-1.0595253705978394,-0.8490458130836487,-0.018726816400885582
1761914293202228700,1.699228759765625,-1.077186107635498,-0.8422476053237915,-0.013321930542588234
1761914293212285000,1.709284912109375,-1.0755921602249146,-0.8133477568626404,-0.033956900238990784
1761914293222340900,1.7193408203125,-1.0538349151611328,-0.7678108811378479,-0.06183993071317673
1761914293232396800,1.729396728515625,-1.0204285383224487,-0.7444621920585632,-0.08229140937328339
1761914293242452700,1.73945263671875,-0.9889387488365173,-0.7346111536026001,-0.09630283713340759
1761914293252509000,1.749509033203125,-0.9555855989456177,-0.7506809234619141,-0.09600909054279327
1761914293262564900,1.75956494140625,-0.9259467720985413,-0.7696852684020996,-0.08113506436347961
1761914293272620800,1.769620849609375,-0.8863884210586548,-0.7639671564102173,-0.048710014671087265
1761914293282677000,1.779677001953125,-0.8394336700439453,-0.7418171167373657,-0.010432933457195759
1761914293292733000,1.78973291015625,-0.7950992584228516,-0.7260775566101074,0.035291410982608795
1761914293302788900,1.799788818359375,-0.7464933395385742,-0.7132323384284973,0.08029697090387344
1761914293312845000,1.809844970703125,-0.7101657390594482,-0.7068519592285156,0.11409754306077957
1761914293322900700,1.819900634765625,-0.6906982660293579,-0.6923688650131226,0.1339908242225647
1761914293332958000,1.8299580078125,-0.6720761060714722,-0.6763315796852112,0.14619822800159454
1761914293343014000,1.840013916015625,-0.6552454829216003,-0.6560276746749878,0.15220284461975098
1761914293353069800,1.85006982421875,-0.6339545845985413,-0.6188547015190125,0.15429982542991638
1761914293363125800,1.860125732421875,-0.6095658540725708,-0.5593828558921814,0.14897003769874573
1761914293373181700,1.870181640625,-0.5906617045402527,-0.5082882642745972,0.1528041958808899
1761914293383238000,1.88023779296875,-0.5764989852905273,-0.4961381256580353,0.15899524092674255
1761914293393293800,1.8902939453125,-0.5699723958969116,-0.49867957830429077,0.17349934577941895
1761914293403349800,1.900349853515625,-0.570317268371582,-0.5379481315612793,0.17724215984344482
1761914293413406000,1.910406005859375,-0.5729700326919556,-0.5811725854873657,0.16674238443374634
1761914293423462000,1.9204619140625,-0.58660888671875,-0.6163119077682495,0.14684057235717773
1761914293433517800,1.930517822265625,-0.595577597618103,-0.6341415047645569,0.11180935800075531
1761914293443574000,1.940573974609375,-0.6009169816970825,-0.6218089461326599,0.0732497125864029
1761914293453630000,1.9506298828125,-0.6149766445159912,-0.6007542610168457,0.02106906659901142
1761914293463686000,1.960685791015625,-0.6415948867797852,-0.5661858916282654,-0.051479969173669815
1761914293473741800,1.970741943359375,-0.6288905739784241,-0.5432835221290588,-0.10182889550924301
1761914293483797800,1.9807978515625,-0.6252611875534058,-0.5086861252784729,-0.13233566284179688
1761914293493853700,1.990853759765625,-0.6244164705276489,-0.4693642854690552,-0.1269608736038208
1761914293503910000,2.000909912109375,-0.6245722770690918,-0.4419334828853607,-0.09706156700849533
1761914293513965800,2.0109658203125,-0.6334512233734131,-0.4316725730895996,-0.03621393069624901
1761914293524021800,2.021021728515625,-0.6520203948020935,-0.42823976278305054,0.03450098633766174
1761914293534078000,2.031077880859375,-0.6722737550735474,-0.43714165687561035,0.09985362738370895
1761914293544134000,2.0411337890625,-0.6962946653366089,-0.4351392090320587,0.16274391114711761
1761914293554189800,2.05118994140625,-0.7271111607551575,-0.4120975434780121,0.23296241462230682
1761914293564246800,2.061246826171875,-0.7610195875167847,-0.37269848585128784,0.2975302040576935
1761914293574303000,2.071302978515625,-0.780421793460846,-0.32857176661491394,0.3710092306137085
1761914293584359000,2.08135888671875,-0.7662233710289001,-0.2765461206436157,0.4506699740886688
1761914293594414800,2.091414794921875,-0.7450395226478577,-0.21153753995895386,0.5221058130264282
1761914293604471000,2.101470947265625,-0.7366756200790405,-0.1492278277873993,0.5483384728431702
1761914293614527000,2.11152685546875,-0.7263566851615906,-0.10089997947216034,0.5150936841964722
1761914293624582700,2.121582763671875,-0.7045938372612,-0.06662003695964813,0.43253543972969055
1761914293634638800,2.131638916015625,-0.6607294678688049,-0.08676499128341675,0.3223436772823334
1761914293644694800,2.14169482421875,-0.62135249376297,-0.177941232919693,0.19704489409923553
1761914293654750700,2.151750732421875,-0.6106116771697998,-0.309406578540802,0.06646397709846497
1761914293664807000,2.161806884765625,-0.6217306852340698,-0.43254396319389343,-0.06923659145832062
1761914293674862800,2.17186279296875,-0.6351932287216187,-0.5116544961929321,-0.2038774937391281
1761914293684918300,2.181918212890625,-0.6291545033454895,-0.524975597858429,-0.32695549726486206
1761914293694974200,2.19197412109375,-0.6137193441390991,-0.48969221115112305,-0.4181884527206421
1761914293705030100,2.202030029296875,-0.6007979512214661,-0.4382593631744385,-0.4543304741382599
1761914293715086000,2.212086181640625,-0.5964905619621277,-0.39295393228530884,-0.4273148477077484
1761914293725142000,2.22214208984375,-0.5865916013717651,-0.35241103172302246,-0.33524855971336365
1761914293735198000,2.232197998046875,-0.5646260976791382,-0.30974534153938293,-0.19895650446414948
1761914293745254100,2.242254150390625,-0.5325464606285095,-0.2807677388191223,-0.036913011223077774
1761914293755310000,2.25231005859375,-0.49949848651885986,-0.2610851228237152,0.12785623967647552
1761914293765366000,2.262365966796875,-0.47890692949295044,-0.2501659095287323,0.2789599895477295
1761914293775422200,2.272422119140625,-0.4747702479362488,-0.2525928318500519,0.402505099773407
1761914293785479200,2.282479248046875,-0.5003613829612732,-0.2771991193294525,0.4936360716819763
1761914293795535000,2.29253515625,-0.5416816473007202,-0.30484405159950256,0.5509382486343384
1761914293805591000,2.302591064453125,-0.5821715593338013,-0.34231048822402954,0.5689710378646851
1761914293815647200,2.312647216796875,-0.6180986166000366,-0.35354316234588623,0.5596923232078552
1761914293825703200,2.322703125,-0.6359689831733704,-0.34196558594703674,0.5234451293945312
1761914293835759000,2.332759033203125,-0.6429557800292969,-0.3209300935268402,0.4631149172782898
1761914293845815300,2.342815185546875,-0.6326349973678589,-0.2877691984176636,0.3796655535697937
1761914293855871200,2.352871337890625,-0.6110324859619141,-0.23100045323371887,0.27942126989364624
1761914293865927000,2.362927001953125,-0.571509063243866,-0.17244073748588562,0.1723741590976715
1761914293875983000,2.372983154296875,-0.5190157294273376,-0.12870950996875763,0.05947451293468475
1761914293886039000,2.3830390625,-0.4725654125213623,-0.13146774470806122,-0.05145147442817688
1761914293896095000,2.393094970703125,-0.44282296299934387,-0.15893372893333435,-0.15791825950145721
1761914293906151200,2.403151123046875,-0.43227046728134155,-0.22744913399219513,-0.2501773536205292
1761914293916207000,2.41320703125,-0.42306044697761536,-0.31943684816360474,-0.3291803002357483
1761914293926263000,2.423262939453125,-0.41735729575157166,-0.39758703112602234,-0.3921256959438324
1761914293936319200,2.4333193359375,-0.39791354537010193,-0.44992509484291077,-0.44233080744743347
1761914293946375200,2.443375244140625,-0.3841886818408966,-0.46699514985084534,-0.47411802411079407
1761914293956431000,2.45343115234375,-0.3803156316280365,-0.4751606583595276,-0.48402899503707886
1761914293966487300,2.4634873046875,-0.37481436133384705,-0.495372474193573,-0.46313968300819397
1761914293976543200,2.473543212890625,-0.37544792890548706,-0.5223926305770874,-0.40858030319213867
1761914293986599200,2.48359912109375,-0.37400022149086,-0.5342088341712952,-0.32848572731018066
1761914293996655000,2.493655029296875,-0.37480130791664124,-0.5338338613510132,-0.23104546964168549
1761914294006712300,2.50371240234375,-0.37558239698410034,-0.5273301005363464,-0.13004136085510254
1761914294016768000,2.51376806640625,-0.3788285255432129,-0.5067726373672485,-0.038608912378549576
1761914294026824000,2.523823974609375,-0.38485580682754517,-0.4766562879085541,0.03187990188598633
1761914294036880100,2.533880126953125,-0.4096863269805908,-0.45771270990371704,0.09045480191707611
1761914294046936000,2.54393603515625,-0.4388734996318817,-0.4696362018585205,0.12430810183286667
1761914294056992000,2.553991943359375,-0.4784877598285675,-0.5035204291343689,0.14874926209449768
1761914294067048200,2.564048095703125,-0.5166854858398438,-0.5633137226104736,0.15047764778137207
1761914294077104000,2.574104248046875,-0.5489179491996765,-0.6265515089035034,0.1297055333852768
1761914294087160000,2.58416015625,-0.5873716473579407,-0.6710476279258728,0.0906316339969635
1761914294097216300,2.59421630859375,-0.6300466656684875,-0.710037887096405,0.04364867880940437
1761914294107272200,2.604272216796875,-0.6812254190444946,-0.7500209808349609,-0.013872938230633736
1761914294117328100,2.614328125,-0.7358947992324829,-0.7859840393066406,-0.08327784389257431
1761914294127384000,2.624384033203125,-0.7972527146339417,-0.791401207447052,-0.15284547209739685
1761914294137440300,2.634440185546875,-0.8573769927024841,-0.7759471535682678,-0.2121250331401825
1761914294147496000,2.644495849609375,-0.905644416809082,-0.7372559309005737,-0.2532391846179962
1761914294157552000,2.65455224609375,-0.9373959302902222,-0.6963766813278198,-0.2750459611415863
1761914294167608000,2.664608154296875,-0.9762037992477417,-0.6505958437919617,-0.2858373522758484
1761914294177664000,2.6746640625,-1.008290410041809,-0.6140609979629517,-0.28231024742126465
1761914294187720000,2.684719970703125,-1.028862476348877,-0.5907881855964661,-0.26111334562301636
1761914294197776100,2.694776123046875,-1.0420432090759277,-0.5682698488235474,-0.23061616718769073
1761914294207832000,2.70483203125,-1.0412358045578003,-0.5422235727310181,-0.19198913872241974
1761914294217888000,2.714887939453125,-1.0365965366363525,-0.5176990628242493,-0.15259726345539093
1761914294227945200,2.7249453125,-1.0207712650299072,-0.5059584975242615,-0.11819614470005035
1761914294238001200,2.735001220703125,-0.9998590350151062,-0.5134129524230957,-0.09992793202400208
1761914294248057000,2.74505712890625,-0.9706223607063293,-0.5165179371833801,-0.08896981924772263
1761914294258113000,2.755113037109375,-0.9407608509063721,-0.509279727935791,-0.08637217432260513
1761914294268169200,2.765169189453125,-0.9115446209907532,-0.4938778877258301,-0.09300211071968079
1761914294278225200,2.77522509765625,-0.8834810256958008,-0.4714048206806183,-0.1012808158993721
1761914294288281000,2.785281005859375,-0.8534733653068542,-0.44798630475997925,-0.11049215495586395
1761914294298337000,2.7953369140625,-0.8261045813560486,-0.4355085790157318,-0.11310604959726334
1761914294308393000,2.80539306640625,-0.8049169778823853,-0.4244077503681183,-0.11270790547132492
1761914294318449000,2.815448974609375,-0.7849653959274292,-0.4283801019191742,-0.1112024188041687
1761914294328505000,2.825505126953125,-0.7641658186912537,-0.44498786330223083,-0.11001624912023544
1761914294338561000,2.83556103515625,-0.7429196834564209,-0.4732311964035034,-0.11084263026714325
1761914294348617000,2.845616943359375,-0.7156595587730408,-0.49404647946357727,-0.10921783000230789
1761914294358673200,2.855673095703125,-0.6859538555145264,-0.501728355884552,-0.10990972071886063
1761914294368729000,2.86572900390625,-0.6526520848274231,-0.4941468834877014,-0.10890944302082062
1761914294378785000,2.875784912109375,-0.612236499786377,-0.4713808298110962,-0.10364650189876556
1761914294388841200,2.88584130859375,-0.5647797584533691,-0.4359642565250397,-0.09135174751281738
1761914294398897200,2.895897216796875,-0.5057007074356079,-0.3983282148838043,-0.06415688246488571
1761914294408953000,2.905953125,-0.44237688183784485,-0.3718070983886719,-0.030890537425875664
1761914294419009300,2.91600927734375,-0.37768444418907166,-0.36591219902038574,0.013451892882585526
1761914294429065000,2.92606494140625,-0.33332788944244385,-0.38895919919013977,0.056900035589933395
1761914294439121000,2.936120849609375,-0.3129965364933014,-0.4134640097618103,0.09486739337444305
1761914294449177000,2.946177001953125,-0.28699368238449097,-0.4298917353153229,0.12140685319900513
1761914294459234000,2.956234130859375,-0.236761674284935,-0.43172451853752136,0.1410287618637085
1761914294469290000,2.9662900390625,-0.1849389523267746,-0.4073731005191803,0.1433185487985611
1761914294479346000,2.976345947265625,-0.1467287242412567,-0.3565080463886261,0.12111257761716843
1761914294489402000,2.986402099609375,-0.0988440215587616,-0.2787293791770935,0.08499425649642944
1761914294499458000,2.9964580078125,-0.021022994071245193,-0.1621774584054947,0.044546160846948624
1761914294509514000,3.006513916015625,0.07645509392023087,-0.025139708071947098,0.0028162929229438305
1761914294519570200,3.016570068359375,0.16722281277179718,0.09308813512325287,-0.027521373704075813
1761914294529626000,3.026626220703125,0.23626606166362762,0.16991554200649261,-0.05405497923493385
1761914294539682000,3.03668212890625,0.28209346532821655,0.1922924816608429,-0.0662061870098114
1761914294549738200,3.04673828125,0.29431870579719543,0.16236014664173126,-0.0555410236120224
1761914294559794200,3.056794189453125,0.2890661656856537,0.07534269243478775,-0.010236924514174461
1761914294569850000,3.06685009765625,0.2589647173881531,-0.06639154255390167,0.056286707520484924
1761914294579906000,3.076906005859375,0.21808093786239624,-0.2385246902704239,0.13690219819545746
1761914294589962000,3.0869619140625,0.17326685786247253,-0.39780089259147644,0.22611701488494873
1761914294600018000,3.097017822265625,0.11057018488645554,-0.5183377265930176,0.32655975222587585
1761914294610074000,3.10707421875,0.03328551724553108,-0.6030528545379639,0.42290225625038147
1761914294620130000,3.117130126953125,-0.04464283585548401,-0.6543770432472229,0.5039904713630676
1761914294630186000,3.12718603515625,-0.11951441317796707,-0.6615164279937744,0.5519798398017883
1761914294640242200,3.1372421875,-0.18676668405532837,-0.6232864856719971,0.567475438117981
1761914294650298000,3.147298095703125,-0.23848474025726318,-0.5470473766326904,0.5443839430809021
1761914294660354000,3.15735400390625,-0.29015859961509705,-0.4295734763145447,0.48729535937309265
1761914294670411000,3.167410888671875,-0.3413759768009186,-0.31919023394584656,0.40328648686408997
1761914294680467200,3.17746728515625,-0.3919355571269989,-0.22853730618953705,0.2913287878036499
1761914294690523400,3.1875234375,-0.44544512033462524,-0.16717806458473206,0.1565166413784027
1761914294700579300,3.197579345703125,-0.4664044678211212,-0.14025644958019257,0.01564314216375351
1761914294710635500,3.207635498046875,-0.460001140832901,-0.12419438362121582,-0.12138235569000244
1761914294720691500,3.21769140625,-0.44453537464141846,-0.12215466797351837,-0.2526591420173645
1761914294730747400,3.227747314453125,-0.424581915140152,-0.12826023995876312,-0.3797087073326111
1761914294740803600,3.237803466796875,-0.3930346369743347,-0.14515292644500732,-0.5036545991897583
1761914294750859500,3.247859619140625,-0.3590841293334961,-0.1489119827747345,-0.625383734703064
1761914294760915200,3.257915283203125,-0.320243775844574,-0.14955486357212067,-0.7389987111091614
1761914294770971400,3.267971435546875,-0.2720128893852234,-0.12150326371192932,-0.8369330167770386
1761914294781027300,3.27802734375,-0.2064562290906906,-0.07411497086286545,-0.9061970114707947
1761914294791083300,3.288083251953125,-0.13246110081672668,-0.031922779977321625,-0.9504145383834839
1761914294801139500,3.298139404296875,-0.05961485952138901,0.006217415910214186,-0.95899897813797
1761914294811195400,3.3081953125,0.01212883461266756,0.041785530745983124,-0.9338486194610596
1761914294821251300,3.318251220703125,0.08048579096794128,0.0423051118850708,-0.8943829536437988
1761914294831307500,3.3283076171875,0.1399935930967331,0.018609104678034782,-0.8372600078582764
1761914294841363500,3.338363525390625,0.17661817371845245,0.01426415704190731,-0.7720112204551697
1761914294851419400,3.34841943359375,0.19224321842193604,0.05486031994223595,-0.709438681602478
1761914294861475600,3.3584755859375,0.1886567324399948,0.1372276246547699,-0.6486583948135376
1761914294871531500,3.368531494140625,0.17021355032920837,0.2400650680065155,-0.5893956422805786
1761914294881588500,3.37858837890625,0.13022936880588531,0.3607965409755707,-0.518312394618988
1761914294891644400,3.38864453125,0.08121549338102341,0.4554695188999176,-0.4368814527988434
1761914294901700600,3.39870068359375,0.026201244443655014,0.4999171495437622,-0.3465270698070526
1761914294911756300,3.40875634765625,-0.02804841287434101,0.4980103075504303,-0.2638566792011261
1761914294921812200,3.418812255859375,-0.06138027086853981,0.467807412147522,-0.19654501974582672
1761914294931868400,3.428868408203125,-0.0743570551276207,0.43210214376449585,-0.1573006808757782
1761914294941924400,3.43892431640625,-0.06751406192779541,0.4151862859725952,-0.14608317613601685
1761914294951980300,3.448980224609375,-0.034458909183740616,0.4243651330471039,-0.1533418893814087
1761914294962036500,3.459036376953125,0.022723687812685966,0.4541645646095276,-0.17230412364006042
1761914294972092400,3.469092529296875,0.11060906946659088,0.4778720438480377,-0.19928008317947388
1761914294982148400,3.4791484375,0.21612563729286194,0.5080693364143372,-0.22086286544799805
1761914294992204500,3.48920458984375,0.31912338733673096,0.5330966711044312,-0.242213174700737
1761914295002260500,3.499260498046875,0.4067416489124298,0.5400049090385437,-0.25810477137565613
1761914295012316400,3.50931640625,0.475539892911911,0.5547803640365601,-0.2726714611053467
1761914295022372600,3.51937255859375,0.5332383513450623,0.5669392943382263,-0.27040672302246094
1761914295032428300,3.52942822265625,0.5948801636695862,0.5510173439979553,-0.24830621480941772
1761914295042484200,3.539484130859375,0.6539139151573181,0.5007509589195251,-0.18735924363136292
1761914295052540400,3.54954052734375,0.7107049822807312,0.42936787009239197,-0.10417912900447845
1761914295062596400,3.559596435546875,0.7555941939353943,0.3435128927230835,0.005791842471808195
1761914295072652300,3.56965234375,0.7887406945228577,0.24995924532413483,0.12154453992843628
1761914295082708500,3.57970849609375,0.7997899055480957,0.15038923919200897,0.24027279019355774
1761914295092765400,3.589765380859375,0.7917426228523254,0.07116818428039551,0.3376925587654114
1761914295102821400,3.5998212890625,0.7648190855979919,0.03467835113406181,0.4154946804046631
1761914295112877300,3.609877197265625,0.7240634560585022,0.03609035909175873,0.4642941653728485
1761914295122933500,3.61993359375,0.6672829985618591,0.06255179643630981,0.4837498962879181
1761914295132989400,3.629989501953125,0.6010069847106934,0.09170462191104889,0.4807567596435547
1761914295143045400,3.64004541015625,0.5264358520507812,0.1200190857052803,0.46521854400634766
1761914295153101600,3.6501015625,0.4499402642250061,0.14765097200870514,0.44555431604385376
1761914295163157500,3.660157470703125,0.36806750297546387,0.16517138481140137,0.43296048045158386
1761914295173213400,3.67021337890625,0.30306506156921387,0.14713379740715027,0.4326174557209015
1761914295183269400,3.680269287109375,0.24571415781974792,0.12941578030586243,0.4433550536632538
1761914295193325300,3.6903251953125,0.1985756754875183,0.11799720674753189,0.46930596232414246
1761914295203381200,3.70038134765625,0.151284858584404,0.10910757631063461,0.4980718493461609
1761914295213437400,3.7104375,0.11440806835889816,0.12386894971132278,0.5141637325286865
1761914295223493400,3.720493408203125,0.0896364077925682,0.17336539924144745,0.5180373191833496
1761914295233549300,3.73054931640625,0.0864347591996193,0.2279287725687027,0.49743375182151794
1761914295243605200,3.740605224609375,0.10915764421224594,0.2587154507637024,0.4590306878089905
1761914295253661400,3.750661376953125,0.1263909637928009,0.28056827187538147,0.4150296747684479
1761914295263717400,3.76071728515625,0.11628372967243195,0.2854178845882416,0.37670573592185974
1761914295273773300,3.770773193359375,0.07848788052797318,0.24513758718967438,0.33587920665740967
1761914295283829500,3.78082958984375,0.05125759541988373,0.15843677520751953,0.28938281536102295
1761914295293885400,3.790885498046875,0.048340633511543274,0.07096259295940399,0.2250988930463791
1761914295303942400,3.8009423828125,0.03020637109875679,0.004757470916956663,0.14019785821437836
1761914295313998300,3.810998291015625,-0.017559552565217018,-0.03145672753453255,0.05594129487872124
1761914295324054500,3.821054443359375,-0.07424280792474747,-0.02389521338045597,-0.002523345174267888
1761914295334110500,3.8311103515625,-0.12255281209945679,-0.00446851784363389,-0.013158679008483887
1761914295344166400,3.84116650390625,-0.1433212161064148,0.019169433042407036,0.02485927753150463
1761914295354222300,3.851222412109375,-0.14345702528953552,0.039156723767519,0.11514177173376083
1761914295364278300,3.8612783203125,-0.13627634942531586,0.05345070734620094,0.23938968777656555
1761914295374334200,3.871334228515625,-0.1343090683221817,0.07901279628276825,0.36502110958099365
1761914295384390400,3.881390380859375,-0.1397847980260849,0.10691472887992859,0.46174710988998413
1761914295394446300,3.8914462890625,-0.1522827446460724,0.1266503483057022,0.5134041905403137
1761914295404502300,3.901502197265625,-0.17266125977039337,0.16467683017253876,0.5211020708084106
1761914295414558500,3.911558349609375,-0.20195016264915466,0.21275034546852112,0.4939141273498535
1761914295424614400,3.921614501953125,-0.24096867442131042,0.26218873262405396,0.4332728683948517
1761914295434670300,3.93167041015625,-0.28754177689552307,0.2935304045677185,0.3594106435775757
1761914295444726500,3.9417265625,-0.3276050388813019,0.29333972930908203,0.28607383370399475
1761914295454782500,3.951782470703125,-0.35218173265457153,0.2563396394252777,0.2150593101978302
1761914295464838100,3.961838134765625,-0.36207830905914307,0.20143857598304749,0.14326289296150208
1761914295474894300,3.971894287109375,-0.3681758940219879,0.14036989212036133,0.05963270366191864
1761914295484950300,3.9819501953125,-0.35807132720947266,0.07744152843952179,-0.028432972729206085
1761914295495006200,3.992006103515625,-0.32055431604385376,0.014258031733334064,-0.11695325374603271
1761914295505060400,4.002060302734375,-0.2554381489753723,-0.03678304702043533,-0.20704425871372223
1761914295515116500,4.012116455078125,-0.17921262979507446,-0.06541150063276291,-0.2877635955810547
1761914295525172500,4.02217236328125,-0.09122364968061447,-0.08197423070669174,-0.35573893785476685
1761914295535228400,4.032228515625,-0.005221926141530275,-0.10773072391748428,-0.41036197543144226
1761914295545284400,4.042284423828125,0.07737281918525696,-0.12791535258293152,-0.43926283717155457
1761914295555340300,4.05234033203125,0.1360451877117157,-0.14081117510795593,-0.4471769630908966
1761914295565396200,4.062396240234375,0.17301784455776215,-0.17121168971061707,-0.4390588402748108
1761914295575452400,4.072452392578125,0.19329328835010529,-0.21784870326519012,-0.4121289551258087
1761914295585508400,4.08250830078125,0.206573948264122,-0.2538850009441376,-0.36982253193855286
1761914295595564300,4.092564208984375,0.20806026458740234,-0.2674245238304138,-0.31560003757476807
1761914295605620500,4.102620361328125,0.2037443369626999,-0.25324690341949463,-0.2555217742919922
1761914295615676400,4.112676513671875,0.18463855981826782,-0.2337786704301834,-0.19644008576869965
1761914295625732400,4.122732421875,0.14274729788303375,-0.23425990343093872,-0.14981985092163086
1761914295635788500,4.13278857421875,0.0840272605419159,-0.25879162549972534,-0.1141529381275177
1761914295645844500,4.142844482421875,0.01498241163790226,-0.3187260627746582,-0.09934602677822113
1761914295655900400,4.152900390625,-0.05158303305506706,-0.38029539585113525,-0.10174713283777237
1761914295665956600,4.16295654296875,-0.11466825753450394,-0.42873403429985046,-0.11698973923921585
1761914295676012300,4.17301220703125,-0.17226338386535645,-0.4604259133338928,-0.1558590978384018
1761914295686068700,4.18306884765625,-0.21545612812042236,-0.4931468665599823,-0.2062695473432541
1761914295696124700,4.193124755859375,-0.25877857208251953,-0.5288774371147156,-0.2662007808685303
1761914295706182000,4.203181884765625,-0.31175097823143005,-0.5715407133102417,-0.32963037490844727
1761914295716237800,4.21323779296875,-0.3691152036190033,-0.6060709953308105,-0.38871684670448303
1761914295726293800,4.223293701171875,-0.42854949831962585,-0.6165547966957092,-0.4338398575782776
1761914295736349700,4.233349609375,-0.47863876819610596,-0.5988472104072571,-0.45321622490882874
1761914295746406000,4.243406005859375,-0.5222024917602539,-0.5695676207542419,-0.4521639943122864
1761914295756461800,4.2534619140625,-0.5662825703620911,-0.5262131690979004,-0.42536115646362305
1761914295766517800,4.263517822265625,-0.6006312370300293,-0.49466273188591003,-0.37971511483192444
1761914295776574000,4.273573974609375,-0.6231551766395569,-0.47318246960639954,-0.3078893721103668
1761914295786630000,4.2836298828125,-0.6292165517807007,-0.4634459614753723,-0.22181175649166107
1761914295796685800,4.293685791015625,-0.6277453899383545,-0.42219623923301697,-0.13176229596138
1761914295806742000,4.303741943359375,-0.608495831489563,-0.36628878116607666,-0.042500320822000504
1761914295816797700,4.313797607421875,-0.5929458737373352,-0.30269381403923035,0.034867703914642334
1761914295826853600,4.323853515625,-0.5835744738578796,-0.23502182960510254,0.09363327920436859
1761914295836909800,4.333909912109375,-0.5936199426651001,-0.17295926809310913,0.13060754537582397
1761914295846965800,4.3439658203125,-0.5991462469100952,-0.10015109926462173,0.15893825888633728
1761914295857021700,4.354021728515625,-0.5866331458091736,-0.020871993154287338,0.16892270743846893
1761914295867078000,4.364077880859375,-0.5542429685592651,0.04504949972033501,0.16980740427970886
1761914295877133800,4.3741337890625,-0.5024282336235046,0.10230160504579544,0.1740596741437912
1761914295887189800,4.384189697265625,-0.4458661675453186,0.15304121375083923,0.1836063116788864
1761914295897246000,4.394245849609375,-0.3785688877105713,0.18022356927394867,0.19208741188049316
1761914295907302000,4.404302001953125,-0.31921741366386414,0.1836441308259964,0.20646928250789642
1761914295917358800,4.41435888671875,-0.25960466265678406,0.16144002974033356,0.23087768256664276
1761914295927414800,4.424414794921875,-0.20878943800926208,0.11169004440307617,0.2588571310043335
1761914295937471000,4.434470947265625,-0.17571589350700378,0.0495598278939724,0.295695036649704
1761914295947527000,4.44452685546875,-0.1543743908405304,-0.021258417516946793,0.3394491672515869
1761914295957582800,4.454582763671875,-0.14690901339054108,-0.09185615181922913,0.40146568417549133
1761914295967638800,4.464638671875,-0.16255855560302734,-0.15312829613685608,0.46645745635032654
1761914295977694700,4.47469482421875,-0.17351026833057404,-0.19801267981529236,0.5226496458053589
1761914295987750700,4.484750732421875,-0.16337162256240845,-0.21682977676391602,0.5457496047019958
1761914295997806800,4.494806884765625,-0.14293985068798065,-0.19816873967647552,0.5427644848823547
1761914296007862800,4.50486279296875,-0.11603446304798126,-0.15191975235939026,0.5170924067497253
1761914296017918700,4.514918701171875,-0.07209603488445282,-0.06953167170286179,0.4748693108558655
1761914296027975000,4.524974853515625,-0.009758088737726212,0.023515712469816208,0.4146272838115692
1761914296038030800,4.53503076171875,0.04472725838422775,0.09503037482500076,0.33423975110054016
1761914296048086800,4.545086669921875,0.08228208869695663,0.13633786141872406,0.2475285679101944
1761914296058143000,4.55514306640625,0.0903586596250534,0.16038115322589874,0.15238207578659058
1761914296068199000,4.565198974609375,0.07664337754249573,0.1797788143157959,0.08179153501987457
1761914296078254800,4.5752548828125,0.05700469762086868,0.15828578174114227,0.040890175849199295
1761914296088311000,4.58531103515625,0.057847052812576294,0.06820781528949738,0.033788856118917465
1761914296098370800,4.595370849609375,0.07223451882600784,-0.03568848967552185,0.07515840232372284
1761914296108426800,4.6054267578125,0.07173623889684677,-0.11933252215385437,0.15715712308883667
1761914296118483000,4.61548291015625,0.06241251155734062,-0.19820842146873474,0.2636486887931824
1761914296128539000,4.625538818359375,0.035529233515262604,-0.29000571370124817,0.3727269768714905
1761914296138594800,4.6355947265625,0.009020126424729824,-0.34394779801368713,0.47157391905784607
1761914296148651000,4.645651123046875,-0.022596122696995735,-0.3714049756526947,0.5406890511512756
1761914296158707000,4.65570703125,-0.07419779896736145,-0.35680100321769714,0.569430947303772
1761914296168763000,4.665762939453125,-0.1378212422132492,-0.32050690054893494,0.5478947758674622
1761914296178818800,4.67581884765625,-0.2027304768562317,-0.28349536657333374,0.4933798909187317
1761914296188874800,4.685874755859375,-0.27061790227890015,-0.2452576905488968,0.41069990396499634
1761914296198930700,4.6959306640625,-0.3210432827472687,-0.21705268323421478,0.31662988662719727
1761914296208987000,4.70598681640625,-0.35269734263420105,-0.19890643656253815,0.21146750450134277
1761914296219042800,4.716042724609375,-0.3745400607585907,-0.1946171522140503,0.10257244855165482
1761914296229098800,4.7260986328125,-0.39832472801208496,-0.21503694355487823,-0.009519202634692192
1761914296239154700,4.73615478515625,-0.4042702615261078,-0.22338728606700897,-0.12077409029006958
1761914296249211000,4.7462109375,-0.39650633931159973,-0.21602550148963928,-0.23310835659503937
1761914296259266800,4.756266845703125,-0.3788037598133087,-0.17152461409568787,-0.34441888332366943
1761914296269322800,4.76632275390625,-0.362379789352417,-0.08540517836809158,-0.4445018172264099
1761914296279380000,4.7763798828125,-0.3485223054885864,0.019406188279390335,-0.5302180647850037
1761914296289436000,4.786435791015625,-0.340746134519577,0.10792433470487595,-0.5849103331565857
1761914296299491800,4.796491943359375,-0.33676576614379883,0.16760897636413574,-0.6088204383850098
1761914296309547800,4.8065478515625,-0.3391975164413452,0.20102445781230927,-0.5997971296310425
1761914296319604000,4.81660400390625,-0.3438146412372589,0.20947732031345367,-0.567560076713562
1761914296329660000,4.826659912109375,-0.3492850363254547,0.19428957998752594,-0.5150713324546814
1761914296339715800,4.8367158203125,-0.3570007383823395,0.1799742877483368,-0.4598296582698822
1761914296349771800,4.846771728515625,-0.3719320297241211,0.1925572007894516,-0.3993348777294159
1761914296359827700,4.85682763671875,-0.40435734391212463,0.2265375405550003,-0.34472036361694336
1761914296369883600,4.866883544921875,-0.4393936097621918,0.26721304655075073,-0.29649585485458374
1761914296379939800,4.87693994140625,-0.47980523109436035,0.2841225266456604,-0.24894218146800995
1761914296389995800,4.886995849609375,-0.510168731212616,0.26531609892845154,-0.20499762892723083
1761914296400051700,4.8970517578125,-0.524822473526001,0.2330782562494278,-0.16497910022735596
1761914296410108000,4.90710791015625,-0.5250571370124817,0.1954278200864792,-0.13088051974773407
1761914296420163800,4.917163818359375,-0.5074443221092224,0.1582452952861786,-0.10303876549005508
1761914296430219800,4.9272197265625,-0.4747588038444519,0.13473278284072876,-0.08225678652524948
1761914296440276000,4.93727587890625,-0.41336095333099365,0.13532933592796326,-0.06603734195232391
1761914296450332000,4.947331787109375,-0.3187582790851593,0.152833491563797,-0.04651743546128273
1761914296460387800,4.957387939453125,-0.1915166974067688,0.18383561074733734,-0.015152054838836193
1761914296470444800,4.96744482421875,-0.062198393046855927,0.19823212921619415,0.013544037938117981
1761914296480501000,4.9775009765625,0.05823694169521332,0.1882266253232956,0.041674740612506866
1761914296490557000,4.987556884765625,0.14791595935821533,0.16463954746723175,0.05817302688956261
1761914296500612600,4.997612548828125,0.2273162454366684,0.14429645240306854,0.0682392418384552
1761914296510668800,5.007668701171875,0.30273962020874023,0.1326347440481186,0.0794128030538559
1761914296520724700,5.017724853515625,0.3677109181880951,0.1195884495973587,0.09690310806035995
1761914296530780700,5.02778076171875,0.4310355484485626,0.1047959178686142,0.12382101267576218
1761914296540836900,5.0378369140625,0.47603872418403625,0.07232613116502762,0.1594913899898529
1761914296550892800,5.047892822265625,0.5069337487220764,0.02749420888721943,0.2038511335849762
1761914296560948700,5.05794873046875,0.5228645205497742,-0.0353689081966877,0.2511363625526428
1761914296571005000,5.0680048828125,0.5318505764007568,-0.0998632162809372,0.2961549758911133
1761914296581060900,5.078060791015625,0.5285927057266235,-0.15886075794696808,0.33778148889541626
1761914296591116800,5.08811669921875,0.524219274520874,-0.1899166703224182,0.36115285754203796
1761914296601173000,5.098173095703125,0.513312041759491,-0.19470956921577454,0.3697514235973358
1761914296611229000,5.10822900390625,0.49610188603401184,-0.18282467126846313,0.36311349272727966
1761914296621284600,5.11828466796875,0.4679104685783386,-0.15977661311626434,0.3563232421875
1761914296631340800,5.1283408203125,0.42996975779533386,-0.13440947234630585,0.3512347340583801
1761914296641398000,5.13839794921875,0.39111077785491943,-0.13723322749137878,0.34997957944869995
1761914296651453700,5.14845361328125,0.3473542332649231,-0.14610634744167328,0.35542866587638855
1761914296661509600,5.158509521484375,0.3079562187194824,-0.1558883935213089,0.3742412328720093
1761914296671565800,5.16856591796875,0.269762247800827,-0.14629009366035461,0.39861929416656494
1761914296681621800,5.178621826171875,0.22639372944831848,-0.11918710917234421,0.4177123010158539
1761914296691681300,5.188681396484375,0.212290957570076,-0.09943471103906631,0.4348697066307068
1761914296701737500,5.198737548828125,0.2339741438627243,-0.07132317870855331,0.44109803438186646
1761914296711793400,5.20879345703125,0.26396507024765015,-0.024388430640101433,0.4262588918209076
1761914296721849300,5.218849365234375,0.2686501145362854,0.02112099714577198,0.3859378397464752
1761914296731905300,5.2289052734375,0.2461269497871399,0.025136245414614677,0.32982558012008667
1761914296741961200,5.238961181640625,0.22374014556407928,-0.00035739620216190815,0.26836326718330383
1761914296752017200,5.24901708984375,0.19856981933116913,-0.06283248960971832,0.2181171476840973
1761914296762073300,5.2590732421875,0.15207821130752563,-0.13112713396549225,0.17308549582958221
1761914296772129300,5.26912939453125,0.09871698915958405,-0.19711439311504364,0.12518908083438873
1761914296782185200,5.279185302734375,0.039619848132133484,-0.2730163633823395,0.06934232264757156
1761914296792241400,5.289241455078125,-0.011683288030326366,-0.33043092489242554,0.013609818182885647
1761914296802297300,5.29929736328125,-0.027093136683106422,-0.34894120693206787,-0.02177826687693596
1761914296812353300,5.309353271484375,-0.008860602974891663,-0.30604222416877747,-0.04796060174703598
1761914296822409500,5.319409423828125,0.034389398992061615,-0.1937130093574524,-0.04091227799654007
1761914296832466400,5.329466552734375,0.07607559114694595,-0.054489873349666595,-0.0011438276851549745
1761914296842522400,5.3395224609375,0.09528736770153046,0.07906099408864975,0.07514801621437073
1761914296852578300,5.349578369140625,0.09993751347064972,0.20377443730831146,0.17476888000965118
1761914296862634500,5.359634521484375,0.08997782319784164,0.3248752951622009,0.26250991225242615
1761914296872690400,5.3696904296875,0.08435110002756119,0.43069785833358765,0.32794058322906494
1761914296882746400,5.379746337890625,0.07955900579690933,0.490969717502594,0.36359286308288574
1761914296892802300,5.38980224609375,0.06748982518911362,0.5200943350791931,0.36259976029396057
1761914296902858200,5.399858154296875,0.05329917371273041,0.5423274636268616,0.3350387215614319
1761914296912914200,5.4099140625,0.05378866195678711,0.5496370196342468,0.2866632044315338
1761914296922970400,5.419970458984375,0.08082534372806549,0.558134138584137,0.22364720702171326
1761914296933026300,5.4300263671875,0.1334773600101471,0.560914158821106,0.1464243233203888
1761914296943082200,5.440082275390625,0.20321862399578094,0.5795491337776184,0.07201933115720749
1761914296953138400,5.450138427734375,0.27245762944221497,0.6140565276145935,-0.013127786107361317
1761914296963194400,5.4601943359375,0.3442290127277374,0.6181865334510803,-0.10071808844804764
1761914296973250300,5.470250244140625,0.4236902892589569,0.6036065220832825,-0.191294327378273
1761914296983306500,5.480306396484375,0.494966596364975,0.5584763288497925,-0.28178614377975464
1761914296993362400,5.490362548828125,0.5675225257873535,0.4990699887275696,-0.3702494204044342
1761914297003418400,5.50041845703125,0.6196249127388,0.44497108459472656,-0.478418231010437
1761914297013475300,5.510475341796875,0.6801372766494751,0.4057168662548065,-0.6033969521522522
1761914297023531500,5.520531494140625,0.7408027052879333,0.3876071274280548,-0.7226359844207764
1761914297033587500,5.53058740234375,0.8015989661216736,0.36550208926200867,-0.8124132752418518
1761914297043643100,5.54064306640625,0.8613315224647522,0.3730180561542511,-0.8572808504104614
1761914297053699300,5.55069921875,0.8966091275215149,0.3493686616420746,-0.8617507219314575
1761914297063755300,5.56075537109375,0.9184326529502869,0.3342765271663666,-0.8287515044212341
1761914297073811200,5.570811279296875,0.9285380244255066,0.3382190465927124,-0.7611327767372131
1761914297083867400,5.580867431640625,0.9349410533905029,0.3612394332885742,-0.6525753736495972
1761914297093923300,5.59092333984375,0.9349426627159119,0.36322933435440063,-0.5235891938209534
1761914297103979300,5.600979248046875,0.925447940826416,0.3410252332687378,-0.3764122426509857
1761914297114035500,5.611035400390625,0.895107626914978,0.2880275249481201,-0.23772414028644562
1761914297124091400,5.62109130859375,0.8505601286888123,0.21396209299564362,-0.12126810103654861
1761914297134147300,5.631147216796875,0.7869476079940796,0.11795113980770111,-0.04294959828257561
1761914297144203500,5.64120361328125,0.7143260836601257,0.03791062906384468,-0.008983640931546688
1761914297154259500,5.651259521484375,0.6443478465080261,-0.020471720024943352,-0.005835252348333597
1761914297164315100,5.661315185546875,0.5831465125083923,-0.08182482421398163,-0.02305551804602146
1761914297174371300,5.671371337890625,0.5253066420555115,-0.12670467793941498,-0.05218011513352394
1761914297184428500,5.681428466796875,0.45371049642562866,-0.1696351021528244,-0.085383340716362
1761914297194484200,5.691484130859375,0.3737400472164154,-0.2102387249469757,-0.11607041209936142
1761914297204540200,5.7015400390625,0.285307914018631,-0.24073325097560883,-0.13466086983680725
1761914297214596400,5.711596435546875,0.21221666038036346,-0.24022139608860016,-0.15075649321079254
1761914297224652300,5.72165234375,0.14993144571781158,-0.21813739836215973,-0.15796566009521484
1761914297234708200,5.731708251953125,0.09488736093044281,-0.1646621823310852,-0.15435388684272766
1761914297244764400,5.741764404296875,0.0418182872235775,-0.08697724342346191,-0.14138935506343842
1761914297254820400,5.7518203125,-0.010905644856393337,-0.002377403900027275,-0.11018908768892288
1761914297264876300,5.761876220703125,-0.04433497413992882,0.050748132169246674,-0.06385061889886856
1761914297274932500,5.771932373046875,-0.07037749141454697,0.08756127208471298,-0.0037910097744315863
1761914297284988400,5.781988525390625,-0.09441864490509033,0.09168118238449097,0.07438608258962631
1761914297295044400,5.79204443359375,-0.11656815558671951,0.09053655713796616,0.1555539071559906
1761914297305100500,5.8021005859375,-0.13663214445114136,0.10068479925394058,0.2408653348684311
1761914297315156200,5.81215625,-0.15270645916461945,0.1162206158041954,0.29677867889404297
1761914297325212200,5.822212158203125,-0.1523008495569229,0.14008307456970215,0.31879767775535583
1761914297335268400,5.832268310546875,-0.15181510150432587,0.17043405771255493,0.30621984601020813
1761914297345324300,5.84232421875,-0.14623630046844482,0.18956300616264343,0.2542554438114166
1761914297355380200,5.852380126953125,-0.13999438285827637,0.19781480729579926,0.19290953874588013
1761914297365437200,5.862437255859375,-0.14745870232582092,0.192939892411232,0.1453353613615036
1761914297375493400,5.872493408203125,-0.1607513278722763,0.15408650040626526,0.12290354818105698
1761914297385549300,5.88254931640625,-0.17520111799240112,0.10331813246011734,0.13442012667655945
1761914297395605200,5.892605224609375,-0.20529642701148987,0.03304450213909149,0.17306578159332275
1761914297405661400,5.902661376953125,-0.23173096776008606,-0.03352786600589752,0.22554124891757965
1761914297415717400,5.91271728515625,-0.21952010691165924,-0.11743048578500748,0.27878502011299133
1761914297425773300,5.922773193359375,-0.20265750586986542,-0.17905710637569427,0.3155856430530548
1761914297435829500,5.93282958984375,-0.20991674065589905,-0.175381138920784,0.3376496732234955
1761914297445885400,5.942885498046875,-0.23832201957702637,-0.1464911699295044,0.33967792987823486
1761914297455941400,5.95294140625,-0.23910047113895416,-0.1210491955280304,0.3152487576007843
1761914297465997600,5.96299755859375,-0.18701408803462982,-0.09744293242692947,0.2771895229816437
1761914297476053200,5.97305322265625,-0.10656532645225525,-0.03555985912680626,0.23192404210567474
1761914297486109200,5.983109130859375,-0.05999569222331047,0.0699404701590538,0.19019417464733124
1761914297496165400,5.993165283203125,-0.05434020236134529,0.1611686497926712,0.14187350869178772
1761914297506221300,6.00322119140625,-0.06668848544359207,0.20714519917964935,0.09852258116006851
1761914297516277200,6.01327734375,-0.08158061653375626,0.19117209315299988,0.0812503844499588
1761914297526333400,6.02333349609375,-0.08904705196619034,0.15270859003067017,0.10841462761163712
1761914297536389400,6.033389404296875,-0.07556240260601044,0.07974755764007568,0.17825575172901154
1761914297546446300,6.0434462890625,-0.05702147260308266,-0.014566159807145596,0.2573830783367157
1761914297556502300,6.053502197265625,-0.0653875321149826,-0.12767113745212555,0.3412987291812897
1761914297566558500,6.063558349609375,-0.10526543855667114,-0.25881877541542053,0.42111366987228394
1761914297576614400,6.073614501953125,-0.1586357206106186,-0.41272976994514465,0.47302454710006714
1761914297586670300,6.08367041015625,-0.2068072408437729,-0.5265234708786011,0.48478320240974426
1761914297596726500,6.0937265625,-0.23814839124679565,-0.5670801997184753,0.4412282705307007
1761914297606782500,6.103782470703125,-0.2659222185611725,-0.5309743881225586,0.35519805550575256
1761914297616838400,6.11383837890625,-0.2735830843448639,-0.46398869156837463,0.23961764574050903
1761914297626894300,6.123894287109375,-0.18955715000629425,-0.5568520426750183,0.09495926648378372
1761914297636950300,6.1339501953125,-0.11291057616472244,-0.6849599480628967,-0.03550286591053009
1761914297647006200,6.144006103515625,-0.1029394343495369,-0.673126757144928,-0.11984331160783768
1761914297657062400,6.1540625,-0.06767092645168304,-0.558590829372406,-0.17784562706947327
1761914297667118300,6.164118408203125,-0.03708185628056526,-0.37053385376930237,-0.26851508021354675
1761914297677174300,6.17417431640625,-0.0027382622938603163,-0.1910407990217209,-0.378814160823822
1761914297687230700,6.184230712890625,0.05848727747797966,-0.04471340775489807,-0.49333488941192627
1761914297697286700,6.19428662109375,0.1264287829399109,0.1264823079109192,-0.6094966530799866
1761914297707342600,6.204342529296875,0.17657370865345,0.2854596972465515,-0.7084208130836487
1761914297717399600,6.214399658203125,0.17973753809928894,0.3700163960456848,-0.7726855874061584
1761914297727455500,6.22445556640625,0.15918992459774017,0.31550949811935425,-0.7927407622337341
1761914297737511700,6.23451171875,0.1116865873336792,0.17094963788986206,-0.7379385232925415
1761914297747567600,6.244567626953125,0.016046877950429916,0.12731720507144928,-0.653846800327301
1761914297757623600,6.25462353515625,-0.09597792476415634,0.10336047410964966,-0.6026390194892883
1761914297767679700,6.2646796875,-0.1964014768600464,0.028125377371907234,-0.6032224893569946
1761914297777735700,6.274735595703125,-0.29188671708106995,-0.01786235347390175,-0.5769762396812439
1761914297787791600,6.28479150390625,-0.3898391127586365,0.01768871583044529,-0.5550954341888428
1761914297797847800,6.294847900390625,-0.4754839837551117,0.12663251161575317,-0.5512783527374268
1761914297807903700,6.30490380859375,-0.5616683959960938,0.2836969494819641,-0.554328978061676
1761914297817959700,6.314959716796875,-0.6333380341529846,0.44502487778663635,-0.5347251892089844
1761914297828015900,6.325015869140625,-0.7129780054092407,0.5454971194267273,-0.47450101375579834
1761914297838071800,6.33507177734375,-0.7900635004043579,0.5840829014778137,-0.3602042496204376
1761914297848127500,6.34512744140625,-0.8257247805595398,0.5790982246398926,-0.2200511395931244
1761914297858183700,6.35518359375,-0.8004234433174133,0.46431201696395874,-0.07122491300106049
1761914297868239600,6.365239501953125,-0.7044593691825867,0.2104475200176239,0.09192220121622086
1761914297878295600,6.375295654296875,-0.5680381655693054,-0.11486746370792389,0.24514344334602356
1761914297888352500,6.3853525390625,-0.43253758549690247,-0.3679361939430237,0.3790660798549652
1761914297898408700,6.39540869140625,-0.32073140144348145,-0.4526106119155884,0.45786529779434204
1761914297908464600,6.405464599609375,-0.21555039286613464,-0.449195921421051,0.4564351737499237
1761914297918520600,6.4155205078125,-0.09737475961446762,-0.3818299174308777,0.4409502446651459
1761914297928576800,6.42557666015625,-0.015325160697102547,-0.1903880536556244,0.4112115204334259
1761914297938632700,6.4356328125,0.0427277572453022,0.04147926717996597,0.3455781638622284
1761914297948688600,6.445688720703125,0.07259084284305573,0.19719988107681274,0.2620108425617218
1761914297958744800,6.455744873046875,0.08566004037857056,0.24564145505428314,0.21146218478679657
1761914297968800800,6.46580078125,0.06877054274082184,0.2354375571012497,0.194472536444664
1761914297978856700,6.475856689453125,0.03241413086652756,0.20326043665409088,0.18500766158103943
1761914297988913000,6.485912841796875,0.006463491823524237,0.18016177415847778,0.17738063633441925
1761914297998968600,6.495968505859375,-0.025412416085600853,0.17899905145168304,0.16104215383529663
1761914298009024500,6.5060244140625,-0.0799395740032196,0.20497338473796844,0.15505775809288025
1761914298019080700,6.516080810546875,-0.14467516541481018,0.22683101892471313,0.15606603026390076
1761914298029136600,6.52613671875,-0.21469658613204956,0.190229594707489,0.15021853148937225
1761914298039192600,6.536192626953125,-0.2588089108467102,0.06995750963687897,0.14996951818466187
1761914298049248800,6.546248779296875,-0.2958761155605316,-0.07541140168905258,0.15881973505020142
1761914298059304700,6.5563046875,-0.2992575466632843,-0.21985779702663422,0.21848653256893158
1761914298069361700,6.566361572265625,-0.27947425842285156,-0.35332319140434265,0.3044123649597168
1761914298079417600,6.57641748046875,-0.2481038123369217,-0.4195951521396637,0.3977987766265869
1761914298089473800,6.586473876953125,-0.21253623068332672,-0.39362719655036926,0.491272509098053
1761914298099529700,6.59652978515625,-0.16745610535144806,-0.21487049758434296,0.5644434094429016
1761914298109585700,6.606585693359375,-0.07207046449184418,-0.0323326401412487,0.6443153619766235
1761914298119641900,6.616641845703125,0.10149892419576645,0.029225530102849007,0.7352122068405151
1761914298129697800,6.62669775390625,0.2735908031463623,0.09043429046869278,0.797156035900116
1761914298139753700,6.636753662109375,0.3973923623561859,0.19587042927742004,0.843035876750946
1761914298149809700,6.6468095703125,0.44998952746391296,0.36155954003334045,0.8595152497291565
1761914298159865600,6.656865478515625,0.45914149284362793,0.5589476823806763,0.8624921441078186
1761914298169921500,6.666921630859375,0.43196073174476624,0.7404834032058716,0.8881932497024536
1761914298179977700,6.676977783203125,0.3510637581348419,0.9093978404998779,0.9295167326927185
1761914298190033700,6.68703369140625,0.20051179826259613,1.1398569345474243,0.9458237886428833
1761914298200089600,6.697089599609375,0.07609876245260239,1.2203445434570312,0.8638104200363159
1761914298210145800,6.707145751953125,0.07875420153141022,1.156043291091919,0.7953341603279114
1761914298220201700,6.71720166015625,-0.01564766839146614,0.978492796421051,0.7025331258773804
1761914298230257700,6.727257568359375,-0.056659817695617676,0.407284677028656,0.4730035066604614
1761914298240313900,6.73731396484375,-0.0185846034437418,0.07082170993089676,0.3443547189235687
1761914298250370800,6.747370849609375,0.008875250816345215,-0.03340775892138481,0.2573140859603882
1761914298260426800,6.7574267578125,-0.0629347562789917,-0.35699886083602905,0.12443007528781891
1761914298270482700,6.767482666015625,-0.10871876031160355,-0.48783865571022034,0.14145326614379883
1761914298280539000,6.777538818359375,-0.09567113220691681,-0.4156304895877838,0.19309967756271362
1761914298290594800,6.7875947265625,-0.06763363629579544,-0.6247751712799072,0.10201291739940643
1761914298300650500,6.797650390625,-0.006532734259963036,-0.9574916362762451,-0.10104246437549591
1761914298310706700,6.807706787109375,-0.028903553262352943,-1.2865296602249146,-0.35035136342048645
1761914298320762600,6.8177626953125,-0.515912652015686,-1.2475740909576416,-0.36320990324020386
1761914298330818600,6.827818603515625,-0.9518992304801941,-0.9481186270713806,-0.17000076174736023
1761914298340874800,6.837874755859375,-1.1502107381820679,-0.672308087348938,0.03226472809910774
1761914298350930700,6.8479306640625,-1.1284133195877075,-0.4939410090446472,0.251345157623291
1761914298360986600,6.857986572265625,-1.0007432699203491,-0.365105539560318,0.4323711097240448
1761914298371042800,6.868042724609375,-0.8596993088722229,-0.19535218179225922,0.602300226688385
1761914298381098800,6.8780986328125,-0.7823818325996399,0.07616694271564484,0.7680532336235046
1761914298391154700,6.88815478515625,-0.7808462977409363,0.38945135474205017,0.8299392461776733
1761914298401211000,6.8982109375,-0.8181710243225098,0.5852389931678772,0.8104124069213867
1761914298411266800,6.908266845703125,-0.8547279834747314,0.6442657709121704,0.7550562024116516
1761914298421322800,6.91832275390625,-0.8917863965034485,0.6075759530067444,0.6916687488555908
1761914298431379700,6.928379638671875,-0.943006157875061,0.5168665647506714,0.6249006390571594
1761914298441436000,6.938435791015625,-1.0079385042190552,0.3835394084453583,0.5676237344741821
1761914298451491800,6.948491943359375,-1.0795173645019531,0.22772343456745148,0.5129408240318298
1761914298461547500,6.958547607421875,-1.1409759521484375,0.025915753096342087,0.4514042139053345
1761914298471603700,6.968603759765625,-1.1721346378326416,-0.2596861720085144,0.38386163115501404
1761914298481659600,6.97865966796875,-1.1605565547943115,-0.5355814099311829,0.33020293712615967
1761914298491715600,6.988715576171875,-1.1079802513122559,-0.7647653222084045,0.3069751262664795
1761914298501771800,6.998771728515625,-1.026234745979309,-0.9423225522041321,0.30822494626045227
1761914298511827700,7.00882763671875,-0.9428730010986328,-1.0529520511627197,0.3135533928871155
1761914298521883600,7.018883544921875,-0.8721266388893127,-1.0834075212478638,0.29416024684906006
1761914298531939800,7.02893994140625,-0.8269833922386169,-1.0443772077560425,0.2402094006538391
1761914298541995800,7.038995849609375,-0.8072853684425354,-0.9511753916740417,0.1315300613641739
1761914298552051700,7.0490517578125,-0.8132777214050293,-0.8467565774917603,-0.021099425852298737
1761914298562108000,7.05910791015625,-0.8306007981300354,-0.7412818074226379,-0.1869448572397232
1761914298572163800,7.069163818359375,-0.849233865737915,-0.6028895974159241,-0.3498813211917877
1761914298582219500,7.079219482421875,-0.8545671105384827,-0.43813419342041016,-0.4953884482383728
1761914298592275700,7.089275634765625,-0.843555748462677,-0.2583306133747101,-0.6282772421836853
1761914298602333000,7.0993330078125,-0.8109434843063354,-0.10102701187133789,-0.7370684146881104
1761914298612388600,7.109388671875,-0.7520857453346252,0.018341191112995148,-0.8151616454124451
1761914298622444500,7.119444580078125,-0.6734857559204102,0.09680590778589249,-0.8581730127334595
1761914298632500700,7.129500732421875,-0.5993697047233582,0.12978409230709076,-0.8810669183731079
1761914298642556700,7.139556640625,-0.5420017242431641,0.11006924510002136,-0.8852294087409973
1761914298652612600,7.149612548828125,-0.4936126470565796,0.005356681998819113,-0.8827148675918579
1761914298662668800,7.159668701171875,-0.4576663672924042,-0.17107507586479187,-0.868658721446991
1761914298672724700,7.169724853515625,-0.44611090421676636,-0.4011775255203247,-0.8498876690864563
1761914298682780700,7.17978076171875,-0.451892614364624,-0.6747267842292786,-0.8183254599571228
1761914298692832300,7.189832275390625,-0.4599774479866028,-0.9565566182136536,-0.7671544551849365
1761914298702888200,7.19988818359375,-0.46573492884635925,-1.2174848318099976,-0.6788908839225769
1761914298712944400,7.2099443359375,-0.45998090505599976,-1.4536582231521606,-0.5666689872741699
1761914298723000300,7.220000244140625,-0.45141351222991943,-1.6434379816055298,-0.43444547057151794
1761914298733056300,7.23005615234375,-0.4550575315952301,-1.7582464218139648,-0.27478256821632385
1761914298743112400,7.240112548828125,-0.46782657504081726,-1.80717134475708,-0.10796268284320831
1761914298753168400,7.25016845703125,-0.5040588974952698,-1.8316640853881836,0.04436640068888664
1761914298763224300,7.260224365234375,-0.5656506419181824,-1.8261380195617676,0.17773377895355225
1761914298773280300,7.2702802734375,-0.6503588557243347,-1.7980440855026245,0.27598416805267334
1761914298783337500,7.28033740234375,-0.732080340385437,-1.749049425125122,0.3425544202327728
1761914298793393400,7.290393310546875,-0.7965235114097595,-1.696601390838623,0.36923423409461975
1761914298803449300,7.300449462890625,-0.8429371118545532,-1.651550054550171,0.3574761152267456
1761914298813505500,7.310505615234375,-0.8831196427345276,-1.603356957435608,0.32453441619873047
1761914298823561500,7.3205615234375,-0.9243520498275757,-1.5547984838485718,0.26311472058296204
1761914298833617400,7.330617431640625,-0.9698111414909363,-1.492568850517273,0.19093427062034607
1761914298843673300,7.34067333984375,-1.0197161436080933,-1.4264819622039795,0.10159719735383987
1761914298853729300,7.350729248046875,-1.0693295001983643,-1.3708040714263916,0.0030330740846693516
1761914298863785200,7.36078515625,-1.1195836067199707,-1.298652172088623,-0.10093966126441956
1761914298873841400,7.37084130859375,-1.1685889959335327,-1.205649495124817,-0.21178841590881348
1761914298883897300,7.3808974609375,-1.2125316858291626,-1.0900131464004517,-0.332082599401474
1761914298893953300,7.390953369140625,-1.2491493225097656,-0.962729275226593,-0.4606435000896454
1761914298904009200,7.40100927734375,-1.2764616012573242,-0.8261938095092773,-0.5996341705322266
1761914298914065400,7.4110654296875,-1.2747364044189453,-0.6771742105484009,-0.721092939376831
1761914298924121300,7.421121337890625,-1.2422202825546265,-0.48808151483535767,-0.8059713244438171
1761914298934177300,7.43117724609375,-1.1790183782577515,-0.29018762707710266,-0.8403090834617615
1761914298944233500,7.4412333984375,-1.0931432247161865,-0.14633165299892426,-0.8357018232345581
1761914298954289400,7.451289306640625,-0.9913856983184814,-0.10283450037240982,-0.7787951231002808
1761914298964346400,7.461346435546875,-0.9036587476730347,-0.11425493657588959,-0.6848518252372742
1761914298974402300,7.47140234375,-0.8246201276779175,-0.1382308453321457,-0.5691564083099365
1761914298984458500,7.48145849609375,-0.7686021327972412,-0.1397150158882141,-0.4289252460002899
1761914298994514200,7.49151416015625,-0.7523954510688782,-0.11634045839309692,-0.30174440145492554
1761914299004570400,7.5015703125,-0.7750216722488403,-0.12793825566768646,-0.21214768290519714
1761914299014626300,7.511626220703125,-0.813371479511261,-0.20283380150794983,-0.1599465310573578
1761914299024682200,7.52168212890625,-0.8229095935821533,-0.3001081645488739,-0.1098703071475029
1761914299034738200,7.53173828125,-0.7893729209899902,-0.3608551323413849,-0.0382845364511013
1761914299044794400,7.54179443359375,-0.7352644205093384,-0.3919059932231903,0.03278564289212227
1761914299054850300,7.551850341796875,-0.6873171329498291,-0.41400304436683655,0.08231937140226364
1761914299064906200,7.56190625,-0.6512981653213501,-0.4655589163303375,0.08864624798297882
1761914299074962400,7.57196240234375,-0.6318756937980652,-0.5620654821395874,0.050100184977054596
1761914299085018400,7.582018310546875,-0.622482180595398,-0.6688600778579712,-0.019285812973976135
1761914299095074300,7.59207421875,-0.618130087852478,-0.7483088374137878,-0.09986986964941025
1761914299105130500,7.602130615234375,-0.6251767873764038,-0.8337388038635254,-0.18405692279338837
1761914299115186400,7.6121865234375,-0.6445752382278442,-0.9279385209083557,-0.2566152811050415
1761914299125242000,7.6222421875,-0.6811755895614624,-0.9774176478385925,-0.30995041131973267
1761914299135298300,7.63229833984375,-0.7181738615036011,-0.9350494146347046,-0.33575910329818726
1761914299145355300,7.642355224609375,-0.7424248456954956,-0.7981768250465393,-0.32116711139678955
1761914299155411200,7.6524111328125,-0.7166278958320618,-0.5954623222351074,-0.2748076021671295
1761914299165467100,7.662467041015625,-0.6416926383972168,-0.3512062430381775,-0.20088917016983032
1761914299175523300,7.6725234375,-0.5311560034751892,-0.13498738408088684,-0.11938604712486267
1761914299185579300,7.682579345703125,-0.38348960876464844,0.052013933658599854,-0.022786272689700127
1761914299195635200,7.69263525390625,-0.21726255118846893,0.18586760759353638,0.07885034382343292
1761914299205691400,7.70269140625,-0.06583094596862793,0.29256582260131836,0.18950414657592773
1761914299215747300,7.712747314453125,0.0431906133890152,0.3866734206676483,0.3034179210662842
1761914299225803300,7.72280322265625,0.08834237605333328,0.4544665813446045,0.40631234645843506
1761914299235859500,7.732859375,0.08364748954772949,0.46947747468948364,0.48942136764526367
1761914299245915400,7.742915283203125,0.058999937027692795,0.4357975423336029,0.557686448097229
1761914299255971300,7.752971435546875,0.024207601323723793,0.35245925188064575,0.6082547903060913
1761914299266027500,7.763027587890625,-0.019935358315706253,0.20855960249900818,0.6274950504302979
1761914299276083200,7.773083251953125,-0.07372801750898361,0.0008016114588826895,0.6159127354621887
1761914299286139100,7.78313916015625,-0.14290468394756317,-0.23646526038646698,0.5911197662353516
1761914299296195300,7.7931953125,-0.22412364184856415,-0.41560786962509155,0.5742670297622681
1761914299306251300,7.803251220703125,-0.31238800287246704,-0.48977795243263245,0.5737578272819519
1761914299316307200,7.81330712890625,-0.4166065454483032,-0.4707872271537781,0.5747772455215454
1761914299326364200,7.8233642578125,-0.542003870010376,-0.3920990824699402,0.5506391525268555
1761914299336420400,7.83342041015625,-0.6682747006416321,-0.3072907030582428,0.4960944354534149
1761914299346476300,7.843476318359375,-0.7796164155006409,-0.2345334142446518,0.4088652729988098
1761914299356532200,7.8535322265625,-0.8663902282714844,-0.17482800781726837,0.3115544319152832
1761914299366588400,7.86358837890625,-0.9321756362915039,-0.1228841096162796,0.20856386423110962
1761914299376644400,7.873644287109375,-0.9701608419418335,-0.07749585807323456,0.12565167248249054
1761914299386700300,7.8837001953125,-0.9867091774940491,-0.03810637444257736,0.059361327439546585
1761914299396756500,7.893756591796875,-0.9924701452255249,-0.010385529138147831,0.0033007217571139336
1761914299406812400,7.9038125,-0.9854817390441895,-0.0006988134700804949,-0.03867628797888756
1761914299416868400,7.913868408203125,-0.965350329875946,-0.0005544701125472784,-0.07806017994880676
1761914299426924300,7.92392431640625,-0.9378294944763184,-0.0038538603112101555,-0.09609031677246094
1761914299436980200,7.933980224609375,-0.9038432836532593,-0.020980115979909897,-0.10637011379003525
1761914299447036200,7.9440361328125,-0.8571881651878357,-0.056831859052181244,-0.10900983959436417
1761914299457092400,7.95409228515625,-0.7935919165611267,-0.07831265032291412,-0.09446898102760315
1761914299467148300,7.964148193359375,-0.7114288806915283,-0.07115539908409119,-0.0712459534406662
1761914299477204200,7.974204345703125,-0.6129696369171143,-0.03038799948990345,-0.038125280290842056
1761914299487260400,7.984260498046875,-0.49971768260002136,-0.0023584954906255007,-0.00012303804396651685
1761914299497316400,7.99431640625,-0.3712310791015625,0.006548180244863033,0.03870531916618347
1761914299507370200,8.004370361328125,-0.23277652263641357,-0.0005792375304736197,0.07559435814619064
1761914299517426200,8.01442626953125,-0.10763484984636307,0.011505388654768467,0.11284905672073364
1761914299527482400,8.024482421875,-0.016208797693252563,0.043364517390728,0.13529017567634583
1761914299537538300,8.034538330078124,0.041187915951013565,0.0895722284913063,0.13252794742584229
1761914299547594200,8.04459423828125,0.07268752157688141,0.135780468583107,0.1023186519742012
1761914299557650400,8.054650390625,0.08588667958974838,0.18210561573505402,0.054912518709897995
1761914299567706400,8.064706298828124,0.08232975751161575,0.20305484533309937,-0.01016981340944767
1761914299577762300,8.07476220703125,0.06825894862413406,0.21296846866607666,-0.07867270708084106
1761914299587818500,8.084818603515625,0.04761279374361038,0.21400123834609985,-0.14654603600502014
1761914299597874400,8.09487451171875,0.029507825151085854,0.20757849514484406,-0.20767489075660706
1761914299607930400,8.104930419921875,0.006154565140604973,0.18906685709953308,-0.25478702783584595
1761914299617986600,8.114986572265625,-0.020684238523244858,0.13804176449775696,-0.29745805263519287
1761914299628042200,8.125042236328126,-0.06085216626524925,0.054786283522844315,-0.340634822845459
1761914299638098200,8.13509814453125,-0.10881729423999786,-0.04926528409123421,-0.3820948898792267
1761914299648154400,8.145154296875,-0.1675272136926651,-0.1837541162967682,-0.429998517036438
1761914299658210300,8.155210205078125,-0.2383316159248352,-0.3412878215312958,-0.4803101420402527
1761914299668266200,8.165266357421874,-0.3264255225658417,-0.49081820249557495,-0.5171738862991333
1761914299678322400,8.175322509765625,-0.4288693368434906,-0.5717964172363281,-0.5210333466529846
1761914299688378400,8.18537841796875,-0.5234957337379456,-0.5511084198951721,-0.47911280393600464
1761914299698436000,8.19543603515625,-0.6144424080848694,-0.4549669921398163,-0.40573206543922424
1761914299708492000,8.205491943359375,-0.6850297451019287,-0.34393101930618286,-0.3124162256717682
1761914299718548000,8.2155478515625,-0.7092685103416443,-0.23783093690872192,-0.1960800290107727
1761914299728604200,8.225604248046874,-0.7071108222007751,-0.13102805614471436,-0.06485356390476227
1761914299738659800,8.235659912109375,-0.6867085695266724,-0.03820757195353508,0.07455066591501236
1761914299748715800,8.2457158203125,-0.6656816005706787,0.003022954100742936,0.22090095281600952
1761914299758772000,8.25577197265625,-0.6442069411277771,0.018160894513130188,0.3758593797683716
1761914299768828000,8.265827880859375,-0.6330549716949463,0.01130698248744011,0.5347936153411865
1761914299778883800,8.2758837890625,-0.6444210410118103,-0.05751708894968033,0.6917669773101807
1761914299788940000,8.28593994140625,-0.6868436336517334,-0.16472584009170532,0.8374578952789307
1761914299798996000,8.295995849609374,-0.787817120552063,-0.3450929522514343,0.952125608921051
1761914299809052000,8.306052001953125,-0.9652315974235535,-0.5175800323486328,1.0385981798171997
1761914299819108000,8.316108154296876,-1.098400592803955,-0.3791257441043854,1.1639337539672852
1761914299829164000,8.3261640625,-1.1232483386993408,-0.3283006548881531,1.2673916816711426
1761914299839220000,8.336219970703125,-1.1176061630249023,-0.5968798995018005,1.276479721069336
1761914299849276200,8.346276123046875,-1.144319772720337,-0.8547990918159485,1.2366833686828613
1761914299859331800,8.356331787109376,-1.199748158454895,-1.03394615650177,1.1565093994140625
1761914299869387800,8.3663876953125,-1.2517200708389282,-1.1896960735321045,1.0423905849456787
1761914299879444000,8.37644384765625,-1.2852129936218262,-1.3086967468261719,0.9013990759849548
1761914299889501000,8.3865009765625,-1.2941402196884155,-1.397509217262268,0.7500708103179932
1761914299899556900,8.396556884765625,-1.267204761505127,-1.4193391799926758,0.6228273510932922
1761914299909612800,8.40661279296875,-1.2037160396575928,-1.3731154203414917,0.5367864966392517
1761914299919669000,8.4166689453125,-1.1155158281326294,-1.262144684791565,0.506280779838562
1761914299929725000,8.426724853515625,-1.0046908855438232,-1.0577452182769775,0.5372408032417297
1761914299939780900,8.43678076171875,-0.8699897527694702,-0.7332124710083008,0.6445441246032715
1761914299949837000,8.446837158203126,-0.7220982909202576,-0.33419743180274963,0.8078566193580627
1761914299959893000,8.45689306640625,-0.5994256138801575,0.02407258003950119,0.9768748879432678
1761914299969949000,8.466948974609375,-0.5250187516212463,0.21779011189937592,1.1007885932922363
1761914299980005000,8.477005126953125,-0.4760139286518097,0.2569958567619324,1.1741530895233154
1761914299990061000,8.48706103515625,-0.4593156576156616,0.17124205827713013,1.2099076509475708
1761914300000117000,8.497116943359375,-0.47963184118270874,-0.026692597195506096,1.203249216079712
1761914300010173200,8.507173095703125,-0.5360841751098633,-0.24677756428718567,1.1879669427871704
1761914300020228900,8.517228759765626,-0.6114697456359863,-0.4562138617038727,1.1661410331726074
1761914300030284800,8.527284912109375,-0.7047888040542603,-0.6618386507034302,1.1378449201583862
1761914300040341000,8.537341064453125,-0.801114022731781,-0.8714478015899658,1.1004197597503662
1761914300050397000,8.54739697265625,-0.9044321179389954,-1.0804662704467773,1.0336929559707642
1761914300060452900,8.557452880859374,-1.0124379396438599,-1.2625716924667358,0.939419150352478
1761914300070513000,8.567512939453126,-1.1145414113998413,-1.3854382038116455,0.8073772192001343
1761914300080569000,8.577569091796875,-1.2042031288146973,-1.4470692873001099,0.6500205993652344
1761914300090625000,8.587625,-1.2671842575073242,-1.4625848531723022,0.4792845845222473
1761914300100681000,8.597680908203126,-1.302615761756897,-1.4721165895462036,0.29653045535087585
1761914300110737000,8.60773681640625,-1.3051049709320068,-1.467825174331665,0.11677268892526627
1761914300120792800,8.617792724609375,-1.2629631757736206,-1.4412181377410889,-0.038295723497867584
1761914300130848800,8.627848876953125,-1.1648615598678589,-1.4007545709609985,-0.15307849645614624
1761914300140905000,8.637905029296874,-1.0068155527114868,-1.3296010494232178,-0.21452507376670837
1761914300150961000,8.6479609375,-0.8112593293190002,-1.2343688011169434,-0.23288890719413757
1761914300161016800,8.658016845703125,-0.6103794574737549,-1.1126141548156738,-0.21649181842803955
1761914300171073000,8.668072998046876,-0.44109830260276794,-0.9742615222930908,-0.17833033204078674
1761914300181129000,8.67812890625,-0.3401392102241516,-0.8415905833244324,-0.14858414232730865
1761914300191185000,8.688184814453125,-0.294985294342041,-0.7406983375549316,-0.13344940543174744
1761914300201241000,8.698240966796876,-0.2979944050312042,-0.6827247738838196,-0.13718181848526
1761914300211297000,8.708297119140624,-0.36099761724472046,-0.7184633612632751,-0.1646411418914795
1761914300221353000,8.71835302734375,-0.47570687532424927,-0.8786676526069641,-0.2093667984008789
1761914300231409200,8.7284091796875,-0.6107794642448425,-1.0805294513702393,-0.22262774407863617
1761914300241464800,8.73846484375,-0.7410724759101868,-1.2128440141677856,-0.18923702836036682
1761914300251520800,8.748520751953125,-0.849311113357544,-1.3179267644882202,-0.1322145015001297
1761914300261578000,8.758577880859375,-0.932031512260437,-1.404383897781372,-0.05535060539841652
1761914300271634000,8.768634033203124,-0.9888788461685181,-1.4585562944412231,0.024114923551678658
1761914300281689900,8.77868994140625,-1.0370410680770874,-1.4772405624389648,0.10609527677297592
1761914300291745800,8.788745849609375,-1.0783181190490723,-1.4693492650985718,0.1888335645198822
1761914300301802000,8.798802001953124,-1.1152418851852417,-1.4551820755004883,0.27035319805145264
1761914300311858000,8.80885791015625,-1.1369247436523438,-1.4284090995788574,0.35917919874191284
1761914300321913900,8.818913818359375,-1.149976372718811,-1.3911207914352417,0.437846839427948
1761914300331970000,8.828969970703126,-1.1537386178970337,-1.395209550857544,0.478677898645401
1761914300342026000,8.83902587890625,-1.1497430801391602,-1.450864315032959,0.4804377257823944
1761914300352082000,8.84908203125,-1.134960651397705,-1.5459452867507935,0.44351404905319214
1761914300362138000,8.85913818359375,-1.1130902767181396,-1.6554430723190308,0.38624250888824463
1761914300372194000,8.869194091796874,-1.0914089679718018,-1.7547533512115479,0.3301515579223633
1761914300382250000,8.87925,-1.083848237991333,-1.8164124488830566,0.2801206111907959
1761914300392306000,8.889305908203125,-1.0954912900924683,-1.8256502151489258,0.23844319581985474
1761914300402361900,8.89936181640625,-1.125844120979309,-1.7939090728759766,0.19302219152450562
1761914300412417800,8.909417724609375,-1.1575053930282593,-1.7420474290847778,0.13830487430095673
1761914300422474000,8.919473876953125,-1.1841727495193481,-1.7050340175628662,0.07143183797597885
1761914300432530000,8.929530029296876,-1.2115473747253418,-1.6602764129638672,0.0078584561124444
1761914300442585900,8.9395859375,-1.227470874786377,-1.610084891319275,-0.04495123028755188
1761914300452642800,8.949642822265625,-1.2386692762374878,-1.556967854499817,-0.08492287993431091
1761914300462699000,8.959698974609376,-1.2392535209655762,-1.4924429655075073,-0.12094373255968094
1761914300472755000,8.9697548828125,-1.2301104068756104,-1.4416815042495728,-0.1445894092321396
1761914300482811000,8.979810791015625,-1.2166824340820312,-1.3962305784225464,-0.1552969068288803
1761914300492867000,8.9898671875,-1.2094216346740723,-1.3336282968521118,-0.1499040126800537
1761914300502923000,8.999923095703124,-1.2072460651397705,-1.2449103593826294,-0.12692146003246307
1761914300512979000,9.00997900390625,-1.2118685245513916,-1.167313575744629,-0.10511496663093567
1761914300523035100,9.02003515625,-1.2211107015609741,-1.1299827098846436,-0.09184923022985458
1761914300533091000,9.030091064453124,-1.2357525825500488,-1.1450958251953125,-0.0927634909749031
1761914300543146800,9.040146728515625,-1.2432186603546143,-1.2325130701065063,-0.11450154334306717
1761914300553203000,9.050202880859375,-1.236127495765686,-1.3694645166397095,-0.1341274380683899
1761914300563259000,9.0602587890625,-1.215728759765625,-1.5088142156600952,-0.14725522696971893
1761914300573314800,9.070314697265625,-1.1927731037139893,-1.6224805116653442,-0.1416681855916977
1761914300583371000,9.08037109375,-1.178576111793518,-1.674504280090332,-0.12707139551639557
1761914300593427000,9.090427001953126,-1.1717751026153564,-1.661879062652588,-0.09752016514539719
1761914300603483000,9.10048291015625,-1.1662366390228271,-1.6185294389724731,-0.05470186099410057
1761914300613539000,9.1105390625,-1.2001365423202515,-1.603119134902954,-0.012119779363274574
1761914300623595000,9.120594970703126,-1.2681221961975098,-1.5828697681427002,0.043588489294052124
1761914300633651000,9.13065087890625,-1.3646913766860962,-1.4963966608047485,0.11251536011695862
1761914300643707100,9.14070703125,-1.4514672756195068,-1.3267983198165894,0.20107585191726685
1761914300653764000,9.15076416015625,-1.5179359912872314,-1.1185872554779053,0.3084776699542999
1761914300663820000,9.160820068359374,-1.5571457147598267,-0.9199522137641907,0.4193384051322937
1761914300673876000,9.1708759765625,-1.562623381614685,-0.7767308950424194,0.5157171487808228
1761914300683932200,9.18093212890625,-1.5493096113204956,-0.7170092463493347,0.5800705552101135
1761914300693991400,9.190991455078125,-1.527534008026123,-0.7010347843170166,0.5994778275489807
1761914300704047400,9.20104736328125,-1.5091875791549683,-0.7025301456451416,0.5911061763763428
1761914300714103600,9.211103515625,-1.4964531660079956,-0.6903582215309143,0.56538325548172
1761914300724159500,9.221159423828125,-1.5001267194747925,-0.6890031695365906,0.5158835649490356
1761914300734215400,9.23121533203125,-1.5228378772735596,-0.7247055172920227,0.4482472836971283
1761914300744271600,9.241271728515626,-1.5573267936706543,-0.7831217050552368,0.359091579914093
1761914300754327600,9.25132763671875,-1.591793179512024,-0.8463041186332703,0.24927879869937897
1761914300764383500,9.261383544921875,-1.6140276193618774,-0.9006890654563904,0.1260540783405304
1761914300774439700,9.271439697265626,-1.6274782419204712,-0.9387125968933105,-0.007152451667934656
1761914300784495400,9.281495361328124,-1.6253732442855835,-0.9610879421234131,-0.14153502881526947
1761914300794551300,9.29155126953125,-1.6086333990097046,-0.983735203742981,-0.2829568684101105
1761914300804607500,9.301607421875,-1.5574967861175537,-1.0329983234405518,-0.4109033942222595
1761914300814663400,9.311663330078124,-1.4736943244934082,-1.1172642707824707,-0.5233662724494934
1761914300824719400,9.32171923828125,-1.374042272567749,-1.2238506078720093,-0.6061607599258423
1761914300834775600,9.331775634765625,-1.2791521549224854,-1.3065105676651,-0.648693859577179
1761914300844832500,9.34183251953125,-1.2183336019515991,-1.3306646347045898,-0.6541988849639893
1761914300854888400,9.351888427734375,-1.200539469718933,-1.275785207748413,-0.632262647151947
1761914300864944400,9.3619443359375,-1.2315242290496826,-1.1578636169433594,-0.5883409976959229
1761914300875000600,9.37200048828125,-1.296644926071167,-0.9831860661506653,-0.5328812003135681
1761914300885056500,9.382056396484375,-1.3726201057434082,-0.8102558255195618,-0.47234010696411133
1761914300895112400,9.392112548828125,-1.4594471454620361,-0.6915523409843445,-0.4168376922607422
1761914300905168600,9.402168701171876,-1.529010534286499,-0.6423496603965759,-0.3526504635810852
1761914300915224600,9.412224609375,-1.5673909187316895,-0.6198928356170654,-0.2719612121582031
1761914300925280500,9.422280517578125,-1.5806885957717896,-0.5862429738044739,-0.16761483252048492
1761914300935336400,9.43233642578125,-1.581404447555542,-0.5172825455665588,-0.05396416410803795
1761914300945392400,9.442392333984374,-1.564128041267395,-0.4490070939064026,0.0626860186457634
1761914300955448300,9.4524482421875,-1.5191013813018799,-0.399288535118103,0.16545873880386353
1761914300965504500,9.46250439453125,-1.4522302150726318,-0.3908332586288452,0.24281583726406097
1761914300975560400,9.472560546875,-1.3673685789108276,-0.4379890561103821,0.28796735405921936
1761914300985616400,9.482616455078125,-1.2930821180343628,-0.5118518471717834,0.30855438113212585
1761914300995672600,9.492672607421875,-1.2432328462600708,-0.5778436064720154,0.2977249026298523
1761914301005728500,9.502728515625,-1.2134230136871338,-0.6384731531143188,0.26781973242759705
1761914301015784400,9.512784423828125,-1.1632506847381592,-0.6688779592514038,0.23188675940036774
1761914301025840600,9.522840576171875,-1.0935003757476807,-0.6695109605789185,0.2002129852771759
1761914301035896600,9.532896484375,-1.0021363496780396,-0.6768549084663391,0.17149078845977783
1761914301045953500,9.54295361328125,-0.9031564593315125,-0.7026335000991821,0.13534823060035706
1761914301056009500,9.553009521484375,-0.8028855323791504,-0.738356351852417,0.09553291648626328
1761914301066065700,9.563065673828126,-0.6969742774963379,-0.7671490907669067,0.05631200969219208
1761914301076121600,9.57312158203125,-0.5978381037712097,-0.8070624470710754,0.023154854774475098
1761914301086177300,9.58317724609375,-0.5151005983352661,-0.8500685095787048,-0.0031590417493134737
1761914301096233500,9.5932333984375,-0.45343565940856934,-0.9077789187431335,-0.01810443587601185
1761914301106289400,9.603289306640624,-0.4051983654499054,-0.9735193252563477,-0.017525464296340942
1761914301116345300,9.613345458984375,-0.36180827021598816,-1.0248855352401733,0.0003802994033321738
1761914301126401500,9.623401611328125,-0.33027297258377075,-1.0410165786743164,0.04247448965907097
1761914301136457500,9.63345751953125,-0.31796011328697205,-0.9909859299659729,0.10539113730192184
1761914301146513400,9.643513427734375,-0.33288902044296265,-0.8863820433616638,0.1912035197019577
1761914301156569600,9.653569580078125,-0.36624109745025635,-0.7631725072860718,0.2690029740333557
1761914301166625500,9.66362548828125,-0.41484272480010986,-0.6732755899429321,0.34096184372901917
1761914301176681500,9.673681396484374,-0.4708966910839081,-0.6563352346420288,0.3940778076648712
1761914301186737700,9.683737548828125,-0.5340375900268555,-0.7272533774375916,0.43120652437210083
1761914301196793600,9.693793701171876,-0.5943232774734497,-0.8495742082595825,0.45800885558128357
1761914301206849500,9.703849609375,-0.6375482678413391,-0.9871395230293274,0.47946247458457947
1761914301216905500,9.713905517578125,-0.6640070080757141,-1.0923080444335938,0.4964406490325928
1761914301226961400,9.72396142578125,-0.694730281829834,-1.1696805953979492,0.49853816628456116
1761914301237017300,9.734017333984376,-0.7254261374473572,-1.2166041135787964,0.4948273003101349
1761914301247073500,9.744073486328125,-0.7500731945037842,-1.2237025499343872,0.4895012676715851
1761914301257130500,9.754130615234375,-0.7602195739746094,-1.2287482023239136,0.4848947823047638
1761914301267186400,9.7641865234375,-0.7704508900642395,-1.2148486375808716,0.4763883948326111
1761914301277242400,9.774242431640625,-0.7764438390731812,-1.1581839323043823,0.456296443939209
1761914301287298600,9.784298583984375,-0.7930265069007874,-1.0778456926345825,0.40347370505332947
1761914301297354500,9.7943544921875,-0.8046413660049438,-0.9863834381103516,0.32048559188842773
1761914301307410400,9.804410400390625,-0.8129927515983582,-0.9010898470878601,0.20983925461769104
1761914301317466600,9.814466552734375,-0.8126489520072937,-0.8327326774597168,0.09088996052742004
1761914301327522600,9.8245224609375,-0.7910783886909485,-0.7630563378334045,-0.007357514929026365
1761914301337578500,9.83457861328125,-0.7531206607818604,-0.6697685122489929,-0.059848152101039886
1761914301347634400,9.844634521484375,-0.7149583697319031,-0.5468071699142456,-0.06359522044658661
1761914301357690600,9.854690673828125,-0.692261815071106,-0.41162481904029846,-0.05125280097126961
1761914301367746300,9.864746337890624,-0.689260721206665,-0.3006008565425873,-0.03888721019029617
1761914301377802500,9.874802490234375,-0.6964126229286194,-0.24097107350826263,-0.03293105214834213
1761914301387858400,9.8848583984375,-0.6889792084693909,-0.23064066469669342,-0.033169936388731
1761914301397914400,9.894914306640626,-0.6606602072715759,-0.2619919180870056,-0.030435403808951378
1761914301407970300,9.90497021484375,-0.6307358741760254,-0.3289792239665985,-0.017676997929811478
1761914301418026500,9.915026611328125,-0.606558620929718,-0.3856499493122101,0.025783926248550415
1761914301428082400,9.92508251953125,-0.591315746307373,-0.4167189300060272,0.09850393980741501
1761914301438138400,9.935138427734374,-0.5908374786376953,-0.4327964186668396,0.1846710443496704
1761914301448194600,9.945194580078125,-0.6001443862915039,-0.44311484694480896,0.2747926712036133
1761914301458250500,9.95525048828125,-0.6077623963356018,-0.4332302510738373,0.36746376752853394
1761914301468307500,9.965307373046874,-0.6193940043449402,-0.4207528233528137,0.4400383532047272
1761914301478363400,9.97536328125,-0.6283936500549316,-0.4195626378059387,0.4914515018463135
1761914301488419600,9.985419677734376,-0.6276950836181641,-0.405229777097702,0.5353699326515198
1761914301498475500,9.9954755859375,-0.6159515976905823,-0.3579605519771576,0.578683078289032
1761914301508531500,10.005531494140625,-0.6020901203155518,-0.3032892942428589,0.6083011627197266
1761914301518587400,10.01558740234375,-0.5702956914901733,-0.2186114341020584,0.6423014402389526
1761914301528643300,10.025643310546876,-0.5253868103027344,-0.0960940420627594,0.6780245900154114
1761914301538699300,10.03569921875,-0.4651690125465393,0.003081277245655656,0.7176020741462708
1761914301548755500,10.04575537109375,-0.399997740983963,0.060928329825401306,0.7477208375930786
1761914301558811400,10.055811279296876,-0.3393391966819763,0.08963268250226974,0.7662950158119202
1761914301568867300,10.065867431640624,-0.27879196405410767,0.09416777640581131,0.7723268270492554
1761914301578923500,10.075923583984375,-0.20657341182231903,0.052200354635715485,0.7522822618484497
1761914301588979500,10.0859794921875,-0.14578063786029816,-0.050158776342868805,0.7048071622848511
1761914301599035400,10.096035400390624,-0.10291572660207748,-0.2073071151971817,0.6276295781135559
1761914301609091600,10.106091552734375,-0.08598920702934265,-0.384156733751297,0.5345603227615356
1761914301619147500,10.1161474609375,-0.08579053729772568,-0.5352913737297058,0.44098591804504395
1761914301629203500,10.126203369140624,-0.09248199313879013,-0.6217378377914429,0.35440361499786377
1761914301639259600,10.136259765625,-0.10603056102991104,-0.6336621642112732,0.26553046703338623
1761914301649315300,10.1463154296875,-0.12156637758016586,-0.5573402047157288,0.17488420009613037
1761914301659371300,10.156371337890626,-0.13177667558193207,-0.41191405057907104,0.07152744382619858
1761914301669427500,10.166427490234375,-0.12430783361196518,-0.2179190069437027,-0.019032280892133713
1761914301679484400,10.176484375,-0.07735071331262589,-0.019665846601128578,-0.08519186079502106
1761914301689537000,10.186537109375,-0.0013315805699676275,0.1438988447189331,-0.12269848585128784
1761914301699593000,10.196593017578126,0.08838152885437012,0.22341524064540863,-0.13486194610595703
1761914301709649200,10.206649169921874,0.18261028826236725,0.2409055531024933,-0.1163945198059082
1761914301719705000,10.216705078125,0.27201366424560547,0.23890605568885803,-0.04204625263810158
1761914301729761000,10.226760986328125,0.3590817153453827,0.2615370750427246,0.08195371925830841
1761914301739817000,10.23681689453125,0.42069342732429504,0.3108082115650177,0.23998171091079712
1761914301749873000,10.246872802734375,0.46187976002693176,0.3544824421405792,0.40961575508117676
1761914301759928800,10.2569287109375,0.4664023220539093,0.38583797216415405,0.5709375143051147
1761914301769985000,10.266985107421876,0.43587106466293335,0.39869067072868347,0.7120315432548523
1761914301780041000,10.277041015625,0.3745672106742859,0.3793414533138275,0.8054112792015076
1761914301790097000,10.287096923828125,0.30112388730049133,0.3030512034893036,0.84309983253479
1761914301800153000,10.297153076171876,0.22676843404769897,0.18791557848453522,0.833545982837677
1761914301810209000,10.307208984375,0.15381751954555511,0.05504141375422478,0.7976627945899963
1761914301820265000,10.317264892578125,0.08364243060350418,-0.06118745729327202,0.7457423806190491
1761914301830321200,10.327321044921876,0.01543328445404768,-0.13607262074947357,0.6878319382667542
1761914301840377000,10.337377197265624,-0.023546071723103523,-0.1681501269340515,0.6277155876159668
1761914301850433000,10.34743310546875,-0.028655080124735832,-0.15860696136951447,0.5689523816108704
1761914301860489000,10.357489013671875,-0.003418167121708393,-0.11318061500787735,0.5072908997535706
1761914301870545000,10.367544921875,0.025982864201068878,-0.04875582084059715,0.4395217001438141
1761914301880600800,10.377600830078125,0.040399353951215744,0.027000991627573967,0.37284228205680847
1761914301890657000,10.387656982421875,0.04535629600286484,0.10848519951105118,0.30263417959213257
1761914301900714000,10.3977138671875,0.044191163033246994,0.19229380786418915,0.23683038353919983
1761914301910770000,10.40777001953125,0.05163922533392906,0.28122130036354065,0.17964006960391998
1761914301920825900,10.417825927734375,0.08057233691215515,0.3353676199913025,0.12239595502614975
1761914301930882000,10.427882080078126,0.12909327447414398,0.3417200446128845,0.08450450003147125
1761914301940938000,10.43793798828125,0.19456015527248383,0.31476831436157227,0.06773430854082108
1761914301950994000,10.447993896484375,0.25692713260650635,0.3050943911075592,0.08205997943878174
1761914301961050000,10.458050048828126,0.3130716383457184,0.306937575340271,0.11498463898897171
1761914301971106000,10.46810595703125,0.35339054465293884,0.2875193953514099,0.14741449058055878
1761914301981162000,10.478161865234375,0.38560521602630615,0.26894065737724304,0.18080998957157135
1761914301991218200,10.48821826171875,0.3944852650165558,0.23778192698955536,0.20322714745998383
1761914302001274000,10.498274169921874,0.38277533650398254,0.19648829102516174,0.20997880399227142
1761914302011329800,10.508329833984375,0.35811978578567505,0.16304750740528107,0.20621202886104584
1761914302021386000,10.518385986328125,0.3230685889720917,0.1325916051864624,0.17968879640102386
1761914302031442000,10.52844189453125,0.2868690490722656,0.08482460677623749,0.1322384625673294
1761914302041497900,10.538497802734375,0.2519667148590088,0.022240590304136276,0.08412633091211319
1761914302051554000,10.548553955078125,0.22500941157341003,-0.022549517452716827,0.036493029445409775
1761914302061610000,10.55860986328125,0.20871485769748688,-0.014134461060166359,0.010635334067046642
1761914302071666000,10.568666015625,0.21381348371505737,0.029380260035395622,0.002469815546646714
1761914302081722000,10.57872216796875,0.22914743423461914,0.09021884202957153,0.008024370297789574
1761914302091778000,10.588778076171875,0.2539758086204529,0.14795005321502686,0.0259274709969759
1761914302101834000,10.598833984375,0.27217239141464233,0.19721266627311707,0.05811310559511185
1761914302111890200,10.60889013671875,0.29463404417037964,0.21298018097877502,0.08297131210565567
1761914302121946000,10.618946044921875,0.3082648813724518,0.19655567407608032,0.10098253935575485
1761914302132003000,10.629003173828124,0.3272942304611206,0.1470475047826767,0.11626535654067993
1761914302142059000,10.63905908203125,0.34222206473350525,0.09609510749578476,0.1368103176355362
1761914302152115200,10.649115234375,0.3432164788246155,0.059126172214746475,0.16234230995178223
1761914302162171100,10.659171142578124,0.3245490491390228,0.0645371824502945,0.19520704448223114
1761914302172226800,10.669226806640625,0.30176010727882385,0.09290304034948349,0.21846681833267212
1761914302182283000,10.679282958984375,0.2930329442024231,0.15321777760982513,0.23258797824382782
1761914302192339000,10.6893388671875,0.3057391345500946,0.23963496088981628,0.2347182333469391
1761914302202395000,10.699394775390624,0.3295571208000183,0.350612074136734,0.2171216607093811
1761914302212451000,10.709451171875,0.37130191922187805,0.5034647583961487,0.1887211799621582
1761914302222507000,10.719507080078126,0.4055304527282715,0.6551751494407654,0.14833620190620422
1761914302232563000,10.72956298828125,0.4297250211238861,0.7396887540817261,0.07756803184747696
1761914302242619100,10.739619140625,0.44101014733314514,0.7600310444831848,-0.01618722639977932
1761914302252675000,10.749675048828125,0.4272935390472412,0.6772629022598267,-0.11903157830238342
1761914302262731000,10.75973095703125,0.30902016162872314,0.31186068058013916,-0.13693174719810486
1761914302272787200,10.769787109375,0.22304026782512665,-0.17791913449764252,-0.20966561138629913
1761914302282843100,10.779843017578125,0.19203494489192963,-0.36407995223999023,-0.24603480100631714
1761914302292898800,10.78989892578125,0.2164263129234314,-0.46336260437965393,-0.2506263554096222
1761914302302955000,10.799955078125,0.18611927330493927,-0.5062557458877563,-0.21267658472061157
