time,seconds_elapsed,z,y,x
1761914906915014400,0.119014404296875,-0.11860717833042145,-0.38582026958465576,-0.2558993101119995
1761914906925069600,0.129069580078125,-0.1488785445690155,-0.39994755387306213,-0.3127466142177582
1761914906935124500,0.13912451171875,-0.165007084608078,-0.35453274846076965,-0.3580472767353058
1761914906945178600,0.1491787109375,-0.1627170294523239,-0.2193901240825653,-0.3910803198814392
1761914906955233500,0.159233642578125,-0.1708788424730301,-0.03904995322227478,-0.39472028613090515
1761914906965288400,0.169288330078125,-0.2055092602968216,0.0947219580411911,-0.3519800007343292
1761914906975343400,0.17934326171875,-0.24387261271476746,0.165849968791008,-0.26092401146888733
1761914906985398500,0.1893984375,-0.2487049251794815,0.2471509426832199,-0.11973065137863159
1761914906995452400,0.199452392578125,-0.18242044746875763,0.3310556709766388,0.02777964062988758
1761914907005507600,0.209507568359375,-0.028644204139709473,0.3021785020828247,0.12866418063640594
1761914907015562500,0.2195625,0.18414101004600525,0.12544187903404236,0.181087464094162
1761914907025617400,0.229617431640625,0.3489219844341278,-0.10257690399885178,0.23435547947883606
1761914907035671600,0.239671630859375,0.32588595151901245,-0.3819192051887512,0.2639538645744324
1761914907045726500,0.2497265625,0.05152416601777077,-0.797071099281311,0.2456691414117813
1761914907055781400,0.259781494140625,-0.3681751489639282,-1.178846836090088,0.24566145241260529
1761914907065836500,0.26983642578125,-0.7263559103012085,-1.3388862609863281,0.329533189535141
1761914907075890400,0.279890380859375,-0.9080923199653625,-1.198287010192871,0.4988783597946167
1761914907085945300,0.2899453125,-0.9484003186225891,-0.8239926695823669,0.6703971028327942
1761914907096000500,0.30000048828125,-0.8935352563858032,-0.23772883415222168,0.6903518438339233
1761914907106055400,0.310055419921875,-0.5989906787872314,-0.2813098728656769,0.4159325659275055
1761914907116109300,0.320109375,-0.2509438693523407,-0.2537807822227478,0.08544135838747025
1761914907126164500,0.33016455078125,0.0625637099146843,-0.17119644582271576,-0.1832050085067749
1761914907136219400,0.340219482421875,0.3186708390712738,-0.1172911748290062,-0.3470689058303833
1761914907146274600,0.350274658203125,0.5060614943504333,-0.20462262630462646,-0.43059787154197693
1761914907156328400,0.360328369140625,0.6051928997039795,-0.42879533767700195,-0.4689532220363617
1761914907166383600,0.370383544921875,0.6024152636528015,-0.7572973370552063,-0.43461522459983826
1761914907176438500,0.3804384765625,0.550800085067749,-1.111174464225769,-0.2922077178955078
1761914907186493400,0.390493408203125,0.49809718132019043,-1.4080243110656738,-0.048828624188899994
1761914907196547600,0.400547607421875,0.4313947558403015,-1.5722689628601074,0.2750631272792816
1761914907206602500,0.4106025390625,0.3243449926376343,-1.5393762588500977,0.6091827750205994
1761914907216657400,0.420657470703125,0.23695649206638336,-1.3356664180755615,0.8324549794197083
1761914907226712600,0.430712646484375,0.23751574754714966,-1.06574285030365,0.8283129930496216
1761914907236766500,0.440766357421875,0.30072036385536194,-0.7678434252738953,0.5702245831489563
1761914907246821400,0.4508212890625,0.3582797944545746,-0.5066152811050415,0.09615176916122437
1761914907256876500,0.46087646484375,0.40349650382995605,-0.31793150305747986,-0.4837707579135895
1761914907266931500,0.470931396484375,0.4205377995967865,-0.167103111743927,-0.9801642298698425
1761914907276985300,0.4809853515625,0.38246819376945496,0.006662303581833839,-1.257955551147461
1761914907287040500,0.49104052734375,0.2914370894432068,0.1642889529466629,-1.3090181350708008
1761914907297095400,0.501095458984375,0.1786925494670868,0.31920015811920166,-1.1652443408966064
1761914907307150300,0.511150390625,0.10319247096776962,0.5184692740440369,-0.8703192472457886
1761914907317204000,0.521203857421875,0.08575157821178436,0.7091076970100403,-0.5106034278869629
1761914907327259100,0.531259033203125,0.10466668009757996,0.821643590927124,-0.17808088660240173
1761914907337314000,0.54131396484375,0.12131994217634201,0.8531864285469055,0.07095291465520859
1761914907347369200,0.551369140625,0.10842651128768921,0.8283641338348389,0.2322041243314743
1761914907357424000,0.561424072265625,0.07539211958646774,0.7677239179611206,0.3475050926208496
1761914907367478000,0.57147802734375,0.02236192487180233,0.6526921391487122,0.4265975058078766
1761914907377533200,0.581533203125,-0.04547016695141792,0.5162409543991089,0.4956953823566437
1761914907387588000,0.591588134765625,-0.11817925423383713,0.38760045170783997,0.567054271697998
1761914907397643000,0.60164306640625,-0.1841667741537094,0.20704388618469238,0.629176676273346
1761914907407697200,0.611697265625,-0.273129403591156,0.033777832984924316,0.6774947047233582
1761914907417752000,0.621751953125,-0.3808863162994385,-0.10239338129758835,0.7036396861076355
1761914907427807000,0.631806884765625,-0.4939766526222229,-0.1856459230184555,0.6912860870361328
1761914907437862100,0.641862060546875,-0.6022182703018188,-0.24032557010650635,0.6410831809043884
1761914907447916000,0.651916015625,-0.6821479797363281,-0.2866251766681671,0.5559117794036865
1761914907457971200,0.66197119140625,-0.7197138667106628,-0.3732713460922241,0.44248563051223755
1761914907468026000,0.672026123046875,-0.7246734499931335,-0.49122676253318787,0.3271888792514801
1761914907478081000,0.6820810546875,-0.6986956596374512,-0.6662824153900146,0.2078554481267929
1761914907488135200,0.69213525390625,-0.5966761112213135,-0.7707134485244751,0.10532694309949875
1761914907498190000,0.702190185546875,-0.3278644382953644,-0.6909227967262268,0.09866218268871307
1761914907508245000,0.712244873046875,0.08447333425283432,-0.5289658904075623,0.1576267033815384
1761914907518300200,0.722300048828125,0.45809733867645264,-0.46996113657951355,0.2184879630804062
1761914907528354000,0.73235400390625,0.6059579253196716,-0.5936830639839172,0.20167915523052216
1761914907538409000,0.742408935546875,0.47756752371788025,-1.0488487482070923,0.07362872362136841
1761914907548464000,0.752464111328125,0.17833155393600464,-1.718125820159912,-0.06445910781621933
1761914907558519000,0.76251904296875,-0.12519486248493195,-2.2817606925964355,-0.0721287950873375
1761914907568573000,0.772572998046875,-0.39142975211143494,-2.5608925819396973,0.08188526332378387
1761914907578628000,0.782628173828125,-0.6000537276268005,-2.4393038749694824,0.36870646476745605
1761914907588683000,0.79268310546875,-0.7398867607116699,-1.9689933061599731,0.638142466545105
1761914907598738200,0.80273828125,-0.7740044593811035,-1.303239345550537,0.7221280336380005
1761914907608792000,0.8127919921875,-0.6385587453842163,-0.5729368925094604,0.5812108516693115
1761914907618847200,0.82284716796875,-0.34887591004371643,0.11953923851251602,0.30398648977279663
1761914907628902100,0.832902099609375,0.010529641062021255,0.6859768033027649,-0.005420916248112917
1761914907638957000,0.84295703125,0.3252124488353729,1.0194965600967407,-0.27901116013526917
1761914907649012000,0.853011962890625,0.5352018475532532,1.1202051639556885,-0.450611412525177
1761914907659066000,0.863066162109375,0.6397030353546143,1.0590660572052002,-0.48502352833747864
1761914907669121000,0.87312109375,0.6734029054641724,0.7377161979675293,-0.4673246741294861
1761914907679176200,0.88317626953125,0.6435520052909851,0.19688883423805237,-0.4400748312473297
1761914907689231000,0.893231201171875,0.5715816617012024,-0.3415333330631256,-0.3748156726360321
1761914907699285000,0.903284912109375,0.529231607913971,-0.6655927896499634,-0.260940283536911
1761914907709340200,0.913340087890625,0.5389987826347351,-0.6806186437606812,-0.14861001074314117
1761914907719395000,0.92339501953125,0.5581344962120056,-0.4273652732372284,-0.07546984404325485
1761914907729450000,0.933449951171875,0.5400454998016357,-0.022744279354810715,-0.0711376816034317
1761914907739504000,0.943504150390625,0.4675542414188385,0.44656890630722046,-0.14377844333648682
1761914907749559000,0.95355908203125,0.3733457326889038,0.8827334642410278,-0.2847936451435089
1761914907759614000,0.963614013671875,0.24635957181453705,1.2317923307418823,-0.46622535586357117
1761914907769669000,0.973669189453125,0.06870117038488388,1.474733591079712,-0.650225818157196
1761914907779723300,0.98372314453125,-0.1495744287967682,1.5964059829711914,-0.8048374056816101
1761914907789778000,0.99377783203125,-0.37531381845474243,1.5556178092956543,-0.922747015953064
1761914907799833000,1.0038330078125,-0.556545078754425,1.3607150316238403,-0.9855994582176208
1761914907809888000,1.013887939453125,-0.6679933071136475,1.0817065238952637,-0.9723353385925293
1761914907819942000,1.02394189453125,-0.705640971660614,0.8084186315536499,-0.873156726360321
1761914907829997000,1.0339970703125,-0.6906380653381348,0.6334212422370911,-0.6959113478660583
1761914907840052200,1.04405224609375,-0.6276520490646362,0.5918911099433899,-0.4720286726951599
1761914907850107100,1.054107177734375,-0.49840885400772095,0.6075409054756165,-0.23511973023414612
1761914907860161000,1.0641611328125,-0.3232172727584839,0.6343061327934265,-0.0016573434695601463
1761914907870216200,1.07421630859375,-0.1338939219713211,0.640559196472168,0.2154770940542221
1761914907880271000,1.08427099609375,0.013588940724730492,0.626620352268219,0.4152524471282959
1761914907890326000,1.094325927734375,0.11168701201677322,0.64888995885849,0.617508590221405
1761914907900380200,1.104380126953125,0.18428950011730194,0.6231759786605835,0.7937086224555969
1761914907910435000,1.11443505859375,0.20872320234775543,0.5218656063079834,0.9305596947669983
1761914907920490000,1.124489990234375,0.16987454891204834,0.3560308516025543,1.019919753074646
1761914907930545200,1.134545166015625,0.06279896199703217,0.1583278924226761,1.0724742412567139
1761914907940600000,1.14460009765625,-0.09899736940860748,-0.035954173654317856,1.074864149093628
1761914907950654000,1.154654052734375,-0.30069345235824585,-0.19808688759803772,1.0293139219284058
1761914907960709000,1.164709228515625,-0.5081683993339539,-0.3142435550689697,0.9393268823623657
1761914907970764300,1.174764404296875,-0.6844912171363831,-0.380680114030838,0.8099454641342163
1761914907980819000,1.18481884765625,-0.816315233707428,-0.45318135619163513,0.6287098526954651
1761914907990873000,1.194873046875,-0.9242510199546814,-0.5662527680397034,0.39403340220451355
1761914908000928300,1.20492822265625,-1.032576322555542,-0.6807223558425903,0.1259615421295166
1761914908010983000,1.21498291015625,-1.1012203693389893,-0.770397424697876,-0.13525886833667755
1761914908021038000,1.2250380859375,-1.0659059286117554,-0.8349795937538147,-0.2946407198905945
1761914908031092200,1.23509228515625,-0.9188528060913086,-0.7547481656074524,-0.26418399810791016
1761914908041147000,1.24514697265625,-0.7397456169128418,-0.5639483332633972,-0.08244018256664276
1761914908051202000,1.2552021484375,-0.6088104844093323,-0.35487475991249084,0.10352089256048203
1761914908061257200,1.26525732421875,-0.5860055685043335,-0.1296384483575821,0.22062090039253235
1761914908071311000,1.27531103515625,-0.6499097347259521,-0.07690200209617615,0.28076037764549255
1761914908081366000,1.285365966796875,-0.8394474387168884,-0.4830181300640106,0.44053107500076294
1761914908091421200,1.295421142578125,-1.1779805421829224,-1.1801247596740723,0.8601549863815308
1761914908101476000,1.30547607421875,-1.5677392482757568,-1.890546202659607,1.5682737827301025
1761914908111530000,1.315530029296875,-1.7786768674850464,-2.3370394706726074,2.374816656112671
1761914908121585200,1.325585205078125,-1.7212930917739868,-2.2719826698303223,2.8793716430664062
1761914908131640300,1.335640380859375,-1.3967794179916382,-1.7536916732788086,2.8595621585845947
1761914908141695000,1.345695068359375,-0.8201834559440613,-0.9040015339851379,2.358621597290039
1761914908151749000,1.3557490234375,-0.18778763711452484,-0.037114907056093216,1.5315923690795898
1761914908161804300,1.36580419921875,0.2792746424674988,0.6328138113021851,0.6199679374694824
1761914908171859000,1.37585888671875,0.5052787661552429,1.1681931018829346,-0.11926139891147614
1761914908181914000,1.3859140625,0.51115483045578,1.485977292060852,-0.6074538826942444
1761914908191968300,1.39596826171875,0.38925155997276306,1.4500027894973755,-0.9207977056503296
1761914908202023000,1.40602294921875,0.25174474716186523,1.0737987756729126,-1.1112184524536133
1761914908212078000,1.416078125,0.21055762469768524,0.5008646845817566,-1.1845057010650635
1761914908222133200,1.42613330078125,0.30809450149536133,-0.054525770246982574,-1.1136000156402588
1761914908232187100,1.436187255859375,0.4197072982788086,-0.4163675904273987,-0.9242333173751831
1761914908242242000,1.446241943359375,0.4320375919342041,-0.529338538646698,-0.6819949746131897
1761914908252297200,1.456297119140625,0.3375560939311981,-0.40492793917655945,-0.4450412690639496
1761914908262352000,1.466351806640625,0.1826312094926834,-0.10250593721866608,-0.265761137008667
1761914908272407000,1.476406982421875,0.048295505344867706,0.23533202707767487,-0.14654582738876343
1761914908282461200,1.486461181640625,-0.018684983253479004,0.48675113916397095,-0.09923627227544785
1761914908292516000,1.49651611328125,-0.02408214472234249,0.5973697900772095,-0.10258972644805908
1761914908302571000,1.506571044921875,-0.037996385246515274,0.5849102735519409,-0.1474248170852661
1761914908312626200,1.516626220703125,-0.09502638876438141,0.3981334865093231,-0.26670169830322266
1761914908322685200,1.526685302734375,-0.19538633525371552,0.11541628837585449,-0.41574758291244507
1761914908332740000,1.536739990234375,-0.32838621735572815,-0.11065146327018738,-0.5281574726104736
1761914908342795000,1.546794921875,-0.4388052821159363,-0.12201639264822006,-0.5629140138626099
1761914908352850200,1.55685009765625,-0.5023597478866577,0.09994316846132278,-0.496113657951355
1761914908362904000,1.566904052734375,-0.46288833022117615,0.48906973004341125,-0.33984237909317017
1761914908372959200,1.576959228515625,-0.3021164834499359,0.8183655738830566,-0.1666831225156784
1761914908383014100,1.58701416015625,-0.04324978590011597,0.9815446138381958,-0.0330524742603302
1761914908393069300,1.5970693359375,0.217512309551239,0.9063981771469116,0.03384266793727875
1761914908403123200,1.607123291015625,0.4246923327445984,0.6362490057945251,0.08398536592721939
1761914908413178000,1.61717822265625,0.572443962097168,0.28053003549575806,0.14987969398498535
1761914908423233300,1.6272333984375,0.654583752155304,-0.07942928373813629,0.2245059609413147
1761914908433288200,1.6372880859375,0.6524297595024109,-0.43526753783226013,0.29666057229042053
1761914908443342300,1.64734228515625,0.5710391998291016,-0.7290099859237671,0.3518384099006653
1761914908453397200,1.657397216796875,0.4215221405029297,-0.9225016832351685,0.3981377184391022
1761914908463452200,1.6674521484375,0.22799043357372284,-1.012259840965271,0.44005003571510315
1761914908473507000,1.677507080078125,0.03370031714439392,-0.9911985397338867,0.48405078053474426
1761914908483561200,1.687561279296875,-0.12459806352853775,-0.8478137850761414,0.5304000377655029
1761914908493616000,1.6976162109375,-0.25040286779403687,-0.664474606513977,0.5536922812461853
1761914908503671300,1.70767138671875,-0.3358702063560486,-0.5552199482917786,0.4971381425857544
1761914908513726200,1.717726318359375,-0.3745688796043396,-0.5482203960418701,0.3836238384246826
1761914908523780000,1.727780029296875,-0.36130064725875854,-0.5893017649650574,0.3112761676311493
1761914908533835300,1.737835205078125,-0.29781967401504517,-0.5319750905036926,0.3292122781276703
1761914908543890200,1.74789013671875,-0.17053909599781036,-0.33962270617485046,0.3898988664150238
1761914908553945000,1.757945068359375,-0.049755945801734924,-0.20335248112678528,0.3701741695404053
1761914908563999200,1.767999267578125,0.01130735594779253,-0.19145521521568298,0.2718542516231537
1761914908574054100,1.77805419921875,0.09667312353849411,-0.22016355395317078,0.24990634620189667
1761914908584109000,1.788109130859375,0.14921055734157562,-0.2942717969417572,0.3786604404449463
1761914908594164200,1.798164306640625,-0.0076789241284132,-0.39928340911865234,0.5540639162063599
1761914908604218400,1.80821826171875,-0.29815003275871277,-0.4856036603450775,0.6497129201889038
1761914908614273000,1.81827294921875,-0.5296053290367126,-0.5764121413230896,0.6302604079246521
1761914908624328200,1.828328125,-0.7138736844062805,-0.7059190273284912,0.538354754447937
1761914908634383000,1.838383056640625,-0.7805595397949219,-0.6042254567146301,0.521308958530426
1761914908644437000,1.84843701171875,-0.7070993185043335,-0.4001806080341339,0.6296046376228333
1761914908654492200,1.8584921875,-0.5590763092041016,-0.06056977063417435,0.7946164608001709
1761914908664547300,1.86854736328125,-0.2387881577014923,0.12403009831905365,0.7641478180885315
1761914908674602200,1.878602294921875,0.1328357309103012,-0.042855825275182724,0.4690514802932739
1761914908684656000,1.88865625,0.3317084312438965,-0.23572051525115967,0.09443192929029465
1761914908694711300,1.898711181640625,0.35111409425735474,-0.34323471784591675,-0.21954837441444397
1761914908704766200,1.90876611328125,0.2692283093929291,-0.2919529378414154,-0.39288151264190674
1761914908714821000,1.918821044921875,0.18516111373901367,0.03520360589027405,-0.4552040100097656
1761914908724876300,1.928876220703125,0.26119598746299744,0.6362690925598145,-0.4875856637954712
1761914908734930200,1.93893017578125,0.5258974432945251,1.2144231796264648,-0.6188220381736755
1761914908744985000,1.948985107421875,0.8315613269805908,1.602089762687683,-0.869875431060791
1761914908755040300,1.959040283203125,1.0330315828323364,1.7725989818572998,-1.1372512578964233
1761914908765095200,1.96909521484375,1.081682801246643,1.5839455127716064,-1.3519761562347412
1761914908775149000,1.979149169921875,0.9174602627754211,1.0961164236068726,-1.4841272830963135
1761914908785204200,1.989204345703125,0.5525082945823669,0.4261986017227173,-1.52432382106781
1761914908795259100,1.999259033203125,0.07965394109487534,-0.17155428230762482,-1.4641867876052856
1761914908805314000,2.00931396484375,-0.33566048741340637,-0.43684008717536926,-1.3312214612960815
1761914908815368200,2.0193681640625,-0.5774308443069458,-0.4269283413887024,-1.1784753799438477
1761914908825423400,2.02942333984375,-0.6593393683433533,-0.21896673738956451,-0.9860048890113831
1761914908835478000,2.03947802734375,-0.6025719046592712,0.08012783527374268,-0.7479869723320007
1761914908845533200,2.049533203125,-0.46871432662010193,0.33570975065231323,-0.49058768153190613
1761914908855587300,2.05958740234375,-0.3116743862628937,0.5289242267608643,-0.2418292760848999
1761914908865642000,2.06964208984375,-0.16542492806911469,0.6152148842811584,-0.06069984659552574
1761914908875697200,2.079697265625,-0.09169983863830566,0.6082635521888733,0.03714042901992798
1761914908885752300,2.08975244140625,-0.10248016566038132,0.49951863288879395,0.10710209608078003
1761914908895806000,2.099805908203125,-0.1502857655286789,0.3130662143230438,0.16324365139007568
1761914908905861000,2.109861083984375,-0.1903373748064041,0.11517082154750824,0.22881247103214264
1761914908915916300,2.119916259765625,-0.2270226776599884,-0.06221142038702965,0.3003162145614624
1761914908925971200,2.12997119140625,-0.2397920936346054,-0.2168094366788864,0.36858537793159485
1761914908936025000,2.140025146484375,-0.25181037187576294,-0.32247671484947205,0.4156509041786194
1761914908946080300,2.150080322265625,-0.2649933695793152,-0.3901718258857727,0.4261495769023895
1761914908956135200,2.16013525390625,-0.2747330665588379,-0.41463589668273926,0.41004571318626404
1761914908966190000,2.170190185546875,-0.2686302661895752,-0.3909987807273865,0.3534984886646271
1761914908976244200,2.180244140625,-0.2615683674812317,-0.36790406703948975,0.263395220041275
1761914908986299400,2.19029931640625,-0.2578031122684479,-0.3638303279876709,0.17555853724479675
1761914908996354000,2.20035400390625,-0.25269651412963867,-0.40876904129981995,0.11959327757358551
1761914909006409200,2.2104091796875,-0.2309246063232422,-0.4783250391483307,0.09203612059354782
1761914909016463400,2.22046337890625,-0.16198521852493286,-0.5617948770523071,0.05097976326942444
1761914909026518000,2.23051806640625,-0.013193459250032902,-0.5450079441070557,0.000566551461815834
1761914909036573200,2.2405732421875,0.20918235182762146,-0.4585050344467163,-0.029328763484954834
1761914909046628400,2.25062841796875,0.3953503966331482,-0.4988349974155426,-0.004010866396129131
1761914909056682000,2.260681884765625,0.40233853459358215,-0.6998721957206726,0.06388162821531296
1761914909066737200,2.270737060546875,0.24935002624988556,-1.0380176305770874,0.129722461104393
1761914909076792300,2.280792236328125,0.052596479654312134,-1.3749746084213257,0.23242540657520294
1761914909086847000,2.290846923828125,-0.18267713487148285,-1.7055944204330444,0.3156043291091919
1761914909096901000,2.300901123046875,-0.4965767562389374,-1.9515119791030884,0.3260985314846039
1761914909106956300,2.310956298828125,-0.7880418300628662,-1.9677942991256714,0.33454233407974243
1761914909117011000,2.321010986328125,-0.9539221525192261,-1.5972822904586792,0.39491674304008484
1761914909127066000,2.331066162109375,-0.9262953400611877,-0.962078869342804,0.4136780798435211
1761914909137121300,2.341121337890625,-0.6696670055389404,-0.2687224745750427,0.3289831578731537
1761914909147175200,2.351175048828125,-0.30594402551651,0.3422330915927887,0.136848583817482
1761914909157230000,2.36122998046875,-0.0025953473523259163,0.7923970818519592,-0.06569014489650726
1761914909167285200,2.37128515625,0.13089995086193085,1.0327311754226685,-0.18683773279190063
1761914909177340200,2.381340087890625,0.12273869663476944,1.0535619258880615,-0.18230263888835907
1761914909187394000,2.39139404296875,0.05320471525192261,0.8323507905006409,-0.10137870162725449
1761914909197449200,2.40144921875,-0.004860452376306057,0.31886619329452515,-0.07845553755760193
1761914909207504400,2.41150439453125,-0.009474300779402256,-0.33860963582992554,-0.19514033198356628
1761914909217559000,2.42155908203125,0.04433327168226242,-0.9023153185844421,-0.41086357831954956
1761914909227613200,2.43161328125,0.14815957844257355,-1.2607827186584473,-0.6481950283050537
1761914909237668400,2.44166845703125,0.2761119604110718,-1.3299753665924072,-0.8392278552055359
1761914909247723000,2.451722900390625,0.40939861536026,-1.1359838247299194,-0.9533289074897766
1761914909257778200,2.461778076171875,0.5028188228607178,-0.7799201607704163,-1.0115808248519897
1761914909267832300,2.471832275390625,0.5463095307350159,-0.4185897409915924,-1.0174472332000732
1761914909277887200,2.48188720703125,0.5504014492034912,-0.1273358017206192,-0.965175986289978
1761914909287942100,2.491942138671875,0.5203118324279785,0.05037189647555351,-0.857965886592865
1761914909297997300,2.501997314453125,0.4290032386779785,0.1765815019607544,-0.7012353539466858
1761914909308051200,2.51205126953125,0.26514872908592224,0.24926912784576416,-0.5523892641067505
1761914909318106000,2.522106201171875,0.07062343508005142,0.2267094850540161,-0.468448281288147
1761914909328157200,2.5321572265625,-0.12968768179416656,0.09396550804376602,-0.4670814573764801
1761914909338212000,2.542212158203125,-0.2800862491130829,-0.10925285518169403,-0.5107394456863403
1761914909348266200,2.552266357421875,-0.3555721640586853,-0.34606844186782837,-0.5483447909355164
1761914909358321200,2.562321044921875,-0.3307219445705414,-0.5389122366905212,-0.5194865465164185
1761914909368376000,2.5723759765625,-0.22458431124687195,-0.5955511927604675,-0.3829004466533661
1761914909378431000,2.582430908203125,-0.055199287831783295,-0.4991990625858307,-0.1376217007637024
1761914909388485000,2.592485107421875,0.1507701724767685,-0.2921924889087677,0.16619627177715302
1761914909398540000,2.6025400390625,0.3482416868209839,-0.028461499139666557,0.4684426784515381
1761914909408595200,2.61259521484375,0.51197350025177,0.2237706482410431,0.6870148181915283
1761914909418650000,2.622650146484375,0.6160812377929688,0.44782504439353943,0.8133320212364197
1761914909428704000,2.6327041015625,0.6561402082443237,0.610672652721405,0.8338114023208618
1761914909438759200,2.64275927734375,0.6167080998420715,0.6491106152534485,0.7761625051498413
1761914909448814000,2.65281396484375,0.49680426716804504,0.5754166841506958,0.6747958064079285
1761914909458869000,2.662868896484375,0.3264671564102173,0.44173264503479004,0.5683333277702332
1761914909468923100,2.672923095703125,0.14017732441425323,0.32150107622146606,0.4850192368030548
1761914909478978000,2.68297802734375,-0.031861819326877594,0.2545947730541229,0.4305828809738159
1761914909489033000,2.693032958984375,-0.12544406950473785,0.27334702014923096,0.38635504245758057
1761914909499088100,2.703088134765625,-0.11573126167058945,0.3574933409690857,0.330995112657547
1761914909509143000,2.71314306640625,-0.019844109192490578,0.4503531754016876,0.2515797019004822
1761914909519197000,2.723197021484375,0.09942369908094406,0.519538938999176,0.14230379462242126
1761914909529252000,2.733252197265625,0.18015114963054657,0.5137835741043091,0.02270267903804779
1761914909539307000,2.74330712890625,0.21662206947803497,0.4305587112903595,-0.0785544291138649
1761914909549362200,2.753362060546875,0.2595653533935547,0.3118015229701996,-0.12996108829975128
1761914909559416000,2.763416015625,0.3634805679321289,0.2397121638059616,-0.14013995230197906
1761914909569471200,2.77347119140625,0.5325292944908142,0.19082869589328766,-0.11333660781383514
1761914909579526100,2.783526123046875,0.6407726407051086,0.09267283976078033,-0.11037009954452515
1761914909589581000,2.7935810546875,0.5809860825538635,-0.05717926099896431,-0.18837951123714447
1761914909599635200,2.80363525390625,0.3590989410877228,-0.27630096673965454,-0.32857149839401245
1761914909609690000,2.813690185546875,-0.015248519368469715,-0.5939258337020874,-0.4324677884578705
1761914909619745000,2.8237451171875,-0.5130563974380493,-0.9062453508377075,-0.38815543055534363
1761914909629800200,2.83380029296875,-1.0565687417984009,-1.0526396036148071,-0.22362324595451355
1761914909639854000,2.84385400390625,-1.4398349523544312,-0.9515334963798523,-0.004477852955460548
1761914909649909000,2.853908935546875,-1.488542079925537,-0.652036726474762,0.17542748153209686
1761914909659964200,2.863964111328125,-1.2412313222885132,-0.31692609190940857,0.2689095139503479
1761914909670019000,2.87401904296875,-0.8773923516273499,-0.0936788022518158,0.3221530020236969
1761914909680073000,2.884072998046875,-0.5857415795326233,-0.03229827061295509,0.36987394094467163
1761914909690128100,2.894128173828125,-0.39664480090141296,-0.13189254701137543,0.38026097416877747
1761914909700183000,2.90418310546875,-0.2546248137950897,-0.356611967086792,0.36304202675819397
1761914909710238000,2.914238037109375,-0.16249369084835052,-0.6670753359794617,0.3239561915397644
1761914909720292000,2.9242919921875,-0.1283077597618103,-0.9743276834487915,0.22251823544502258
1761914909730347300,2.93434716796875,-0.10939235985279083,-1.2725450992584229,0.05689282715320587
1761914909740402000,2.94440185546875,-0.13280607759952545,-1.4837478399276733,-0.13953155279159546
1761914909750457000,2.95445703125,-0.20163190364837646,-1.443878412246704,-0.30471813678741455
1761914909760511200,2.96451123046875,-0.2410954236984253,-1.1542319059371948,-0.43524762988090515
1761914909770566000,2.97456591796875,-0.21355119347572327,-0.7064998745918274,-0.5220256447792053
1761914909780621000,2.98462109375,-0.12943072617053986,-0.21326513588428497,-0.5242959856987
1761914909790676200,2.99467626953125,0.012404500506818295,0.13911224901676178,-0.44648364186286926
1761914909800730000,3.004730224609375,0.22779136896133423,0.28137990832328796,-0.29516497254371643
1761914909810785000,3.014784912109375,0.4389939606189728,0.3226745128631592,-0.08734910190105438
1761914909820840200,3.024840087890625,0.5190123915672302,0.3718804121017456,0.1249365285038948
1761914909830895000,3.03489501953125,0.4002819061279297,0.44330549240112305,0.3024195432662964
1761914909840950000,3.044949951171875,0.15284599363803864,0.47462692856788635,0.4310252070426941
1761914909851004200,3.055004150390625,-0.13808521628379822,0.45566001534461975,0.5240193009376526
1761914909861059000,3.06505908203125,-0.40246760845184326,0.36969345808029175,0.5636255741119385
1761914909871114000,3.075114013671875,-0.5950447916984558,0.2899344861507416,0.5499100089073181
1761914909881169200,3.085169189453125,-0.6805442571640015,0.24990320205688477,0.5100307464599609
1761914909891223300,3.095223388671875,-0.6342095136642456,0.24834084510803223,0.4754467010498047
1761914909901278000,3.10527783203125,-0.4735388457775116,0.24828119575977325,0.4502340257167816
1761914909911333000,3.1153330078125,-0.25587204098701477,0.2610628306865692,0.4471636414527893
1761914909921388000,3.125387939453125,-0.04633001238107681,0.29132407903671265,0.4534609317779541
1761914909931442000,3.13544189453125,0.08419162034988403,0.3297979533672333,0.45386335253715515
1761914909941497000,3.1454970703125,0.1169959083199501,0.34126898646354675,0.4432072639465332
1761914909951552300,3.15555224609375,0.07103961706161499,0.33259618282318115,0.45474448800086975
1761914909961607000,3.16560693359375,-0.02667842246592045,0.32286471128463745,0.5130227208137512
1761914909971661000,3.1756611328125,-0.13470442593097687,0.3317638039588928,0.606349527835846
1761914909981716200,3.18571630859375,-0.23246854543685913,0.3533215820789337,0.7052393555641174
1761914909991771000,3.19577099609375,-0.29521700739860535,0.4359162747859955,0.7781602144241333
1761914910001826000,3.205825927734375,-0.3025130033493042,0.5877372026443481,0.8329598307609558
1761914910011880200,3.215880126953125,-0.2124713510274887,0.7410768866539001,0.8204485177993774
1761914910021935000,3.22593505859375,-0.06082722917199135,0.7538941502571106,0.6956477165222168
1761914910031990000,3.235989990234375,0.07442788779735565,0.6322647929191589,0.47001680731773376
1761914910042045200,3.246045166015625,0.13619272410869598,0.45552700757980347,0.22471359372138977
1761914910052099000,3.25609912109375,0.16638624668121338,0.33716902136802673,0.04475245624780655
1761914910062154000,3.266154052734375,0.26389840245246887,0.2928590774536133,-0.05463538318872452
1761914910072209200,3.276209228515625,0.39042362570762634,0.18935316801071167,-0.129264697432518
1761914910082264000,3.28626416015625,0.4609968662261963,-0.11685921996831894,-0.22047211229801178
1761914910092319000,3.296319091796875,0.4570949077606201,-0.4317103624343872,-0.25829780101776123
1761914910102373000,3.306373046875,0.3714689612388611,-0.5421386361122131,-0.1848323792219162
1761914910112428300,3.31642822265625,0.1796485334634781,-0.458825021982193,-0.02580440416932106
1761914910122483000,3.32648291015625,-0.10999074578285217,-0.2707192897796631,0.15357467532157898
1761914910132538000,3.3365380859375,-0.381914883852005,-0.09724483639001846,0.29866182804107666
1761914910142592300,3.34659228515625,-0.5324329733848572,-0.05875363573431969,0.37591320276260376
1761914910152647000,3.35664697265625,-0.5514194369316101,-0.014310271479189396,0.42273664474487305
1761914910162702000,3.3667021484375,-0.4215083718299866,0.11254967004060745,0.4021799862384796
1761914910172757200,3.37675732421875,-0.1376722902059555,0.2678040564060211,0.22704870998859406
1761914910182811100,3.38681103515625,0.1953413486480713,0.3422527313232422,-0.059956956654787064
1761914910192866000,3.396865966796875,0.43599584698677063,0.380404531955719,-0.3410435914993286
1761914910202921200,3.406921142578125,0.5342073440551758,0.4331388473510742,-0.5680006146430969
1761914910212975900,3.416975830078125,0.514042854309082,0.48962080478668213,-0.7248106598854065
1761914910223030000,3.427030029296875,0.3843969404697418,0.44756442308425903,-0.8449767827987671
1761914910233085200,3.437085205078125,0.2251245230436325,0.3384322226047516,-0.9187946915626526
1761914910243140000,3.44714013671875,0.09866777807474136,0.23645126819610596,-0.9004795551300049
1761914910253195000,3.457195068359375,-0.016346588730812073,0.20737752318382263,-0.8457120060920715
1761914910263249200,3.467249267578125,-0.05618401616811752,0.15154142677783966,-0.8759841322898865
1761914910273304000,3.477303955078125,0.02860059030354023,0.11437058448791504,-1.0428357124328613
1761914910283359000,3.48735888671875,0.2029348462820053,0.10267264395952225,-1.3527315855026245
1761914910293414100,3.4974140625,0.34093397855758667,0.10557805746793747,-1.7529712915420532
1761914910303468000,3.507468017578125,0.37845098972320557,0.16690880060195923,-2.148545503616333
1761914910313523000,3.51752294921875,0.3285342752933502,0.24410171806812286,-2.470186948776245
1761914910323578000,3.527578125,0.20657692849636078,0.2774119973182678,-2.6596195697784424
1761914910333633300,3.53763330078125,0.04074126109480858,0.29471591114997864,-2.6861283779144287
1761914910343687200,3.547687255859375,-0.17261788249015808,0.3632858991622925,-2.540860652923584
1761914910353742000,3.5577421875,-0.3991084396839142,0.49960219860076904,-2.2443079948425293
1761914910363797200,3.56779736328125,-0.6126720905303955,0.6904147863388062,-1.853073000907898
1761914910373852200,3.57785205078125,-0.8211792707443237,0.9099680185317993,-1.4476354122161865
1761914910383907000,3.587906982421875,-1.0077860355377197,1.0717848539352417,-1.1031216382980347
1761914910393961200,3.597961181640625,-1.1119105815887451,1.1967276334762573,-0.8152756094932556
1761914910404016400,3.608016357421875,-1.102950096130371,1.304419755935669,-0.5374817848205566
1761914910414071000,3.618071044921875,-0.9938279986381531,1.3567756414413452,-0.2509973347187042
1761914910424126200,3.628126220703125,-0.7855510115623474,1.3754186630249023,0.05737221986055374
1761914910434180400,3.638180419921875,-0.4958890378475189,1.3366020917892456,0.38491830229759216
1761914910444235000,3.648235107421875,-0.17935794591903687,1.2342698574066162,0.7250750660896301
1761914910454290200,3.658290283203125,0.11041832715272903,1.0915569067001343,1.054919719696045
1761914910464345300,3.668345458984375,0.3202245533466339,0.9033406376838684,1.336076021194458
1761914910474399000,3.67839892578125,0.42642223834991455,0.6954124569892883,1.5166739225387573
1761914910484454100,3.6884541015625,0.4506673812866211,0.45857754349708557,1.5907412767410278
1761914910494509300,3.69850927734375,0.3921981751918793,0.20153862237930298,1.5908303260803223
1761914910504564200,3.708564208984375,0.2519012689590454,-0.021174879744648933,1.5354381799697876
1761914910514618000,3.7186181640625,0.05125509202480316,-0.20976777374744415,1.4555283784866333
1761914910524673300,3.72867333984375,-0.1541590541601181,-0.3629296123981476,1.3640201091766357
1761914910534728200,3.738728271484375,-0.32107147574424744,-0.4638558626174927,1.2659460306167603
1761914910544783000,3.748783203125,-0.4110831320285797,-0.47025781869888306,1.1866616010665894
1761914910554838300,3.75883837890625,-0.42692118883132935,-0.35755184292793274,1.1215283870697021
1761914910564892400,3.768892333984375,-0.38260617852211,-0.16260604560375214,1.0793942213058472
1761914910574947000,3.778947021484375,-0.29052817821502686,0.05346393585205078,1.0313361883163452
1761914910585002200,3.789002197265625,-0.15013886988162994,0.24197660386562347,0.9227623343467712
1761914910595057200,3.79905712890625,0.03213764727115631,0.2899852991104126,0.733699381351471
1761914910605111000,3.809111083984375,0.2139708250761032,0.15767334401607513,0.4890395998954773
1761914910615166200,3.819166259765625,0.3585934638977051,-0.024344807490706444,0.26554733514785767
1761914910625221400,3.829221435546875,0.4323267936706543,-0.09290336072444916,0.11323156952857971
1761914910635276000,3.839276123046875,0.38915497064590454,-0.10539275407791138,-0.002886868081986904
1761914910645330200,3.849330078125,0.18179698288440704,-0.13462042808532715,-0.05490080267190933
1761914910655385300,3.85938525390625,-0.09459321945905685,-0.018626675009727478,0.09347779303789139
1761914910665440000,3.86943994140625,-0.27327749133110046,0.06813458353281021,0.47603660821914673
1761914910675495200,3.8794951171875,-0.298079252243042,0.11166694015264511,0.9834179878234863
1761914910685549300,3.88954931640625,-0.1721828430891037,0.009223654866218567,1.295466423034668
1761914910695604000,3.89960400390625,0.029262904077768326,-0.2957863211631775,1.1213387250900269
1761914910705659100,3.9096591796875,0.20503979921340942,-0.6561399698257446,0.5054529905319214
1761914910715714300,3.91971435546875,0.3425997793674469,-0.9391394853591919,-0.31209564208984375
1761914910725768200,3.929768310546875,0.40322238206863403,-1.1769732236862183,-1.0356947183609009
1761914910735823000,3.939822998046875,0.33108285069465637,-1.4776394367218018,-1.357900857925415
1761914910745878300,3.949878173828125,0.18291735649108887,-1.7811915874481201,-1.2485562562942505
1761914910755933200,3.95993310546875,0.0838005393743515,-2.1030795574188232,-0.870789110660553
1761914910765988000,3.969988037109375,0.06957287341356277,-2.4410057067871094,-0.43704038858413696
1761914910776042200,3.980042236328125,0.054896432906389236,-2.6566078662872314,-0.06795233488082886
1761914910786097400,3.990097412109375,0.0017530524637550116,-2.6382551193237305,0.21737287938594818
1761914910796152000,4.000152099609375,-0.050485383719205856,-2.3336760997772217,0.4540559947490692
1761914910806205200,4.010205078125,-0.07071475684642792,-1.7994886636734009,0.6527270078659058
1761914910816260000,4.020260009765625,-0.07278279960155487,-1.1911401748657227,0.7379770278930664
1761914910826314200,4.030314208984375,-0.10624382644891739,-0.7235029935836792,0.6530038118362427
1761914910836369200,4.040369140625,-0.17204521596431732,-0.49498316645622253,0.43661969900131226
1761914910846424000,4.050424072265625,-0.25904348492622375,-0.4439615309238434,0.1715848445892334
1761914910856479200,4.060479248046875,-0.369499146938324,-0.44839605689048767,-0.06705126166343689
1761914910866533400,4.070533447265625,-0.4819529950618744,-0.4821271300315857,-0.22383713722229004
1761914910876588000,4.080588134765625,-0.5622454285621643,-0.5742130279541016,-0.27490729093551636
1761914910886643200,4.090643310546875,-0.6187212467193604,-0.6676840782165527,-0.22411468625068665
1761914910896698000,4.100697998046875,-0.5986581444740295,-0.7541650533676147,-0.11273709684610367
1761914910906753000,4.1107529296875,-0.47613009810447693,-0.8168092370033264,0.02818060666322708
1761914910916807200,4.12080712890625,-0.2868015468120575,-0.8804197311401367,0.1830310970544815
1761914910926862300,4.1308623046875,-0.09344060719013214,-0.9289894104003906,0.3064270615577698
1761914910936917000,4.1409169921875,0.07569260895252228,-0.8837324380874634,0.4055468440055847
1761914910946972200,4.15097216796875,0.2178015559911728,-0.7759865522384644,0.4780136048793793
1761914910957026300,4.1610263671875,0.3233849108219147,-0.6363792419433594,0.5525602102279663
1761914910967081000,4.1710810546875,0.39174240827560425,-0.5262937545776367,0.6242298483848572
1761914910977136000,4.18113623046875,0.4111922085285187,-0.5030477643013,0.6805040836334229
1761914910987191300,4.19119140625,0.394020676612854,-0.5828272700309753,0.7036104798316956
1761914910997245200,4.2012451171875,0.34686797857284546,-0.7320130467414856,0.7087379693984985
1761914911007300000,4.211300048828125,0.2744225263595581,-0.8378265500068665,0.6875181198120117
1761914911017355300,4.221355224609375,0.18790528178215027,-0.8248584270477295,0.6391417980194092
1761914911027410200,4.23141015625,0.09685420244932175,-0.6878079175949097,0.5547055006027222
1761914911037464000,4.241464111328125,-0.0003010028158314526,-0.48878663778305054,0.4428628981113434
1761914911047519200,4.251519287109375,-0.0855485275387764,-0.2790278196334839,0.34295040369033813
1761914911057574400,4.261574462890625,-0.1251024454832077,-0.030475495383143425,0.30435582995414734
1761914911067629000,4.271629150390625,-0.07114521414041519,0.2245490849018097,0.2968830168247223
1761914911077684200,4.281684326171875,0.041673336178064346,0.39912599325180054,0.26663127541542053
1761914911087738400,4.29173828125,0.17828576266765594,0.49040716886520386,0.20361343026161194
1761914911097793000,4.30179296875,0.3404317796230316,0.6056147813796997,0.1257658749818802
1761914911107848200,4.31184814453125,0.5566852688789368,0.7610999941825867,0.0485864095389843
1761914911117903400,4.3219033203125,0.7739381194114685,0.7781651616096497,-0.059081219136714935
1761914911127957000,4.33195703125,0.8733350038528442,0.5467833280563354,-0.17388024926185608
1761914911138012200,4.34201220703125,0.7810019254684448,0.1914392113685608,-0.24390184879302979
1761914911148067300,4.3520673828125,0.5602330565452576,-0.06285113096237183,-0.25669485330581665
1761914911158122000,4.3621220703125,0.3313002586364746,-0.13975410163402557,-0.216377854347229
1761914911168176000,4.372176025390625,0.14920848608016968,-0.19906163215637207,-0.1634451299905777
1761914911178231300,4.382231201171875,-0.023839101195335388,-0.2171316295862198,-0.052457295358181
1761914911188286000,4.392285888671875,-0.19484494626522064,-0.05961790308356285,0.1361600160598755
1761914911198341000,4.402341064453125,-0.23826803267002106,0.2227003425359726,0.3149261772632599
1761914911208396300,4.412396240234375,-0.11339719593524933,0.49515318870544434,0.38316330313682556
1761914911218450200,4.4224501953125,0.15505072474479675,0.7845008969306946,0.32811591029167175
1761914911228505000,4.432505126953125,0.5132051706314087,0.9469255208969116,0.1373520791530609
1761914911238560300,4.442560302734375,0.8389504551887512,0.8482597470283508,-0.15529879927635193
1761914911248615200,4.452615234375,1.0424821376800537,0.5197250247001648,-0.428058922290802
1761914911258669000,4.4626689453125,1.087643027305603,0.07103953510522842,-0.6511866450309753
1761914911268724200,4.47272412109375,0.9959450364112854,-0.42174381017684937,-0.8123095035552979
1761914911278779400,4.482779296875,0.7778072953224182,-0.7807567119598389,-0.8830771446228027
1761914911288834000,4.492833984375,0.532829761505127,-0.8703462481498718,-0.879532516002655
1761914911298888200,4.50288818359375,0.35714879631996155,-0.7186300158500671,-0.8108870983123779
1761914911308943400,4.512943359375,0.3489329516887665,-0.36864563822746277,-0.6444536447525024
1761914911318998000,4.522998046875,0.457378625869751,0.08681286871433258,-0.3883726894855499
1761914911329053200,4.53305322265625,0.5287518501281738,0.5239417552947998,-0.11581173539161682
1761914911339107300,4.543107421875,0.54291832447052,0.8660688400268555,0.08078162372112274
1761914911349162000,4.553161865234375,0.5745023488998413,1.0935187339782715,0.17538562417030334
1761914911359217200,4.563217041015625,0.636361300945282,1.053130030632019,0.10446256399154663
1761914911369272300,4.573272216796875,0.7351382374763489,0.6582996845245361,-0.16198429465293884
1761914911379329300,4.583329345703125,0.821904182434082,0.042166780680418015,-0.5158156156539917
1761914911389384200,4.59338427734375,0.7612237930297852,-0.5387610793113708,-0.7949793338775635
1761914911399439000,4.603439208984375,0.5337904095649719,-0.9085890650749207,-0.9180471301078796
1761914911409493200,4.6134931640625,0.21081075072288513,-1.0711822509765625,-0.9292012453079224
1761914911419548200,4.623548095703125,-0.11748096346855164,-1.0056394338607788,-0.8699273467063904
1761914911429603000,4.63360302734375,-0.37861427664756775,-0.7643455862998962,-0.767589271068573
1761914911439658200,4.643658203125,-0.5353645086288452,-0.38088157773017883,-0.6321881413459778
1761914911449712400,4.65371240234375,-0.5933670401573181,0.05553596094250679,-0.48919129371643066
1761914911459767000,4.66376708984375,-0.5388311743736267,0.47353965044021606,-0.3474065065383911
1761914911469822200,4.673822265625,-0.391612708568573,0.8063865900039673,-0.22759570181369781
1761914911479877000,4.683877197265625,-0.20546765625476837,1.0039610862731934,-0.15063688158988953
1761914911489932300,4.693932373046875,0.009847590699791908,1.0838950872421265,-0.09007899463176727
1761914911499986200,4.703986083984375,0.20114819705486298,1.0293697118759155,-0.015338224358856678
1761914911510041300,4.714041259765625,0.3275170624256134,0.8614312410354614,0.08475907891988754
1761914911520096000,4.724095947265625,0.36630353331565857,0.6605814695358276,0.21241584420204163
1761914911530151200,4.734151123046875,0.33587345480918884,0.4371259808540344,0.3752082288265228
1761914911540205300,4.744205322265625,0.2690296173095703,0.2255675047636032,0.5268153548240662
1761914911550260000,4.754260009765625,0.19184215366840363,0.04477055370807648,0.6401656270027161
1761914911560315100,4.764315185546875,0.13178297877311707,-0.05943920835852623,0.705238938331604
1761914911570370300,4.774370361328125,0.08988533169031143,-0.07592737674713135,0.7307533621788025
1761914911580424200,4.784424072265625,0.06068901717662811,-0.014930679462850094,0.7181355357170105
1761914911590479000,4.79447900390625,0.019914424046874046,0.031002458184957504,0.6829927563667297
1761914911600534300,4.8045341796875,-0.03237912431359291,0.05379531905055046,0.6383181214332581
1761914911610589200,4.814589111328125,-0.07592180371284485,0.14079706370830536,0.6078715324401855
1761914911620644000,4.82464404296875,-0.05840209871530533,0.3110794126987457,0.5839741230010986
1761914911630698200,4.8346982421875,0.055819280445575714,0.5921302437782288,0.5340744853019714
1761914911640753200,4.844753173828125,0.23767945170402527,0.8445929884910583,0.41009169816970825
1761914911650808000,4.85480810546875,0.37074536085128784,0.818917453289032,0.22043174505233765
1761914911660863200,4.86486328125,0.35348570346832275,0.5779635906219482,0.11032112687826157
1761914911670917400,4.87491748046875,0.18188811838626862,0.3182228207588196,0.13955998420715332
1761914911680972000,4.884971923828125,-0.07640974223613739,0.09772775322198868,0.2131589651107788
1761914911691027200,4.895027099609375,-0.31741568446159363,0.01914692297577858,0.19723673164844513
1761914911701082000,4.90508203125,-0.4715396761894226,0.10207278281450272,-0.004712454043328762
1761914911711136000,4.915135986328125,-0.6008302569389343,0.27206555008888245,-0.3831351101398468
1761914911721191200,4.925191162109375,-0.6862996816635132,0.5885924100875854,-0.7318962216377258
1761914911731246300,4.935246337890625,-0.6522080302238464,1.1056265830993652,-0.8924038410186768
1761914911741301200,4.94530126953125,-0.5058655142784119,1.646289587020874,-0.9716299772262573
1761914911751356200,4.955356201171875,-0.32269832491874695,2.056901693344116,-1.1901136636734009
1761914911761410300,4.965410400390625,-0.12822090089321136,2.337782859802246,-1.6608487367630005
1761914911771465000,4.97546484375,0.030592715367674828,2.539105176925659,-2.324580430984497
1761914911781520100,4.98552001953125,0.14208537340164185,2.7104175090789795,-3.0279483795166016
1761914911791575300,4.9955751953125,0.21082662045955658,2.7852957248687744,-3.600707530975342
1761914911801629200,5.005629150390625,0.2060040384531021,2.7474822998046875,-3.9622225761413574
1761914911811684000,5.01568408203125,0.09358189254999161,2.5304360389709473,-4.065551280975342
1761914911821739300,5.0257392578125,-0.08945862203836441,2.160814046859741,-3.8956289291381836
1761914911831794200,5.035794189453125,-0.21703949570655823,1.7360355854034424,-3.4499905109405518
1761914911841848000,5.04584814453125,-0.265760600566864,1.2765271663665771,-2.796518564224243
1761914911851903200,5.0559033203125,-0.23501652479171753,0.7923136353492737,-2.0735626220703125
1761914911861958100,5.065958251953125,-0.09778463840484619,0.3215775191783905,-1.4464253187179565
1761914911872013000,5.076012939453125,0.1252199411392212,-0.05749761313199997,-1.02873694896698
1761914911882068200,5.086068115234375,0.31915906071662903,-0.2835693657398224,-0.855998158454895
1761914911892122400,5.096122314453125,0.4029482305049896,-0.28434622287750244,-0.8528811931610107
1761914911902177000,5.106177001953125,0.3493190109729767,-0.06339048594236374,-0.8709256052970886
1761914911912232200,5.116232177734375,0.154998779296875,0.28780826926231384,-0.8013486266136169
1761914911922287000,5.126287109375,-0.1346735656261444,0.6255454421043396,-0.588391125202179
1761914911932341000,5.136341064453125,-0.4162842333316803,0.785854160785675,-0.20409196615219116
1761914911942396200,5.146396240234375,-0.5755910873413086,0.7389546036720276,0.3065425455570221
1761914911952451300,5.156451416015625,-0.5684931874275208,0.49607378244400024,0.8806071877479553
1761914911962506200,5.16650634765625,-0.46407368779182434,0.12814176082611084,1.4232523441314697
1761914911972560100,5.17656005859375,-0.3339596390724182,-0.22151131927967072,1.8677394390106201
1761914911982615300,5.186615234375,-0.21611644327640533,-0.46404409408569336,2.1996092796325684
1761914911992670200,5.196670166015625,-0.10532762110233307,-0.581447184085846,2.398362398147583
1761914912002725000,5.20672509765625,-0.010099581442773342,-0.5618554353713989,2.467609167098999
1761914912012780300,5.2167802734375,0.05543229356408119,-0.42766648530960083,2.4340736865997314
1761914912022834200,5.226834228515625,0.07836627960205078,-0.2241177260875702,2.33105731010437
1761914912032889000,5.23688916015625,0.04318378493189812,0.00013987923739477992,2.1783909797668457
1761914912042944300,5.2469443359375,-0.057242777198553085,0.19747468829154968,1.9857474565505981
1761914912052999200,5.256999267578125,-0.19595378637313843,0.4020368754863739,1.7703790664672852
1761914912063053000,5.267052978515625,-0.32300010323524475,0.622265100479126,1.5431687831878662
1761914912073108200,5.277108154296875,-0.39496004581451416,0.8173658847808838,1.3111430406570435
1761914912083163100,5.2871630859375,-0.42490050196647644,0.933550238609314,1.064798355102539
1761914912093218000,5.297218017578125,-0.4217608869075775,0.9128545522689819,0.8116660714149475
1761914912103273200,5.307273193359375,-0.4093475937843323,0.7168042063713074,0.5477043390274048
1761914912113327400,5.317327392578125,-0.3812573552131653,0.4462158679962158,0.2868788540363312
1761914912123382000,5.327382080078125,-0.3013744354248047,0.16458460688591003,0.067131407558918
1761914912133437200,5.337437255859375,-0.11188334971666336,-0.08004883676767349,-0.1313217580318451
1761914912143492000,5.3474921875,0.18909819424152374,-0.312661349773407,-0.31753504276275635
1761914912153546000,5.3575458984375,0.4432689845561981,-0.5998707413673401,-0.4987785816192627
1761914912163601200,5.36760107421875,0.48428189754486084,-0.8272460699081421,-0.6139081716537476
1761914912173656300,5.37765625,0.3628137707710266,-0.8800157904624939,-0.6065943241119385
1761914912183711200,5.387711181640625,0.2343875914812088,-0.778700590133667,-0.4891388416290283
1761914912193765000,5.39776513671875,0.1501201093196869,-0.5937554836273193,-0.2133874148130417
1761914912203820300,5.4078203125,0.04219002276659012,-0.4666461646556854,0.1918681412935257
1761914912213875200,5.417875244140625,-0.058021001517772675,-0.4660376310348511,0.5985304117202759
1761914912223930000,5.42793017578125,-0.05669108033180237,-0.6881528496742249,0.8151135444641113
1761914912233985300,5.4379853515625,0.08608444035053253,-1.017255425453186,0.7430939078330994
1761914912244039400,5.448039306640625,0.33091410994529724,-1.382637619972229,0.37138766050338745
1761914912254094000,5.458093994140625,0.558106005191803,-1.790239691734314,-0.18647456169128418
1761914912264149200,5.468149169921875,0.6747424602508545,-2.1094329357147217,-0.6736774444580078
1761914912274204200,5.4782041015625,0.674989640712738,-2.3103582859039307,-0.9378222823143005
1761914912284258000,5.488258056640625,0.5914832949638367,-2.32075834274292,-0.953452467918396
1761914912294313200,5.498313232421875,0.460699200630188,-2.1306328773498535,-0.8050864338874817
1761914912304368400,5.508368408203125,0.32565534114837646,-1.792736530303955,-0.6129070520401001
1761914912314423000,5.518423095703125,0.22982922196388245,-1.4545928239822388,-0.48975178599357605
1761914912324481000,5.52848095703125,0.23870079219341278,-1.1457843780517578,-0.41190001368522644
1761914912334536200,5.5385361328125,0.3323087692260742,-0.8115742206573486,-0.26818251609802246
1761914912344590800,5.5485908203125,0.4020497500896454,-0.42738547921180725,-0.0184231698513031
1761914912354646000,5.55864599609375,0.4590209126472473,-0.12783661484718323,0.31410524249076843
1761914912364701000,5.568700927734375,0.537311315536499,-0.043500449508428574,0.6524618864059448
1761914912374754800,5.5787548828125,0.66118985414505,-0.21885842084884644,0.8160990476608276
1761914912384810000,5.58881005859375,0.8612473011016846,-0.6269775032997131,0.6199305057525635
1761914912394865200,5.598865234375,1.0938584804534912,-1.1601048707962036,0.10085594654083252
1761914912404919800,5.608919921875,1.1628271341323853,-1.4644372463226318,-0.5156168937683105
1761914912414974000,5.618973876953125,0.9771085977554321,-1.4402238130569458,-0.9955313205718994
1761914912425029000,5.629029052734375,0.6053761839866638,-1.1824594736099243,-1.2291749715805054
1761914912435083800,5.639083740234375,0.15891242027282715,-0.8086493611335754,-1.1935943365097046
1761914912445139000,5.649138916015625,-0.24984562397003174,-0.4250120520591736,-0.9293973445892334
1761914912455193000,5.659193115234375,-0.5515817999839783,-0.11940208077430725,-0.48426327109336853
1761914912465247700,5.669247802734375,-0.7029330134391785,0.07320477068424225,0.056878525763750076
1761914912475303000,5.679302978515625,-0.6893117427825928,0.13459250330924988,0.5679892301559448
1761914912485358000,5.689358154296875,-0.5689907073974609,0.05527222529053688,0.9187793135643005
1761914912495413000,5.6994130859375,-0.3862544596195221,-0.07835693657398224,1.0911610126495361
1761914912505467000,5.709466796875,-0.1888584941625595,-0.209281787276268,1.1305220127105713
1761914912515522000,5.71952197265625,-0.03814062476158142,-0.23623190820217133,1.124551773071289
1761914912525577000,5.729576904296875,0.021905725821852684,-0.1294938623905182,1.1339311599731445
1761914912535632000,5.7396318359375,-0.022370925173163414,0.06124492734670639,1.1643004417419434
1761914912545686000,5.74968603515625,-0.12494342774152756,0.2940037250518799,1.2284952402114868
1761914912555741200,5.7597412109375,-0.22869272530078888,0.5248510241508484,1.3275065422058105
1761914912565795800,5.7697958984375,-0.312094509601593,0.6975575089454651,1.4408155679702759
1761914912575851000,5.77985107421875,-0.34616488218307495,0.8088416457176208,1.5873562097549438
1761914912585906000,5.789906005859375,-0.32740458846092224,0.8132197856903076,1.7285540103912354
1761914912595959800,5.799959716796875,-0.28491678833961487,0.7322578430175781,1.823817491531372
1761914912606015000,5.810014892578125,-0.2567588984966278,0.5986403822898865,1.8471496105194092
1761914912616070100,5.820070068359375,-0.25632187724113464,0.43839579820632935,1.7781833410263062
1761914912626124800,5.830124755859375,-0.2745220363140106,0.2990334928035736,1.6424388885498047
1761914912636179000,5.840178955078125,-0.2936997413635254,0.19555449485778809,1.4810060262680054
1761914912646234000,5.850234130859375,-0.30872777104377747,0.1751050055027008,1.3499431610107422
1761914912656288800,5.860288818359375,-0.2936665415763855,0.24537330865859985,1.269025206565857
1761914912666344000,5.870343994140625,-0.21398866176605225,0.33258020877838135,1.1908824443817139
1761914912676399000,5.880399169921875,-0.04915710166096687,0.39341798424720764,1.0506701469421387
1761914912686453000,5.890452880859375,0.17116600275039673,0.45651009678840637,0.8452836871147156
1761914912696508000,5.9005078125,0.37341123819351196,0.4524626135826111,0.5617920160293579
1761914912706563000,5.91056298828125,0.41530686616897583,0.42890194058418274,0.2381751835346222
1761914912716618000,5.920617919921875,0.2570916712284088,0.47656533122062683,-0.04697532579302788
1761914912726672000,5.930671875,0.03198355808854103,0.4592723548412323,-0.25014764070510864
1761914912736727000,5.94072705078125,-0.19357340037822723,0.2845066785812378,-0.3329645097255707
1761914912746782000,5.950781982421875,-0.4108954071998596,-0.06657420098781586,-0.3478565514087677
1761914912756836900,5.9608369140625,-0.6336869597434998,-0.5209310054779053,-0.39010176062583923
1761914912766891000,5.97089111328125,-0.6681897044181824,-0.8185320496559143,-0.47893038392066956
1761914912776946200,5.9809462890625,-0.4780399799346924,-0.887067973613739,-0.690313458442688
1761914912787000800,5.991000732421875,-0.19725528359413147,-0.8834831714630127,-1.0784348249435425
1761914912797056000,6.001055908203125,0.07450245320796967,-0.8657784461975098,-1.5898029804229736
1761914912807111000,6.01111083984375,0.27906662225723267,-0.8098821640014648,-2.119291305541992
1761914912817164800,6.021164794921875,0.37527996301651,-0.6776543259620667,-2.52524995803833
1761914912827220000,6.031219970703125,0.3412671387195587,-0.4982035756111145,-2.750128746032715
1761914912837275100,6.041275146484375,0.24382822215557098,-0.3036231994628906,-2.7807862758636475
1761914912847329800,6.051329833984375,0.15933559834957123,-0.07369975000619888,-2.6018691062927246
1761914912857384000,6.061384033203125,0.07445291429758072,0.23212754726409912,-2.2048275470733643
1761914912867439000,6.071439208984375,-0.06625006347894669,0.75215083360672,-1.5640859603881836
1761914912877493800,6.08149365234375,-0.1930932253599167,1.2719109058380127,-0.8515322208404541
1761914912887549000,6.091548828125,-0.2314637452363968,1.457878589630127,-0.35207781195640564
1761914912897603000,6.10160302734375,-0.21534869074821472,1.2508678436279297,-0.26737597584724426
1761914912907658000,6.111657958984375,-0.23772962391376495,0.8467004299163818,-0.5202047824859619
1761914912917713000,6.121712890625,-0.33588871359825134,0.4473552107810974,-0.928898811340332
1761914912927768000,6.13176806640625,-0.4721958339214325,0.15998156368732452,-1.3265106678009033
1761914912937823000,6.141822998046875,-0.639180064201355,-0.012841340154409409,-1.5512460470199585
1761914912947876900,6.151876953125,-0.77220618724823,-0.1235339418053627,-1.528647541999817
1761914912957932000,6.16193212890625,-0.8116846084594727,-0.20632337033748627,-1.2709014415740967
1761914912967987000,6.171987060546875,-0.7384473085403442,-0.2821536362171173,-0.8552621006965637
1761914912978041900,6.182041748046875,-0.6231673359870911,-0.28077465295791626,-0.35126417875289917
1761914912988096000,6.192095947265625,-0.5000413060188293,-0.12266910076141357,0.26046788692474365
1761914912998151200,6.202151123046875,-0.34879985451698303,0.15828800201416016,0.899944543838501
1761914913008205800,6.212205810546875,-0.15825457870960236,0.38297557830810547,1.4671095609664917
1761914913018261000,6.222260986328125,-0.0034375758841633797,0.45253095030784607,1.8624651432037354
1761914913028316000,6.23231591796875,0.07906674593687057,0.3665611445903778,2.062025547027588
1761914913038369800,6.242369873046875,0.09868385642766953,0.12857894599437714,2.0755724906921387
1761914913048425000,6.252425048828125,0.07904618233442307,-0.23768679797649384,1.9431496858596802
1761914913058480000,6.262480224609375,0.013596606440842152,-0.6591531038284302,1.7297199964523315
1761914913068535000,6.27253515625,-0.12965866923332214,-1.0172497034072876,1.4627755880355835
1761914913078589000,6.2825888671875,-0.33863770961761475,-1.134669303894043,1.1638253927230835
1761914913088644000,6.29264404296875,-0.5196952819824219,-0.9550119042396545,0.8689868450164795
1761914913098698800,6.30269873046875,-0.5966143012046814,-0.5953972935676575,0.6275838017463684
1761914913108754000,6.31275390625,-0.5834503769874573,-0.1987920105457306,0.4339695870876312
1761914913118809000,6.32280908203125,-0.5258190035820007,0.10338809341192245,0.27951183915138245
1761914913128863000,6.332863037109375,-0.4758388102054596,0.19797933101654053,0.13001365959644318
1761914913138918000,6.34291796875,-0.4876597821712494,0.04763297364115715,-0.02115694060921669
1761914913148973000,6.35297314453125,-0.5562668442726135,-0.30061253905296326,-0.12016457319259644
1761914913159028000,6.363028076171875,-0.5703808069229126,-0.6526121497154236,-0.06986571848392487
1761914913169081900,6.373081787109375,-0.4388195872306824,-0.8806256055831909,0.12145908921957016
1761914913179137000,6.383136962890625,-0.17738237977027893,-0.9905960559844971,0.34433743357658386
1761914913189192000,6.39319189453125,0.10371224582195282,-0.982562780380249,0.46622395515441895
1761914913199246800,6.403246826171875,0.28944775462150574,-0.8435153961181641,0.43206357955932617
1761914913209302000,6.413302001953125,0.36060431599617004,-0.6454440355300903,0.2964570224285126
1761914913219356200,6.423356201171875,0.31822463870048523,-0.6157849431037903,0.11656607687473297
1761914913229410800,6.433410888671875,0.13840392231941223,-0.753844678401947,-0.02958880364894867
1761914913239466000,6.443466064453125,-0.1376766711473465,-0.8685022592544556,-0.12824080884456635
1761914913249521000,6.45352099609375,-0.3660910725593567,-0.9828997254371643,-0.2129545509815216
1761914913259574800,6.46357470703125,-0.412130743265152,-0.9745944142341614,-0.23951612412929535
1761914913269630000,6.4736298828125,-0.23485760390758514,-0.8270919322967529,-0.16141299903392792
1761914913279685000,6.48368505859375,0.11279837787151337,-0.5960025191307068,-0.030033405870199203
1761914913289740000,6.493739990234375,0.5417355895042419,-0.42742595076560974,0.026025287806987762
1761914913299795000,6.503794921875,0.9304207563400269,-0.41497939825057983,-0.10097633302211761
1761914913309849000,6.51384912109375,1.171999216079712,-0.4214771091938019,-0.34530073404312134
1761914913319904000,6.523904052734375,1.2023632526397705,-0.36176425218582153,-0.6142706871032715
1761914913329955600,6.53395556640625,1.0422950983047485,-0.20708446204662323,-0.8435415625572205
1761914913340010500,6.544010498046875,0.7439408302307129,0.004244817886501551,-1.0018835067749023
1761914913350064600,6.554064697265625,0.389957994222641,0.15457525849342346,-1.0674608945846558
1761914913360119600,6.56411962890625,0.07459843903779984,0.20415106415748596,-1.011222243309021
1761914913370174500,6.574174560546875,-0.12626534700393677,0.1998663991689682,-0.8051970601081848
1761914913380229400,6.5842294921875,-0.1897045075893402,0.14129683375358582,-0.5030089616775513
1761914913390283500,6.594283447265625,-0.10480854660272598,0.025223538279533386,-0.23193202912807465
1761914913400338400,6.60433837890625,0.1350562423467636,-0.14073747396469116,-0.10142382234334946
1761914913410393600,6.6143935546875,0.47235286235809326,-0.3513508141040802,-0.16778779029846191
1761914913420448500,6.624448486328125,0.8127719759941101,-0.4983924627304077,-0.3859257102012634
1761914913430503400,6.63450341796875,1.0425485372543335,-0.47502586245536804,-0.6330012083053589
1761914913440557600,6.6445576171875,1.0986000299453735,-0.28647086024284363,-0.8557336330413818
1761914913450612500,6.654612548828125,0.9527190923690796,0.05640256032347679,-1.016403317451477
1761914913460667400,6.66466748046875,0.6039589643478394,0.5296670794487,-1.0726373195648193
1761914913470722600,6.67472265625,0.1443096250295639,0.9137982130050659,-1.0421218872070312
1761914913480776400,6.6847763671875,-0.22378849983215332,0.9889475703239441,-0.9681168794631958
1761914913490831400,6.694831298828125,-0.3820312023162842,0.8385832905769348,-0.8709156513214111
1761914913500886500,6.704886474609375,-0.3847087323665619,0.6263399720191956,-0.7525938153266907
1761914913510941400,6.71494140625,-0.3092585802078247,0.4971902370452881,-0.5890137553215027
1761914913520996600,6.72499658203125,-0.18399468064308167,0.48526298999786377,-0.3481212854385376
1761914913531050500,6.735050537109375,-0.027222400531172752,0.49772799015045166,-0.07950985431671143
1761914913541105400,6.74510546875,0.15543609857559204,0.5019104480743408,0.18354655802249908
1761914913551160600,6.75516064453125,0.3323168456554413,0.5355430245399475,0.4489174485206604
1761914913561215500,6.765215576171875,0.4738263189792633,0.6231628656387329,0.6964763402938843
1761914913571269600,6.77526953125,0.5461411476135254,0.7068582773208618,0.8840216994285583
1761914913581324500,6.785324462890625,0.5232176780700684,0.7668920755386353,0.9871802926063538
1761914913591379500,6.79537939453125,0.40845775604248047,0.8011181354522705,0.9920120239257812
1761914913601434400,6.805434326171875,0.2163868248462677,0.7913709878921509,0.9126372933387756
1761914913611489500,6.815489501953125,0.04140303656458855,0.76543128490448,0.850432276725769
1761914913621543400,6.82554345703125,-0.017804626375436783,0.7335183620452881,0.8342024683952332
1761914913631598600,6.8355986328125,0.030206721276044846,0.6335482597351074,0.8315557241439819
1761914913641653500,6.845653564453125,0.13597708940505981,0.4026980400085449,0.7815817594528198
1761914913651708400,6.85570849609375,0.2224227637052536,0.15705259144306183,0.6679035425186157
1761914913661762600,6.865762451171875,0.2938774824142456,0.05694250389933586,0.5753656029701233
1761914913671817500,6.8758173828125,0.38288459181785583,0.09489501267671585,0.6045789122581482
1761914913681872400,6.885872314453125,0.44611096382141113,0.07183150202035904,0.7050354480743408
1761914913691927600,6.895927490234375,0.40582504868507385,-0.27166512608528137,0.6985085606575012
1761914913701982500,6.905982421875,0.26956707239151,-0.8086803555488586,0.5115626454353333
1761914913712036400,6.916036376953125,0.1335911899805069,-1.2363340854644775,0.23269802331924438
1761914913722091500,6.926091552734375,-0.014018243178725243,-1.510797142982483,-0.017562685534358025
1761914913732146400,6.936146484375,-0.20621058344841003,-1.6951749324798584,-0.07581952959299088
1761914913742201600,6.94620166015625,-0.4144388735294342,-1.6685504913330078,0.162603959441185
1761914913752255500,6.95625537109375,-0.526183009147644,-1.343538761138916,0.6478176116943359
1761914913762310400,6.966310302734375,-0.4256936311721802,-0.8550112843513489,1.130656361579895
1761914913772365600,6.976365478515625,-0.09980009496212006,-0.31890740990638733,1.3868781328201294
1761914913782420500,6.98642041015625,0.34574010968208313,0.18273867666721344,1.3164867162704468
1761914913792475400,6.996475341796875,0.742718517780304,0.5894551873207092,0.9563987255096436
1761914913802529500,7.006529541015625,0.9783105254173279,0.7748572826385498,0.414560467004776
1761914913812584400,7.01658447265625,0.9810629487037659,0.6993368268013,-0.18902015686035156
1761914913822639400,7.026639404296875,0.7755111455917358,0.5680864453315735,-0.716874897480011
1761914913832694500,7.036694580078125,0.4752928912639618,0.4063589870929718,-1.1078565120697021
1761914913842748400,7.04674853515625,0.20082566142082214,0.18956513702869415,-1.3431683778762817
1761914913852803600,7.056803466796875,-0.010414007119834423,0.03905044123530388,-1.370710849761963
1761914913862858500,7.0668583984375,-0.17560483515262604,0.048713989555835724,-1.1744569540023804
1761914913872913400,7.076913330078125,-0.2584215998649597,0.11690191924571991,-0.8816343545913696
1761914913882968300,7.08696826171875,-0.12463238090276718,0.04795693978667259,-0.6199332475662231
1761914913893022500,7.0970224609375,0.28553253412246704,-0.3026202321052551,-0.4645523726940155
1761914913903077400,7.107077392578125,0.7941709756851196,-0.7236577272415161,-0.34888115525245667
1761914913913132500,7.117132568359375,1.1196577548980713,-0.9899230599403381,-0.2109343409538269
1761914913923187500,7.1271875,1.1495344638824463,-1.0535225868225098,-0.03386076167225838
1761914913933241300,7.137241455078125,0.94953852891922,-0.9671167135238647,0.17186464369297028
1761914913943296500,7.147296630859375,0.6154953241348267,-0.762012243270874,0.39877554774284363
1761914913953351400,7.157351318359375,0.2472454160451889,-0.5032854080200195,0.6235333681106567
1761914913963406600,7.167406494140625,-0.09858416020870209,-0.22027556598186493,0.8130388855934143
1761914913973461500,7.17746142578125,-0.36961865425109863,0.08624967932701111,0.9780468940734863
1761914913983515400,7.187515380859375,-0.5182536840438843,0.43599650263786316,1.124777913093567
1761914913993570600,7.197570556640625,-0.5167253613471985,0.727932870388031,1.2313679456710815
1761914914003625500,7.20762548828125,-0.3880262076854706,0.8136157989501953,1.2355155944824219
1761914914013680400,7.217680419921875,-0.20298439264297485,0.7125827670097351,1.1242467164993286
1761914914023734500,7.227734619140625,-0.037515003234148026,0.5405239462852478,0.9378001689910889
1761914914033789400,7.23778955078125,0.06509867310523987,0.3999573290348053,0.7241069078445435
1761914914043844400,7.24784423828125,0.082776740193367,0.3322374224662781,0.5186520218849182
1761914914053899500,7.2578994140625,0.014243022538721561,0.31992682814598083,0.3528834581375122
1761914914063954400,7.267954345703125,-0.11422707140445709,0.3384206295013428,0.23197273910045624
1761914914074008600,7.278008544921875,-0.26152342557907104,0.3809422254562378,0.1522018313407898
1761914914084063500,7.2880634765625,-0.3995228409767151,0.44129398465156555,0.08594691008329391
1761914914094118400,7.298118408203125,-0.5010231137275696,0.511843204498291,0.0323784165084362
1761914914104173300,7.30817333984375,-0.5298478603363037,0.4626922011375427,-0.018092479556798935
1761914914114227500,7.3182275390625,-0.47707822918891907,0.19985421001911163,-0.06422090530395508
1761914914124282400,7.328282470703125,-0.3803085386753082,-0.21067208051681519,-0.0750940665602684
1761914914134337500,7.338337646484375,-0.2841183841228485,-0.5641129016876221,-0.03978317975997925
1761914914144392400,7.348392333984375,-0.20102617144584656,-0.765785813331604,0.0223558247089386
1761914914154447600,7.358447509765625,-0.11944945156574249,-0.7551997303962708,0.05970688909292221
1761914914164501500,7.36850146484375,-0.07645244896411896,-0.26143530011177063,0.06717438995838165
1761914914174556400,7.378556396484375,-0.08566677570343018,0.7093890309333801,-0.014929553493857384
1761914914184611600,7.388611572265625,0.02129242941737175,0.914418637752533,-0.3018878400325775
1761914914194666500,7.39866650390625,0.13013316690921783,0.5978356003761292,-0.6506744623184204
1761914914204720400,7.408720458984375,0.08872607350349426,0.39219483733177185,-0.9044167399406433
1761914914214775600,7.418775634765625,-0.07814440131187439,0.4020024538040161,-1.0321075916290283
1761914914224830500,7.42883056640625,-0.23900972306728363,0.5509727597236633,-1.039379596710205
1761914914234885400,7.438885498046875,-0.27610674500465393,0.6982529759407043,-0.938325047492981
1761914914244940500,7.4489404296875,-0.14717327058315277,0.7517010569572449,-0.7479646801948547
1761914914254994400,7.458994384765625,0.09269999712705612,0.8351331353187561,-0.45355549454689026
1761914914265049300,7.46904931640625,0.3307975232601166,0.8923208117485046,-0.18886977434158325
1761914914275104500,7.4791044921875,0.5027961134910583,0.8597044944763184,-0.0731508880853653
1761914914285159700,7.48915966796875,0.6170853972434998,0.687946617603302,-0.15078310668468475
1761914914295213600,7.499213623046875,0.6429476141929626,0.32400909066200256,-0.422977089881897
1761914914305268500,7.5092685546875,0.5702275633811951,-0.05720936506986618,-0.7994316220283508
1761914914315323600,7.51932373046875,0.4276500642299652,-0.40176379680633545,-1.1653167009353638
1761914914325381400,7.52938134765625,0.3295525312423706,-0.7294516563415527,-1.4699721336364746
1761914914335436300,7.539436279296875,0.28468844294548035,-1.0036758184432983,-1.6972885131835938
1761914914345490200,7.549490234375,0.19233082234859467,-1.1241148710250854,-1.8299086093902588
1761914914355545300,7.55954541015625,0.028134070336818695,-1.034305214881897,-1.8333646059036255
1761914914365600300,7.569600341796875,-0.18562960624694824,-0.7710797190666199,-1.715126872062683
1761914914375655400,7.579655517578125,-0.2989864945411682,-0.5411489009857178,-1.5312883853912354
1761914914385709300,7.589709228515625,-0.15928396582603455,-0.5527229905128479,-1.3327186107635498
1761914914395764200,7.59976416015625,0.21831558644771576,-0.7810940146446228,-1.1397547721862793
1761914914405819400,7.6098193359375,0.6323127150535583,-1.0443165302276611,-0.9836861491203308
1761914914415874300,7.619874267578125,0.8325995206832886,-1.1385565996170044,-0.8709308505058289
1761914914425929200,7.62992919921875,0.729079008102417,-0.9965254068374634,-0.7865001559257507
1761914914435983400,7.6399833984375,0.38440436124801636,-0.7014608383178711,-0.6978928446769714
1761914914446038300,7.650038330078125,-0.09308364242315292,-0.29063305258750916,-0.5683712959289551
1761914914456093200,7.66009326171875,-0.605601966381073,0.1971697062253952,-0.39845263957977295
1761914914466148400,7.6701484375,-1.0572189092636108,0.6656674146652222,-0.20573139190673828
1761914914476202200,7.6802021484375,-1.3959667682647705,1.0293117761611938,-0.011163989081978798
1761914914486257400,7.69025732421875,-1.5816047191619873,1.2184982299804688,0.15427584946155548
1761914914496312300,7.700312255859375,-1.6095383167266846,1.2216992378234863,0.2885333001613617
1761914914506367200,7.7103671875,-1.456562876701355,1.1373993158340454,0.42806535959243774
1761914914516422100,7.720422119140625,-1.1504544019699097,1.0235058069229126,0.5863857269287109
1761914914526476300,7.730476318359375,-0.7774673104286194,0.9049096703529358,0.7367376685142517
1761914914536531200,7.74053125,-0.43859854340553284,0.8148658275604248,0.8524221181869507
1761914914546586400,7.75058642578125,-0.23198199272155762,0.7603538632392883,0.9358211159706116
1761914914556641300,7.760641357421875,-0.1852295994758606,0.6738166809082031,0.9670396447181702
1761914914566696400,7.770696533203125,-0.24530598521232605,0.5280304551124573,0.951960027217865
1761914914576750300,7.780750244140625,-0.364249587059021,0.3528268039226532,0.8965361714363098
1761914914586805200,7.79080517578125,-0.4840380549430847,0.21987992525100708,0.8394598364830017
1761914914596860400,7.8008603515625,-0.5521561503410339,0.14287063479423523,0.7936971187591553
1761914914606915300,7.810915283203125,-0.5234004259109497,0.10861945897340775,0.7772654294967651
1761914914616969500,7.820969482421875,-0.3925088346004486,0.10580430179834366,0.782503068447113
1761914914627024400,7.8310244140625,-0.19159092009067535,0.12628722190856934,0.7902309894561768
1761914914637079300,7.841079345703125,0.037348672747612,0.15219388902187347,0.8009141087532043
1761914914647134200,7.85113427734375,0.25714388489723206,0.15418539941310883,0.8041724562644958
1761914914657189400,7.861189453125,0.44806739687919617,0.08804357051849365,0.773253321647644
1761914914667243300,7.8712431640625,0.566617488861084,-0.01320821326225996,0.6881120800971985
1761914914677298400,7.88129833984375,0.5979666113853455,-0.15425027906894684,0.5411810874938965
1761914914687353300,7.891353271484375,0.549818754196167,-0.40372613072395325,0.3191714286804199
1761914914697408300,7.901408203125,0.4025026559829712,-0.7386448979377747,0.07176536321640015
1761914914707462400,7.91146240234375,0.15008291602134705,-0.9697042107582092,-0.11405830085277557
1761914914717517300,7.921517333984375,-0.15394707024097443,-0.8151270151138306,-0.13201822340488434
1761914914727572200,7.931572265625,-0.3922747075557709,-0.3389924168586731,0.03248630091547966
1761914914737627400,7.94162744140625,-0.4833962619304657,0.1655011773109436,0.2824782729148865
1761914914747682300,7.951682373046875,-0.42397552728652954,0.5464852452278137,0.5243966579437256
1761914914757736200,7.961736083984375,-0.25821712613105774,0.808025598526001,0.6861801147460938
1761914914767791400,7.971791259765625,-0.036904435604810715,0.8907396793365479,0.7306615710258484
1761914914777846300,7.98184619140625,0.1856945902109146,0.6405481696128845,0.6277531385421753
1761914914787901400,7.9919013671875,0.37382110953330994,0.1088176742196083,0.381329745054245
1761914914797955300,8.001955322265625,0.5086076855659485,-0.4825064539909363,0.029650680720806122
1761914914808008200,8.01200830078125,0.6107564568519592,-0.9820907115936279,-0.4094156324863434
1761914914818062300,8.022062255859375,0.6825409531593323,-1.3423850536346436,-0.8857847452163696
1761914914828117200,8.0321171875,0.694226861000061,-1.4160864353179932,-1.3305126428604126
1761914914838172200,8.042172119140625,0.6325725317001343,-1.1096901893615723,-1.6261546611785889
1761914914848227300,8.052227294921876,0.5086681842803955,-0.5382208824157715,-1.7255587577819824
1761914914858282200,8.0622822265625,0.3493831753730774,0.1265060156583786,-1.626373291015625
1761914914868336000,8.072336181640624,0.22244973480701447,0.6608956456184387,-1.4246796369552612
1761914914878391300,8.082391357421875,0.22883014380931854,0.8410336971282959,-1.243754267692566
1761914914888446200,8.0924462890625,0.38015174865722656,0.6933323740959167,-1.1356029510498047
1761914914898501400,8.10250146484375,0.6039437651634216,0.36020731925964355,-1.110243558883667
1761914914908556300,8.112556396484376,0.7739343643188477,0.009563270956277847,-1.1578025817871094
1761914914918610400,8.1226103515625,0.8012226223945618,-0.28116440773010254,-1.2129528522491455
1761914914928665300,8.132665283203124,0.6720401644706726,-0.4767538607120514,-1.2321451902389526
1761914914938720300,8.14272021484375,0.41877907514572144,-0.5231450796127319,-1.1898329257965088
1761914914948775200,8.152775146484375,0.11088117957115173,-0.349797785282135,-1.0402607917785645
1761914914958829300,8.162829345703125,-0.18430379033088684,0.01479389052838087,-0.7847253084182739
1761914914968884200,8.17288427734375,-0.40781065821647644,0.44355323910713196,-0.4417325556278229
1761914914978939400,8.182939453125,-0.5357984900474548,0.8161044120788574,-0.048883773386478424
1761914914988994300,8.192994384765624,-0.5377987623214722,1.0605969429016113,0.35724109411239624
1761914914999049200,8.20304931640625,-0.42410850524902344,1.1017177104949951,0.718717634677887
1761914915009103400,8.213103271484375,-0.2357468456029892,0.9198022484779358,1.009506106376648
1761914915019158300,8.223158203125,-0.036263734102249146,0.5779392719268799,1.2061257362365723
1761914915029213200,8.233213134765625,0.11383788287639618,0.21812410652637482,1.3362212181091309
1761914915039268400,8.243268310546876,0.16366922855377197,-0.08052625507116318,1.395516276359558
1761914915049322200,8.253322265625,0.09648167341947556,-0.31395789980888367,1.3754205703735352
1761914915059377200,8.263377197265624,-0.07329591363668442,-0.47429537773132324,1.2836110591888428
1761914915069432300,8.273432373046875,-0.2844526469707489,-0.537735104560852,1.1548229455947876
1761914915079487200,8.2834873046875,-0.4836695194244385,-0.4833023250102997,0.9930611252784729
1761914915089542400,8.29354248046875,-0.6165178418159485,-0.3559536933898926,0.8114108443260193
1761914915099596300,8.30359619140625,-0.6595537662506104,-0.21028757095336914,0.6580867767333984
1761914915109651200,8.313651123046874,-0.6095454692840576,-0.09189887344837189,0.5556477308273315
1761914915119706400,8.323706298828125,-0.47932371497154236,0.02870006486773491,0.5195000767707825
1761914915129761300,8.33376123046875,-0.28177201747894287,0.26574215292930603,0.5719438195228577
1761914915139815400,8.3438154296875,-0.06022271513938904,0.6204251646995544,0.710128128528595
1761914915149870300,8.353870361328125,0.1555873453617096,0.8736577033996582,0.8246054649353027
1761914915159925200,8.36392529296875,0.3360899090766907,0.7604624032974243,0.8128414154052734
1761914915169980200,8.373980224609374,0.4469277262687683,0.19960622489452362,0.6575918793678284
1761914915180035300,8.384035400390625,0.4481697678565979,-0.5733998417854309,0.43319401144981384
1761914915190089200,8.394089111328125,0.33636972308158875,-1.3033725023269653,0.18774349987506866
1761914915200144400,8.404144287109375,0.13605648279190063,-1.8182199001312256,-0.05707281082868576
1761914915210199300,8.41419921875,-0.09911130368709564,-1.9038945436477661,-0.19858865439891815
1761914915220254500,8.42425439453125,-0.3064057230949402,-1.450235366821289,-0.1532379388809204
1761914915230309000,8.43430908203125,-0.43610137701034546,-0.7055246829986572,0.03144348785281181
1761914915240363300,8.44436328125,-0.4531551003456116,-0.13519185781478882,0.23817159235477448
1761914915250418400,8.45441845703125,-0.3444691002368927,0.06095847487449646,0.3722572326660156
1761914915260473300,8.464473388671875,-0.14951066672801971,-0.02970254421234131,0.40155544877052307
1761914915270528300,8.4745283203125,0.09432916343212128,-0.22150099277496338,0.3588668406009674
1761914915280582100,8.48458203125,0.336546391248703,-0.5359718799591064,0.2057071328163147
1761914915290637300,8.49463720703125,0.5290918350219727,-0.9410836696624756,-0.06037062034010887
1761914915300692200,8.504692138671874,0.6311724185943604,-1.2970271110534668,-0.40475746989250183
1761914915310747400,8.514747314453125,0.6191607713699341,-1.5729798078536987,-0.8141071796417236
1761914915320802300,8.52480224609375,0.533635675907135,-1.6983667612075806,-1.211766004562378
1761914915330852900,8.534852783203124,0.42925867438316345,-1.54645836353302,-1.5029046535491943
1761914915340907800,8.54490771484375,0.30577170848846436,-1.1003098487854004,-1.6496708393096924
1761914915350962700,8.554962646484375,0.12454436719417572,-0.43531692028045654,-1.6516412496566772
1761914915361017600,8.565017578125,-0.09405308961868286,0.2902296483516693,-1.5426886081695557
1761914915371071700,8.57507177734375,-0.2663723826408386,0.8101828098297119,-1.396386742591858
1761914915381128700,8.585128662109375,-0.22951605916023254,0.8994425535202026,-1.2899917364120483
1761914915391183600,8.59518359375,0.12103371322154999,0.4919187128543854,-1.228217601776123
1761914915401237800,8.60523779296875,0.6713372468948364,-0.29312026500701904,-1.2477359771728516
1761914915411292700,8.615292724609375,1.151045799255371,-1.0541661977767944,-1.3297624588012695
1761914915421347600,8.62534765625,1.3681288957595825,-1.4948559999465942,-1.3902463912963867
1761914915431402800,8.63540283203125,1.258280634880066,-1.5066468715667725,-1.328263759613037
1761914915441457700,8.645457763671875,0.850792407989502,-1.1879608631134033,-1.1337956190109253
1761914915451511600,8.655511474609375,0.2509766221046448,-0.5922425985336304,-0.8051519989967346
1761914915461566700,8.665566650390625,-0.35959815979003906,0.2140897512435913,-0.3511662185192108
1761914915471621600,8.67562158203125,-0.8801845908164978,0.9787133932113647,0.16713817417621613
1761914915481676800,8.6856767578125,-1.285080075263977,1.4809033870697021,0.656075656414032
1761914915491731700,8.695731689453124,-1.5466030836105347,1.598462700843811,1.0442848205566406
1761914915501785900,8.705785888671874,-1.6677918434143066,1.3084723949432373,1.3095027208328247
1761914915511840800,8.7158408203125,-1.6782196760177612,0.7784428596496582,1.477774739265442
1761914915521895700,8.725895751953125,-1.5815263986587524,0.1790979653596878,1.5804238319396973
1761914915531950600,8.73595068359375,-1.4038023948669434,-0.40289804339408875,1.6163344383239746
1761914915542004700,8.746004638671875,-1.1825748682022095,-0.8648452162742615,1.5942283868789673
1761914915552059600,8.7560595703125,-0.9664420485496521,-1.1151903867721558,1.5392638444900513
1761914915562114800,8.76611474609375,-0.784234881401062,-1.1087875366210938,1.4588855504989624
1761914915572169700,8.776169677734375,-0.6566740274429321,-0.8705267906188965,1.3743517398834229
1761914915582224600,8.786224609375,-0.6020276546478271,-0.45842427015304565,1.2850230932235718
1761914915592278800,8.79627880859375,-0.6139591336250305,0.006835536565631628,1.1866462230682373
1761914915602333700,8.806333740234376,-0.6499577760696411,0.38630250096321106,1.087382435798645
1761914915612388600,8.816388671875,-0.6562287211418152,0.6416628956794739,0.9747470021247864
1761914915622443800,8.82644384765625,-0.6003061532974243,0.8488190770149231,0.8922430872917175
1761914915632497700,8.83649755859375,-0.47054946422576904,1.0640257596969604,0.8974428772926331
1761914915642552600,8.846552490234375,-0.2307482659816742,1.254103183746338,0.9700037240982056
1761914915652607700,8.856607666015625,0.07850811630487442,1.2853814363479614,1.0677622556686401
1761914915662662700,8.86666259765625,0.38064420223236084,1.0921683311462402,1.1242269277572632
1761914915672717800,8.8767177734375,0.5668073892593384,0.7407547235488892,1.1108746528625488
1761914915682771700,8.886771728515624,0.5919189453125,0.3280797600746155,1.0517820119857788
1761914915692826600,8.89682666015625,0.4438951015472412,-0.20454899966716766,0.9696308374404907
1761914915702881800,8.9068818359375,0.17786864936351776,-0.8702772855758667,0.8462584614753723
1761914915712936700,8.916936767578125,-0.10642486810684204,-1.4005858898162842,0.7224068641662598
1761914915722991600,8.92699169921875,-0.2672432065010071,-1.4758539199829102,0.6409121751785278
1761914915733045800,8.937045654296876,-0.21746499836444855,-1.1224879026412964,0.5828648805618286
1761914915743100700,8.9471005859375,-0.011002350598573685,-0.5445476174354553,0.4918006956577301
1761914915753155600,8.957155517578125,0.2714162766933441,0.025057774037122726,0.30970197916030884
1761914915763210800,8.967210693359375,0.5876711010932922,0.42223793268203735,0.0211842842400074
1761914915773264600,8.9772646484375,0.9330777525901794,0.5239322781562805,-0.3377895951271057
1761914915783319800,8.98731982421875,1.217328429222107,0.31512218713760376,-0.7374851703643799
1761914915793374700,8.997374755859376,1.3528449535369873,-0.0181987714022398,-1.1080262660980225
1761914915803429600,9.0074296875,1.344844937324524,-0.3470226228237152,-1.4015978574752808
1761914915813484500,9.017484619140625,1.2737457752227783,-0.6713442206382751,-1.6331751346588135
1761914915823538700,9.02753857421875,1.2398004531860352,-0.9098988771438599,-1.7675741910934448
1761914915833593600,9.037593505859375,1.2285014390945435,-0.922365128993988,-1.7757834196090698
1761914915843648800,9.047648681640625,1.1753730773925781,-0.6466555595397949,-1.6341238021850586
1761914915853703700,9.05770361328125,0.9663566946983337,-0.07144234329462051,-1.321325421333313
1761914915863757600,9.067757568359376,0.5859228372573853,0.6305543780326843,-0.9287461042404175
1761914915873812700,9.077812744140624,0.12024141103029251,1.2031922340393066,-0.5694076418876648
1761914915883867600,9.08786767578125,-0.2879456579685211,1.3738749027252197,-0.3690345287322998
1761914915893922800,9.0979228515625,-0.48878636956214905,0.9758057594299316,-0.3747704327106476
1761914915903977700,9.107977783203125,-0.43349382281303406,0.09768461436033249,-0.5969828963279724
1761914915914031900,9.118031982421876,-0.18437643349170685,-0.8823240399360657,-0.9658557176589966
1761914915924086800,9.128086669921874,0.10996679216623306,-1.5513304471969604,-1.3460885286331177
1761914915934141700,9.1381416015625,0.282706618309021,-1.8122535943984985,-1.6399677991867065
1761914915944196600,9.148196533203125,0.28728410601615906,-1.6913230419158936,-1.8001956939697266
1761914915954251800,9.158251708984375,0.1207910105586052,-1.1958928108215332,-1.816226601600647
1761914915964305700,9.1683056640625,-0.15845850110054016,-0.34445691108703613,-1.6802679300308228
1761914915974360800,9.17836083984375,-0.4695093333721161,0.6511719822883606,-1.413517713546753
1761914915984415700,9.188415771484374,-0.720260739326477,1.4624390602111816,-1.0686471462249756
1761914915994471000,9.198470947265625,-0.816499650478363,1.9236817359924316,-0.7097705006599426
1761914916004524800,9.20852490234375,-0.7223329544067383,1.9856716394424438,-0.37217381596565247
1761914916014579700,9.218579833984375,-0.4781138598918915,1.7449865341186523,-0.08916473388671875
1761914916024635000,9.228634765625,-0.16371986269950867,1.3511959314346313,0.14478619396686554
1761914916034689800,9.238689697265626,0.14949636161327362,0.9184572696685791,0.34285932779312134
1761914916044744700,9.24874462890625,0.3832162916660309,0.5013543367385864,0.516304075717926
1761914916054798600,9.258798583984374,0.5097119212150574,0.12065999954938889,0.6478778123855591
1761914916064853800,9.268853759765625,0.513533890247345,-0.14736050367355347,0.7561140656471252
1761914916074908700,9.27890869140625,0.4154995381832123,-0.26958173513412476,0.8538712859153748
1761914916084963800,9.2889638671875,0.2518070340156555,-0.22704821825027466,0.9197778105735779
1761914916095018800,9.299018798828126,0.036543987691402435,-0.09040861576795578,0.9355650544166565
1761914916105072600,9.30907275390625,-0.21956266462802887,-0.0001502858940511942,0.8884676694869995
1761914916115127800,9.3191279296875,-0.493561714887619,-0.07646077126264572,0.8006805777549744
1761914916125182700,9.3291826171875,-0.7036066651344299,-0.23596669733524323,0.7706632018089294
1761914916135237600,9.339237548828125,-0.7663989067077637,-0.3110038936138153,0.8544257283210754
1761914916145291800,9.349291748046875,-0.6491929888725281,-0.23681318759918213,1.0309216976165771
1761914916155346700,9.3593466796875,-0.39606326818466187,-0.12555377185344696,1.1771036386489868
1761914916165401600,9.369401611328126,-0.09800262749195099,-0.04743989184498787,1.1947510242462158
1761914916175456800,9.379456787109374,0.12031399458646774,0.023764515295624733,1.040594458580017
1761914916185512000,9.389511962890625,0.18382114171981812,0.08642244338989258,0.7357065677642822
1761914916195565800,9.39956591796875,0.08617500960826874,0.02468903921544552,0.4123481810092926
1761914916205620700,9.409620849609375,-0.11082848906517029,-0.18309235572814941,0.18676277995109558
1761914916215676000,9.419676025390626,-0.3069157004356384,-0.2775924801826477,0.10692865401506424
1761914916225730600,9.42973046875,-0.3993387222290039,-0.028235366567969322,0.18445026874542236
1761914916235784700,9.43978466796875,-0.31294339895248413,0.4433619976043701,0.37690281867980957
1761914916245840000,9.44983984375,-0.09111326187849045,0.8500772714614868,0.5798600316047668
1761914916255894800,9.459894775390625,0.17651844024658203,0.9508622288703918,0.6695526242256165
1761914916265949700,9.46994970703125,0.4048771560192108,0.7642111778259277,0.6201375722885132
1761914916276004900,9.4800048828125,0.5670580267906189,0.5490953922271729,0.47114887833595276
1761914916286058800,9.490058837890626,0.6847227811813354,0.2813291847705841,0.17699798941612244
1761914916296113700,9.50011376953125,0.7437824010848999,-0.11223248392343521,-0.30099308490753174
1761914916306168800,9.5101689453125,0.7524484992027283,-0.48407554626464844,-0.8542516827583313
1761914916316223700,9.5202236328125,0.6876031756401062,-0.6810498833656311,-1.3758668899536133
1761914916326282500,9.530282470703124,0.5703978538513184,-0.6553237438201904,-1.7754541635513306
1761914916336336600,9.540336669921874,0.46844854950904846,-0.39154744148254395,-1.9778778553009033
1761914916346391600,9.5503916015625,0.4179839491844177,0.11833305656909943,-1.9345189332962036
1761914916356446500,9.560446533203125,0.4084160029888153,0.7797005772590637,-1.6633068323135376
1761914916366501600,9.570501708984375,0.3668873608112335,1.3410134315490723,-1.2308498620986938
1761914916376555800,9.5805556640625,0.21462775766849518,1.6398371458053589,-0.7600427269935608
1761914916386610400,9.5906103515625,0.013179976493120193,1.5076978206634521,-0.3802748918533325
1761914916396665600,9.60066552734375,-0.10586865246295929,0.7634580135345459,-0.23425906896591187
1761914916406720500,9.610720458984375,-0.1206170842051506,-0.4257848560810089,-0.3683849573135376
1761914916416775700,9.620775634765625,-0.09509894251823425,-1.5349845886230469,-0.6936533451080322
1761914916426829600,9.63082958984375,-0.16814522445201874,-2.168447971343994,-1.0648598670959473
1761914916436884700,9.640884765625,-0.4057125151157379,-2.2569375038146973,-1.337658405303955
1761914916446939600,9.650939697265626,-0.7638238668441772,-1.8115906715393066,-1.40720796585083
1761914916456994600,9.66099462890625,-1.1535645723342896,-0.9532580971717834,-1.2692582607269287
1761914916467049500,9.671049560546875,-1.4680325984954834,-0.05674465000629425,-0.9883122444152832
1761914916477103600,9.681103515625,-1.61886727809906,0.5996997952461243,-0.6231033205986023
1761914916487158500,9.691158447265625,-1.5899304151535034,1.0105079412460327,-0.18848900496959686
1761914916497213700,9.701213623046876,-1.4044569730758667,1.2379202842712402,0.30203568935394287
1761914916507268600,9.7112685546875,-1.12017822265625,1.269802212715149,0.7834692597389221
1761914916517322500,9.721322509765624,-0.8021757006645203,1.1553542613983154,1.1816661357879639
1761914916527377700,9.731377685546875,-0.49173763394355774,0.9636523127555847,1.4893521070480347
1761914916537432600,9.7414326171875,-0.22297939658164978,0.7390666007995605,1.6994640827178955
1761914916547487500,9.751487548828125,-0.025891903787851334,0.5352863073348999,1.8006545305252075
1761914916557542700,9.761542724609376,0.08911563456058502,0.4111822247505188,1.773947834968567
1761914916567596800,9.7715966796875,0.11632855981588364,0.3772619068622589,1.615162968635559
1761914916577651500,9.7816513671875,0.07010726630687714,0.4077170193195343,1.3359483480453491
1761914916587706600,9.79170654296875,-0.020748332142829895,0.476033478975296,0.9981162548065186
1761914916597761500,9.801761474609375,-0.11239835619926453,0.5541818737983704,0.6625990271568298
1761914916607816700,9.811816650390625,-0.17865800857543945,0.6463699340820312,0.37390950322151184
1761914916617870600,9.82187060546875,-0.21185484528541565,0.7493492960929871,0.13295386731624603
1761914916627925800,9.83192578125,-0.21793538331985474,0.9223881959915161,-0.0461822971701622
1761914916637980700,9.841980712890624,-0.22500954568386078,1.1434407234191895,-0.12153484672307968
1761914916648035600,9.85203564453125,-0.25018057227134705,1.309557557106018,-0.12517181038856506
1761914916658089700,9.86208984375,-0.2403484433889389,1.371575951576233,-0.08560682088136673
1761914916668144600,9.87214453125,-0.1783904731273651,1.1880438327789307,-0.05245117470622063
1761914916678199600,9.882199462890625,-0.08617212623357773,0.7229967713356018,-0.012595640495419502
1761914916688254700,9.892254638671876,-0.005084443837404251,0.16859956085681915,0.08303338289260864
1761914916698309600,9.9023095703125,0.056753624230623245,-0.33473122119903564,0.2056112289428711
1761914916708363500,9.912363525390624,0.09330526739358902,-0.6658809781074524,0.2538023591041565
1761914916718418700,9.922418701171875,0.08203183859586716,-0.7868382930755615,0.18130311369895935
1761914916728473600,9.9324736328125,0.03501446545124054,-0.6236833333969116,0.11465821415185928
1761914916738528500,9.942528564453125,0.013899327255785465,-0.23743681609630585,0.1500508338212967
1761914916748583700,9.952583740234376,0.0645127221941948,0.2559733986854553,0.2765445411205292
1761914916758637600,9.962637451171876,0.1942422240972519,0.6577045917510986,0.4025948941707611
1761914916768692500,9.9726923828125,0.4057038724422455,0.8132206797599792,0.5029672384262085
1761914916778747600,9.98274755859375,0.6061498522758484,0.36451053619384766,0.5049430727958679
1761914916788802600,9.992802490234375,0.9024755954742432,-0.14933498203754425,0.28605300188064575
1761914916798856400,10.0028564453125,1.1616637706756592,-0.4804175794124603,-0.15248814225196838
1761914916808911600,10.01291162109375,1.228469967842102,-0.5903022885322571,-0.7411948442459106
1761914916818966500,10.022966552734376,1.0797539949417114,-0.4237145781517029,-1.3828673362731934
1761914916829021700,10.033021728515624,0.7957751154899597,-0.06689412891864777,-1.9657870531082153
1761914916839076600,10.04307666015625,0.5046023726463318,0.29160624742507935,-2.363145351409912
1761914916849130800,10.053130859375,0.2637871503829956,0.47809287905693054,-2.5218095779418945
1761914916859185700,10.063185546875,0.22390629351139069,0.43881312012672424,-2.330374002456665
