time,seconds_elapsed,z,y,x
1761914906873539300,0.077539306640625,-0.04849669709801674,-0.14657506346702576,-0.0011587414192035794
1761914906883594500,0.087594482421875,-0.0546581856906414,-0.22039201855659485,-0.05174841359257698
1761914906893649700,0.097649658203125,-0.06449536979198456,-0.27408748865127563,-0.11733115464448929
1761914906903703600,0.10770361328125,-0.08674288541078568,-0.3240172266960144,-0.18125873804092407
1761914906913758500,0.117758544921875,-0.11729200184345245,-0.3803390860557556,-0.24022938311100006
1761914906923813600,0.127813720703125,-0.1456298977136612,-0.40223532915115356,-0.29311683773994446
1761914906933868300,0.137868408203125,-0.16547924280166626,-0.36418968439102173,-0.3420228660106659
1761914906943922400,0.14792236328125,-0.16244244575500488,-0.24133539199829102,-0.37668949365615845
1761914906953977600,0.1579775390625,-0.16938556730747223,-0.061355236917734146,-0.3842315673828125
1761914906964032500,0.168032470703125,-0.19935864210128784,0.08075369894504547,-0.3517276644706726
1761914906974087400,0.17808740234375,-0.23835131525993347,0.16106371581554413,-0.2614939212799072
1761914906984142600,0.188142578125,-0.25233423709869385,0.2355499416589737,-0.12593449652194977
1761914906994196500,0.198196533203125,-0.19629999995231628,0.3262779712677002,0.022276543080806732
1761914907004251400,0.20825146484375,-0.05330183729529381,0.3151209354400635,0.13141421973705292
1761914907014306600,0.218306640625,0.15644127130508423,0.1512393206357956,0.18641062080860138
1761914907024361500,0.228361572265625,0.3359588384628296,-0.07333599776029587,0.24023710191249847
1761914907034415400,0.238415283203125,0.34020498394966125,-0.3368139863014221,0.2766704857349396
1761914907044470500,0.248470458984375,0.09446845203638077,-0.7416852712631226,0.2615002989768982
1761914907054525400,0.258525390625,-0.31537047028541565,-1.141605019569397,0.25185832381248474
1761914907064580400,0.268580322265625,-0.6894425749778748,-1.3375675678253174,0.3231591582298279
1761914907074634500,0.278634521484375,-0.896536648273468,-1.2304104566574097,0.4847016930580139
1761914907084689400,0.288689453125,-0.9489588737487793,-0.8895922303199768,0.6646344661712646
1761914907094744300,0.298744384765625,-0.9175069332122803,-0.2617921829223633,0.7238194942474365
1761914907104799500,0.308799560546875,-0.6427978873252869,-0.28364503383636475,0.4688068926334381
1761914907114853400,0.318853271484375,-0.29258206486701965,-0.2581316828727722,0.13691949844360352
1761914907124908500,0.328908447265625,0.02532985806465149,-0.18019241094589233,-0.14498008787631989
1761914907134963500,0.33896337890625,0.2889638841152191,-0.11864489316940308,-0.32139453291893005
1761914907145018600,0.3490185546875,0.48277437686920166,-0.18465054035186768,-0.4074263572692871
1761914907155072500,0.359072509765625,0.598851203918457,-0.3977540135383606,-0.4534838795661926
1761914907165127400,0.36912744140625,0.6061500906944275,-0.7077864408493042,-0.4301607012748718
1761914907175182600,0.3791826171875,0.5571183562278748,-1.0699092149734497,-0.3065676689147949
1761914907185237500,0.389237548828125,0.5058552026748657,-1.3722456693649292,-0.07269231230020523
1761914907195291400,0.39929150390625,0.44001731276512146,-1.560559630393982,0.244008406996727
1761914907205346600,0.4093466796875,0.33884331583976746,-1.552564024925232,0.5833718180656433
1761914907215401500,0.4194013671875,0.2419404536485672,-1.3690335750579834,0.8271032571792603
1761914907225456400,0.429456298828125,0.23458747565746307,-1.1012839078903198,0.8546909689903259
1761914907235510500,0.439510498046875,0.29068297147750854,-0.8060866594314575,0.6252596378326416
1761914907245565400,0.4495654296875,0.35042619705200195,-0.5317760109901428,0.17741979658603668
1761914907255620400,0.459620361328125,0.39642083644866943,-0.33711889386177063,-0.39860570430755615
1761914907265675500,0.469675537109375,0.41893893480300903,-0.1855086088180542,-0.9170238375663757
1761914907275729400,0.4797294921875,0.38908651471138,-0.014258031733334064,-1.2221070528030396
1761914907285784600,0.48978466796875,0.3035486936569214,0.1436605006456375,-1.301566481590271
1761914907295839500,0.499839599609375,0.1915515810251236,0.30013132095336914,-1.1825196743011475
1761914907305894400,0.509894287109375,0.1109909638762474,0.49269863963127136,-0.903937578201294
1761914907315948500,0.519948486328125,0.08507122099399567,0.6870830655097961,-0.5457786321640015
1761914907326003200,0.530003173828125,0.1032363772392273,0.8132689595222473,-0.20421145856380463
1761914907336058000,0.54005810546875,0.11830560117959976,0.8524703979492188,0.057368483394384384
1761914907346113300,0.55011328125,0.11118298023939133,0.8355438709259033,0.22858764231204987
1761914907356168000,0.56016796875,0.07874461263418198,0.77818363904953,0.347509503364563
1761914907366222000,0.57022216796875,0.029701435938477516,0.669912576675415,0.42967653274536133
1761914907376277200,0.58027734375,-0.036739107221364975,0.5328042507171631,0.4977927505970001
1761914907386332200,0.590332275390625,-0.11108896881341934,0.40325823426246643,0.5699279308319092
1761914907396387000,0.600386962890625,-0.17546449601650238,0.23237384855747223,0.6336517930030823
1761914907406441200,0.610441162109375,-0.25984275341033936,0.05341155827045441,0.6838928461074829
1761914907416496000,0.62049609375,-0.3657399117946625,-0.08989100903272629,0.7147231698036194
1761914907426551000,0.630551025390625,-0.4796014726161957,-0.17594599723815918,0.7068157196044922
1761914907436606200,0.640606201171875,-0.590794026851654,-0.23159541189670563,0.6592072248458862
1761914907446660000,0.65066015625,-0.6748564839363098,-0.2800596058368683,0.5781789422035217
1761914907456715000,0.660715087890625,-0.7168853878974915,-0.3594154119491577,0.466942697763443
1761914907466770200,0.670770263671875,-0.7243611812591553,-0.47387808561325073,0.3537743091583252
1761914907476825000,0.6808251953125,-0.7089481353759766,-0.645773708820343,0.23420052230358124
1761914907486879200,0.690879150390625,-0.6185063719749451,-0.7651208639144897,0.1273837834596634
1761914907496934100,0.70093408203125,-0.3724057972431183,-0.7073129415512085,0.10317032784223557
1761914907506989000,0.710989013671875,0.029524868354201317,-0.5446052551269531,0.1613958179950714
1761914907517044000,0.7210439453125,0.42029687762260437,-0.4709920287132263,0.22695457935333252
1761914907527098000,0.73109814453125,0.6024291515350342,-0.5630148649215698,0.22074489295482635
1761914907537153000,0.741153076171875,0.5064796805381775,-0.9736732840538025,0.1039905771613121
1761914907547208200,0.751208251953125,0.2162201851606369,-1.6339174509048462,-0.04134557396173477
1761914907557263000,0.76126318359375,-0.0886201485991478,-2.2262260913848877,-0.06927334517240524
1761914907567317000,0.77131689453125,-0.3620860278606415,-2.5459606647491455,0.06501628458499908
1761914907577372200,0.7813720703125,-0.5758739709854126,-2.4759609699249268,0.3431139588356018
1761914907587427000,0.791427001953125,-0.726102888584137,-2.043337345123291,0.6244444251060486
1761914907597482200,0.801482177734375,-0.7770462036132812,-1.3914330005645752,0.7366543412208557
1761914907607536000,0.8115361328125,-0.6669285297393799,-0.6654174327850342,0.6186310052871704
1761914907617591000,0.821591064453125,-0.39048999547958374,0.03618037328124046,0.3545905649662018
1761914907627646200,0.831646240234375,-0.034807514399290085,0.6275536417961121,0.043891824781894684
1761914907637701000,0.841701171875,0.2948276400566101,0.9953580498695374,-0.23861177265644073
1761914907647756000,0.851756103515625,0.5123900771141052,1.116864800453186,-0.42272087931632996
1761914907657810200,0.86181005859375,0.6281619071960449,1.079525113105774,-0.4736405313014984
1761914907667865000,0.871864990234375,0.672237753868103,0.7938896417617798,-0.4579523801803589
1761914907677920000,0.881919921875,0.6508773565292358,0.2705601155757904,-0.4335189461708069
1761914907687975200,0.89197509765625,0.5815664529800415,-0.2818431258201599,-0.37391233444213867
1761914907698029000,0.902029052734375,0.5317261815071106,-0.6423328518867493,-0.2650689482688904
1761914907708084200,0.912084228515625,0.5364215970039368,-0.6966134309768677,-0.15140657126903534
1761914907718139100,0.92213916015625,0.5585644841194153,-0.4704929292201996,-0.07045712321996689
1761914907728194000,0.932194091796875,0.5440260171890259,-0.07790305465459824,-0.05374498665332794
1761914907738248200,0.942248291015625,0.47623151540756226,0.38710111379623413,-0.11876580119132996
1761914907748303000,0.95230322265625,0.38681161403656006,0.8327677845954895,-0.2526799142360687
1761914907758358000,0.96235791015625,0.26526176929473877,1.191534161567688,-0.431793749332428
1761914907768413200,0.9724130859375,0.09355472028255463,1.4500938653945923,-0.6175795793533325
1761914907778467000,0.982467041015625,-0.12039671838283539,1.5915333032608032,-0.7725273370742798
1761914907788522000,0.99252197265625,-0.3491755723953247,1.5684220790863037,-0.8998464345932007
1761914907798577200,1.0025771484375,-0.5364466309547424,1.389680027961731,-0.9715411067008972
1761914907808632000,1.012632080078125,-0.6585763096809387,1.1172655820846558,-0.9685453176498413
1761914907818686000,1.02268603515625,-0.7076746225357056,0.8407207727432251,-0.8810168504714966
1761914907828741000,1.0327412109375,-0.696966290473938,0.6477420330047607,-0.7080562114715576
1761914907838796000,1.042796142578125,-0.6405834555625916,0.5929186940193176,-0.4891635775566101
1761914907848851200,1.052851318359375,-0.5197635293006897,0.6066473126411438,-0.2534136176109314
1761914907858905000,1.062905029296875,-0.34761494398117065,0.6317758560180664,-0.018073009327054024
1761914907868960300,1.072960205078125,-0.15883971750736237,0.6432860493659973,0.20183804631233215
1761914907879015200,1.08301513671875,-0.002788063371554017,0.6259544491767883,0.40234506130218506
1761914907889070000,1.093070068359375,0.10126297175884247,0.6460402607917786,0.602981448173523
1761914907899124200,1.103124267578125,0.1758946031332016,0.6324788928031921,0.7869265675544739
1761914907909179100,1.11317919921875,0.20793695747852325,0.5414299368858337,0.9268578290939331
1761914907919234000,1.123234130859375,0.17754070460796356,0.3786085546016693,1.0237337350845337
1761914907929289200,1.133289306640625,0.08035475760698318,0.18489715456962585,1.0788787603378296
1761914907939344100,1.14334423828125,-0.07660502940416336,-0.012606339529156685,1.0870288610458374
1761914907949398000,1.15339794921875,-0.2739577889442444,-0.1775984913110733,1.0505975484848022
1761914907959453200,1.163453125,-0.4835488200187683,-0.3021015226840973,0.965867280960083
1761914907969508000,1.173508056640625,-0.6635931730270386,-0.3730452060699463,0.8399993777275085
1761914907979563000,1.18356298828125,-0.8009318709373474,-0.44025513529777527,0.6669372916221619
1761914907989617200,1.1936171875,-0.9113124012947083,-0.5534930229187012,0.4376431107521057
1761914907999672000,1.203672119140625,-1.018929123878479,-0.6664369106292725,0.17234407365322113
1761914908009727000,1.21372705078125,-1.0975826978683472,-0.7593356370925903,-0.09472677856683731
1761914908019782100,1.2237822265625,-1.0783230066299438,-0.8315715193748474,-0.2717859745025635
1761914908029836300,1.233836181640625,-0.9420676827430725,-0.7744288444519043,-0.26558372378349304
1761914908039891000,1.243890869140625,-0.7614297270774841,-0.5902827382087708,-0.09655983000993729
1761914908049946000,1.253946044921875,-0.6192778944969177,-0.3800660967826843,0.09587805718183517
1761914908060001000,1.2640009765625,-0.5849002003669739,-0.1564367413520813,0.21950173377990723
1761914908070055000,1.274054931640625,-0.6365830898284912,-0.05704091489315033,0.2817331552505493
1761914908080110000,1.284110107421875,-0.8082014918327332,-0.4110381305217743,0.4192412197589874
1761914908090165200,1.294165283203125,-1.1307451725006104,-1.0872546434402466,0.8028272390365601
1761914908100220200,1.30422021484375,-1.5221164226531982,-1.8091106414794922,1.480084776878357
1761914908110274000,1.314274169921875,-1.7670172452926636,-2.30940318107605,2.2927443981170654
1761914908120329200,1.3243291015625,-1.744337797164917,-2.308119058609009,2.8559863567352295
1761914908130384100,1.334384033203125,-1.4554215669631958,-1.8397345542907715,2.9034202098846436
1761914908140439000,1.34443896484375,-0.9011407494544983,-1.022570252418518,2.452601194381714
1761914908150493200,1.3544931640625,-0.2613820731639862,-0.1330461949110031,1.6567727327346802
1761914908160548000,1.364548095703125,0.23259836435317993,0.5550299286842346,0.7396932244300842
1761914908170603000,1.37460302734375,0.48916515707969666,1.1117885112762451,-0.031031684949994087
1761914908180658200,1.384658203125,0.5171858668327332,1.4635987281799316,-0.547376811504364
1761914908190712300,1.39471240234375,0.405974417924881,1.474550485610962,-0.8796804547309875
1761914908200767000,1.40476708984375,0.2664676308631897,1.136957049369812,-1.0814069509506226
1761914908210822100,1.414822265625,0.2042229026556015,0.5753887295722961,-1.1709866523742676
1761914908220877000,1.424876953125,0.29034021496772766,0.00695058424025774,-1.119050145149231
1761914908230931000,1.434930908203125,0.4096008241176605,-0.38304805755615234,-0.9416684508323669
1761914908240986000,1.444986083984375,0.4389539361000061,-0.5301131010055542,-0.701517641544342
1761914908251041300,1.455041259765625,0.35349467396736145,-0.4304927885532379,-0.4607369899749756
1761914908261096000,1.465095947265625,0.20015306770801544,-0.14351695775985718,-0.2725793421268463
1761914908271151000,1.475151123046875,0.0607733353972435,0.19546537101268768,-0.14777454733848572
1761914908281205200,1.485205322265625,-0.014688398689031601,0.465374618768692,-0.09259545058012009
1761914908291260000,1.495260009765625,-0.026044117286801338,0.5899482369422913,-0.08955305069684982
1761914908301315000,1.505315185546875,-0.03261493518948555,0.595425009727478,-0.1253557950258255
1761914908311370200,1.515370361328125,-0.08417293429374695,0.43034791946411133,-0.23559574782848358
1761914908321429200,1.52542919921875,-0.18292294442653656,0.1498584747314453,-0.386066734790802
1761914908331484200,1.535484130859375,-0.3127935826778412,-0.09376377612352371,-0.5049518346786499
1761914908341539000,1.5455390625,-0.4301399290561676,-0.13172952830791473,-0.5521281361579895
1761914908351594200,1.55559423828125,-0.4991501569747925,0.05878741666674614,-0.49976933002471924
1761914908361648000,1.565648193359375,-0.4768142104148865,0.4423843324184418,-0.3502829074859619
1761914908371703000,1.575703125,-0.32928895950317383,0.7834383249282837,-0.17412732541561127
1761914908381758200,1.58575830078125,-0.07612033188343048,0.9729028344154358,-0.033113744109869
1761914908391813400,1.5958134765625,0.18656562268733978,0.9268759489059448,0.04059775918722153
1761914908401867300,1.6058671875,0.40024301409721375,0.6780927181243896,0.08919485658407211
1761914908411922200,1.615922119140625,0.5564683079719543,0.32611820101737976,0.1516241431236267
1761914908421977300,1.625977294921875,0.6470019221305847,-0.03585120663046837,0.2280387580394745
1761914908432032000,1.636031982421875,0.656995952129364,-0.391965389251709,0.30115318298339844
1761914908442086100,1.646086181640625,0.5838248133659363,-0.6973037123680115,0.3578585386276245
1761914908452141300,1.656141357421875,0.4425228238105774,-0.9027684330940247,0.4050905108451843
1761914908462196200,1.6661962890625,0.25038081407546997,-1.0061800479888916,0.4474765658378601
1761914908472251100,1.676251220703125,0.05634476616978645,-1.0012774467468262,0.4904181957244873
1761914908482305300,1.68630517578125,-0.10366940498352051,-0.8711141347885132,0.5354391932487488
1761914908492360200,1.696360107421875,-0.236667662858963,-0.6834859251976013,0.5655035972595215
1761914908502415000,1.7064150390625,-0.3299190402030945,-0.5674983263015747,0.52070152759552
1761914908512470300,1.71647021484375,-0.37077513337135315,-0.5473874807357788,0.410875141620636
1761914908522524200,1.726524169921875,-0.3661002218723297,-0.5860099792480469,0.3263600170612335
1761914908532579000,1.7365791015625,-0.31089314818382263,-0.5452353358268738,0.333469033241272
1761914908542634200,1.74663427734375,-0.18815845251083374,-0.3635691702365875,0.39595746994018555
1761914908552689200,1.756689208984375,-0.059724848717451096,-0.21320468187332153,0.3912295401096344
1761914908562743300,1.766743408203125,0.0032413334120064974,-0.1892295777797699,0.2955980896949768
1761914908572798200,1.776798095703125,0.08439690619707108,-0.21599754691123962,0.2555500268936157
1761914908582853000,1.78685302734375,0.15305133163928986,-0.2820521891117096,0.3675175607204437
1761914908592908000,1.796907958984375,0.024114657193422318,-0.38721564412117004,0.5462910532951355
1761914908602962200,1.806962158203125,-0.26405349373817444,-0.4763558804988861,0.6554827690124512
1761914908613017000,1.81701708984375,-0.5054035186767578,-0.5587778091430664,0.6519005298614502
1761914908623072300,1.827072265625,-0.6928165555000305,-0.7005162835121155,0.5609692931175232
1761914908633127200,1.837127197265625,-0.78371661901474,-0.6254087686538696,0.5267879366874695
1761914908643181000,1.84718115234375,-0.720721960067749,-0.427566260099411,0.6216161251068115
1761914908653236200,1.857236328125,-0.5844591856002808,-0.11058856546878815,0.7882578372955322
1761914908663291100,1.867291015625,-0.28696465492248535,0.12659841775894165,0.798579752445221
1761914908673346300,1.87734619140625,0.09421970695257187,-0.013529124669730663,0.5256672501564026
1761914908683400200,1.887400146484375,0.31552067399024963,-0.21824125945568085,0.15234293043613434
1761914908693455000,1.897455078125,0.3550848662853241,-0.3345572054386139,-0.1764272302389145
1761914908703510300,1.90751025390625,0.2813749611377716,-0.3131749629974365,-0.36730530858039856
1761914908713565200,1.917565185546875,0.19127275049686432,-0.023976173251867294,-0.4394862949848175
1761914908723620000,1.9276201171875,0.23912283778190613,0.5544903874397278,-0.47061997652053833
1761914908733674200,1.93767431640625,0.4854351282119751,1.1492488384246826,-0.5855599045753479
1761914908743729200,1.947729248046875,0.797308087348938,1.5652412176132202,-0.8241823315620422
1761914908753784000,1.9577841796875,1.017861008644104,1.7675451040267944,-1.0961682796478271
1761914908763839200,1.967839111328125,1.0845249891281128,1.6287070512771606,-1.3162457942962646
1761914908773893000,1.97789306640625,0.9510678052902222,1.1715648174285889,-1.460369348526001
1761914908783948300,1.9879482421875,0.6062076091766357,0.5143094062805176,-1.5142321586608887
1761914908794003200,1.998003173828125,0.13789102435112,-0.11248579621315002,-1.463843822479248
1761914908804058000,2.00805810546875,-0.2921184003353119,-0.4198707640171051,-1.3369354009628296
1761914908814112300,2.0181123046875,-0.5572568774223328,-0.4389568567276001,-1.188740611076355
1761914908824167200,2.028167236328125,-0.6567836999893188,-0.2512623369693756,-1.0000874996185303
1761914908834222000,2.03822216796875,-0.614473819732666,0.04073784127831459,-0.7668542861938477
1761914908844277200,2.04827734375,-0.4895217716693878,0.3048690855503082,-0.5109516978263855
1761914908854331100,2.0583310546875,-0.33211830258369446,0.5119224190711975,-0.2599034905433655
1761914908864386000,2.068385986328125,-0.1804981380701065,0.609922468662262,-0.0667627826333046
1761914908874441200,2.078441162109375,-0.09603331983089447,0.6124340891838074,0.03967257961630821
1761914908884496100,2.08849609375,-0.10072261840105057,0.5176903009414673,0.11082771420478821
1761914908894550000,2.098550048828125,-0.14592763781547546,0.33969712257385254,0.1671477109193802
1761914908904605200,2.108605224609375,-0.18852730095386505,0.14115819334983826,0.2280118614435196
1761914908914660000,2.11866015625,-0.22566668689250946,-0.04381672292947769,0.3018035292625427
1761914908924715300,2.12871533203125,-0.24111567437648773,-0.19863159954547882,0.3723791539669037
1761914908934769200,2.13876904296875,-0.2532368004322052,-0.3110036849975586,0.42406710982322693
1761914908944824300,2.14882421875,-0.2651909291744232,-0.3823945224285126,0.4388037323951721
1761914908954879200,2.158879150390625,-0.2724381685256958,-0.41200247406959534,0.42680084705352783
1761914908964934100,2.16893408203125,-0.2699316143989563,-0.3952503800392151,0.37426814436912537
1761914908974988300,2.17898828125,-0.26167502999305725,-0.37263748049736023,0.2878943681716919
1761914908985043200,2.189043212890625,-0.25823289155960083,-0.3596053123474121,0.1984553039073944
1761914908995098000,2.19909814453125,-0.2554807662963867,-0.399850457906723,0.13626889884471893
1761914909005153300,2.2091533203125,-0.2341882586479187,-0.4672697186470032,0.10558261722326279
1761914909015207200,2.219207275390625,-0.1751800775527954,-0.5517614483833313,0.0684933066368103
1761914909025262000,2.229261962890625,-0.03965899720788002,-0.5521057844161987,0.015957128256559372
1761914909035317200,2.239317138671875,0.18041877448558807,-0.46619194746017456,-0.01649162545800209
1761914909045372200,2.2493720703125,0.3789033591747284,-0.483533650636673,-0.0010029464028775692
1761914909055426000,2.259426025390625,0.41137102246284485,-0.6655018329620361,0.06937481462955475
1761914909065481200,2.269481201171875,0.2704104483127594,-0.9944379329681396,0.13228000700473785
1761914909075536100,2.2795361328125,0.07844234257936478,-1.3339943885803223,0.23145879805088043
1761914909085591000,2.289591064453125,-0.15058737993240356,-1.665077805519104,0.31915828585624695
1761914909095645200,2.299645263671875,-0.45540159940719604,-1.926889181137085,0.34055864810943604
1761914909105700400,2.309700439453125,-0.7599654793739319,-1.9848589897155762,0.34028273820877075
1761914909115755000,2.319755126953125,-0.9436996579170227,-1.6634883880615234,0.39960092306137085
1761914909125810200,2.32981005859375,-0.942484438419342,-1.0476694107055664,0.4283691942691803
1761914909135865000,2.339864990234375,-0.7125257849693298,-0.3524499237537384,0.35810142755508423
1761914909145919000,2.3499189453125,-0.35154658555984497,0.2744581997394562,0.17540937662124634
1761914909155974100,2.35997412109375,-0.0358557365834713,0.7444467544555664,-0.03464213386178017
1761914909166029300,2.370029296875,0.12658163905143738,1.0151970386505127,-0.1650933474302292
1761914909176084200,2.380084228515625,0.12880085408687592,1.0630806684494019,-0.17591190338134766
1761914909186138000,2.39013818359375,0.06133579462766647,0.8769757151603699,-0.10161291062831879
1761914909196193300,2.400193359375,-0.003489273600280285,0.39379337430000305,-0.06328229606151581
1761914909206248200,2.410248291015625,-0.011860387399792671,-0.2583465874195099,-0.161577969789505
1761914909216303000,2.42030322265625,0.03466770052909851,-0.8406286835670471,-0.3715114891529083
1761914909226357200,2.430357177734375,0.13302277028560638,-1.2291324138641357,-0.6107874512672424
1761914909236412200,2.440412109375,0.257586807012558,-1.3334999084472656,-0.8063055872917175
1761914909246467000,2.450467041015625,0.3942788541316986,-1.1723989248275757,-0.930755615234375
1761914909256522200,2.460522216796875,0.49200010299682617,-0.8286963701248169,-0.9931294918060303
1761914909266576400,2.470576416015625,0.541552722454071,-0.45975375175476074,-1.0067059993743896
1761914909276631000,2.480631103515625,0.5485211610794067,-0.1571805626153946,-0.9632240533828735
1761914909286686200,2.490686279296875,0.5226365923881531,0.03290362283587456,-0.8620843887329102
1761914909296741000,2.5007412109375,0.44371432065963745,0.1609385460615158,-0.7104291319847107
1761914909306795000,2.510794921875,0.2868157923221588,0.2448265254497528,-0.5576707124710083
1761914909316850200,2.52085009765625,0.0942458063364029,0.23367054760456085,-0.46455463767051697
1761914909326901200,2.5309013671875,-0.10618502646684647,0.11770825833082199,-0.45445433259010315
1761914909336956000,2.540955810546875,-0.2664066553115845,-0.08235079795122147,-0.493358314037323
1761914909347010000,2.551010009765625,-0.35003337264060974,-0.31534382700920105,-0.5360093712806702
1761914909357065200,2.561065185546875,-0.33760306239128113,-0.518910825252533,-0.5181467533111572
1761914909367120100,2.5711201171875,-0.23969274759292603,-0.6004184484481812,-0.3951782286167145
1761914909377175000,2.581175048828125,-0.07929934561252594,-0.5203345417976379,-0.1610003411769867
1761914909387229200,2.591229248046875,0.1236891821026802,-0.3248734176158905,0.13833071291446686
1761914909397284000,2.6012841796875,0.3249725103378296,-0.06274034827947617,0.44695645570755005
1761914909407339000,2.611339111328125,0.492539644241333,0.19196970760822296,0.677980363368988
1761914909417394200,2.621394287109375,0.6076140403747559,0.42479896545410156,0.8171132206916809
1761914909427448000,2.631447998046875,0.6523208022117615,0.5966585874557495,0.8466721773147583
1761914909437503000,2.6415029296875,0.6254463195800781,0.6520960330963135,0.7987949252128601
1761914909447558100,2.65155810546875,0.5173810720443726,0.5903125405311584,0.6993226408958435
1761914909457613000,2.661613037109375,0.34957024455070496,0.4618339538574219,0.5926228761672974
1761914909467667200,2.671667236328125,0.16258437931537628,0.3339651823043823,0.5042397379875183
1761914909477722000,2.68172216796875,-0.01318078301846981,0.2577063739299774,0.4502071142196655
1761914909487777000,2.691777099609375,-0.12098713964223862,0.26717498898506165,0.40534189343452454
1761914909497832000,2.70183203125,-0.11942599713802338,0.34172964096069336,0.3533189296722412
1761914909507887000,2.71188720703125,-0.0368829183280468,0.4392402172088623,0.27637165784835815
1761914909517941000,2.72194091796875,0.08217956125736237,0.5130214691162109,0.16698499023914337
1761914909527996200,2.73199609375,0.17250172793865204,0.5196863412857056,0.05047755315899849
1761914909538051000,2.742051025390625,0.21006135642528534,0.44689813256263733,-0.05878368765115738
1761914909548106200,2.752106201171875,0.2523651421070099,0.3247828781604767,-0.11546853929758072
1761914909558160100,2.76216015625,0.34856170415878296,0.2454233467578888,-0.12914520502090454
1761914909568215000,2.772215087890625,0.506889283657074,0.19731226563453674,-0.10542389750480652
1761914909578270200,2.782270263671875,0.6342579126358032,0.1099022626876831,-0.09371903538703918
1761914909588325000,2.7923251953125,0.5984562635421753,-0.034869302064180374,-0.16206321120262146
1761914909598379000,2.80237890625,0.3954367935657501,-0.24162380397319794,-0.3003039062023163
1761914909608434200,2.81243408203125,0.039311718195676804,-0.550960898399353,-0.41483980417251587
1761914909618489000,2.822489013671875,-0.4472486078739166,-0.8749754428863525,-0.3909384608268738
1761914909628544000,2.8325439453125,-0.9952446222305298,-1.048363447189331,-0.2361755222082138
1761914909638598100,2.84259814453125,-1.4096657037734985,-0.9784347414970398,-0.020290091633796692
1761914909648653000,2.852653076171875,-1.502847671508789,-0.6924751400947571,0.16717274487018585
1761914909658708000,2.8627080078125,-1.2851024866104126,-0.35562387108802795,0.27137717604637146
1761914909668763100,2.87276318359375,-0.9213051199913025,-0.11340272426605225,0.326516330242157
1761914909678817000,2.882817138671875,-0.6144471764564514,-0.03183889016509056,0.3798820972442627
1761914909688872200,2.8928720703125,-0.4198009967803955,-0.11354733258485794,0.3947369158267975
1761914909698927000,2.902927001953125,-0.27133509516716003,-0.32253676652908325,0.3777640759944916
1761914909708982000,2.91298193359375,-0.16943776607513428,-0.625390887260437,0.3443661630153656
1761914909719036200,2.9230361328125,-0.13182860612869263,-0.935994565486908,0.2520868480205536
1761914909729091000,2.933091064453125,-0.11024581640958786,-1.2358782291412354,0.09180395305156708
1761914909739146000,2.94314599609375,-0.12661626935005188,-1.4671138525009155,-0.10339882969856262
1761914909749201200,2.953201171875,-0.1938653439283371,-1.4615497589111328,-0.27540600299835205
1761914909759255300,2.96325537109375,-0.23920725286006927,-1.2033299207687378,-0.41043201088905334
1761914909769310000,2.97331005859375,-0.220304936170578,-0.7686604857444763,-0.5041981935501099
1761914909779365000,2.983365234375,-0.14622512459754944,-0.26691052317619324,-0.5154420137405396
1761914909789420000,2.993419921875,-0.0073599121533334255,0.10733550786972046,-0.4496539831161499
1761914909799474000,3.003473876953125,0.19723770022392273,0.2750568687915802,-0.3052557706832886
1761914909809529000,3.013529052734375,0.4141758680343628,0.31869277358055115,-0.10287950932979584
1761914909819584300,3.023584228515625,0.5207561254501343,0.36593297123908997,0.1115422397851944
1761914909829639200,3.03363916015625,0.42418429255485535,0.434072881937027,0.2975560426712036
1761914909839694000,3.043694091796875,0.18587878346443176,0.475986510515213,0.4269438683986664
1761914909849748200,3.053748291015625,-0.10004351288080215,0.46113139390945435,0.5254887938499451
1761914909859803100,3.06380322265625,-0.3737107515335083,0.37997502088546753,0.572553277015686
1761914909869858000,3.073858154296875,-0.574049711227417,0.297564834356308,0.5640931725502014
1761914909879913200,3.083913330078125,-0.6762114763259888,0.2519930899143219,0.5261846780776978
1761914909889967000,3.093967041015625,-0.6484131217002869,0.24781912565231323,0.49365657567977905
1761914909900022000,3.10402197265625,-0.4980635941028595,0.2480417639017105,0.46341797709465027
1761914909910077200,3.1140771484375,-0.2857776880264282,0.25779664516448975,0.4597015380859375
1761914909920132000,3.124132080078125,-0.06989892572164536,0.28717559576034546,0.46476954221725464
1761914909930186000,3.13418603515625,0.07004539668560028,0.3245442509651184,0.46645984053611755
1761914909940241200,3.1442412109375,0.11717589199542999,0.343026340007782,0.4544367492198944
1761914909950296000,3.154296142578125,0.07644177973270416,0.3364219665527344,0.4629058539867401
1761914909960351000,3.16435107421875,-0.012118714861571789,0.3220723271369934,0.5125575661659241
1761914909970405000,3.174405029296875,-0.12084732204675674,0.3303307890892029,0.605885922908783
1761914909980460300,3.184460205078125,-0.22351644933223724,0.35085415840148926,0.7051605582237244
1761914909990515000,3.194514892578125,-0.2898094356060028,0.41939646005630493,0.7818335294723511
1761914910000570000,3.204570068359375,-0.30726540088653564,0.5677148103713989,0.8391812443733215
1761914910010624300,3.214624267578125,-0.22996290028095245,0.7280557751655579,0.8400102853775024
1761914910020679000,3.224678955078125,-0.07875259965658188,0.7627208232879639,0.7303804159164429
1761914910030734000,3.234734130859375,0.06180078163743019,0.6517474055290222,0.5145882368087769
1761914910040789200,3.244789306640625,0.13001765310764313,0.4774443209171295,0.26460129022598267
1761914910050843000,3.2548427734375,0.1622387021780014,0.34942084550857544,0.07263132929801941
1761914910060898000,3.26489794921875,0.24499323964118958,0.2964886426925659,-0.03362400457262993
1761914910070953200,3.274953125,0.3758774995803833,0.2131921648979187,-0.10848892480134964
1761914910081008000,3.285008056640625,0.45557498931884766,-0.07145953923463821,-0.19938740134239197
1761914910091063000,3.29506298828125,0.46061742305755615,-0.4010579288005829,-0.2473493367433548
1761914910101117200,3.3051171875,0.3843492567539215,-0.5391252636909485,-0.1864316612482071
1761914910111172000,3.315172119140625,0.20940834283828735,-0.4786081314086914,-0.03675561770796776
1761914910121227000,3.32522705078125,-0.07264038175344467,-0.2949695885181427,0.1440945863723755
1761914910131282200,3.3352822265625,-0.35490190982818604,-0.10960132628679276,0.2993294596672058
1761914910141336300,3.34533642578125,-0.5198972225189209,-0.06329827755689621,0.3790615499019623
1761914910151391000,3.355390869140625,-0.5573516488075256,-0.024278974160552025,0.4313255548477173
1761914910161446100,3.365446044921875,-0.44664299488067627,0.09443222731351852,0.4251568913459778
1761914910171501000,3.3755009765625,-0.17921635508537292,0.25102370977401733,0.26780107617378235
1761914910181555000,3.385554931640625,0.1550993025302887,0.33849576115608215,-0.014977618120610714
1761914910191610000,3.395610107421875,0.41288718581199646,0.3765832185745239,-0.2954968810081482
1761914910201665300,3.405665283203125,0.5261375904083252,0.4237406253814697,-0.5325733423233032
1761914910211720000,3.415719970703125,0.5235681533813477,0.4878405034542084,-0.6959534883499146
1761914910221774000,3.425774169921875,0.4062148928642273,0.45754173398017883,-0.8179603815078735
1761914910231829200,3.435829345703125,0.24562200903892517,0.3540688753128052,-0.9028826951980591
1761914910241884000,3.4458837890625,0.1106809750199318,0.24553759396076202,-0.8952085375785828
1761914910251939000,3.45593896484375,-0.006111954804509878,0.21276499330997467,-0.8390470147132874
1761914910261993200,3.4659931640625,-0.059847619384527206,0.15772491693496704,-0.8524925112724304
1761914910272047900,3.4760478515625,0.013994911685585976,0.11519449949264526,-1.0021775960922241
1761914910282103000,3.48610302734375,0.1812342405319214,0.10114126652479172,-1.2942073345184326
1761914910292158200,3.496158203125,0.3272010385990143,0.10303317755460739,-1.6886260509490967
1761914910302212000,3.506212158203125,0.37869083881378174,0.15952174365520477,-2.088042736053467
1761914910312267000,3.51626708984375,0.3366912007331848,0.23581412434577942,-2.423652172088623
1761914910322322200,3.526322265625,0.2235843539237976,0.27819859981536865,-2.6332907676696777
1761914910332377000,3.536377197265625,0.06409669667482376,0.28938040137290955,-2.6794350147247314
1761914910342431000,3.546430908203125,-0.14432309567928314,0.351431280374527,-2.5578112602233887
1761914910352486100,3.556486083984375,-0.37327903509140015,0.4791032075881958,-2.2774550914764404
1761914910362541300,3.566541259765625,-0.5888310670852661,0.6651971936225891,-1.89133620262146
1761914910372596200,3.57659619140625,-0.7963903546333313,0.883080244064331,-1.4855109453201294
1761914910382651100,3.586651123046875,-0.9864639043807983,1.055444598197937,-1.1291240453720093
1761914910392705300,3.596705322265625,-1.1055996417999268,1.1847178936004639,-0.8385841250419617
1761914910402760200,3.60676025390625,-1.1106079816818237,1.2938512563705444,-0.5582294464111328
1761914910412815000,3.616815185546875,-1.0150041580200195,1.3520855903625488,-0.2754688560962677
1761914910422870300,3.626870361328125,-0.8175622224807739,1.3760582208633423,0.02743881568312645
1761914910432924200,3.636924072265625,-0.5332964062690735,1.3455655574798584,0.3539796471595764
1761914910442979000,3.64697900390625,-0.21853554248809814,1.2469463348388672,0.6924077868461609
1761914910453034200,3.6570341796875,0.07853715121746063,1.1115453243255615,1.026624321937561
1761914910463089200,3.667089111328125,0.29711076617240906,0.9301971793174744,1.3181544542312622
1761914910473143000,3.67714306640625,0.41686540842056274,0.7229001522064209,1.5112563371658325
1761914910483198200,3.6871982421875,0.45094481110572815,0.4922299385070801,1.5986005067825317
1761914910493253000,3.697253173828125,0.4034710228443146,0.2338700145483017,1.6040256023406982
1761914910503308300,3.707308349609375,0.27238786220550537,0.004947354551404715,1.5554051399230957
1761914910513362200,3.717362060546875,0.07682926952838898,-0.18804021179676056,1.4783529043197632
1761914910523417300,3.727417236328125,-0.13363449275493622,-0.34422582387924194,1.387428879737854
1761914910533472300,3.73747216796875,-0.30606457591056824,-0.45666661858558655,1.2910032272338867
1761914910543527200,3.747527099609375,-0.4058747887611389,-0.4746304154396057,1.207358956336975
1761914910553582000,3.75758203125,-0.43026721477508545,-0.37416186928749084,1.139129877090454
1761914910563636000,3.767635986328125,-0.39205247163772583,-0.18953929841518402,1.0944204330444336
1761914910573691100,3.777691162109375,-0.30474552512168884,0.02977760322391987,1.0486401319503784
1761914910583746300,3.787746337890625,-0.17251957952976227,0.22239606082439423,0.953619658946991
1761914910593801200,3.79780126953125,0.0078584561124444,0.29856911301612854,0.7741864919662476
1761914910603855000,3.807855224609375,0.19228821992874146,0.1795809417963028,0.5298563838005066
1761914910613910300,3.81791015625,0.34399890899658203,-0.004811266902834177,0.3031931519508362
1761914910623965200,3.827965087890625,0.4294557571411133,-0.08932721614837646,0.14131291210651398
1761914910634020000,3.83802001953125,0.4009804427623749,-0.09875907003879547,0.023848874494433403
1761914910644074200,3.84807421875,0.2160651832818985,-0.13797171413898468,-0.04511474817991257
1761914910654129200,3.858129150390625,-0.06400135159492493,-0.03828107565641403,0.07309524714946747
1761914910664184000,3.86818408203125,-0.2591111958026886,0.06327936798334122,0.42912232875823975
1761914910674239200,3.8782392578125,-0.3063066601753235,0.1082119569182396,0.9334827065467834
1761914910684293400,3.88829345703125,-0.1935974359512329,0.03680648282170296,1.2925844192504883
1761914910694348000,3.89834814453125,0.0030328077264130116,-0.24908146262168884,1.1832046508789062
1761914910704403200,3.9084033203125,0.18412989377975464,-0.6136540770530701,0.6117038726806641
1761914910714458000,3.9184580078125,0.3271118104457855,-0.9114881753921509,-0.19892720878124237
1761914910724512000,3.928511962890625,0.4003777801990509,-1.1416559219360352,-0.9511991143226624
1761914910734567200,3.938567138671875,0.3462620675563812,-1.4379429817199707,-1.3330814838409424
1761914910744622300,3.948622314453125,0.2025080919265747,-1.7437111139297485,-1.2690281867980957
1761914910754677200,3.95867724609375,0.08911629021167755,-2.0622730255126953,-0.9136549234390259
1761914910764732200,3.968732177734375,0.06847040355205536,-2.402280807495117,-0.47854846715927124
1761914910774786300,3.978786376953125,0.05914294719696045,-2.6393980979919434,-0.09652574360370636
1761914910784841200,3.98884130859375,0.010948521085083485,-2.656956672668457,0.19605712592601776
1761914910794896100,3.998896240234375,-0.045647911727428436,-2.3887505531311035,0.4378420412540436
1761914910804948000,4.008947998046875,-0.07046511024236679,-1.8742650747299194,0.6407485604286194
1761914910815003100,4.019003173828125,-0.07310962677001953,-1.2631028890609741,0.7485690116882324
1761914910825058300,4.029058349609375,-0.10134419798851013,-0.768548846244812,0.6833149194717407
1761914910835112200,4.0391123046875,-0.16434340178966522,-0.5109178423881531,0.4784611165523529
1761914910845167000,4.0491669921875,-0.24475781619548798,-0.4499194920063019,0.21504279971122742
1761914910855222300,4.05922216796875,-0.35474345088005066,-0.444828063249588,-0.029891585931181908
1761914910865277200,4.069277099609375,-0.4667852818965912,-0.4729955196380615,-0.19911496341228485
1761914910875331000,4.0793310546875,-0.5525462627410889,-0.5587330460548401,-0.26354748010635376
1761914910885386200,4.08938623046875,-0.6172275543212891,-0.6585313081741333,-0.22331377863883972
1761914910895441400,4.09944140625,-0.6066747307777405,-0.747769296169281,-0.11813116818666458
1761914910905496000,4.10949609375,-0.4965498447418213,-0.8078517913818359,0.021525798365473747
1761914910915550200,4.11955029296875,-0.3120598793029785,-0.8734872937202454,0.17563307285308838
1761914910925605400,4.12960546875,-0.11684539169073105,-0.9257147908210754,0.30249887704849243
1761914910935660000,4.139659912109375,0.057619087398052216,-0.8951441049575806,0.4045400321483612
1761914910945715200,4.149715087890625,0.20265190303325653,-0.7919149398803711,0.4802515506744385
1761914910955770400,4.159770263671875,0.31070834398269653,-0.6505457758903503,0.5538725256919861
1761914910965824000,4.169823974609375,0.38656529784202576,-0.5367214679718018,0.6276644468307495
1761914910975879200,4.179879150390625,0.4096357226371765,-0.5008982419967651,0.6851826310157776
1761914910985934300,4.189934326171875,0.3972962200641632,-0.5680322647094727,0.7161876559257507
1761914910995989000,4.199989013671875,0.35281264781951904,-0.7115375399589539,0.720199704170227
1761914911006043100,4.210043212890625,0.2844405174255371,-0.8307262063026428,0.702419102191925
1761914911016098300,4.220098388671875,0.19838500022888184,-0.8340905904769897,0.6607347726821899
1761914911026153000,4.230153076171875,0.10679063200950623,-0.709294855594635,0.5802772045135498
1761914911036208000,4.2402080078125,0.011071293614804745,-0.5147426724433899,0.468218594789505
1761914911046262300,4.25026220703125,-0.077510766685009,-0.30645501613616943,0.3649228513240814
1761914911056317200,4.260317138671875,-0.12630121409893036,-0.0613030381500721,0.31854069232940674
1761914911066372000,4.2703720703125,-0.08134918659925461,0.19464485347270966,0.3099477291107178
1761914911076427300,4.28042724609375,0.024959145113825798,0.38203737139701843,0.2822929322719574
1761914911086481200,4.290481201171875,0.15828284621238708,0.4824814200401306,0.2237878143787384
1761914911096536000,4.3005361328125,0.316802978515625,0.5879271626472473,0.14779159426689148
1761914911106591200,4.31059130859375,0.5294313430786133,0.7457340955734253,0.0701868087053299
1761914911116646400,4.320646484375,0.7482358813285828,0.7894376516342163,-0.03406422585248947
1761914911126701000,4.330701171875,0.8704075813293457,0.5864200592041016,-0.14928296208381653
1761914911136755200,4.340755126953125,0.8023726344108582,0.2365635335445404,-0.22720758616924286
1761914911146810400,4.350810302734375,0.5889468789100647,-0.04363695904612541,-0.24743109941482544
1761914911156865000,4.360864990234375,0.3556409180164337,-0.1363069713115692,-0.20907892286777496
1761914911166920200,4.370920166015625,0.17278216779232025,-0.1936379075050354,-0.1623002290725708
1761914911176974300,4.380974365234375,0.0005747101386077702,-0.2208109349012375,-0.05577751249074936
1761914911187029200,4.391029296875,-0.17752684652805328,-0.08877167850732803,0.12099646031856537
1761914911197084200,4.401084228515625,-0.24398337304592133,0.18593497574329376,0.3113517463207245
1761914911207139300,4.411139404296875,-0.1377141922712326,0.4626257121562958,0.39276379346847534
1761914911217193200,4.421193115234375,0.11331138014793396,0.7465493083000183,0.3544968366622925
1761914911227248000,4.431248046875,0.46531975269317627,0.9397217035293579,0.17923873662948608
1761914911237303300,4.44130322265625,0.8051620125770569,0.8768417835235596,-0.10580579191446304
1761914911247358200,4.451358154296875,1.0242106914520264,0.5708842873573303,-0.38578978180885315
1761914911257412000,4.461412109375,1.0909130573272705,0.1305907666683197,-0.6153707504272461
1761914911267467300,4.47146728515625,1.014509916305542,-0.3649958074092865,-0.7851970791816711
1761914911277522200,4.481522216796875,0.8096408843994141,-0.7470015287399292,-0.8691362142562866
1761914911287577000,4.4915771484375,0.560608983039856,-0.8732763528823853,-0.873590886592865
1761914911297632300,4.50163232421875,0.3712260127067566,-0.7462270259857178,-0.8114787340164185
1761914911307686100,4.51168603515625,0.3414452075958252,-0.4200476109981537,-0.6582474112510681
1761914911317741000,4.521740966796875,0.44139018654823303,0.03129720315337181,-0.41365575790405273
1761914911327796200,4.531796142578125,0.5246807932853699,0.4742501378059387,-0.13592320680618286
1761914911337851400,4.541851318359375,0.5433333516120911,0.8318892121315002,0.07396344095468521
1761914911347905300,4.5519052734375,0.5682088732719421,1.0754222869873047,0.18187445402145386
1761914911357960200,4.561960205078125,0.6237024664878845,1.0819264650344849,0.1357000470161438
1761914911368015400,4.572015380859375,0.7229605913162231,0.7226197123527527,-0.1098327562212944
1761914911378070000,4.582070068359375,0.8151193261146545,0.12381408363580704,-0.4606190025806427
1761914911388124200,4.592124267578125,0.7760999798774719,-0.4754253923892975,-0.7557092308998108
1761914911398179300,4.602179443359375,0.5708416700363159,-0.8736627697944641,-0.8975987434387207
1761914911408234200,4.612234130859375,0.2531238794326782,-1.0607575178146362,-0.9207879304885864
1761914911418289200,4.6222890625,-0.0805843248963356,-1.0251473188400269,-0.8699932098388672
1761914911428343300,4.63234326171875,-0.35187655687332153,-0.80201655626297,-0.7739095687866211
1761914911438398200,4.642398193359375,-0.5202059149742126,-0.4326004087924957,-0.6405006051063538
1761914911448453000,4.652453125,-0.5935570597648621,0.0019805929623544216,-0.4946307837963104
1761914911458508300,4.66250830078125,-0.5502519607543945,0.42288708686828613,-0.3531825542449951
1761914911468563200,4.672563232421875,-0.41489413380622864,0.7768914699554443,-0.22964198887348175
1761914911478617000,4.6826171875,-0.22892266511917114,0.9852726459503174,-0.14787228405475616
1761914911488672300,4.69267236328125,-0.017372865229845047,1.0815930366516113,-0.08599080890417099
1761914911498727200,4.70272705078125,0.18180042505264282,1.044251799583435,-0.015391472727060318
1761914911508782000,4.712781982421875,0.31825122237205505,0.886756181716919,0.08017952740192413
1761914911518836200,4.722836181640625,0.36552712321281433,0.6846060156822205,0.20578911900520325
1761914911528891100,4.73289111328125,0.33937034010887146,0.46752431988716125,0.36470845341682434
1761914911538946000,4.742946044921875,0.277614563703537,0.24959304928779602,0.5213313698768616
1761914911549001200,4.753001220703125,0.1996673047542572,0.0615089014172554,0.6399906277656555
1761914911559056400,4.763056396484375,0.13736878335475922,-0.05288425460457802,0.7123013138771057
1761914911569110300,4.7731103515625,0.09392756223678589,-0.0783185064792633,0.7385417222976685
1761914911579165200,4.783165283203125,0.06294567883014679,-0.023561252281069756,0.732077419757843
1761914911589220400,4.793220458984375,0.025016935542225838,0.028602350503206253,0.6999439597129822
1761914911599275000,4.80327490234375,-0.026165558025240898,0.04989192634820938,0.6544233560562134
1761914911609329200,4.8133291015625,-0.07264171540737152,0.1277792602777481,0.6211996078491211
1761914911619384300,4.82338427734375,-0.06854230910539627,0.28472307324409485,0.5997918248176575
1761914911629439200,4.833439208984375,0.03702246770262718,0.5551034212112427,0.5531657338142395
1761914911639494100,4.843494140625,0.21555651724338531,0.8231966495513916,0.44158539175987244
1761914911649548300,4.85354833984375,0.35873258113861084,0.8395825624465942,0.2561393678188324
1761914911659603200,4.863603271484375,0.36410126090049744,0.6099019646644592,0.127897247672081
1761914911669658000,4.873658203125,0.20949037373065948,0.3505130112171173,0.14145885407924652
1761914911679713300,4.88371337890625,-0.04294586926698685,0.12239834666252136,0.2172284573316574
1761914911689768200,4.893768310546875,-0.29064834117889404,0.018396584317088127,0.22138965129852295
1761914911699822000,4.903822021484375,-0.45601174235343933,0.08471355587244034,0.04246357083320618
1761914911709877200,4.913877197265625,-0.5846917033195496,0.24594159424304962,-0.3196919858455658
1761914911719932200,4.92393212890625,-0.6805833578109741,0.5390394926071167,-0.6861045956611633
1761914911729987000,4.933987060546875,-0.6655582785606384,1.0322452783584595,-0.8716214299201965
1761914911740041200,4.944041259765625,-0.5291224122047424,1.584287405014038,-0.9462671875953674
1761914911750096100,4.95409619140625,-0.3474021852016449,2.011108160018921,-1.1370456218719482
1761914911760151000,4.964151123046875,-0.15283215045928955,2.308154821395874,-1.5769239664077759
1761914911770206200,4.974206298828125,0.013971475884318352,2.5164196491241455,-2.2241404056549072
1761914911780260000,4.984260009765625,0.1295665204524994,2.6930813789367676,-2.9337949752807617
1761914911790315300,4.994315185546875,0.20504343509674072,2.7825169563293457,-3.5296289920806885
1761914911800370200,5.0043701171875,0.21044272184371948,2.7599923610687256,-3.9176676273345947
1761914911810425300,5.01442529296875,0.11095155030488968,2.5700809955596924,-4.054267883300781
1761914911820479200,5.024479248046875,-0.06608793884515762,2.212965726852417,-3.9206106662750244
1761914911830534100,5.0345341796875,-0.2046346366405487,1.7947074174880981,-3.509075880050659
1761914911840589300,5.04458935546875,-0.26377439498901367,1.3392096757888794,-2.873539924621582
1761914911850644200,5.054644287109375,-0.24411599338054657,0.854543924331665,-2.1496634483337402
1761914911860699100,5.06469921875,-0.12208143621683121,0.37504151463508606,-1.5033009052276611
1761914911870753300,5.074753173828125,0.09630096703767776,-0.016763268038630486,-1.0546317100524902
1761914911880808200,5.08480810546875,0.29700398445129395,-0.2642156779766083,-0.852605938911438
1761914911890863000,5.094863037109375,0.40119269490242004,-0.29393067955970764,-0.8379433751106262
1761914911900918300,5.104918212890625,0.36392682790756226,-0.10166031122207642,-0.8613414168357849
1761914911910972200,5.11497216796875,0.18420179188251495,0.24034549295902252,-0.8051676154136658
1761914911921027000,5.125027099609375,-0.09375232458114624,0.5883125066757202,-0.6150512099266052
1761914911931082200,5.135082275390625,-0.3844488859176636,0.7765178680419922,-0.25011688470840454
1761914911941137200,5.14513720703125,-0.5652577877044678,0.7526444792747498,0.24863724410533905
1761914911951192000,5.155192138671875,-0.5788396596908569,0.5340815186500549,0.8214222192764282
1761914911961246200,5.16524609375,-0.4796696603298187,0.17511242628097534,1.372629165649414
1761914911971301000,5.175301025390625,-0.3488871455192566,-0.1837882101535797,1.8286571502685547
1761914911981356000,5.18535595703125,-0.22990083694458008,-0.4393414258956909,2.177494764328003
1761914911991411200,5.1954111328125,-0.11866140365600586,-0.5719316601753235,2.3942840099334717
1761914912001465000,5.205465087890625,-0.021099958568811417,-0.5719860196113586,2.476564645767212
1761914912011520300,5.215520263671875,0.04905169829726219,-0.44859829545021057,2.454111337661743
1761914912021575200,5.2255751953125,0.07940374314785004,-0.2549060583114624,2.357462167739868
1761914912031630300,5.23563037109375,0.04945756494998932,-0.02646596170961857,2.2142140865325928
1761914912041684200,5.245684326171875,-0.04333841800689697,0.17484770715236664,2.0238654613494873
1761914912051739100,5.2557392578125,-0.17999932169914246,0.3736311197280884,1.8071329593658447
1761914912061794300,5.265794189453125,-0.3092651665210724,0.5986772775650024,1.5842106342315674
1761914912071849200,5.27584912109375,-0.3893861174583435,0.7958604097366333,1.3520970344543457
1761914912081904000,5.285904052734375,-0.4228055775165558,0.9254777431488037,1.1100809574127197
1761914912091958300,5.295958251953125,-0.4251134693622589,0.9292221665382385,0.8557937741279602
1761914912102013200,5.30601318359375,-0.41278356313705444,0.7495977878570557,0.5948820114135742
1761914912112068000,5.316068115234375,-0.38828063011169434,0.4811839461326599,0.33205676078796387
1761914912122123300,5.326123291015625,-0.3148900270462036,0.19891630113124847,0.10514559596776962
1761914912132177200,5.33617724609375,-0.14228683710098267,-0.05098462104797363,-0.09571347385644913
1761914912142232000,5.346232177734375,0.1478389948606491,-0.2793096601963043,-0.2822977304458618
1761914912152287200,5.356287353515625,0.41888993978500366,-0.5632750988006592,-0.46747905015945435
1761914912162342100,5.366342041015625,0.49063417315483093,-0.8054949045181274,-0.5942633748054504
1761914912172397000,5.37639697265625,0.37914517521858215,-0.8824349641799927,-0.600956380367279
1761914912182451200,5.386451171875,0.2469053864479065,-0.7963435053825378,-0.5003147721290588
1761914912192506000,5.396506103515625,0.1590503752231598,-0.6158788800239563,-0.24619033932685852
1761914912202561000,5.40656103515625,0.05601426586508751,-0.47608503699302673,0.14762941002845764
1761914912212616200,5.4166162109375,-0.05046583712100983,-0.45423728227615356,0.5658146739006042
1761914912222670000,5.426670166015625,-0.06535211205482483,-0.6476059556007385,0.8140550851821899
1761914912232725200,5.436725341796875,0.05958929285407066,-0.9731310606002808,0.7786832451820374
1761914912242780200,5.4467802734375,0.29862451553344727,-1.3319131135940552,0.44310179352760315
1761914912252835300,5.45683544921875,0.5333531498908997,-1.7425850629806519,-0.1028163954615593
1761914912262889200,5.46688916015625,0.6655567288398743,-2.071877956390381,-0.6096764206886292
1761914912272944000,5.476944091796875,0.6784104704856873,-2.2934391498565674,-0.905792772769928
1761914912282999300,5.486999267578125,0.6058374643325806,-2.3298678398132324,-0.9502078890800476
1761914912293054200,5.49705419921875,0.4767993092536926,-2.1637911796569824,-0.8160487413406372
1761914912303109000,5.507109130859375,0.3414228558540344,-1.8344082832336426,-0.6231930255889893
1761914912313163300,5.517163330078125,0.23664157092571259,-1.4925103187561035,-0.4891377389431
1761914912323218200,5.52721826171875,0.2298923134803772,-1.1874068975448608,-0.4097744822502136
1761914912333277000,5.53727685546875,0.3215298354625702,-0.8573700785636902,-0.2788984775543213
1761914912343332000,5.54733203125,0.39448633790016174,-0.4747273623943329,-0.04211096838116646
1761914912353386000,5.557385986328125,0.4515581429004669,-0.15572167932987213,0.28197816014289856
1761914912363441000,5.56744091796875,0.5212895274162292,-0.03672152757644653,0.6269224882125854
1761914912373496000,5.57749609375,0.6414687037467957,-0.1829700917005539,0.8252677917480469
1761914912383551000,5.587551025390625,0.8321033716201782,-0.5609461665153503,0.6768349409103394
1761914912393605000,5.597605224609375,1.0668809413909912,-1.0976130962371826,0.18331389129161835
1761914912403660000,5.607659912109375,1.1679633855819702,-1.4462034702301025,-0.43135273456573486
1761914912413715000,5.61771484375,1.0133119821548462,-1.4602093696594238,-0.9369802474975586
1761914912423769900,5.627769775390625,0.6555458903312683,-1.2218780517578125,-1.2047951221466064
1761914912433825000,5.637824951171875,0.21260973811149597,-0.8596774339675903,-1.2032986879348755
1761914912443879000,5.64787890625,-0.20568205416202545,-0.46819329261779785,-0.9603052735328674
1761914912453934000,5.65793408203125,-0.5215612053871155,-0.1502065509557724,-0.533331036567688
1761914912463989000,5.667989013671875,-0.694796085357666,0.05723559111356735,0.0003731088654603809
1761914912474044200,5.678044189453125,-0.6975426077842712,0.13573040068149567,0.522430419921875
1761914912484098000,5.68809814453125,-0.5903850197792053,0.07124514877796173,0.8966748714447021
1761914912494153000,5.698153076171875,-0.4109039008617401,-0.06000341475009918,1.0906156301498413
1761914912504208100,5.7082080078125,-0.2113516628742218,-0.19820256531238556,1.1426066160202026
1761914912514263000,5.718262939453125,-0.05283418670296669,-0.24078437685966492,1.1385245323181152
1761914912524318000,5.72831787109375,0.022581474855542183,-0.15020494163036346,1.1426851749420166
1761914912534372000,5.7383720703125,-0.013059875927865505,0.03461124002933502,1.1687983274459839
1761914912544427000,5.748427001953125,-0.11150761693716049,0.2639608085155487,1.2292197942733765
1761914912554482000,5.75848193359375,-0.2157493382692337,0.4993080794811249,1.32526695728302
1761914912564537000,5.768537109375,-0.3058456778526306,0.6805111765861511,1.4371652603149414
1761914912574591000,5.778591064453125,-0.3436737358570099,0.797826886177063,1.5818915367126465
1761914912584646000,5.78864599609375,-0.331330269575119,0.8198517560958862,1.721867322921753
1761914912594701000,5.798701171875,-0.2911767065525055,0.747028648853302,1.8291858434677124
1761914912604756000,5.808755859375,-0.2584904134273529,0.6174277663230896,1.8592342138290405
1761914912614810000,5.81881005859375,-0.257998526096344,0.4579553008079529,1.8026052713394165
1761914912624865000,5.828864990234375,-0.2712956964969635,0.31447750329971313,1.6735624074935913
1761914912634920000,5.838919921875,-0.2931285500526428,0.20417070388793945,1.5139812231063843
1761914912644974800,5.848974853515625,-0.3082835376262665,0.1731635332107544,1.3735532760620117
1761914912655030000,5.859030029296875,-0.2974380850791931,0.23496350646018982,1.2891747951507568
1761914912665084000,5.869083984375,-0.2291351854801178,0.32334768772125244,1.2151367664337158
1761914912675139000,5.87913916015625,-0.07584390044212341,0.38847023248672485,1.084683895111084
1761914912685194000,5.889194091796875,0.14249002933502197,0.4524255394935608,0.8867471218109131
1761914912695249200,5.899249267578125,0.35223981738090515,0.4584471881389618,0.613132655620575
1761914912705303000,5.909302978515625,0.4229597747325897,0.42475634813308716,0.29214584827423096
1761914912715358000,5.91935791015625,0.28203728795051575,0.47169217467308044,-0.002734001260250807
1761914912725413000,5.9294130859375,0.05916931480169296,0.4693685472011566,-0.22027377784252167
1761914912735468000,5.939468017578125,-0.16264350712299347,0.3153952360153198,-0.317470908164978
1761914912745523000,5.94952294921875,-0.3854305148124695,-0.01655234582722187,-0.33368980884552
1761914912755577000,5.9595771484375,-0.6093981266021729,-0.4698100984096527,-0.3720276355743408
1761914912765632000,5.969632080078125,-0.6807867884635925,-0.7938201427459717,-0.45165905356407166
1761914912775687000,5.97968701171875,-0.5099143981933594,-0.8860208988189697,-0.6416921019554138
1761914912785742000,5.9897421875,-0.2349691092967987,-0.8855245113372803,-1.0094826221466064
1761914912795796000,5.9997958984375,0.039813458919525146,-0.8683462738990784,-1.5112826824188232
1761914912805851000,6.009850830078125,0.25967392325401306,-0.8213582634925842,-2.0448215007781982
1761914912815906000,6.019906005859375,0.3701229393482208,-0.697196364402771,-2.4732506275177
1761914912825961000,6.0299609375,0.3488839566707611,-0.5183398127555847,-2.719658374786377
1761914912836015000,6.04001513671875,0.255232036113739,-0.3250313401222229,-2.7794551849365234
1761914912846070000,6.050070068359375,0.16557884216308594,-0.10335754603147507,-2.6244900226593018
1761914912856125000,6.060125,0.08520038425922394,0.18376903235912323,-2.2582547664642334
1761914912866179800,6.070179931640625,-0.04831506684422493,0.6810989379882812,-1.6418163776397705
1761914912876235000,6.080235107421875,-0.18034979701042175,1.221114158630371,-0.924254298210144
1761914912886289000,6.090288818359375,-0.23396669328212738,1.45588219165802,-0.3826243281364441
1761914912896344000,6.100343994140625,-0.217389315366745,1.2942712306976318,-0.24477939307689667
1761914912906399000,6.11039892578125,-0.23165346682071686,0.9008158445358276,-0.46455463767051697
1761914912916454100,6.1204541015625,-0.3215799033641815,0.4938589930534363,-0.8654197454452515
1761914912926508000,6.130508056640625,-0.4539802670478821,0.18825726211071014,-1.2734229564666748
1761914912936563000,6.14056298828125,-0.6198763251304626,0.00461712246760726,-1.5251742601394653
1761914912946618000,6.1506181640625,-0.7601417899131775,-0.1118551641702652,-1.534635066986084
1761914912956673000,6.160673095703125,-0.8135408163070679,-0.19569545984268188,-1.3014806509017944
1761914912966728000,6.17072802734375,-0.7539504766464233,-0.2762875258922577,-0.9006227254867554
1761914912976782000,6.180781982421875,-0.6402888894081116,-0.29248806834220886,-0.4104442596435547
1761914912986837000,6.1908369140625,-0.5169973373413086,-0.15036047995090485,0.19018778204917908
1761914912996892000,6.200891845703125,-0.37168088555336,0.12045184522867203,0.8311938643455505
1761914913006947000,6.210947021484375,-0.18309737741947174,0.36341390013694763,1.418285846710205
1761914913017001000,6.2210009765625,-0.020772922784090042,0.4519863724708557,1.8341389894485474
1761914913027055900,6.231055908203125,0.0713263750076294,0.3857823312282562,2.059535026550293
1761914913037111000,6.241111083984375,0.0978461354970932,0.1660374402999878,2.095144271850586
1761914913047166000,6.251166015625,0.08195824921131134,-0.18573205173015594,1.9777888059616089
1761914913057220900,6.261220947265625,0.025429992005228996,-0.609614908695221,1.7705520391464233
1761914913067275000,6.27127490234375,-0.10699941962957382,-0.9835948944091797,1.5096842050552368
1761914913077330000,6.281329833984375,-0.3127078413963318,-1.1352698802947998,1.2120431661605835
1761914913087384800,6.291384765625,-0.503301203250885,-0.9892594218254089,0.9129753112792969
1761914913097440000,6.30143994140625,-0.5943616032600403,-0.6456495523452759,0.664692759513855
1761914913107494000,6.311493896484375,-0.5892238616943359,-0.24340492486953735,0.46773043274879456
1761914913117549000,6.321549072265625,-0.5359001755714417,0.07704871147871017,0.3093421459197998
1761914913127604000,6.33160400390625,-0.4795580804347992,0.20164284110069275,0.16222059726715088
1761914913137659100,6.3416591796875,-0.48228248953819275,0.07988258451223373,0.009533584117889404
1761914913147713000,6.351713134765625,-0.5462257862091064,-0.25159895420074463,-0.10141397267580032
1761914913157768000,6.361767822265625,-0.5767645239830017,-0.6149635910987854,-0.07560421526432037
1761914913167823000,6.371822998046875,-0.46350985765457153,-0.8593858480453491,0.10441774874925613
1761914913177878000,6.3818779296875,-0.2131972312927246,-0.9837698340415955,0.33398330211639404
1761914913187933000,6.391932861328125,0.06970850378274918,-0.9913779497146606,0.4709502160549164
1761914913197987000,6.401987060546875,0.2711159288883209,-0.8674309849739075,0.45731908082962036
1761914913208042000,6.4120419921875,0.35719913244247437,-0.6675277352333069,0.3311938941478729
1761914913218097000,6.422096923828125,0.32792940735816956,-0.6046813726425171,0.15022172033786774
1761914913228152000,6.432152099609375,0.16789312660694122,-0.7342122197151184,-0.0012032161466777325
1761914913238206000,6.4422060546875,-0.10265420377254486,-0.8557181358337402,-0.10348351299762726
1761914913248260900,6.4522607421875,-0.34616538882255554,-0.9672470688819885,-0.19444911181926727
1761914913258316000,6.46231591796875,-0.4196934103965759,-0.9850995540618896,-0.23098981380462646
1761914913268371000,6.472370849609375,-0.26760801672935486,-0.8495273590087891,-0.1667570322751999
1761914913278425900,6.48242578125,0.060809023678302765,-0.6249269843101501,-0.03279416635632515
1761914913288480000,6.49247998046875,0.4855922758579254,-0.43909162282943726,0.041304029524326324
1761914913298535000,6.502534912109375,0.8844869136810303,-0.41149088740348816,-0.0643686056137085
1761914913308589800,6.51258984375,1.152719497680664,-0.4267726242542267,-0.30032122135162354
1761914913318645000,6.52264501953125,1.210273027420044,-0.373134970664978,-0.5678898096084595
1761914913328695600,6.532695556640625,1.070783019065857,-0.22930216789245605,-0.8065457940101624
1761914913338750500,6.54275048828125,0.7870115041732788,-0.021681061014533043,-0.9756810069084167
1761914913348805400,6.552805419921875,0.4323519468307495,0.14114168286323547,-1.056935429573059
1761914913358860500,6.562860595703125,0.10925911366939545,0.20390546321868896,-1.0160276889801025
1761914913368915500,6.57291552734375,-0.10963728278875351,0.2009485512971878,-0.8248350620269775
1761914913378969300,6.58296923828125,-0.19080138206481934,0.15295572578907013,-0.5291852951049805
1761914913389024500,6.5930244140625,-0.12579387426376343,0.04271124303340912,-0.24604305624961853
1761914913399079700,6.60307958984375,0.09614544361829758,-0.11918071657419205,-0.09496726095676422
1761914913409134300,6.61313427734375,0.4271523952484131,-0.3261219263076782,-0.13836532831192017
1761914913419188500,6.6231884765625,0.7717041969299316,-0.4899561107158661,-0.3404068350791931
1761914913429243600,6.63324365234375,1.0220884084701538,-0.4852396547794342,-0.5920436382293701
1761914913439298300,6.64329833984375,1.100654125213623,-0.3160248100757599,-0.8195798397064209
1761914913449353500,6.653353515625,0.9811397194862366,0.0017616810509935021,-0.9908818006515503
1761914913459408600,6.66340869140625,0.6577030420303345,0.47076910734176636,-1.0618231296539307
1761914913469462300,6.673462158203125,0.2006279081106186,0.8787779211997986,-1.0376050472259521
1761914913479517400,6.683517333984375,-0.18923810124397278,0.9970510005950928,-0.9686263203620911
1761914913489572600,6.693572509765625,-0.37149205803871155,0.8630236983299255,-0.8738310933113098
1761914913499627500,6.70362744140625,-0.3918093144893646,0.6521852612495422,-0.7568604946136475
1761914913509681400,6.713681396484375,-0.3205529749393463,0.5066847801208496,-0.6020120978355408
1761914913519736600,6.723736572265625,-0.205268993973732,0.4835171401500702,-0.3697865605354309
1761914913529791200,6.733791259765625,-0.04873824492096901,0.500228226184845,-0.09952818602323532
1761914913539846400,6.743846435546875,0.1312645524740219,0.49872803688049316,0.16061976552009583
1761914913549901600,6.753901611328125,0.31149822473526,0.52824467420578,0.42869916558265686
1761914913559955500,6.76395556640625,0.45918357372283936,0.6106199622154236,0.6780090928077698
1761914913570010400,6.77401025390625,0.5421623587608337,0.6992390155792236,0.8767251372337341
1761914913580065500,6.7840654296875,0.5311568379402161,0.7598246335983276,0.9901829957962036
1761914913590120400,6.794120361328125,0.4290919601917267,0.8020961880683899,1.0095503330230713
1761914913600174300,6.80417431640625,0.24227069318294525,0.7945306897163391,0.9353697896003723
1761914913610229500,6.8142294921875,0.05660016089677811,0.7690258622169495,0.8659499883651733
1761914913620284700,6.82428466796875,-0.017598435282707214,0.7408245801925659,0.8494756817817688
1761914913630339300,6.83433935546875,0.019756926223635674,0.6512891054153442,0.844375729560852
1761914913640394500,6.84439453125,0.12021882086992264,0.43652859330177307,0.8042901158332825
1761914913650448600,6.85444873046875,0.2135852575302124,0.18410006165504456,0.6946237683296204
1761914913660503300,6.86450341796875,0.2834162712097168,0.06081860885024071,0.5940758585929871
1761914913670558500,6.874558349609375,0.372723251581192,0.08864198625087738,0.6065983176231384
1761914913680613600,6.884613525390625,0.4413113594055176,0.09005958586931229,0.7046316862106323
1761914913690667300,6.894667236328125,0.4166491627693176,-0.21070849895477295,0.7218146324157715
1761914913700722400,6.904722412109375,0.28762513399124146,-0.7416714429855347,0.5552136898040771
1761914913710777600,6.914777587890625,0.14809492230415344,-1.1915792226791382,0.28285086154937744
1761914913720832500,6.92483251953125,0.0059510995633900166,-1.47970449924469,0.018039720132946968
1761914913730887400,6.934887451171875,-0.18130454421043396,-1.6801403760910034,-0.07372668385505676
1761914913740941600,6.944941650390625,-0.391184002161026,-1.6915080547332764,0.12832121551036835
1761914913750996500,6.95499658203125,-0.5215292572975159,-1.3955453634262085,0.5945496559143066
1761914913761051400,6.965051513671875,-0.4517461657524109,-0.9212406873703003,1.0888015031814575
1761914913771106600,6.9751064453125,-0.14918655157089233,-0.38539987802505493,1.3813307285308838
1761914913781160400,6.985160400390625,0.2879364490509033,0.12242498248815536,1.3531478643417358
1761914913791215400,6.99521533203125,0.7026931643486023,0.5446574687957764,1.0234192609786987
1761914913801270500,7.0052705078125,0.9603396058082581,0.7695539593696594,0.49989691376686096
1761914913811325400,7.015325439453125,0.9910655617713928,0.7178348302841187,-0.10556770116090775
1761914913821380400,7.02538037109375,0.806572675704956,0.5846863389015198,-0.6474107503890991
1761914913831434500,7.0354345703125,0.5112028121948242,0.4313149154186249,-1.0578025579452515
1761914913841489700,7.04548974609375,0.2327948957681656,0.21935579180717468,-1.3104743957519531
1761914913851544300,7.05554443359375,0.012220979668200016,0.050627756863832474,-1.3693945407867432
1761914913861599500,7.065599609375,-0.15780694782733917,0.04113465175032616,-1.1962370872497559
1761914913871653600,7.075653564453125,-0.2573883831501007,0.1100335568189621,-0.9056113958358765
1761914913881708300,7.085708251953125,-0.15845328569412231,0.07145580649375916,-0.6371104121208191
1761914913891763500,7.095763427734375,0.22373110055923462,-0.24598340690135956,-0.4657951295375824
1761914913901818600,7.105818603515625,0.7337450981140137,-0.67649245262146,-0.3512163460254669
1761914913911872500,7.11587255859375,1.096556544303894,-0.9648478031158447,-0.21932223439216614
1761914913921927400,7.125927490234375,1.1601853370666504,-1.0519278049468994,-0.047329165041446686
1761914913931982600,7.135982666015625,0.9825618267059326,-0.9826414585113525,0.15765966475009918
1761914913942037500,7.14603759765625,0.6615744829177856,-0.7931399941444397,0.38211727142333984
1761914913952092400,7.156092529296875,0.2937573194503784,-0.535866916179657,0.6097355484962463
1761914913962146600,7.166146484375,-0.058517370373010635,-0.2538812756538391,0.8027824759483337
1761914913972201500,7.176201416015625,-0.3405029773712158,0.044683583080768585,0.9705738425254822
1761914913982256400,7.18625634765625,-0.5072368383407593,0.3920396864414215,1.1217432022094727
1761914913992311600,7.1963115234375,-0.5259905457496643,0.7033640146255493,1.2351759672164917
1761914914002366500,7.206366455078125,-0.4077635109424591,0.8152008056640625,1.2540806531906128
1761914914012420400,7.21642041015625,-0.22627095878124237,0.7296733856201172,1.155495285987854
1761914914022475500,7.2264755859375,-0.05693066120147705,0.562322735786438,0.9765409231185913
1761914914032530400,7.236530517578125,0.056105878204107285,0.41354843974113464,0.7626787424087524
1761914914042585300,7.24658544921875,0.08529945462942123,0.3382302522659302,0.555145263671875
1761914914052639500,7.256639404296875,0.024037692695856094,0.31884828209877014,0.38215482234954834
1761914914062694700,7.266694580078125,-0.0969582349061966,0.3345494866371155,0.25858548283576965
1761914914072749300,7.276749267578125,-0.24365340173244476,0.37536323070526123,0.17246603965759277
1761914914082804500,7.286804443359375,-0.38458868861198425,0.43024060130119324,0.10367206484079361
1761914914092859400,7.296859375,-0.4925641715526581,0.5055193901062012,0.04934437945485115
1761914914102913300,7.306913330078125,-0.5323153138160706,0.47914502024650574,-0.000365918327588588
1761914914112968400,7.316968505859375,-0.4886426627635956,0.2423497885465622,-0.04843650758266449
1761914914123023600,7.327023681640625,-0.3933638036251068,-0.15787538886070251,-0.06496009230613708
1761914914133078500,7.33707861328125,-0.29311949014663696,-0.5255892276763916,-0.03497209772467613
1761914914143132400,7.34713232421875,-0.21140386164188385,-0.7480584979057312,0.026789003983139992
1761914914153187600,7.3571875,-0.1301470845937729,-0.7723199129104614,0.06880063563585281
1761914914163242500,7.367242431640625,-0.07075406610965729,-0.39154645800590515,0.0751810371875763
1761914914173297400,7.37729736328125,-0.09001990407705307,0.6215879321098328,0.02069089747965336
1761914914183352600,7.3873525390625,0.003287938656285405,0.9332017302513123,-0.24649420380592346
1761914914193406500,7.397406494140625,0.12257065623998642,0.6402928829193115,-0.5983454585075378
1761914914203461400,7.40746142578125,0.1023428812623024,0.40257886052131653,-0.8692725300788879
1761914914213516500,7.4175166015625,-0.054663777351379395,0.3931504786014557,-1.012638807296753
1761914914223571500,7.427571533203125,-0.2243039458990097,0.5293192267417908,-1.0352325439453125
1761914914233625300,7.437625244140625,-0.2790321707725525,0.6848577260971069,-0.9445832967758179
1761914914243680500,7.447680419921875,-0.17065483331680298,0.7449042797088623,-0.7652571797370911
1761914914253735400,7.4577353515625,0.05744651332497597,0.8215526938438416,-0.4791426360607147
1761914914263790300,7.467790283203125,0.30275958776474,0.8915355205535889,-0.2056162804365158
1761914914273844500,7.477844482421875,0.48577308654785156,0.8691676259040833,-0.06813830882310867
1761914914283899600,7.487899658203125,0.6058387756347656,0.7192404270172119,-0.11738761514425278
1761914914293954300,7.497954345703125,0.6461225748062134,0.3753848075866699,-0.36867284774780273
1761914914304009500,7.508009521484375,0.5836442708969116,-0.011954663321375847,-0.7403204441070557
1761914914314064400,7.518064453125,0.44443604350090027,-0.36318114399909973,-1.1098556518554688
1761914914324118300,7.5281181640625,0.33819323778152466,-0.6877091526985168,-1.4236973524093628
1761914914334176300,7.53817626953125,0.2900107800960541,-0.9775747656822205,-1.6613941192626953
1761914914344231400,7.5482314453125,0.2084919512271881,-1.1203292608261108,-1.8069015741348267
1761914914354286000,7.5582861328125,0.05167517811059952,-1.0549875497817993,-1.8264483213424683
1761914914364341200,7.56834130859375,-0.1609281599521637,-0.8075338006019592,-1.722015380859375
1761914914374395400,7.5783955078125,-0.2986260950565338,-0.5586637854576111,-1.545458197593689
1761914914384450300,7.5884501953125,-0.19332897663116455,-0.5381569266319275,-1.3456851243972778
1761914914394505200,7.598505126953125,0.16187332570552826,-0.7439181208610535,-1.1523098945617676
1761914914404560400,7.608560302734375,0.5912649035453796,-1.0183427333831787,-0.9904370307922363
1761914914414614300,7.6186142578125,0.8238363862037659,-1.1381394863128662,-0.8714044094085693
1761914914424669200,7.628669189453125,0.7568956613540649,-1.0209752321243286,-0.786180317401886
1761914914434724400,7.638724365234375,0.4360811710357666,-0.7440214157104492,-0.6975199580192566
1761914914444779500,7.648779541015625,-0.029341643676161766,-0.34646499156951904,-0.5752004384994507
1761914914454834200,7.658834228515625,-0.5430036187171936,0.13437964022159576,-0.40980908274650574
1761914914464888300,7.668888427734375,-1.0070000886917114,0.6137603521347046,-0.21911583840847015
1761914914474943500,7.678943603515625,-1.3605905771255493,0.990676760673523,-0.026014823466539383
1761914914484998100,7.688998046875,-1.5684162378311157,1.2034534215927124,0.1470016986131668
1761914914495053300,7.69905322265625,-1.617010474205017,1.2290490865707397,0.285194993019104
1761914914505107500,7.709107421875,-1.4863264560699463,1.150937557220459,0.4210343062877655
1761914914515162000,7.719162109375,-1.1975386142730713,1.0424994230270386,0.5761677026748657
1761914914525217300,7.72921728515625,-0.8243106603622437,0.9205805063247681,0.7305256128311157
1761914914535272400,7.7392724609375,-0.4754514694213867,0.8223790526390076,0.8517348170280457
1761914914545327000,7.7493271484375,-0.25133103132247925,0.7685832381248474,0.9384633302688599
1761914914555381200,7.75938134765625,-0.18564923107624054,0.6896793842315674,0.9785553812980652
1761914914565436400,7.7694365234375,-0.23375709354877472,0.5485603213310242,0.9690518975257874
1761914914575491000,7.779490966796875,-0.3471268117427826,0.3730854392051697,0.917533278465271
1761914914585546200,7.789546142578125,-0.4691704213619232,0.23182471096515656,0.8569620847702026
1761914914595600400,7.799600341796875,-0.547685444355011,0.15053491294384003,0.8089338541030884
1761914914605655300,7.8096552734375,-0.535050094127655,0.11190203577280045,0.7912861108779907
1761914914615710200,7.819710205078125,-0.41392526030540466,0.10721193999052048,0.7941354513168335
1761914914625765400,7.829765380859375,-0.2198258340358734,0.12290222197771072,0.8016812801361084
1761914914635820300,7.8398203125,0.007923436351120472,0.1490536630153656,0.8124385476112366
1761914914645874200,7.849874267578125,0.22971361875534058,0.15598852932453156,0.8172580599784851
1761914914655929300,7.859929443359375,0.42877691984176636,0.10156311094760895,0.7914371490478516
1761914914665984500,7.869984619140625,0.553427517414093,0.0000029294772048160667,0.7127151489257812
1761914914676039200,7.8800390625,0.5964266657829285,-0.13246749341487885,0.574428141117096
1761914914686093300,7.89009326171875,0.5606023073196411,-0.3659529387950897,0.36361709237098694
1761914914696148500,7.9001484375,0.423160582780838,-0.6961577534675598,0.11228792369365692
1761914914706203100,7.910203125,0.18433842062950134,-0.9589866995811462,-0.0877455621957779
1761914914716258300,7.92025830078125,-0.11586295068264008,-0.858048141002655,-0.1286940574645996
1761914914726313500,7.9303134765625,-0.3707767426967621,-0.404746949672699,0.017169132828712463
1761914914736367000,7.9403671875,-0.48147448897361755,0.1053924709558487,0.26226145029067993
1761914914746422300,7.95042236328125,-0.44231218099594116,0.5060275197029114,0.5092038512229919
1761914914756477400,7.9604775390625,-0.2836761772632599,0.7819773554801941,0.6822161078453064
1761914914766532400,7.970532470703125,-0.06670419871807098,0.8964410424232483,0.7424775958061218
1761914914776586200,7.980586181640625,0.15940697491168976,0.691443681716919,0.6597819328308105
1761914914786641400,7.990641357421875,0.35042884945869446,0.18468622863292694,0.42907145619392395
1761914914796696300,8.0006962890625,0.4939623177051544,-0.41202056407928467,0.08983534574508667
1761914914806751200,8.010751220703124,0.5976759195327759,-0.9261260032653809,-0.33893465995788574
1761914914816806400,8.020806396484375,0.6746410131454468,-1.3111364841461182,-0.815025269985199
1761914914826860300,8.0308603515625,0.6954464316368103,-1.4275376796722412,-1.2687877416610718
1761914914836915200,8.040915283203125,0.6450727581977844,-1.1671700477600098,-1.5892711877822876
1761914914846970400,8.050970458984375,0.5260400772094727,-0.6165266036987305,-1.7128934860229492
1761914914857025300,8.061025390625,0.3696534037590027,0.04460421949625015,-1.6362788677215576
1761914914867080200,8.071080078125,0.2326129972934723,0.6125968098640442,-1.4400204420089722
1761914914877134300,8.08113427734375,0.21648703515529633,0.8405538201332092,-1.2546961307525635
1761914914887189500,8.091189453125,0.3540904223918915,0.7259334921836853,-1.1338539123535156
1761914914897244200,8.101244140625,0.5761778354644775,0.40744686126708984,-1.0971931219100952
1761914914907299300,8.11129931640625,0.758301317691803,0.05038780719041824,-1.1400294303894043
1761914914917353500,8.121353515625,0.8057311177253723,-0.25002768635749817,-1.1936453580856323
1761914914927408000,8.131408203125,0.6950536370277405,-0.46081048250198364,-1.2217445373535156
1761914914937463300,8.14146337890625,0.4534359276294708,-0.5274419784545898,-1.1903810501098633
1761914914947518500,8.1515185546875,0.15004809200763702,-0.382851779460907,-1.054335355758667
1761914914957573400,8.161573486328125,-0.14703792333602905,-0.03850425034761429,-0.8082017302513123
1761914914967627300,8.171627197265625,-0.3859218657016754,0.39432841539382935,-0.47739824652671814
1761914914977682400,8.181682373046876,-0.5270177125930786,0.7746466994285583,-0.08598361909389496
1761914914987737300,8.1917373046875,-0.5442547798156738,1.0411031246185303,0.31860193610191345
1761914914997792300,8.201792236328124,-0.44273853302001953,1.1082500219345093,0.6915196180343628
1761914915007846400,8.211846435546875,-0.2612249553203583,0.9541634917259216,0.9889044165611267
1761914915017901300,8.2219013671875,-0.060982927680015564,0.6245464086532593,1.1987295150756836
1761914915027956200,8.231956298828125,0.0993225947022438,0.26177647709846497,1.3355134725570679
1761914915038011400,8.242011474609376,0.16387975215911865,-0.046013299375772476,1.40379798412323
1761914915048066300,8.25206640625,0.11071479320526123,-0.2876022160053253,1.3946250677108765
1761914915058120200,8.2621201171875,-0.048043690621852875,-0.45676034688949585,1.3099380731582642
1761914915068175400,8.27217529296875,-0.2596589922904968,-0.5339864492416382,1.1862558126449585
1761914915078230300,8.282230224609375,-0.460226446390152,-0.4983879625797272,1.0264341831207275
1761914915088285200,8.29228515625,-0.6059000492095947,-0.37715527415275574,0.8463563323020935
1761914915098339300,8.30233935546875,-0.6605614423751831,-0.22992773354053497,0.687993049621582
1761914915108394500,8.31239453125,-0.6207559704780579,-0.10643376410007477,0.5770851373672485
1761914915118449200,8.32244921875,-0.49939650297164917,0.011001784354448318,0.5317909121513367
1761914915128504300,8.33250439453125,-0.3100973963737488,0.22750826179981232,0.5730645656585693
1761914915138559200,8.342559326171875,-0.08746380358934402,0.5753434300422668,0.70234215259552
1761914915148613000,8.352613037109375,0.12681147456169128,0.8551570177078247,0.8272103071212769
1761914915158668300,8.362668212890625,0.3175015449523926,0.79939866065979,0.8347603678703308
1761914915168723500,8.372723388671876,0.4391818940639496,0.2862299084663391,0.6942501664161682
1761914915178778400,8.3827783203125,0.4547906816005707,-0.4742138981819153,0.47474148869514465
1761914915188833300,8.392833251953125,0.35448938608169556,-1.2222639322280884,0.23160313069820404
1761914915198887400,8.402887451171875,0.16622573137283325,-1.773338794708252,-0.01846236363053322
1761914915208942300,8.4129423828125,-0.06843791157007217,-1.920539379119873,-0.17838811874389648
1761914915218997200,8.422997314453125,-0.28515928983688354,-1.5272914171218872,-0.15487267076969147
1761914915229052400,8.433052490234376,-0.4273630380630493,-0.7992399334907532,0.014785603620111942
1761914915239106300,8.443106201171876,-0.4581209719181061,-0.18693765997886658,0.22457371652126312
1761914915249161200,8.4531611328125,-0.3611576557159424,0.056000951677560806,0.36994102597236633
1761914915259216400,8.46321630859375,-0.1805679202079773,-0.00860067829489708,0.41457268595695496
1761914915269271300,8.473271240234375,0.06317364424467087,-0.18959470093250275,0.3808181881904602
1761914915279326200,8.483326171875,0.30806729197502136,-0.48923492431640625,0.2413167506456375
1761914915289380400,8.49338037109375,0.5070775747299194,-0.8901996612548828,-0.008134892210364342
1761914915299435300,8.503435302734376,0.6232609152793884,-1.2564351558685303,-0.3473105728626251
1761914915309490200,8.513490234375,0.6257104873657227,-1.5421864986419678,-0.7506012916564941
1761914915319545300,8.52354541015625,0.546996533870697,-1.695104956626892,-1.1526243686676025
1761914915329596000,8.533595947265624,0.44334226846694946,-1.5835776329040527,-1.4627617597579956
1761914915339650600,8.543650634765624,0.3221636712551117,-1.1694272756576538,-1.6287879943847656
1761914915349705700,8.553705810546875,0.15032479166984558,-0.5268225073814392,-1.645062804222107
1761914915359760600,8.5637607421875,-0.06750820577144623,0.20408895611763,-1.547642469406128
1761914915369815800,8.57381591796875,-0.2533094882965088,0.7650550603866577,-1.402084469795227
1761914915379872800,8.583872802734374,-0.2518024146556854,0.9137606620788574,-1.2898656129837036
1761914915389927700,8.593927734375,0.06259653717279434,0.5707849264144897,-1.2209312915802002
1761914915399981800,8.60398193359375,0.5980905890464783,-0.1880713701248169,-1.2275803089141846
1761914915410036700,8.61403662109375,1.1014399528503418,-0.9726921319961548,-1.3075830936431885
1761914915420091600,8.624091552734376,1.3565748929977417,-1.4659340381622314,-1.375402569770813
1761914915430146800,8.634146728515624,1.2893187999725342,-1.5295175313949585,-1.3325963020324707
1761914915440201700,8.64420166015625,0.9132804870605469,-1.2431236505508423,-1.1551650762557983
1761914915450255600,8.654255615234375,0.33014756441116333,-0.6828491687774658,-0.8431589007377625
1761914915460310800,8.664310791015625,-0.28932130336761475,0.1099533960223198,-0.40299487113952637
1761914915470365700,8.67436572265625,-0.8188679814338684,0.8939533829689026,0.11427757143974304
1761914915480420900,8.6844208984375,-1.2438608407974243,1.4400827884674072,0.6112338304519653
1761914915490475800,8.694475830078124,-1.5232112407684326,1.6071593761444092,1.0145647525787354
1761914915500529700,8.70452978515625,-1.6578558683395386,1.3606833219528198,1.2965506315231323
1761914915510584800,8.714584716796875,-1.6806058883666992,0.8497917652130127,1.472753643989563
1761914915520639700,8.7246396484375,-1.5986740589141846,0.253704696893692,1.58072829246521
1761914915530694700,8.734694580078125,-1.429648518562317,-0.33459237217903137,1.6265761852264404
1761914915540748800,8.744748779296875,-1.210132122039795,-0.8170367479324341,1.6117373704910278
1761914915550803700,8.7548037109375,-0.9944038391113281,-1.0989891290664673,1.5582432746887207
1761914915560858600,8.764858642578124,-0.8060293793678284,-1.1225913763046265,1.482559084892273
1761914915570913800,8.774913818359375,-0.6705653071403503,-0.9125182628631592,1.3955960273742676
1761914915580968700,8.78496875,-0.6053844690322876,-0.5134433507919312,1.308382272720337
1761914915591022800,8.79502294921875,-0.6082977056503296,-0.05072709172964096,1.2096586227416992
1761914915601077800,8.805077880859375,-0.6472634673118591,0.3468330502510071,1.1118266582489014
1761914915611132700,8.815132568359376,-0.6598556637763977,0.6167284250259399,0.9993653297424316
1761914915621187600,8.8251875,-0.6116018891334534,0.823538601398468,0.9107528924942017
1761914915631241700,8.83524169921875,-0.4909130036830902,1.0384917259216309,0.9006344676017761
1761914915641296600,8.845296630859375,-0.26765140891075134,1.2363005876541138,0.9688827395439148
1761914915651351800,8.855351806640625,0.03639049828052521,1.2929601669311523,1.0702216625213623
1761914915661406700,8.86540673828125,0.34642985463142395,1.1276553869247437,1.1319135427474976
1761914915671462000,8.8754619140625,0.5509238839149475,0.7906816005706787,1.1271976232528687
1761914915681515800,8.885515869140624,0.5972498059272766,0.384159654378891,1.072205662727356
1761914915691570700,8.89557080078125,0.47025033831596375,-0.1283276081085205,0.9922218918800354
1761914915701625900,8.9056259765625,0.21453280746936798,-0.7898222208023071,0.8745986223220825
1761914915711680800,8.9156806640625,-0.07705031335353851,-1.3530011177062988,0.7466558218002319
1761914915721735700,8.925735595703125,-0.25973597168922424,-1.4947761297225952,0.6622530817985535
1761914915731789800,8.935789794921876,-0.23473794758319855,-1.1862819194793701,0.6037482023239136
1761914915741844700,8.9458447265625,-0.04300925135612488,-0.6224233508110046,0.5202066898345947
1761914915751899600,8.955899658203125,0.23287372291088104,-0.03844859078526497,0.3525274097919464
1761914915761954800,8.965954833984375,0.5483507513999939,0.38596394658088684,0.07307660579681396
1761914915772008700,8.9760087890625,0.8895567655563354,0.5346916317939758,-0.2765730023384094
1761914915782063600,8.986063720703125,1.186819314956665,0.3533884286880493,-0.6759241223335266
1761914915792118800,8.996118896484376,1.3440302610397339,0.024521587416529655,-1.0494422912597656
1761914915802173700,9.006173583984374,1.351656198501587,-0.3053969442844391,-1.3569729328155518
1761914915812228600,9.016228515625,1.2815109491348267,-0.6341937184333801,-1.595963478088379
1761914915822282800,9.02628271484375,1.2394146919250488,-0.8904420137405396,-1.7464557886123657
1761914915832337700,9.036337646484375,1.2292402982711792,-0.9379304647445679,-1.7688753604888916
1761914915842392600,9.046392578125,1.190311312675476,-0.6990571618080139,-1.6506708860397339
1761914915852447700,9.05644775390625,1.0003688335418701,-0.15568865835666656,-1.3558776378631592
1761914915862501600,9.066501708984376,0.6397415995597839,0.546032726764679,-0.9664962887763977
1761914915872556800,9.076556884765624,0.17982488870620728,1.1480059623718262,-0.5971124172210693
1761914915882611700,9.08661181640625,-0.2466055154800415,1.383551836013794,-0.37375733256340027
1761914915892667000,9.0966669921875,-0.47668612003326416,1.056337833404541,-0.3480221629142761
1761914915902721500,9.106721435546875,-0.45439574122428894,0.22352470457553864,-0.5470902323722839
1761914915912775700,9.116775634765625,-0.2219124287366867,-0.7700149416923523,-0.9058345556259155
1761914915922830800,9.126830810546876,0.07567212730646133,-1.4900665283203125,-1.2883083820343018
1761914915932885800,9.1368857421875,0.2730480432510376,-1.8040889501571655,-1.5974355936050415
1761914915942940700,9.146940673828125,0.29787909984588623,-1.7216018438339233,-1.7763971090316772
1761914915952995800,9.156995849609375,0.14638517796993256,-1.2809234857559204,-1.8096905946731567
1761914915963049700,9.1670498046875,-0.1214180439710617,-0.4650893807411194,-1.6927012205123901
1761914915973104600,9.177104736328126,-0.4316137135028839,0.5323933362960815,-1.440780520439148
1761914915983159800,9.187159912109376,-0.6954160928726196,1.3810170888900757,-1.1027576923370361
1761914915993214700,9.197214599609374,-0.8161222338676453,1.886335849761963,-0.7411502599716187
1761914916003268600,9.2072685546875,-0.743070662021637,1.9993172883987427,-0.40248966217041016
1761914916013323800,9.21732373046875,-0.5150545239448547,1.7863807678222656,-0.11053609848022461
1761914916023378700,9.227378662109375,-0.20316669344902039,1.4028621912002563,0.1273837834596634
1761914916033433600,9.23743359375,0.11279179900884628,0.9735118746757507,0.3309078812599182
1761914916043488800,9.24748876953125,0.36062076687812805,0.5518218874931335,0.5076290965080261
1761914916053542700,9.257542724609374,0.49849236011505127,0.1654832363128662,0.64436274766922
1761914916063597600,9.26759765625,0.5190503597259521,-0.12331075221300125,0.757179319858551
1761914916073652700,9.27765283203125,0.43157830834388733,-0.26260313391685486,0.8534839749336243
1761914916083708000,9.2877080078125,0.2741372883319855,-0.2378423810005188,0.9252053499221802
1761914916093762600,9.297762451171875,0.0637584701180458,-0.10873366892337799,0.9465673565864563
1761914916103816700,9.307816650390626,-0.1853751838207245,-0.0038256309926509857,0.9095525741577148
1761914916113872000,9.317871826171874,-0.45863521099090576,-0.05858767777681351,0.820386528968811
1761914916123926500,9.327926513671875,-0.6859636902809143,-0.21458552777767181,0.7788992524147034
1761914916133981700,9.337981689453125,-0.7690088152885437,-0.3109986186027527,0.8486599326133728
1761914916144035800,9.348035888671875,-0.6743848323822021,-0.2522556781768799,1.0177395343780518
1761914916154090800,9.3580908203125,-0.43199294805526733,-0.13815760612487793,1.1768226623535156
1761914916164145700,9.368145751953126,-0.132883220911026,-0.05424060299992561,1.2126564979553223
1761914916174200800,9.378200927734374,0.10199640691280365,0.014100106433033943,1.0790244340896606
1761914916184255700,9.388255859375,0.18365664780139923,0.08401075005531311,0.7890653014183044
1761914916194309600,9.3983095703125,0.10755734890699387,0.04218660295009613,0.45885759592056274
1761914916204364800,9.40836474609375,-0.08520757406949997,-0.15563780069351196,0.21957948803901672
1761914916214419700,9.418419677734375,-0.28672656416893005,-0.28402772545814514,0.11946994066238403
1761914916224474600,9.428474609375,-0.39782965183258057,-0.07943277060985565,0.17873059213161469
1761914916234528800,9.43852880859375,-0.3353244662284851,0.3804514706134796,0.3616807162761688
1761914916244583700,9.448583740234374,-0.12446283549070358,0.8131957054138184,0.5717785358428955
1761914916254638600,9.458638671875,0.14525705575942993,0.9591582417488098,0.6768064498901367
1761914916264693800,9.46869384765625,0.38012149930000305,0.7915143966674805,0.6405975818634033
1761914916274749000,9.4787490234375,0.5496026873588562,0.5719265937805176,0.5080312490463257
1761914916284802600,9.488802490234375,0.6706377267837524,0.32363584637641907,0.23766635358333588
1761914916294857700,9.498857666015626,0.73775315284729,-0.05913229659199715,-0.22107858955860138
1761914916304913000,9.508912841796874,0.7544218897819519,-0.44670745730400085,-0.7734911441802979
1761914916314967600,9.518967529296875,0.6997777819633484,-0.6666363477706909,-1.3047717809677124
1761914916325026600,9.529026611328124,0.586898922920227,-0.6710984706878662,-1.7215548753738403
1761914916335080700,9.539080810546874,0.47971412539482117,-0.43896564841270447,-1.9566187858581543
1761914916345135600,9.549135498046875,0.4193733036518097,0.042877160012722015,-1.9411953687667847
1761914916355190500,9.5591904296875,0.40854915976524353,0.6994156241416931,-1.6985061168670654
1761914916365245700,9.56924560546875,0.375566691160202,1.2835344076156616,-1.2771258354187012
1761914916375299600,9.579299560546875,0.23692280054092407,1.6203947067260742,-0.8060001134872437
1761914916385354500,9.5893544921875,0.03423946350812912,1.558449387550354,-0.4072079658508301
1761914916395409700,9.59940966796875,-0.09785492718219757,0.8886414766311646,-0.22501127421855927
1761914916405464600,9.609464599609375,-0.12332726269960403,-0.2691822052001953,-0.3264843821525574
1761914916415519700,9.619519775390625,-0.09504688531160355,-1.41724693775177,-0.6368529200553894
1761914916425573600,9.62957373046875,-0.14877909421920776,-2.118149518966675,-1.0070000886917114
1761914916435628500,9.639628662109375,-0.3693985641002655,-2.2734079360961914,-1.3007866144180298
1761914916445683500,9.649683349609376,-0.7137300968170166,-1.8948460817337036,-1.3996517658233643
1761914916455738600,9.659738525390624,-1.1050195693969727,-1.0714021921157837,-1.285445213317871
1761914916465793500,9.66979345703125,-1.4341577291488647,-0.15669187903404236,-1.016021728515625
1761914916475847400,9.679847412109375,-1.6114710569381714,0.5328601598739624,-0.662066638469696
1761914916485902600,9.689902587890625,-1.6059972047805786,0.9720506072044373,-0.23589429259300232
1761914916495957500,9.69995751953125,-1.4352749586105347,1.2186566591262817,0.25055205821990967
1761914916506012700,9.7100126953125,-1.1588226556777954,1.2762067317962646,0.739249587059021
1761914916516066600,9.720066650390624,-0.8431666493415833,1.1763073205947876,1.1484307050704956
1761914916526121700,9.730121826171874,-0.5303570628166199,0.9892064332962036,1.467365026473999
1761914916536176600,9.7401767578125,-0.254377156496048,0.7688649892807007,1.6920452117919922
1761914916546231600,9.7502314453125,-0.046235937625169754,0.556946873664856,1.8066157102584839
1761914916556286500,9.760286376953125,0.07866844534873962,0.4223693609237671,1.793977975845337
1761914916566340600,9.770340576171876,0.12064599245786667,0.37842294573783875,1.6538597345352173
1761914916576395500,9.7803955078125,0.07975581288337708,0.4018486440181732,1.3867343664169312
1761914916586450700,9.79045068359375,-0.008117581717669964,0.46773019433021545,1.0519853830337524
1761914916596505600,9.800505615234375,-0.10243716090917587,0.5437138676643372,0.7138757705688477
1761914916606560800,9.810560791015625,-0.17449723184108734,0.6343992948532104,0.4181234836578369
1761914916616614700,9.82061474609375,-0.2104901224374771,0.734399676322937,0.17034883797168732
1761914916626669600,9.830669677734376,-0.21962903439998627,0.8986256718635559,-0.014280135743319988
1761914916636724700,9.840724853515624,-0.22189457714557648,1.1171492338180542,-0.10473573207855225
1761914916646779600,9.850779541015624,-0.24572055041790009,1.2952033281326294,-0.1161084994673729
1761914916656833500,9.86083349609375,-0.24605929851531982,1.3741042613983154,-0.07839787006378174
1761914916666888700,9.870888671875,-0.1889994740486145,1.2281614542007446,-0.0441695898771286
1761914916676943600,9.880943603515625,-0.09948983788490295,0.7906813621520996,-0.0091732582077384
1761914916686998500,9.89099853515625,-0.013974404893815517,0.23708578944206238,0.08057500422000885
1761914916697053700,9.9010537109375,0.047209590673446655,-0.27940288186073303,0.2036772221326828
1761914916707107600,9.911107666015624,0.08917488157749176,-0.6332557797431946,0.2677110731601715
1761914916717162500,9.92116259765625,0.08435402810573578,-0.7881186008453369,0.20306682586669922
1761914916727217700,9.9312177734375,0.039148733019828796,-0.6589512825012207,0.13086827099323273
1761914916737272600,9.9412724609375,0.01197011023759842,-0.29529502987861633,0.1467963606119156
1761914916747327500,9.951327392578126,0.05323579162359238,0.19411221146583557,0.27103230357170105
1761914916757381600,9.961381591796876,0.1725858896970749,0.619032084941864,0.4026217460632324
1761914916767436500,9.9714365234375,0.384265661239624,0.8181284070014954,0.48735129833221436
1761914916777491500,9.981491455078125,0.5720382332801819,0.44547760486602783,0.5311744213104248
1761914916787546600,9.991546630859375,0.8640764355659485,-0.10016734898090363,0.33720678091049194
1761914916797600500,10.0016005859375,1.1354451179504395,-0.4490984380245209,-0.07457277178764343
1761914916807655700,10.01165576171875,1.2285617589950562,-0.5924707651138306,-0.6511793732643127
1761914916817710600,10.021710693359376,1.1086326837539673,-0.45523008704185486,-1.2932029962539673
1761914916827765800,10.031765869140624,0.831607460975647,-0.11849895119667053,-1.8889846801757812
1761914916837820400,10.0418203125,0.5371412038803101,0.25625547766685486,-2.3076887130737305
1761914916847874600,10.05187451171875,0.29009121656417847,0.46504703164100647,-2.5121045112609863
1761914916857929700,10.0619296875,0.21074232459068298,0.4646236002445221,-2.3580915927886963
