time,seconds_elapsed,z,y,x
1761914265616246300,0.124246337890625,0.23219956711232662,-0.2838303856283426,-0.10384995831400155
1761914265626303200,0.13430322265625,0.20198563063442707,-0.2758054846048355,-0.04891052670665085
1761914265636359200,0.144359130859375,0.14099427857697008,-0.2538718852162361,-0.02373889524489641
1761914265646415400,0.154415283203125,0.16669278345704078,-0.2515367202669382,-0.024959376950562
1761914265656471000,0.164470947265625,0.19918343269526959,-0.25604806021153925,-0.03280278392732143
1761914265666527000,0.17452685546875,0.20240823996067045,-0.28665245731174943,-0.05659384775087237
1761914265676584200,0.184584228515625,0.2551560798078775,-0.3511217146128416,-0.08346234625838697
1761914265686640000,0.19464013671875,0.29388416213095186,-0.4299649497032165,-0.12585998393967748
1761914265696696000,0.204696044921875,0.2924976762086153,-0.5155278484374285,-0.13926029439121484
1761914265706752000,0.214751953125,0.2608031457841396,-0.566519784528017,-0.12777619282454253
1761914265716808200,0.22480810546875,0.19458266090154647,-0.6121762048095465,-0.08820186893567443
1761914265726864100,0.234864013671875,0.11277823791801929,-0.6063087740808725,-0.04184884469211101
1761914265736921000,0.244921142578125,0.10282441465854644,-0.5161801748663186,-0.021956761068478225
1761914265746977000,0.25497705078125,0.10882453185617923,-0.38920273120403287,-0.008318915534019469
1761914265757033200,0.265033203125,0.10414777221679687,-0.3275204742729664,-0.014896394228190182
1761914265767089200,0.275089111328125,0.12586334494054316,-0.29580782366991043,-0.05572707485370337
1761914265777145000,0.28514501953125,0.15254326207339763,-0.28072715891599653,-0.13238938570842146
1761914265787201300,0.295201171875,0.15062076957821846,-0.25822248164117334,-0.2193916695959866
1761914265797258200,0.30525830078125,0.15753274092376232,-0.23178747918009757,-0.2517738169584423
1761914265807314200,0.315314208984375,0.13226093702316283,-0.19212474635541438,-0.2128644597843289
1761914265817370000,0.3253701171875,0.05321370379328728,-0.12276420988142489,-0.12977511155679822
1761914265827426300,0.33542626953125,0.06310439868867397,-0.06796352915763855,-0.07289521340616047
1761914265837482200,0.345482177734375,0.1823632307976484,-0.01300795013308525,-0.08768171751908957
1761914265847539200,0.355539306640625,0.2744961555719376,0.022673604100942612,-0.11144172861725091
1761914265857595100,0.36559521484375,0.31431963191628454,0.038026656055450435,-0.13719788196869193
1761914265867651300,0.3756513671875,0.3599795593291521,0.02665945886671543,-0.17172960858047007
1761914265877707300,0.385707275390625,0.40386020210981366,-0.013919804280996323,-0.22239961924031376
1761914265887763000,0.395762939453125,0.3794289406865835,-0.0022287819653749466,-0.25205621409639717
1761914265897819100,0.405819091796875,0.3089519674032926,0.020976737055182455,-0.22956439630314707
1761914265907876000,0.4158759765625,0.26804595651924606,0.03475742512643337,-0.1628389575731009
1761914265917932000,0.42593212890625,0.2488952658474445,0.05910919157266616,-0.08422909284718334
1761914265927988000,0.435988037109375,0.265470553073287,0.043996378114819525,-0.02508906774483621
1761914265938044200,0.446044189453125,0.3404670496076345,0.026887422403693198,-0.01718202094733715
1761914265948100000,0.45610009765625,0.4315086720138788,0.04905249246060848,-0.04844875441379845
1761914265958156000,0.466156005859375,0.47911038114428517,0.03685936584174633,-0.06865962166301906
1761914265968213000,0.476212890625,0.4515472514361143,0.0011468319475650788,-0.05884045763388276
1761914265978269200,0.486269287109375,0.40281156983971594,-0.037537411233782764,-0.03238441238477826
1761914265988325000,0.4963251953125,0.32407880938649175,-0.09005611850023269,0.017819880459457635
1761914265998381000,0.506381103515625,0.29446809949874875,-0.16467501389384268,0.0983827058840543
1761914266008437200,0.516437255859375,0.27384675175249573,-0.2416062778830528,0.18667999801822005
1761914266018494200,0.526494140625,0.2884054384589195,-0.30880642145276066,0.23101101491488515
1761914266028550100,0.536550048828125,0.2950157965093851,-0.3762526487380266,0.27371771854534743
1761914266038606000,0.546606201171875,0.2790156788229942,-0.45095045458674426,0.34584435873180625
1761914266048662300,0.556662353515625,0.1737853720664978,-0.5180979911863803,0.4209292642019689
1761914266058718200,0.56671826171875,0.07049743154942989,-0.5450467883884906,0.46050804507024584
1761914266068774100,0.576774169921875,-0.012853051832318305,-0.5350304212868213,0.497890338807553
1761914266078831000,0.5868310546875,-0.056789808714389794,-0.48332419944703575,0.5238297397714108
1761914266088887300,0.59688720703125,-0.09071662823557854,-0.43132805474996566,0.5415332273095845
1761914266098943200,0.606943115234375,-0.1466413445532322,-0.37024610179960726,0.5984512655135243
1761914266108999000,0.6169990234375,-0.11497311761379242,-0.301860547837615,0.6837329361535608
1761914266119055000,0.62705517578125,0.023429390904307363,-0.18241700681149958,0.7364087336778641
1761914266129112300,0.6371123046875,0.12173778944313525,-0.08477379418313503,0.754244688489288
1761914266139168000,0.64716796875,0.18290215997993944,-0.04889408702850342,0.7557730671003461
1761914266149224000,0.657223876953125,0.2695627908229828,-0.0035071313381195065,0.7651226408563554
1761914266159280000,0.667280029296875,0.2842185081630945,0.045342532026767725,0.8274003794625401
1761914266169336000,0.677336181640625,0.3080769381344318,0.03456511742472648,0.8742633990548551
1761914266179392000,0.68739208984375,0.4397738115340471,0.006272504398226738,0.8779550931796432
1761914266189449000,0.697448974609375,0.4843991352021694,-0.05213409186303615,0.8519713416174054
1761914266199505200,0.707505126953125,0.5208990200817585,-0.1468850901812315,0.8326737167555839
1761914266209561000,0.71756103515625,0.5819511624157429,-0.17378303397893904,0.8044055805832148
1761914266219617000,0.727616943359375,0.726429191455245,-0.10928571962714195,0.7488213482663035
1761914266229673200,0.737673095703125,0.9590531214594841,-0.10532032312750816,0.7169302723564207
1761914266239729200,0.747729248046875,0.8818290120035409,-0.230548292773962,0.6764273623805492
1761914266249786000,0.7577861328125,0.4914759417206049,-0.3686638010442257,0.604070091775991
1761914266259842000,0.767842041015625,-0.04083060756027698,-0.38914778614640233,0.32215686488058415
1761914266269898200,0.777898193359375,0.13684358863830565,-0.33773499429523945,-0.07499576588198542
1761914266279954200,0.7879541015625,0.8296680321335792,-0.35815059033632274,-0.04048734708055854
1761914266290010000,0.798010009765625,0.9825444716840982,-0.042940147060155864,-0.13154420358855276
1761914266300067000,0.808067138671875,0.9738789346694946,0.03074059070050716,0.019142507365345954
1761914266310123300,0.818123291015625,0.9116472271621227,-0.07422901929318905,0.2743377136072144
1761914266320179200,0.82817919921875,0.7696715363323688,-0.1462877088099718,0.462951419634372
1761914266330235100,0.838235107421875,0.6754688195466995,-0.22367840700447558,0.567038255444169
1761914266340291000,0.848291015625,0.5916156473398209,-0.4389736010670662,0.5121325799759477
1761914266350347000,0.858346923828125,0.4657949724972248,-0.33000410778224465,0.44765988860875366
1761914266360404000,0.868404052734375,0.4451356308281421,-0.3349947556763887,0.46024880961216985
1761914266370460200,0.878460205078125,0.625810177886486,-0.390204017201066,0.5398218933470547
1761914266380516000,0.88851611328125,0.7762567599415778,-0.43502690926790233,0.6216283621571957
1761914266390572000,0.898572021484375,0.7834487172722816,-0.49931379573941226,0.6396219917483628
1761914266400628000,0.9086279296875,0.7255033087819814,-0.5873281792789697,0.7015392264790833
1761914266410684200,0.91868408203125,0.674419602754712,-0.6798685158103704,0.7855207012407481
1761914266420741000,0.9287412109375,0.656273120689392,-0.7124626254230737,0.9119562931112944
1761914266430797000,0.938797119140625,0.678692457768321,-0.6575578998029231,1.0340464031234382
1761914266440853000,0.94885302734375,0.6681482674002647,-0.5119640184760094,1.134241784452647
1761914266450909200,0.9589091796875,0.5999877543658018,-0.36282384284436703,1.228007424995303
1761914266460965600,0.968965576171875,0.521453731355071,-0.3040086657822132,1.2862775353953242
1761914266471022600,0.979022705078125,0.4286076898753643,-0.2745148602724075,1.2881446444414555
1761914266481078500,0.98907861328125,0.3736164550155401,-0.18147241943776607,1.2406501950778066
1761914266491134700,0.999134765625,0.3376134137421846,-0.0648936201930046,1.1619229875825345
1761914266501190700,1.009190673828125,0.24021453126370906,0.01714285798072815,1.079567068196088
1761914266511246600,1.01924658203125,0.17130875281989574,0.039380993273854255,1.0205859599824993
1761914266521302800,1.029302734375,0.20075813466608522,0.0524935728251934,1.0058954635899513
1761914266531359700,1.03935986328125,0.1629144339621067,0.002797521764039993,0.9962955683346837
1761914266541415700,1.049415771484375,0.14026128812730312,-0.06730711107552051,0.9466852227956056
1761914266551471600,1.0594716796875,0.23487667736709117,-0.08357143265604973,0.8244187333032489
1761914266561527800,1.06952783203125,0.2754062561541796,-0.10033259784281254,0.7192518471717834
1761914266571583500,1.07958349609375,0.21644261053204536,-0.14687982948422432,0.6499756279803812
1761914266581640700,1.089640625,0.08664017257690429,-0.17872750464379786,0.6410165879119187
1761914266591696600,1.099696533203125,0.11230594423115253,-0.21273966436088085,0.6082639267366379
1761914266601752600,1.109752685546875,0.13429916485249996,-0.28126258096694945,0.5697253025710582
1761914266611808500,1.11980859375,0.00434007503092289,-0.3148176445662975,0.39743820623829956
1761914266621864400,1.129864501953125,-0.042755438143014905,-0.3785486507207155,0.08577858731150627
1761914266631920600,1.139920654296875,-0.07353285372257232,-0.5160813906669617,-0.07289623631946743
1761914266641977600,1.1499775390625,-0.2213292135298252,-0.6361550462901592,-0.03803703131899237
1761914266652033500,1.160033447265625,-0.25444939284324647,-0.6591454612553119,0.03528634437136352
1761914266662089500,1.17008935546875,-0.25119535948336125,-0.7753194790914655,-0.05936360472515225
1761914266672145700,1.180145751953125,-0.3052466831445694,-1.0657663602501153,-0.5039242121443153
1761914266682201600,1.19020166015625,-0.34715456454753874,-1.1261702678084373,-0.6019543051984161
1761914266692257500,1.200257568359375,-0.46410921136736866,-1.054442417681217,-0.401359800128825
1761914266702314500,1.210314453125,-0.5190969390958547,-0.9188093738764523,-0.08383757277894764
1761914266712370700,1.22037060546875,-0.6355202555179595,-0.7559247505307197,0.39096320153791453
1761914266722426600,1.230426513671875,-0.4780576572209596,-0.9714812258780002,0.654160074058175
1761914266732482600,1.240482666015625,-0.5379384176880121,-0.859751035708189,0.22700587092675267
1761914266742538800,1.250538818359375,-0.6051110887289047,-1.000074283155799,-0.15224038840299473
1761914266752595700,1.260595703125,-0.5616664992779493,-1.0382938314348458,-0.170897468605265
1761914266762651600,1.270651611328125,-0.6224620365023613,-0.9866355403900146,0.10396300850072875
1761914266772707600,1.28070751953125,-0.638956659707427,-0.8998644349098205,0.4981198367144912
1761914266782763800,1.290763671875,-0.5877601409554482,-0.7807336130946874,1.0273886257346718
1761914266792819700,1.30081982421875,-0.24218495455384254,-0.7029577149748801,1.5186764244720339
1761914266802875400,1.31087548828125,-0.031582302221655846,-0.8097849355340003,1.6726912204027176
1761914266812932600,1.3209326171875,0.058743280869722365,-0.8295914597660302,1.729068502793461
1761914266822988500,1.330988525390625,0.018920973569154738,-0.6991957320928573,1.8557536855109036
1761914266833044500,1.34104443359375,-0.32350656245648857,-0.5060252760767936,1.8585742958895861
1761914266843100700,1.3511005859375,-1.1004156488269567,-0.41373803752362726,1.6303049078330396
1761914266853156600,1.361156494140625,-1.2114829911738634,-0.36857378467321394,1.2307843423627316
1761914266863212500,1.371212646484375,-0.6095552086561918,-0.3981389018535614,1.1695946181889623
1761914266873269500,1.38126953125,-0.490804326069355,0.06750000329911708,1.2644528032086788
1761914266883325700,1.39132568359375,-0.2511579500824213,0.1420522631973028,0.6354717402011155
1761914266893381600,1.401381591796875,0.12102058108448982,-0.5942670386314391,0.2121088191114366
1761914266903437600,1.4114375,0.287156899702549,-0.7831798372030258,0.9155310828581452
1761914266913493800,1.42149365234375,0.26085049205720423,-0.8822463606327772,1.4598798059798777
1761914266923550700,1.43155078125,0.40129005936086176,-0.8588964647054672,2.3562426625095307
1761914266933606700,1.441606689453125,0.03278057209551334,-0.4630383672654628,2.6507339967533943
1761914266943662600,1.45166259765625,0.39139235020279883,-0.33543899231255053,2.088672652938962
1761914266953718800,1.46171875,0.5996411328852176,-0.09562398176044225,1.8328584014832972
1761914266963774700,1.471774658203125,0.5377022708445787,0.2483531217947602,1.7274284805014728
1761914266973830700,1.48183056640625,0.6134294197410345,0.597769786055386,1.7908742399737239
1761914266983887600,1.4918876953125,0.7681295675873756,0.7992652950853109,1.6941887664616107
1761914266993943800,1.50194384765625,0.7413257318139076,0.8775184553280472,1.3805550709828733
1761914267003999700,1.511999755859375,0.6990028398692607,0.8585986508026718,0.8688552564010024
1761914267014055700,1.5220556640625,0.49038873100578784,0.7922194682270288,0.4723036237388849
1761914267024111600,1.532111572265625,0.22015490905344484,0.7077835276961326,0.3932721726000309
1761914267034167600,1.54216748046875,0.3162701814621687,0.6707853379055857,0.3989984412923455
1761914267044224800,1.552224853515625,0.7753361379653215,0.6202437759310007,0.18898498702496289
1761914267054280400,1.562280517578125,1.4739181220740079,0.6839230518981814,-0.19775369215309618
1761914267064336600,1.572336669921875,2.1508020691156386,0.9131316205009817,-0.49883565683364867
1761914267074392600,1.582392578125,2.6151293071478605,1.1522495886996387,-0.6600608225345611
1761914267084448500,1.592448486328125,2.4638117874771357,1.3765876286566257,-0.6434848046563565
1761914267094505500,1.60250537109375,1.696468986353278,1.4966571926265955,-0.5740400970302522
1761914267104561700,1.612561767578125,0.8653215293169021,1.5700205350011587,-0.5637469588138163
1761914267114617600,1.62261767578125,0.11248831506073474,1.5845736687496303,-0.5700473741322756
1761914267124673500,1.632673583984375,-0.4481780672639608,1.596060985186696,-0.5540362966604531
1761914267134729700,1.642729736328125,-1.087921493434906,1.7771832760125397,-0.4424588128343224
1761914267144785700,1.65278564453125,-2.6560633750826117,2.2106179476529357,-0.244653390493989
1761914267154842600,1.662842529296875,-3.182581988611817,2.2142267857998608,-0.06829013076350092
1761914267164898600,1.672898681640625,-1.8363374757707118,1.70539872726202,-0.3107704150021076
1761914267174954800,1.682954833984375,-1.8943325686216352,1.3582172747075556,-0.6757694099284708
1761914267185010700,1.6930107421875,-1.184886660671234,1.4765864645004272,-0.5961676115557552
1761914267195066600,1.703066650390625,-0.787627464261651,1.6307850925654173,-0.6784151021316647
1761914267205123600,1.71312353515625,-0.6865127761304378,1.607638610255718,-0.6529582970529795
1761914267215179800,1.7231796875,-0.42914778810143467,1.4905080223470926,-0.574101033437252
1761914267225235700,1.733235595703125,-0.33433950663805007,1.4479285252928733,-0.4915298638649285
1761914267235291600,1.743291748046875,-0.186508075517416,1.4305916060447692,-0.4017332730837166
1761914267245347800,1.753347900390625,-0.04287643417418003,1.395308111217618,-0.3686619013480842
1761914267255403500,1.763403564453125,0.005272971966862678,1.3401654851883649,-0.38429844641909
1761914267265460700,1.773460693359375,0.03122223673760891,1.248750353294611,-0.41441096834912894
1761914267275516400,1.783516357421875,0.10841069035828113,1.126480064409971,-0.4147748332254588
1761914267285572600,1.793572509765625,0.20852701510190963,0.9774988787323236,-0.38132001513019204
1761914267295628500,1.803628662109375,0.29096915146708485,0.7987363027751445,-0.3269808144383132
1761914267305684500,1.8136845703125,0.36087913851737974,0.638749738958478,-0.21554668460562823
1761914267315740700,1.82374072265625,0.4199328005105257,0.49807694742083547,-0.10648279103562235
1761914267325797600,1.833797607421875,0.42816111515164373,0.36971944757699965,-0.006874123553186655
1761914267335853600,1.843853515625,0.4937479783058166,0.2627911047309637,0.018017594988644123
1761914267345909500,1.853909423828125,0.5174667075455188,0.16260755997002124,0.021581863341480493
1761914267355965700,1.863965576171875,0.49444765100777144,0.04809095395207405,0.05952171789631247
1761914267366021600,1.874021728515625,0.5490402419388294,-0.11075754574537276,0.1642290236920118
1761914267376077600,1.88407763671875,0.66159226988554,-0.28811142394840716,0.2361043194659054
1761914267386134500,1.894134521484375,0.8664192614257336,-0.4188029196977615,0.27121070416048165
1761914267396190700,1.904190673828125,1.0253338120967148,-0.4676122510522604,0.3080100103780627
1761914267406246700,1.91424658203125,1.031779334974289,-0.5344166733026504,0.319889541003108
1761914267416302600,1.924302490234375,0.8851058417171239,-0.6519768848001957,0.33825061566717923
1761914267426358800,1.93435888671875,0.6894166808784008,-0.7521656902581453,0.38418322254158555
1761914267436414700,1.944414794921875,0.5584831930667161,-0.7831798372030258,0.4216664924353361
1761914267446471700,1.9544716796875,0.46011458877325057,-0.7830114948987961,0.4073558622058481
1761914267456527600,1.964527587890625,0.40123979047834873,-0.7358639592766761,0.3693208036482334
1761914267466584000,1.974583984375,0.353373877453804,-0.6741758571267128,0.2740098333597183
1761914267476640000,1.984639892578125,0.3920592896789312,-0.5505149906665087,0.20244119238220154
1761914267486695700,1.99469580078125,0.4847942719995975,-0.41343408614099025,0.13338855281360446
1761914267496753000,2.0047529296875,0.4978320327490568,-0.3665326342344284,0.05328596531189978
1761914267506808800,2.014808837890625,0.4793447744220495,-0.2750292395353317,0.027387115554139016
1761914267516864800,2.02486474609375,0.4652063589543104,-0.18567454730272293,0.0067893678791821
1761914267526920700,2.034920654296875,0.29956980655193327,-0.1540472368955612,-0.0138973732534796
1761914267536977000,2.044976806640625,-0.06071838033497333,-0.21680092245042323,-0.04249591042399406
1761914267547032800,2.05503271484375,-0.3989426194518804,-0.3372036638975143,0.01566314081698656
1761914267557089800,2.06508984375,-0.6532365294724702,-0.4514326851457357,0.07203370120599865
1761914267567145700,2.075145751953125,-0.8046399738609791,-0.5497615419507026,0.06741064451523125
1761914267577202000,2.085201904296875,-0.7742582796007395,-0.6282032105028629,0.010966799694299697
1761914267587257900,2.0952578125,-0.5469049834758043,-0.6912497415244578,-0.07170015840269625
1761914267597313800,2.105313720703125,-0.22187632601857185,-0.7024766534596681,-0.17037578281871973
1761914267607370000,2.115369873046875,0.07153612694740295,-0.6965308967977761,-0.23136669648475944
1761914267617427000,2.125427001953125,0.3049754649877548,-0.7333107676625251,-0.2792958109386265
1761914267627483000,2.13548291015625,0.4360129976958036,-0.8245943821310997,-0.34532647233754393
1761914267637538800,2.145538818359375,0.45577100661098957,-0.9470540561079979,-0.39662645146399733
1761914267647595000,2.155594970703125,0.3635036418020725,-1.0481599764108658,-0.36020533090904355
1761914267657651000,2.16565087890625,0.21740064190924166,-1.0549287398934364,-0.23912410567849873
1761914267667707000,2.175706787109375,0.05101356340050697,-1.0026964483529328,-0.1421319043047726
1761914267677763800,2.185763916015625,-0.06963643080592155,-0.9327356078982353,-0.06895451295636594
1761914267687820000,2.195820068359375,-0.23348376170396803,-0.8373854746431112,-0.032673166198283435
1761914267697876000,2.2058759765625,-0.4175754237294197,-0.7902139736235141,0.002084843450039625
1761914267707932000,2.215931884765625,-0.38770577064454553,-0.7197270634680986,0.18964162430278955
1761914267717987800,2.22598779296875,-0.3486205454468727,-0.6563432633161544,0.39291897524818775
1761914267728045000,2.236045166015625,-0.5010597626239061,-0.756951755490899,0.40661519990637895
1761914267738100700,2.246100830078125,-0.6418307538390159,-1.073446977880597,0.2808700745180249
1761914267748156700,2.25615673828125,-0.5247814144730568,-1.3385995510458946,0.2372911180976778
1761914267758212900,2.266212890625,-0.2603770293265581,-1.3148445814490317,0.382751363107562
1761914267768268800,2.276268798828125,-0.25470073725581166,-1.2008791795730591,0.5290612837493419
1761914267778324700,2.28632470703125,-0.37268764973282814,-1.1786954048156737,0.5208985816903412
1761914267788381700,2.296381591796875,-0.30607611970603466,-1.2034539984971284,0.41293578123003244
1761914267798438000,2.30643798828125,-0.05003916541039943,-1.1029641642659902,0.3077858462333679
1761914267808493800,2.316493896484375,0.22567688734531402,-0.8146697849661111,0.2658805951789021
1761914267818549800,2.3265498046875,0.3943307417422533,-0.3084305738776922,0.32608386559858915
1761914267828606000,2.33660595703125,0.40604748302102084,0.4885948333263397,0.4596889107070863
1761914267838662000,2.346661865234375,0.24074936879277228,1.3042664888113735,0.628159225230664
1761914267848718800,2.35671875,0.06397825891375541,1.8703496354877949,0.7655838286273181
1761914267858774800,2.36677490234375,-0.04214402824640274,2.127522315815091,0.8228506072036922
1761914267868831000,2.3768310546875,-0.06643149728477,2.16989723020792,0.8150352572776377
1761914267878887000,2.386886962890625,-0.08265665589869022,2.0975819355815646,0.7850631667315959
1761914267888942800,2.39694287109375,-0.025421441504359245,1.987842626968026,0.728592506968975
1761914267898999000,2.4069990234375,0.08341010461449623,1.784215658867359,0.6132800743982195
1761914267909056000,2.417055908203125,0.23710779742002486,1.576670640540123,0.44527197055891155
1761914267919112000,2.42711181640625,0.46076516163647174,1.385818982860446,0.23883783608302472
1761914267929168000,2.43716796875,0.5628057324409484,1.0998960088670253,-0.009533259759843348
1761914267939223800,2.447223876953125,0.5477145462930202,0.8098983327805995,-0.2615210847951472
1761914267949279700,2.45727978515625,0.5108814839363098,0.63926820987463,-0.40469373032450673
1761914267959336700,2.467336669921875,0.4312479752510786,0.5638900205463171,-0.358413040664792
1761914267969393000,2.477392822265625,0.2705196531563997,0.5506219581723213,-0.2035014420248568
1761914267979448800,2.48744873046875,0.0744704268336296,0.6287433087289332,0.008065233033895492
1761914267989504800,2.4975048828125,-0.1757359216123819,0.813784234303236,0.2487324765011668
1761914267999561000,2.50756103515625,-0.406285967952013,1.052267996251583,0.5338007333613932
1761914268009617000,2.517616943359375,-0.6080611707061528,1.2302835532337426,0.8042243787974118
1761914268019673900,2.527673828125,-0.8238508702874183,1.2901006008148193,1.0874787181034684
1761914268029729800,2.537729736328125,-0.972464391696453,1.3229711892813443,1.385225400881469
1761914268039786000,2.547785888671875,-0.9898130013823508,1.2928168740361927,1.5920575947642326
1761914268049842000,2.557842041015625,-0.8984779489874839,1.1339449934631585,1.6645893086202441
1761914268059897900,2.56789794921875,-0.6843991449773311,0.8199632151991129,1.6418848709896205
1761914268069953800,2.577953857421875,-0.4123679182142019,0.45662966926693915,1.6067776095122097
1761914268080011000,2.588010986328125,-0.20447920101583003,0.12847440422177314,1.5144748811289668
1761914268090067000,2.59806689453125,-0.10700082356035709,-0.1151999121069908,1.3735799712732433
1761914268100123000,2.608122802734375,0.004416647398471832,-0.24735212805867193,1.2659186379775405
1761914268110179000,2.618178955078125,0.18156302033066749,-0.33969372714757917,1.138116141667962
1761914268120235000,2.628235107421875,0.4146849629849195,-0.45498365562558174,1.0100549944221973
1761914268130291000,2.638291015625,0.5790051720917224,-0.5357511367768049,0.8846713958226143
1761914268140348000,2.648347900390625,0.6798632551133632,-0.5512321990251541,0.8005597188100219
1761914268150404000,2.658404052734375,0.7608692211955785,-0.4605716848909855,0.7246161506839096
1761914268160460000,2.6684599609375,0.8528741356760263,-0.30265958926081654,0.6492309470929205
1761914268170515700,2.678515625,0.8937047432363032,-0.26079730056524275,0.5677668619796633
1761914268180572000,2.688572021484375,0.9291875600278376,-0.32253216446638105,0.5212909420087933
1761914268190628900,2.69862890625,1.0029746807724236,-0.40568917110264296,0.5114627909556031
1761914268200684800,2.708684814453125,1.0718173308521508,-0.49775838299095626,0.49892552707418797
1761914268210740700,2.71874072265625,1.1272311750382185,-0.6407815370470284,0.5103139131814242
1761914268220797000,2.728796875,1.15203302333951,-0.8292132741034031,0.5085494607921689
1761914268230852900,2.738852783203125,1.086916115784645,-1.0371499220967293,0.5321544274590909
1761914268240908800,2.74890869140625,0.9291028043538332,-1.2855553586006163,0.5697364815521985
1761914268250965800,2.7589658203125,0.7248480597436427,-1.481042274865508,0.5403653525739908
1761914268261022000,2.76902197265625,0.5238835888504981,-1.5587427696615457,0.4710669215507805
1761914268271078000,2.779077880859375,0.3538707210600376,-1.4583838683336972,0.37930429139360783
1761914268281133800,2.7891337890625,0.18923779274225233,-1.302913905158639,0.2622211958885193
1761914268291190000,2.79918994140625,0.1047211881905794,-1.1451929481863974,0.1360620828717947
1761914268301246000,2.809245849609375,0.11400807197391986,-1.0100865586042405,0.028409809665381907
1761914268311303000,2.819302978515625,0.1463181039482355,-0.9724655607402324,-0.10733261279799043
1761914268321358800,2.82935888671875,0.12618366293609143,-0.9975836353838443,-0.2399981850992888
1761914268331415000,2.8394150390625,0.10210545273423194,-0.9314508287847042,-0.2869388730376959
1761914268341471000,2.849470947265625,0.04865794018507003,-0.8008107709616422,-0.2775067355647683
1761914268351527000,2.85952685546875,-0.04622574460208416,-0.6420195544093847,-0.2329596647646278
1761914268361583000,2.8695830078125,-0.16867314361929892,-0.4725877013772726,-0.1800231704775244
1761914268371640000,2.87964013671875,-0.24370997216403484,-0.3343336614191532,-0.10472206497341394
1761914268381696000,2.889696044921875,-0.29381051237285133,-0.2455757660359144,-0.016632497305795548
1761914268391751700,2.899751708984375,-0.36595337304174896,-0.1587877094209194,0.08562062027081847
1761914268401808000,2.909807861328125,-0.4397323104798794,-0.08307926522493361,0.17198752886429428
1761914268411863800,2.91986376953125,-0.4725257420569658,-0.05137772053778171,0.19106595801748336
1761914268421920800,2.929920654296875,-0.4270066844195127,-0.11629998230338096,0.12580810762196779
1761914268431976700,2.939976806640625,-0.2850385923743248,-0.28148820641636846,0.061429012822359796
1761914268442033000,2.950032958984375,-0.14930033462941647,-0.4775847790122032,0.03924582258686423
1761914268452088800,2.9600888671875,-0.11218027202486991,-0.6847188784509897,0.0285022371891886
1761914268462144800,2.970144775390625,-0.1424661046952009,-0.8905535857290029,-0.001782134176418185
1761914268472201000,2.980200927734375,-0.15670271984040737,-0.9988689990192651,0.01541106575205922
1761914268482258000,2.9902578125,-0.2618073543906212,-0.9566676876276731,0.11850165706612169
1761914268492313900,3.00031396484375,-0.42241234236657615,-0.7678741315215826,0.29792496195435525
1761914268502369800,3.010369873046875,-0.5404869331270457,-0.5517722972512245,0.491408064116165
1761914268512426000,3.020426025390625,-0.6310954248130322,-0.32262802605628965,0.6883009016562253
1761914268522482000,3.03048193359375,-0.7217021629333495,-0.07697861026227473,0.8641022166550159
1761914268532537900,3.040537841796875,-0.7430851427018642,0.1811918489307165,0.9849764480713754
1761914268542594800,3.0505947265625,-0.6377484529614448,0.4133908315211534,1.038560738742724
1761914268552651000,3.060651123046875,-0.4226940819174051,0.5650701702415942,1.027302701016888
1761914268562707000,3.07070703125,-0.20353286007642746,0.6108417413353919,1.0189608429986983
1761914268572762600,3.0807626953125,-0.01175005902647972,0.543776037800312,0.9912777401726692
1761914268582818800,3.09081884765625,0.1584393343746662,0.46707215282618997,0.9269663037817925
1761914268592874800,3.100874755859375,0.3447586093217134,0.4451794699698686,0.8703037747088819
1761914268602931700,3.110931640625,0.5000058696568012,0.4210480682760477,0.8404392361905425
1761914268612987600,3.120987548828125,0.5573766931295394,0.4474468303799629,0.820621752173081
1761914268623043800,3.1310439453125,0.5711451062411069,0.5224187769949435,0.8245691015593707
1761914268633099800,3.141099853515625,0.6154495273917913,0.6062719492018223,0.7955017778333277
1761914268643155700,3.15115576171875,0.7117208671450614,0.6684159784257412,0.7108383852221072
1761914268653212000,3.1612119140625,0.7832610857456922,0.6619681174606085,0.6756429340045899
1761914268663268900,3.171268798828125,0.832469645550847,0.636179596209526,0.6350779916431755
1761914268673324800,3.18132470703125,0.8515385031580924,0.5881418337494134,0.5866629933685064
1761914268683380700,3.191380615234375,0.8598281925976275,0.5339654224038124,0.49545354011468584
1761914268693437000,3.20143701171875,0.8092173647791147,0.5068243174999952,0.3884446063131094
1761914268703492900,3.211492919921875,0.6771791305959224,0.5240805727273226,0.3588224982485175
1761914268713549800,3.2215498046875,0.5190063382029533,0.5258101729989052,0.35592604615464807
1761914268723605800,3.231605712890625,0.3827367500603199,0.42249592899680133,0.3551090306833386
1761914268733662000,3.241661865234375,0.2868354126632213,0.31014146944880483,0.3697152828585356
1761914268743718000,3.2517177734375,0.15373510220646858,0.28793898999094963,0.3743862703442573
1761914268753773800,3.26177392578125,0.0035299276918172836,0.30660452749431133,0.3416555287398398
1761914268763830000,3.271830078125,-0.09958148721456526,0.2484171269416809,0.2693224061958492
1761914268773887000,3.281886962890625,-0.07338321611881256,0.13647300176024435,0.20916648204922675
1761914268783943000,3.29194287109375,0.08292728953361511,0.07381985397040844,0.15380400272421538
1761914268793998600,3.30199853515625,0.2795101843416691,0.10917524498999118,0.13662833845242858
1761914268804054800,3.3120546875,0.40924189514815806,0.17391630496978758,0.12133921857960521
1761914268814110700,3.32211083984375,0.3829834182977676,0.24521219342052936,0.1015584133107215
1761914268824166700,3.332166748046875,0.19676701920330522,0.32789047662913795,0.14634002351909875
1761914268834223900,3.342223876953125,-0.016637831068038938,0.43318624983727927,0.20257767824344336
1761914268844279800,3.35227978515625,-0.16708090599179268,0.5883206974476576,0.16025018318891524
1761914268854335700,3.362335693359375,-0.30998715566992757,0.7524947760820389,0.05866422428414225
1761914268864391700,3.3723916015625,-0.3545066808760166,0.9788619837790727,-0.050905792177096
1761914268874448000,3.38244775390625,-0.30582185268402096,1.0972229902654886,-0.2568354111969471
1761914268884503800,3.39250390625,-0.24531273118555544,1.0722878709733485,-0.457156761880964
1761914268894560800,3.402560791015625,-0.18542554097771644,0.9831038591325283,-0.603426861969009
1761914268904617000,3.412616943359375,-0.16639292372763156,0.8039408856809139,-0.6733260353643447
1761914268914673000,3.4226728515625,-0.13985504541397095,0.6283984408140182,-0.6988883466441184
1761914268924728800,3.432728759765625,-0.08177227427959442,0.5143023982957006,-0.6897816417332738
1761914268934784800,3.44278466796875,-0.10018880545794963,0.44707653576284645,-0.6274670782480388
1761914268944842000,3.452842041015625,-0.2009995422065258,0.4444958716198802,-0.5365956978421658
1761914268954898000,3.46289794921875,-0.2512058808773756,0.4332213211506605,-0.4841618193149566
1761914268964953900,3.472953857421875,-0.26839140895605085,0.3948845762327313,-0.4688310522574931
1761914268975009800,3.483009765625,-0.24640111094415187,0.3728846336096525,-0.45556437812298534
1761914268985066000,3.49306591796875,-0.18841010974645614,0.3703469318255782,-0.45754736863374706
1761914268995121700,3.50312158203125,-0.13186696926951408,0.33283319372832776,-0.43461233711764213
1761914269005179000,3.513178955078125,-0.061603930997848506,0.24309447061419487,-0.4231767508678138
1761914269015235000,3.523235107421875,0.06276537599265575,0.13835896163731812,-0.3668845529446378
1761914269025290800,3.533290771484375,0.2003676740437746,0.025211013624072073,-0.29105408980417996
1761914269035346700,3.5433466796875,0.29839141042232514,-0.09236234961599112,-0.24594069035816937
1761914269045403000,3.55340283203125,0.319566884920001,-0.2752516501143575,-0.2635655597021803
1761914269055458800,3.563458740234375,0.3640922553449869,-0.49044747545570133,-0.3384022260323167
1761914269065515800,3.573515869140625,0.3966132997214794,-0.6612725364118814,-0.410598351258412
1761914269075571700,3.58357177734375,0.43859483088254925,-0.7647057306185364,-0.4856184478640556
1761914269085628000,3.5936279296875,0.38204759875237937,-0.7724494766131043,-0.5206710565447807
1761914269095683800,3.603683837890625,0.18073650637865066,-0.6876283361569047,-0.515335029279068
1761914269105739800,3.61373974609375,-0.09449497773051262,-0.5756128993049263,-0.5092363470777869
1761914269115796700,3.623796630859375,-0.246630243524909,-0.47438481392711396,-0.49776444740556175
1761914269125853000,3.63385302734375,-0.3317728710204363,-0.3887777837902307,-0.48109673265591263
1761914269135908900,3.643908935546875,-0.47112347404360766,-0.34784780750870703,-0.4779379763640463
1761914269145964800,3.65396484375,-0.695996059268713,-0.4028840505540371,-0.44916656684465706
1761914269156021000,3.66402099609375,-0.8488976332604885,-0.508827766276896,-0.39898992919232695
1761914269166077000,3.674076904296875,-0.8810293860584497,-0.6487465245768428,-0.39263380163125694
1761914269176134000,3.6841337890625,-0.7932341982275247,-0.7360776020273566,-0.42235633786302057
1761914269186189800,3.69418994140625,-0.6020400107204914,-0.7121428919494152,-0.4480591901246458
1761914269196246000,3.70424609375,-0.3885340381622314,-0.6525470859035849,-0.4796052885217592
1761914269206302000,3.714302001953125,-0.22413199599087236,-0.6096478553757071,-0.5476025007532909
1761914269216358000,3.72435791015625,-0.116271925252676,-0.6054688161253928,-0.6398669794853776
1761914269226413800,3.734413818359375,-0.0418231257289648,-0.6435609386324882,-0.7472513955358415
1761914269236471000,3.744470947265625,0.02347323004603386,-0.7374380767256021,-0.8725782224468887
1761914269246526700,3.754526611328125,0.08351473403275013,-0.8446981357440352,-0.9452187304396181
1761914269256582700,3.764582763671875,0.12417466120123863,-0.9682552495688199,-1.009582846865803
1761914269266638800,3.774638916015625,0.12518939120173453,-1.1572276693731545,-1.112628649190068
1761914269276694800,3.78469482421875,0.11109306131005287,-1.3878081108510494,-1.2147313985105603
1761914269286750700,3.794750732421875,0.186978031116724,-1.533963717713952,-1.2382612541146576
1761914269296807700,3.8048076171875,0.25054595566391946,-1.4876549710035323,-1.1085062354978172
1761914269306863900,3.81486376953125,0.1528933906853199,-1.2748247057497502,-0.887988630611822
1761914269316919800,3.824919921875,-0.059168812805414195,-0.9658952424392103,-0.6515225651614368
1761914269326975700,3.834975830078125,-0.20728782869577406,-0.6335515857934951,-0.5306323324583471
1761914269337032000,3.845031982421875,-0.1666179646551609,-0.3034031011044979,-0.46677477731481193
1761914269347089000,3.8550888671875,-0.014493804776668548,0.05575228236019611,-0.40271260297726835
1761914269357144800,3.865144775390625,0.08948562513589858,0.4188926438078284,-0.33455720450934023
1761914269367200800,3.87520068359375,0.1416302383929491,0.8057830064162611,-0.2418424247264862
1761914269377257000,3.885257080078125,0.24282909767627714,1.1471958124414086,-0.10007829428818077
1761914269387313000,3.89531298828125,0.48074996504485606,1.392309221662581,0.06832925719749182
1761914269397368800,3.905368896484375,0.7645277437031268,1.430222772732377,0.19029400553060694
1761914269407425800,3.91542578125,1.0197615649223326,1.2941247417643666,0.2673153224234469
1761914269417482000,3.92548193359375,1.2618570876270532,1.1396019963115454,0.35999260147381573
1761914269427538000,3.935537841796875,1.3406710966229438,0.942919148260355,0.4703672488488257
1761914269437593900,3.94559375,1.3451853591769933,0.8036383956030011,0.5882944670278578
1761914269447649800,3.95564990234375,0.9864993467897176,0.898231573010981,0.6039005438953637
1761914269457705700,3.965705810546875,0.9324696504384279,0.8590726980552077,0.697371293144673
1761914269467763200,3.97576318359375,1.345223353099823,0.9289861922368406,0.7475378843270242
1761914269477819100,3.985819091796875,1.1067454363703728,0.870821588037908,0.7790355039399117
1761914269487875300,3.995875244140625,0.5706833339482545,0.6606529432088136,0.8392904314815998
1761914269497931300,4.00593115234375,0.6117600252240896,0.5885793483838438,0.798044374988228
1761914269507987000,4.015987060546875,0.44067455976605413,0.46860330791622395,0.8829726290807127
1761914269518043100,4.026043212890625,0.0426338575899601,0.33010669137388465,1.1327939237318931
1761914269528100000,4.03610009765625,-0.28182606006860733,0.2562035430341959,1.4530126966893673
1761914269538156000,4.046156005859375,-0.4596808735311031,0.30840310134887694,1.792037730795145
1761914269548212000,4.0562119140625,-0.5351964255034923,0.3977390888810158,2.0723383348621427
1761914269558268200,4.06626806640625,-0.6626689592063426,0.41899405835568904,2.229780621023476
1761914269568324000,4.076323974609375,-0.7229875265687704,0.33723552034050225,2.2765818274259564
1761914269578381000,4.086381103515625,-0.4071002069443464,0.23806495201438663,2.372500554349273
1761914269588437000,4.09643701171875,-0.16101999851763246,0.12612784109562636,2.439335956259817
1761914269598493200,4.1064931640625,-0.0755295804977417,-0.03898848682492971,2.4052055769905447
1761914269608549000,4.116549072265625,-0.03181318836808204,-0.21780776140540836,2.2609546347051857
1761914269618605000,4.12660498046875,-0.048483752661943436,-0.3450157989531755,2.0199536292389033
1761914269628661200,4.1366611328125,-0.017128244933485984,-0.40830841369032855,1.7783340534828602
1761914269638718200,4.14671826171875,0.09213643190562724,-0.42613516228199,1.6108376985579729
1761914269648774100,4.156774169921875,0.28209201752841473,-0.46032267856597897,1.4894111670210957
1761914269658830000,4.166830078125,0.4647779044091701,-0.49959056685417885,1.3930389972418546
1761914269668886300,4.17688623046875,0.5238572853654623,-0.6154398827806115,1.285467534186691
1761914269678942200,4.186942138671875,0.4873047935158014,-0.7740002131864429,1.1401901714630425
1761914269688998100,4.196998046875,0.5117401465922594,-0.8540598383292556,0.955672977501899
1761914269699055000,4.20705517578125,0.6359457874536514,-0.8607242646545171,0.7478007730469107
1761914269709111300,4.217111328125,0.7480272752791642,-0.783621443490684,0.5739704293275252
1761914269719167200,4.227167236328125,0.7748369562715292,-0.6508928889557719,0.4745222861690446
1761914269729223000,4.237222900390625,0.7718488803714514,-0.5565478410899639,0.37552970475833863
1761914269739279000,4.247279052734375,0.7362053200602531,-0.526377451492846,0.2455841868043877
1761914269749336300,4.25733642578125,0.7462076586365699,-0.4886953710913658,0.14669661840442566
1761914269759392000,4.26739208984375,0.6978671138375997,-0.497647031570971,0.08876893736706115
1761914269769448000,4.277447998046875,0.5063526083350182,-0.5684565978094935,0.08020334446243942
1761914269779504000,4.287504150390625,0.30673779848515986,-0.6274129369080066,0.14328584184655918
1761914269789560000,4.29756005859375,0.1711222903370857,-0.6810556797683238,0.195907096172031
1761914269799616000,4.307615966796875,0.04241115474998951,-0.7823714434295892,0.2597996678300202
1761914269809673000,4.3176728515625,-0.10144435847699641,-0.9129919197693467,0.3479054925126955
1761914269819729200,4.327729248046875,-0.21765081727802751,-1.0268158673480152,0.4229567149089649
1761914269829785000,4.33778515625,-0.34115503187179563,-1.1259238918319343,0.45155664031896736
1761914269839841000,4.347841064453125,-0.5124404038161039,-1.2304349444031715,0.3993820337824523
1761914269849897200,4.357897216796875,-0.6358399889916181,-1.316931032334268,0.27827812179606404
1761914269859953200,4.367953125,-0.6954331646889448,-1.327559686115384,0.14184464832860977
1761914269870010000,4.378010009765625,-0.6818786865890025,-1.3095450137361884,0.025502799644879996
1761914269880066000,4.388066162109375,-0.6322399186730384,-1.2256956409215927,-0.05553837931461166
1761914269890122200,4.398122314453125,-0.5956710602104663,-1.1148773048996925,-0.08583500280701555
1761914269900178200,4.40817822265625,-0.5860112514615059,-1.0270078827887772,-0.08969108458012343
1761914269910234000,4.418234130859375,-0.5524889210879802,-0.954159504199028,-0.079546104396414
1761914269920291000,4.428291015625,-0.497790531694889,-0.9907976285055279,-0.11986918255966156
1761914269930347300,4.43834716796875,-0.4505617475301027,-1.1412056321159005,-0.20198617862369864
1761914269940403200,4.4484033203125,-0.3236807499796152,-1.035919211257994,-0.10644587482502683
1761914269950459100,4.458459228515625,-0.4017892410546541,-0.7638020597770809,0.0681567456082208
1761914269960515000,4.46851513671875,-0.6977852807730436,-0.7151432428091764,0.1619676363649778
1761914269970571000,4.478571044921875,-0.7779290770679712,-0.7822291123494506,0.17516937377080322
1761914269980628000,4.4886279296875,-0.5787555812448263,-0.8185442883118986,0.1629542179832235
1761914269990684200,4.49868408203125,-0.364955594176054,-0.8527464176431298,0.09187081237253733
1761914270000740000,4.508739990234375,-0.29393326196968556,-1.006463691931963,-0.016149718757532537
1761914270010796000,4.518796142578125,-0.31097792027294635,-1.2774427792936562,-0.2071288752743974
1761914270020852000,4.52885205078125,-0.2538064187645912,-1.5128300365313887,-0.4036329326925799
1761914270030908200,4.538908203125,-0.01768704786002636,-1.5562833938106893,-0.46381128786671905
1761914270040965000,4.548965087890625,0.2637362766265869,-1.312382282988727,-0.34660504090599714
1761914270051021000,4.55902099609375,0.37517420585155487,-0.9196326729580759,-0.11328039702018722
1761914270061077000,4.569076904296875,0.15687164666652678,-0.6050336395785212,0.1043984225096181
1761914270071133200,4.57913330078125,-0.21274258697032927,-0.36942923245877024,0.22585284670041872
1761914270081189000,4.589189208984375,-0.5029793325096369,-0.08068769391328096,0.2835474770337343
1761914270091245000,4.5992451171875,-0.5740332288980484,0.38302228900343177,0.3332203664150089
1761914270101302300,4.60930224609375,-0.49756315267980095,0.8934300179481506,0.31194281978234645
1761914270111358200,4.619358154296875,-0.33867198288440703,1.3433075826063752,0.26032971958611156
1761914270121414100,4.6294140625,-0.1153396128386259,1.6938947519510983,0.23326869418118149
1761914270131470000,4.639469970703125,0.17606676100194454,1.9016282785877585,0.17715842869617043
1761914270141526300,4.6495263671875,0.5077525382608175,1.9564158075690268,0.0009471263906918466
1761914270151583200,4.659583251953125,0.8318553130447864,1.9599436894342301,-0.21239877850133923
1761914270161639200,4.66963916015625,1.0151222146838903,1.9863912591159343,-0.30267102397028356
1761914270171695400,4.6796953125,1.0622124671608209,1.967129801546037,-0.3193685493363067
1761914270181751000,4.6897509765625,1.0924176358103752,1.8775941997885703,-0.4106369662357494
1761914270191807000,4.699806884765625,1.1496849989086388,1.707205776683986,-0.5215783075828105
1761914270201863200,4.70986328125,1.197583645159006,1.481148365588486,-0.6480491168972105
1761914270211920100,4.719920166015625,1.2132558460652827,1.2048296707645059,-0.8482866617552935
1761914270221976000,4.72997607421875,1.2890782720297573,0.9251853386491536,-1.0891988198943436
1761914270232032000,4.740031982421875,1.4122668448030948,0.7170517067790031,-1.2660054394781588
1761914270242088200,4.750088134765625,1.5284464155972004,0.5830000869467854,-1.3878899439156054
1761914270252144000,4.76014404296875,1.55422149284482,0.47578474385291336,-1.4808089045010506
1761914270262200000,4.770199951171875,1.4638660991370678,0.3056307140260935,-1.6167197423338888
1761914270272257000,4.780257080078125,1.3031412841737269,0.08370382686406373,-1.8074354986742138
1761914270282313200,4.790313232421875,1.187160450822115,-0.08372107025980949,-1.9466089915648102
1761914270292369200,4.800369140625,1.0640654015511273,-0.11350596767067908,-1.9656796027377246
1761914270302425000,4.810425048828125,0.8353823181271552,-0.05215893404334783,-1.9121043721556663
1761914270312481300,4.820481201171875,0.4787421323537826,0.029379239219427106,-1.7761685460120438
1761914270322538200,4.830538330078125,0.09400164125561714,0.11013444541096687,-1.663930406320095
1761914270332594200,4.84059423828125,-0.1973223149985075,0.23030220905840396,-1.5599018765687942
1761914270342650000,4.850650146484375,-0.44593233416378497,0.4838321489691734,-1.3556585301354527
1761914270352706300,4.860706298828125,-0.6389654275357722,0.7999348649099469,-1.1479874742757528
1761914270362762200,4.87076220703125,-0.7476789002329111,1.0906716689258813,-1.0574517555650322
1761914270372818200,4.880818115234375,-0.8038748347073793,1.3647560288265346,-1.072664449200779
1761914270382875100,4.890875244140625,-0.8492214583873748,1.5939514456868171,-1.180476150752604
1761914270392931300,4.900931396484375,-0.8526268829166889,1.721799242442846,-1.3042200193211435
1761914270402987300,4.9109873046875,-0.7320142981112003,1.895638390523195,-1.311800391447544
1761914270413043000,4.92104296875,-0.7188017653167247,1.9698451979845761,-1.3112816282704471
1761914270423099100,4.93109912109375,-0.7011556339889764,1.7988979719534515,-1.3311197166845201
1761914270433156000,4.941156005859375,-0.5264075543701648,1.5055696901395916,-1.2957599417507648
1761914270443212000,4.9512119140625,-0.29422727648019786,1.187536590658128,-1.1673260887350887
1761914270453268000,4.96126806640625,-0.12475742952525615,0.8846443616852164,-1.0417747323531656
1761914270463324200,4.97132421875,-0.10386077196896075,0.5329844485424459,-1.086277014163509
1761914270473383200,4.981383056640625,-0.0012152210086584091,0.2554981712438166,-1.1643243496358393
1761914270483439000,4.991439208984375,-0.0006365443378686904,0.09607917818203568,-1.166017855680734
1761914270493496000,5.00149609375,-0.06955927391648292,0.0344227863445878,-1.1242590273596347
1761914270503552300,5.01155224609375,-0.15673428402245043,0.043713031128793954,-1.0462305427182466
1761914270513608200,5.021608154296875,-0.26433015086650846,0.06328910760581492,-0.9122169898740947
1761914270523664100,5.0316640625,-0.44382805536091324,0.1642104651220143,-0.6364409505594522
1761914270533720000,5.041719970703125,-0.676460168671608,0.3394301077753305,-0.30654746354483065
1761914270543776000,5.05177587890625,-0.924246596494317,0.5031126035004854,-0.015872180457785726
1761914270553833000,5.0618330078125,-1.1577017166256904,0.6182035022750496,0.21090543467104433
1761914270563889200,5.07188916015625,-1.25733113463521,0.6585743833690881,0.33880934552848335
1761914270573945000,5.081945068359375,-1.2318722837299108,0.6257438346520066,0.35075609617084264
1761914270584001000,5.0920009765625,-1.0375427208065986,0.5693816036999225,0.2930587441574782
1761914270594057000,5.102056884765625,-0.7342951025247574,0.5097960267871618,0.24641740449182686
1761914270604114200,5.1121142578125,-0.3688379885673523,0.4672720593124628,0.23078743529208004
1761914270614170000,5.122170166015625,0.004469254368543624,0.3672378598943353,0.19118812309242783
1761914270624226000,5.13222607421875,0.29291385579407214,0.2007876530215144,0.10018244878239929
1761914270634282200,5.1422822265625,0.48519817662537096,-0.00002221183180809021,0.02391293663755059
1761914270644338200,5.152338134765625,0.6194283678948879,-0.20141367596536874,-0.09312500455155968
1761914270654394000,5.16239404296875,0.7198837153345347,-0.3585451426118612,-0.19662936429828404
1761914270664451000,5.172451171875,0.7691828760325908,-0.4190107172295451,-0.22964001882262527
1761914270674507300,5.18250732421875,0.7823357875943183,-0.314637611824274,-0.16140483311675488
1761914270684563200,5.192563232421875,0.7215355741947889,-0.1790025221928954,-0.080270783675462
1761914270694619100,5.202619140625,0.5868547165483236,-0.04861673139184713,-0.004803308628499508
1761914270704675000,5.212675048828125,0.47990942256748675,0.07742986116111278,0.045963513469323515
1761914270714731300,5.222731201171875,0.43636897152662274,0.23648265125900506,0.10506517932265996
1761914270724788200,5.232788330078125,0.3539233280301094,0.4059080745503306,0.17031155847609042
1761914270734844200,5.24284423828125,0.2547527597039938,0.48699879630655046,0.20220000403746963
1761914270744900400,5.252900390625,0.21266601460278034,0.5213724828124046,0.25081995029971005
1761914270754956300,5.262956298828125,0.23284604832231998,0.4609276587218046,0.30175379952751097
1761914270765012000,5.273011962890625,0.21447277176380156,0.2893599627047777,0.3348845733001828
1761914270775068200,5.283068115234375,0.10022270772755146,0.0476288893982768,0.36290056134238835
1761914270785125000,5.293125,-0.07834113078713417,-0.15846856046915053,0.4605901703957468
1761914270795181000,5.30318115234375,-0.29467092859447,-0.3420879288077354,0.5611428407300263
1761914270805237000,5.313237060546875,-0.4470692292392254,-0.5296215479806066,0.628585853144899
1761914270815293200,5.323293212890625,-0.5146031348079443,-0.7185714636921883,0.5929223460242152
1761914270825349000,5.33334912109375,-0.49850832457542416,-0.8530874861657619,0.4967039055019617
1761914270835406000,5.343406005859375,-0.4280366119891405,-0.9286962693795561,0.4057891243457794
1761914270845462000,5.3534619140625,-0.3633487435013056,-0.9368182010367512,0.36623175159171223
1761914270855518200,5.363518310546875,-0.36651100692451,-0.9166340756639838,0.38649822148568924
1761914270865574100,5.37357421875,-0.40571722815334793,-0.8982444324925541,0.43868784292824564
1761914270875630000,5.383630126953125,-0.4363981976211071,-0.8444532210722565,0.5241772380348295
1761914270885686300,5.393686279296875,-0.43445173972845075,-0.7863421006262302,0.6387439668048173
1761914270895743200,5.4037431640625,-0.3951023106366396,-0.7298875152155756,0.7412521551210433
1761914270905799200,5.413799072265625,-0.35567572465538977,-0.6598091858610511,0.8672902721066027
1761914270915855000,5.423855224609375,-0.3856014918416738,-0.5962403845310211,1.0251575787469744
1761914270925911300,5.433911376953125,-0.4567781378269195,-0.5120493586719036,1.2097328595709056
1761914270935967200,5.44396728515625,-0.5386497808277607,-0.37245647132545706,1.3961524530872702
1761914270946023200,5.454023193359375,-0.5550953041940927,-0.20805179880559443,1.4975444968551397
1761914270956080000,5.464080078125,-0.5310428129553795,-0.024145137958228587,1.5437088666588068
1761914270966136300,5.47413623046875,-0.4228554099589586,0.1706827298760414,1.5809499252945183
1761914270976192300,5.484192138671875,-0.3842261118352413,0.3446004961505532,1.6182324849843979
1761914270986248000,5.494248046875,-0.2844277669996023,0.47641895010322327,1.6857704822063444
1761914270996304100,5.50430419921875,-0.18824761266112328,0.5778875662386417,1.7458045335389674
1761914271006361000,5.514361083984375,-0.08372808452248573,0.5609156809106469,1.7218936427280305
1761914271016417000,5.5244169921875,0.007984569013118743,0.438123413978517,1.6370992441482841
1761914271026473000,5.534472900390625,0.06235270353853702,0.2949702038019895,1.5551920914426445
1761914271036529200,5.544529052734375,0.07042144370377064,0.28114801467657086,1.5411182656437157
1761914271046585000,5.554585205078125,0.10384440535604954,0.363832727625966,1.5907232774205504
1761914271056641000,5.56464111328125,0.21505554008781907,0.466755049701035,1.6581018462970851
1761914271066698000,5.574697998046875,0.15030278967022895,0.585671644243598,1.679953758751601
1761914271076754200,5.584754150390625,0.01684825894832611,0.7190320669412612,1.6952214705102144
1761914271086810000,5.59481005859375,0.009942132821679115,0.7553858213484287,1.6695027996249496
1761914271096866000,5.604865966796875,0.11317571280300616,0.7366957339257001,1.5862161752596498
1761914271106922200,5.614922119140625,0.1937356886833906,0.6986234851628541,1.5624708502739666
1761914271116978200,5.624978271484375,0.24586276628375053,0.605615823380649,1.539572935897857
1761914271127035100,5.63503515625,0.30247137321233747,0.43359716872572895,1.4748758611902593
1761914271137091000,5.645091064453125,0.38777591327130795,0.2545201199918985,1.4096059550307691
1761914271147147300,5.655147216796875,0.35784137825667856,0.0690305738672614,1.3033359299629925
1761914271157203200,5.665203125,0.30285072791874407,-0.18388357223272322,1.2075890524752437
1761914271167259100,5.675259033203125,0.30945699431598184,-0.4405661309555173,1.117272967864573
1761914271177316000,5.685316162109375,0.4580523955464363,-0.6518889142557979,1.0677595798939465
1761914271187372300,5.695372314453125,0.6574626227349043,-0.8351110999703407,1.0533771996024996
1761914271197428200,5.70542822265625,0.9191115716934204,-0.9637953475505113,0.9761280287705362
1761914271207484200,5.715484130859375,1.1572335145920514,-1.0413161018654704,0.9017068479061127
1761914271217540000,5.7255400390625,1.2575427315592764,-1.0653756073668599,0.8129903074465692
1761914271227596000,5.735595947265625,1.26686117952466,-0.9912085473939776,0.719284288136661
1761914271237653000,5.745653076171875,1.158073472547531,-0.8752923037111758,0.6173644211024045
1761914271247709000,5.755708984375,1.0396434924781321,-0.739993314166367,0.5731738721223548
1761914271257765000,5.76576513671875,0.7949977007687091,-0.5999807401031255,0.5345730329081416
1761914271267821000,5.775821044921875,0.39102527045607566,-0.521274867656827,0.5043872630788013
1761914271277877000,5.785876953125,0.06696165863871574,-0.39977176375240087,0.5152801572866738
1761914271287933200,5.79593310546875,-0.12802023071348667,-0.2261252156347036,0.514717737630941
1761914271297990100,5.805990234375,-0.12249649885594845,-0.050932314857840534,0.5393704963177443
1761914271308046000,5.816046142578125,-0.013334697869420051,0.020000293238461017,0.4934782214537263
1761914271318102000,5.82610205078125,0.07018178972899913,-0.021999942623078823,0.35818200838789344
1761914271328158200,5.836158203125,0.1110959839195013,-0.13819441872537136,0.19107189456792548
1761914271338214100,5.846214111328125,0.15760054546296595,-0.2827773694440722,-0.005951729744952171
1761914271348270000,5.85627001953125,0.2619967394828796,-0.3479872159793973,-0.17079223639881239
1761914271358327000,5.8663271484375,0.32863515751659866,-0.4037105645060539,-0.3182511261463165
1761914271368383200,5.87638330078125,0.2717886501789093,-0.46093730333298444,-0.4449827783539891
1761914271378439200,5.886439208984375,0.011385901889204979,-0.6166793614476919,-0.5828356171000748
1761914271388495000,5.8964951171875,-0.17200608743429183,-0.8195420671775937,-0.667443114805594
1761914271398551300,5.90655126953125,-0.16789280689656733,-0.9672662385314702,-0.6789562963362783
1761914271408607200,5.916607177734375,-0.2697445771306753,-1.066182832096517,-0.6718514327671379
1761914271418664200,5.926664306640625,-0.5579980398982763,-1.301956750564277,-0.6929308995444328
1761914271428720000,5.93672021484375,-0.8980056553006172,-1.6359356071963906,-0.727802306439355
1761914271438776000,5.946776123046875,-1.0301029261946677,-1.7824696919828653,-0.679814301405102
1761914271448832000,5.95683203125,-0.9221873258769512,-1.5958540644377468,-0.5414462431458756
1761914271458888000,5.966887939453125,-0.8110124315023421,-1.1603402484357357,-0.44369303080439565
1761914271468941800,5.97694189453125,-0.77231766692698,-0.5650120103135705,-0.40413339302800594
1761914271478998000,5.986998046875,-0.7760638677179813,0.057500587332248686,-0.39404151300471274
1761914271489053700,5.9970537109375,-0.7820020255953073,0.5866627011075616,-0.45281957292687147
1761914271499109600,6.007109619140625,-0.7523515682190656,0.9241974966555834,-0.536220434788987
1761914271509165800,6.017165771484375,-0.6236901169925928,1.0840481591328979,-0.6093126320719718
1761914271519221800,6.0272216796875,-0.40418402723670005,1.100786235705018,-0.6262637668728828
1761914271529278700,6.03727880859375,-0.17895137652754783,0.9533400045096874,-0.6744492672406137
1761914271539334700,6.047334716796875,-0.018449848926067353,0.6479243945389985,-0.7734853955321014
1761914271549390800,6.057390869140625,0.0982119524270296,0.3596820376873016,-0.9478893378883599
1761914271559446800,6.06744677734375,0.26395079616010186,0.2095440831899643,-1.0658981699362398
1761914271569502700,6.077502685546875,0.48252281993627544,0.26731238154768944,-0.9939156874608248
1761914271579559000,6.087558837890625,0.4835533320277929,0.5370324087589979,-0.8029610808633267
1761914271589615900,6.097615966796875,-0.020940496698021886,0.7226210313439368,-0.7782878273777664
1761914271599671800,6.107671875,-0.6745815153181552,0.7667027496546507,-0.8760865228287875
1761914271609727700,6.117727783203125,-1.2038438745975493,0.9615905309826135,-0.9371462639473378
1761914271619784000,6.127783935546875,-1.4437772508323192,0.9307897345274686,-1.02693744790107
1761914271629840000,6.13783984375,-1.2420423800885676,0.9949977105438709,-0.9599795886546373
1761914271639896800,6.147896728515625,-1.0026572853863238,1.1111316886305809,-0.9643786273311823
1761914271649952800,6.157952880859375,-0.6743927147477865,1.2853314867168664,-0.9609834319349377
1761914271660009000,6.168009033203125,-0.11659691942334174,1.4276087908416986,-0.8485659170880914
1761914271670065000,6.17806494140625,0.4685217671126127,1.4174030386477707,-0.8045641321457921
1761914271680120800,6.188120849609375,0.845157277688384,1.202826221987605,-0.8645937995642423
1761914271690176800,6.1981767578125,0.9849643923074006,0.8957610912442207,-0.9431366634685545
1761914271700234000,6.20823388671875,0.9914081616193056,0.6280933203876018,-1.014828638564795
1761914271710289700,6.21828955078125,0.9948580098122358,0.4824637832254171,-1.0413860983617602
1761914271720345900,6.228345947265625,1.0330874949634075,0.492410007700324,-1.0390044639222322
1761914271730401800,6.23840185546875,1.0553519337415695,0.5526660312205552,-1.0507798765856773
1761914271740457700,6.248457763671875,1.0411550660848616,0.6567892535179853,-1.082777700805664
1761914271750514000,6.258513916015625,1.040458900514245,0.7886649906158447,-1.0828156216632574
1761914271760571000,6.26857080078125,0.9983476054936646,0.7943459588617086,-1.0824618397895247
1761914271770626800,6.278626708984375,0.9213742559283972,0.6377285792171955,-1.0599651996906847
1761914271780682800,6.288682861328125,0.8063859407454729,0.39061961226463315,-1.014781438422203
1761914271790739000,6.298739013671875,0.6980763726741075,0.17058745280802248,-0.9348968775853514
1761914271800795000,6.308794921875,0.6580559124529362,0.013166355565190314,-0.8907285769697278
1761914271810850800,6.318850830078125,0.6821183405637741,-0.1295610304147005,-0.9155020028941333
1761914271820907800,6.32890771484375,0.8269219482958317,-0.15787819336056708,-0.9800614226967096
1761914271830964000,6.3389638671875,0.972132383263111,-0.06793781019449234,-1.0504494755875318
1761914271841020000,6.34902001953125,0.8382786240905523,0.06561608924865722,-1.0288347328897565
1761914271851075800,6.359075927734375,-0.20819851379990575,0.19761691403090953,-0.944039311396703
1761914271861132000,6.369132080078125,0.24666823744773864,0.21269699426293373,-0.8145421399984508
1761914271871188000,6.37918798828125,0.29835633910894394,0.1967822167724371,-0.6554808012679219
1761914271881245000,6.389244873046875,0.050261283728480335,0.055554713961482045,-0.5518707161244004
1761914271891300900,6.39930078125,0.13910919548273085,-0.054820554468035694,-0.36796489552725103
1761914271901357000,6.409357177734375,0.104777886813879,-0.13282675421237944,-0.27048812550697476
1761914271911412700,6.419412841796875,0.167921448469162,-0.15967559817135332,-0.20541209795176982
1761914271921468700,6.42946875,0.36099662741720673,-0.06644727937579155,-0.16640863275341689
1761914271931524900,6.43952490234375,0.5321265165388583,0.049205637195706364,-0.20482987761702387
1761914271941581800,6.449581787109375,0.6222562847971915,0.16621932072639464,-0.2921936882933602
1761914271951637800,6.4596376953125,0.6872142023980617,0.2660059751242399,-0.3749254917874932
1761914271961693700,6.469693603515625,0.6636310822367668,0.3123638216733932,-0.4126017635026946
1761914271971750000,6.47975,0.5885094980180263,0.3087877167522907,-0.40341110663544383
1761914271981805800,6.489805908203125,0.5966086333215236,0.2174994261085987,-0.3753345109798014
1761914271991861800,6.49986181640625,0.6660708766043186,0.0746837773233652,-0.39913971292655914
1761914272001918700,6.509918701171875,0.8244710480123758,-0.0456400536686182,-0.4451899182986468
1761914272011975000,6.519974853515625,0.9034358636558055,-0.16510814461410045,-0.4958317257773131
1761914272022030800,6.53003076171875,0.8843927250117063,-0.2946200751900673,-0.49822757140528406
1761914272032086800,6.540086669921875,0.81836454783082,-0.48631870508790015,-0.48195912163890897
1761914272042143000,6.55014306640625,0.8429916240870952,-0.6676017394334077,-0.4698693092640489
1761914272052200000,6.560199951171875,0.8065957841038703,-0.7540338222175836,-0.4885133290553465
1761914272062255900,6.570255859375,0.667237582296133,-0.7437146727770566,-0.544823720222339
1761914272072311800,6.580311767578125,0.5208008204042911,-0.64482584400177,-0.5579197139650582
1761914272082368000,6.590367919921875,0.4039543101340532,-0.5589671771913767,-0.5049480022341013
1761914272092424000,6.600423828125,0.7541817062556743,-0.7211684944480657,-0.1815016820648685
1761914272102480000,6.61047998046875,1.0340683226943015,-1.2312310632169245,-0.17336981353554873
1761914272112536800,6.620536865234375,0.7835176908552646,-1.2044219667464493,-0.8627025789901613
1761914272122593000,6.630593017578125,0.5531044226378202,-0.6089531511098146,-0.8913692129608243
1761914272132649000,6.64064892578125,0.4409685742765665,-0.21523966448307036,-0.392289006781578
1761914272142704600,6.65070458984375,0.003381459131836891,0.0748281542301178,-0.09053769147209823
1761914272152760800,6.6607607421875,-0.8624111948281526,0.07366729375720024,-0.2197947339715436
1761914272162816800,6.670816650390625,-1.3642735060065985,-0.1100461826056242,-0.5298062934303656
1761914272172873700,6.680873779296875,-1.203363397604227,-0.22910277014076708,-0.6398318351067602
1761914272182929700,6.6909296875,-0.9056073624759912,-0.3901502411872148,-0.5900665912669152
1761914272192985900,6.70098583984375,-0.8712532574534416,-0.6199994457811117,-0.5055579508259892
1761914272203041800,6.711041748046875,-1.083376251220703,-0.938823403379321,-0.36579372550062833
1761914272213097700,6.72109765625,-1.2170306884288786,-1.1324340043783188,-0.12992847548760472
1761914272223154000,6.73115380859375,-1.4236761275678873,-1.2293828050017357,-0.00631181349530816
1761914272233211000,6.7412109375,-1.6827385671645403,-1.143272793778777,0.13271061701942236
1761914272243266800,6.751266845703125,-1.6348592101365327,-0.8595359316527843,0.25816892482303083
1761914272253322800,6.76132275390625,-1.1938467967182398,-0.5728355435460806,0.28012294594515114
1761914272263379000,6.77137890625,-1.2159849787682293,-0.26050503962039945,0.3678087916500866
1761914272273435000,6.781434814453125,-1.1379741028487682,0.19901450586915015,0.5395924319727345
1761914272283490800,6.79149072265625,-1.0111515574872494,0.5804612161189318,0.6838679607100785
1761914272293547800,6.8015478515625,-0.809960876622796,0.8825620024532079,0.8008562906038016
1761914272303604000,6.81160400390625,-0.5130360316216945,0.9461936398863792,0.7984171538233756
1761914272313660000,6.821659912109375,-0.04424363087415695,0.9514742106378078,0.8100470936015248
1761914272323715800,6.8317158203125,0.29851182193160053,0.8758154508024454,0.8609066354840993
1761914272333772000,6.84177197265625,0.33910569812655444,0.8165998762458563,0.9490537054926157
1761914272343827700,6.85182763671875,0.2819827119350433,0.8276052543848752,1.0949972039747982
1761914272353885000,6.861885009765625,0.19107669860720633,0.725578712105751,1.136880900784582
1761914272363940600,6.871940673828125,0.30162323195040225,0.5281067595034837,1.0901543670535088
1761914272373996800,6.881996826171875,0.5963210485517978,0.46740474578142166,1.0275758919350801
1761914272384052700,6.892052734375,0.840962748607993,0.4529617944091558,0.9648900109194218
1761914272394108700,6.902108642578125,0.8947259029775857,0.4200748393297195,0.9355698814760893
1761914272404164900,6.912164794921875,0.7348124043971299,0.2926496518999338,0.9600466625414789
1761914272414221800,6.922221923828125,0.48547816261053084,0.10467851809263229,0.9919605348050594
1761914272424277800,6.93227783203125,0.3197738056689501,-0.07043839483857155,0.9757327458426356
1761914272434333700,6.942333740234375,0.3249444863051176,-0.17776655065715313,0.9435141915440559
1761914272444390000,6.952389892578125,0.4147387389987707,-0.21343582993149757,0.8666625686623155
1761914272454445800,6.96244580078125,0.5110130013614893,-0.20773440341949462,0.752457439746335
1761914272464501800,6.972501708984375,0.547573091995716,-0.16876842068731784,0.6663898063603788
1761914272474559000,6.98255908203125,0.5674234553694725,-0.13602058181762694,0.6098135673314332
1761914272484615200,6.992615234375,0.6113683955579996,-0.19576456416249274,0.5522721730647608
1761914272494671000,7.002671142578125,0.724062462323904,-0.3235276052445173,0.42667599116042254
1761914272504727000,7.01272705078125,0.9064216014683246,-0.4278817136883735,0.25560080963438375
1761914272514783200,7.022783203125,0.986950013166666,-0.455598572653532,0.09097531570438296
1761914272524839200,7.032839111328125,0.9820382757276296,-0.37510932392179963,-0.03396380879702046
1761914272534896000,7.042896240234375,0.9269733911097049,-0.31673779897391796,-0.1081833296095021
1761914272544952000,7.0529521484375,0.8238274894118308,-0.2361380756050348,-0.13775932437689042
1761914272555008300,7.06300830078125,0.7512088279247283,-0.14544015206992625,-0.13128901411793195
1761914272565064200,7.073064208984375,0.6827379337668419,-0.07458090147078036,-0.11086470504743047
1761914272575120100,7.0831201171875,0.5846393785864115,0.08168108886480331,-0.07338291472471319
1761914272585176300,7.09317626953125,0.4322708885580301,0.27460370759963987,-0.06618135844860226
1761914272595232000,7.10323193359375,0.28799568861424923,0.38879415040314197,-0.06779156099106184
1761914272605289200,7.113289306640625,0.20989070467054843,0.4312421300321817,-0.058680252970336
1761914272615345200,7.12334521484375,0.23767478365302083,0.44565001009106636,-0.055445805660332546
1761914272625401000,7.133401123046875,0.34851942315995693,0.36904490931630135,-0.11648265452706254
1761914272635457000,7.14345703125,0.5339309356123209,0.22391806097924707,-0.2182034827247262
1761914272645513000,7.153512939453125,0.6655243486374616,0.08012801420390606,-0.33613369657844305
1761914272655569200,7.163569091796875,0.7237462359815836,-0.08075812880098819,-0.4251359586441889
1761914272665626000,7.173626220703125,0.8174018402785063,-0.21199556799530983,-0.46655349924694745
1761914272675682000,7.18368212890625,0.8629384335726499,-0.4103039714217186,-0.508020285818912
1761914272685738000,7.193738037109375,0.8559533969908952,-0.6633429129451512,-0.5209930550407618
1761914272695794200,7.203794189453125,0.7900736883699894,-0.9227361919313669,-0.507441864876449
1761914272705850000,7.21385009765625,0.6623311055541038,-1.103805875787139,-0.4923587889697402
1761914272715906000,7.223906005859375,0.5117798940807581,-1.20182844312191,-0.5053047432499006
1761914272725963000,7.233962890625,0.4014578171432018,-1.2094336574286222,-0.5080643076237291
1761914272736019200,7.244019287109375,0.3380067969739437,-1.134441837069392,-0.4961707119407132
1761914272746075100,7.2540751953125,0.286170226752758,-1.0615993036985396,-0.5278051096757873
1761914272756131000,7.264131103515625,0.3322013255655765,-0.9129331753194332,-0.5204177759034558
1761914272766187300,7.274187255859375,0.33929800582826136,-0.7645131306558847,-0.541055782523565
1761914272776243200,7.2842431640625,0.3372667922616005,-0.6062608432859182,-0.5043335601301864
1761914272786300200,7.294300048828125,0.29936697745621205,-0.4387555744022131,-0.35778950193896886
1761914272796356000,7.304356201171875,0.09524725740253925,-0.39029812522530555,-0.23887776623461393
1761914272806412300,7.314412353515625,-0.1200362462222576,-0.4636562069028616,-0.20107732015047222
1761914272816468200,7.32446826171875,-0.17544190710186958,-0.5147732306778431,-0.14774196273889392
1761914272826524000,7.33452392578125,-0.102870007365942,-0.5228589219778775,-0.03349120458289981
1761914272836580000,7.344580078125,-0.11882803947627543,-0.6230173322975635,-0.016583324401825666
1761914272846637000,7.354636962890625,-0.2060457196801901,-0.7978735484659671,-0.07037449928950518
1761914272856693000,7.36469287109375,-0.21374504201114178,-0.898815218117833,-0.04763600869223009
1761914272866749000,7.3747490234375,-0.1388368082821369,-0.9056552932709455,0.1544977388757281
1761914272876805000,7.38480517578125,-0.14446400051414965,-0.9054115476429462,0.4201431553255766
1761914272886861000,7.394861083984375,-0.41446284466683864,-0.9352414532393216,0.6366345003701747
1761914272896917000,7.4049169921875,-0.8280752099841833,-0.9006599692016839,0.8153758874088526
1761914272906974000,7.414973876953125,-1.1250503238677978,-0.7339362060844897,1.0682548160649836
1761914272917030100,7.425030029296875,-1.271104223921895,-0.5086509484052658,1.2843759395577012
1761914272927086000,7.435086181640625,-1.2509259437680245,-0.19791502019464968,1.4465337099336086
1761914272937142000,7.44514208984375,-1.0967582953631878,0.12916180196404456,1.5197465379215775
1761914272947198200,7.4551982421875,-0.8431511985629796,0.3759136260420084,1.4204728014819323
1761914272957254100,7.465254150390625,-0.5420195495218039,0.5902700779497623,1.193248392433673
1761914272967311000,7.47531103515625,-0.31149639118909833,0.7090279747992754,0.897336377736926
1761914272977367000,7.485366943359375,-0.1804284633427858,0.7554577175408601,0.545818357282877
1761914272987423200,7.49542333984375,-0.0025116905599832534,0.7346908238440751,0.19152111790645868
1761914272997479200,7.505479248046875,0.3157581402868032,0.6640653820008039,-0.0865526312907692
1761914273007535000,7.51553515625,0.617956541776657,0.47589258814156055,-0.3865590848274529
1761914273017591300,7.52559130859375,0.7853904989898204,0.15438099889457224,-0.7271249186344444
1761914273027648300,7.535648193359375,0.85633625882864,-0.1982727475911379,-1.0055701771583407
1761914273037704200,7.5457041015625,0.8262690373450517,-0.505644167804718,-1.2547514934055506
1761914273047760100,7.555760009765625,0.7365034262239932,-0.697944855248928,-1.421722070890665
1761914273057816000,7.565816162109375,0.6254618028402328,-0.712460287335515,-1.4858078818321228
1761914273067872000,7.5758720703125,0.5351502482742071,-0.5010463186204434,-1.483262727393955
1761914273077928200,7.58592822265625,0.3998158951550722,-0.2038309662401676,-1.4247056167460976
1761914273087984000,7.595984130859375,0.24736966371536254,0.10325579181313514,-1.356225662498921
1761914273098041000,7.606041015625,0.18244506386220455,0.41803602697849274,-1.2389863535188137
1761914273108097000,7.616096923828125,0.1516740780234337,0.7239362055957317,-1.0835143445171416
1761914273118153200,7.6261533203125,0.025265958681702613,0.9902508082777262,-0.918433891627565
1761914273128209200,7.636209228515625,-0.16291560300588606,1.2344149539500475,-0.8064073488596827
1761914273138265000,7.64626513671875,-0.25720015285611153,1.4599386965602636,-0.7738522560831159
1761914273148321000,7.656321044921875,-0.24380583375394344,1.6140613367795944,-0.76593242286928
1761914273158378200,7.666378173828125,-0.1681990963667631,1.6593454166173933,-0.7986750741071998
1761914273168434200,7.67643408203125,-0.06904723274111747,1.5724860483318566,-0.90145988740772
1761914273178490000,7.686489990234375,0.03639350189566612,1.462345757701993,-1.0082141157958655
1761914273188546300,7.69654638671875,0.07236965516209602,1.3302724522054195,-1.0914467449516057
1761914273198602200,7.706602294921875,0.05610065740644932,1.1731155588567257,-1.1851069523584097
1761914273208658200,7.716658203125,0.04447276345491409,1.0113193152695894,-1.2642512892872095
1761914273218715100,7.726715087890625,0.03757774324417114,0.8028653654038905,-1.33617889977023
1761914273228771300,7.736771240234375,0.02742810515165329,0.5795335798799991,-1.4018163240678607
1761914273238827300,7.7468271484375,-0.02755436187982559,0.3719283557981252,-1.4357780687719583
1761914273248883000,7.756883056640625,-0.12707973499298095,0.20955051293075083,-1.4819479915335774
1761914273258939100,7.766939208984375,-0.15435001923441885,0.18809212983846663,-1.4546585642002523
1761914273268995000,7.7769951171875,-0.18392916494011877,0.20543664787113666,-1.4184934642329812
1761914273279052000,7.787052001953125,-0.16370938373208044,0.3038116819053888,-1.3536523048795759
1761914273289108000,7.79710791015625,-0.08722177185714244,0.413300230628252,-1.3159336918599902
1761914273299164200,7.8071640625,-0.00817687671482563,0.5220423448979854,-1.262936553426832
1761914273309220000,7.81722021484375,-0.027296587726473805,0.6555167493641376,-1.1053174493938684
1761914273319276000,7.827276123046875,-0.15138298612236975,0.6916811186790466,-0.8852740378908812
1761914273329332200,7.837332275390625,-0.37795126934945583,0.613092735132575,-0.7045376045774668
1761914273339388200,7.84738818359375,-0.6330348684430122,0.5639169085532426,-0.5196026966609061
1761914273349445000,7.857445068359375,-0.8879887036770582,0.5151894102632999,-0.3730444272812456
1761914273359501000,7.8675009765625,-1.0469868409782648,0.5499643710464239,-0.23307114404877646
1761914273369557200,7.87755712890625,-1.0578583636045455,0.6484060405761003,-0.08427985492004081
1761914273379613200,7.88761328125,-0.986657167699933,0.6834498814284801,0.008385825024079531
1761914273389669000,7.897669189453125,-0.9374082758843898,0.5801672016084194,0.011905898042162879
1761914273399725300,7.907725341796875,-0.7963415165930986,0.43993630861938,0.002147967247548513
1761914273409782300,7.9177822265625,-0.5942641160219907,0.27120062115788457,-0.028286658209748565
1761914273419838200,7.927838134765625,-0.4786269815415144,0.07390636321008205,-0.11816703655058518
1761914273429894100,7.93789404296875,-0.4805734394341707,-0.1723299125611782,-0.26691413947772236
1761914273439950300,7.947950439453125,-0.4952618900001049,-0.35084348219335076,-0.3283914484212175
1761914273450006000,7.958006103515625,-0.5561766696900129,-0.505811925587058,-0.309385646112822
1761914273460062000,7.96806201171875,-0.6192290459305048,-0.7062216852068901,-0.35558158009853214
1761914273470119200,7.978119140625,-0.60088616451025,-0.8744687123686075,-0.4297520741375163
1761914273480175400,7.98817529296875,-0.5295511130928993,-1.0246715487957,-0.5214815692100674
1761914273490231300,7.998231201171875,-0.4478051422983408,-1.0944874278217553,-0.5668803614687175
1761914273500287200,8.008287353515625,-0.3606967676877975,-1.0456424406319855,-0.5165178093228489
1761914273510343400,8.018343505859375,-0.30406828701496125,-0.893031958541274,-0.41092078814581035
1761914273520399000,8.028399169921874,-0.2502642161130905,-0.6012538287788629,-0.2777415307013318
1761914273530456300,8.038456298828125,-0.53926645142138,0.16043839923739434,-0.43447051749415694
1761914273540512300,8.04851220703125,-1.0228770665943623,0.5689239230602979,-0.18737462921887635
1761914273550568200,8.058568115234374,-0.10186930589079857,0.1273223115772009,0.01538777620801702
1761914273560624000,8.0686240234375,0.577523409101367,0.11477964086830615,0.0663338638628833
1761914273570680000,8.07868017578125,-0.372117156368494,0.43092824177742,0.13052445035306737
1761914273580736300,8.088736328125,-0.5548913060545921,0.6757347770065069,0.6617241526369005
1761914273590792200,8.098792236328125,-0.2050812585622072,0.687594141626358,0.9192204388953745
1761914273600849200,8.10884912109375,-0.07271861473023891,0.540706128835678,1.0547953227721154
1761914273610905000,8.118905029296876,0.025653496694564817,0.4099322154998779,1.14973877492249
1761914273620961300,8.128961181640625,0.12033610595166683,0.2632037771850824,1.1217227868802844
1761914273631017200,8.139017333984375,0.10080430700778961,0.1519908888876438,1.0359143889524043
1761914273641073200,8.1490732421875,0.0668587827861309,0.14335808509886264,0.9414948876108974
1761914273651129300,8.15912939453125,0.1778852086007595,0.18357903632819653,0.8889678509075194
1761914273661186300,8.169186279296875,0.3729290572732687,0.14825520949065685,0.7882297410037368
1761914273671242200,8.1792421875,0.531144519764185,-0.00457271474301815,0.6062902520434931
1761914273681298200,8.189298095703125,0.6434685841739177,-0.16318623664081094,0.4849265931423753
1761914273691354400,8.199354248046875,0.6690735655516385,-0.3099251963496208,0.4508608400745317
1761914273701410300,8.209410400390626,0.6366793624252081,-0.3334808439821005,0.5207765627458691
1761914273711466200,8.21946630859375,0.6491138965845108,-0.23354455198049545,0.6854635593384504
1761914273721522200,8.229522216796875,0.6413134519666432,-0.05599953511953354,0.8925153873212635
1761914273731579400,8.239579345703126,0.5137129079699516,0.11756079601943492,1.1025846634291112
1761914273741635300,8.24963525390625,0.3316331702888012,0.2938216182887554,1.2684534171521662
1761914273751691000,8.25969091796875,0.09398235203325749,0.4327770845144987,1.3614483655832708
1761914273761747200,8.269747314453125,-0.1456821441322565,0.5164560691982507,1.3875053285121917
1761914273771803100,8.27980322265625,-0.29863340248465536,0.5246399601757527,1.3758996463924646
1761914273781859000,8.289859130859375,-0.23336159662902353,0.4546002092659473,1.3623403459869325
1761914273791916000,8.299916015625,0.02595978616476059,0.33254093278348446,1.3370651810854672
1761914273801972200,8.30997216796875,0.31522213371396063,0.1471510476410389,1.2606750382356344
1761914273812028200,8.320028076171875,0.5414864655584096,-0.061140989661216734,1.143692115169391
1761914273822084000,8.330083984375,0.6883809080898762,-0.24596447309255598,1.0091878561988472
1761914273832140300,8.340140380859374,0.7862894936561584,-0.37542145861089227,0.8912373302094638
1761914273842196200,8.3501962890625,0.8531506145298481,-0.4413783241212368,0.7899274117670952
1761914273852253200,8.360253173828125,0.8430518298417329,-0.47763563241660595,0.7358456199023872
1761914273862309000,8.37030908203125,0.7829483665347099,-0.4936930332481861,0.7044545294038951
1761914273872365300,8.380365234375,0.6756330701977015,-0.5515449182361364,0.689815324807167
1761914273882421200,8.390421142578125,0.6316349385172129,-0.5911725797474384,0.6081304730826989
1761914273892477200,8.400477294921876,0.665497460630536,-0.5294716181159019,0.5103214754333719
1761914273902533400,8.410533447265625,0.7256190441161394,-0.41548225084245205,0.3960379840515554
1761914273912589300,8.42058935546875,0.7704816836714744,-0.28709610942602154,0.2483186350032687
1761914273922646300,8.430646240234376,0.8154448609918356,-0.21174656167030334,0.11111353784250094
1761914273932702200,8.4407021484375,0.8808557830572128,-0.2000450179606676,-0.019442038301192222
1761914273942758400,8.45075830078125,0.9674439331859349,-0.21858079160451888,-0.13137423558281733
1761914273952814000,8.46081396484375,1.0159493131577968,-0.2505482937514782,-0.23587761630425227
1761914273962870000,8.4708701171875,1.0282885702490805,-0.29699031145274635,-0.27851476182984186
1761914273972926200,8.48092626953125,0.9763327575623989,-0.36717093213796614,-0.2811928584652953
1761914273982983200,8.490983154296876,0.9363771792709827,-0.5003741184473037,-0.2837933780862018
1761914273993039000,8.5010390625,0.8975596650987863,-0.6395709922134876,-0.2689169306674972
1761914274003095000,8.511094970703125,0.7551695482492446,-0.7833131081938743,-0.2010606430103071
1761914274013151200,8.521151123046875,0.5436065264523029,-0.9138304164201021,-0.14868439468815922
1761914274023207200,8.531207275390624,0.31985154708027835,-0.9813222364127635,-0.12154007491394876
1761914274033263000,8.54126318359375,0.17494681706130505,-0.9628326399981975,-0.07123141751294024
1761914274043319300,8.5513193359375,0.08830138378739356,-0.9646902505636215,-0.09063185429526492
1761914274053376300,8.561376220703124,0.08058569484353065,-0.95225337831676,-0.11828555749687365
1761914274063432200,8.57143212890625,0.11888532262146473,-0.9206605547010898,-0.14206190780848263
1761914274073489200,8.5814892578125,0.11987258009314536,-0.9562883329212665,-0.1743264749395661
1761914274083545000,8.591545166015624,0.08833002535998821,-0.9754910460412501,-0.1848257484536618
1761914274093601300,8.601601318359375,0.02983224368393421,-0.9381091176301241,-0.15801588479820639
1761914274103657200,8.6116572265625,-0.028578444230556485,-0.8653297126233577,-0.06674228940014727
1761914274113714200,8.621714111328124,-0.12380348980128765,-0.8057213393568993,0.022416455568675882
1761914274123770000,8.63177001953125,-0.23556641319692134,-0.8423322833955288,0.04108326714709401
1761914274133826300,8.641826416015626,-0.3470557803481817,-0.9186258340030908,0.08417172750360331
1761914274143882200,8.65188232421875,-0.338377383852005,-0.9070090459674596,0.18876875045839697
1761914274153938200,8.661938232421875,-0.4107645746707916,-0.9901718978226184,0.21992221454242242
1761914274163994400,8.671994384765625,-0.5336188009232282,-1.2098375620543955,0.07236936290115117
1761914274174051300,8.68205126953125,-0.5192524219185114,-1.3020330306708812,-0.017208539061504415
1761914274184107300,8.692107177734375,-0.3290045753508806,-1.1670388692915439,0.12429412286244332
1761914274194163200,8.7021630859375,-0.14120470645725727,-0.9669190325289964,0.3534239271406084
1761914274204219100,8.71221923828125,-0.10296937608718872,-0.7269833182066678,0.5555743929479271
1761914274214275000,8.722275146484375,-0.2774772172093391,-0.40141631608903405,0.7243555269863456
1761914274224331300,8.732331298828125,-0.4798153145432472,-0.06083236210346222,0.8266779834721237
1761914274234387200,8.74238720703125,-0.5896867251038551,0.20915712969899175,0.8108726577054709
1761914274244444200,8.752444091796875,-0.5801093339413405,0.5302466941416263,0.7767495118945836
1761914274254500000,8.7625,-0.43631987168788905,0.805320941862464,0.7421797913599759
1761914274264556300,8.772556396484376,-0.17406068187654017,0.9800140764236449,0.6561692949887364
1761914274274612200,8.7826123046875,0.2108206789970398,1.0392664758592844,0.4750969807844609
1761914274284668200,8.792668212890625,0.5732850408792496,1.0036538952082394,0.22971629892922937
1761914274294724400,8.802724365234376,0.8673924903720617,0.9574486088722943,-0.02795022932961583
1761914274304781300,8.81278125,1.0628343984514474,0.878800019571185,-0.24345952280061317
1761914274314837200,8.822837158203125,1.1442775869071482,0.7464192555606365,-0.4098208640798926
1761914274324893200,8.83289306640625,1.1017588801294564,0.5479401717424393,-0.5668596109416335
1761914274334949400,8.842949462890624,0.9360603684067725,0.36532793461978436,-0.7080912054058164
1761914274345005300,8.85300537109375,0.6873287686884403,0.23329086948037145,-0.8415914749655872
1761914274355061200,8.863061279296875,0.46458910383880136,0.1712228281021118,-0.9455544652000069
1761914274365117200,8.8731171875,0.2889016975432634,0.13626082031428813,-1.0457268309798091
1761914274375174400,8.88317431640625,0.13815174862742424,0.052289574685692786,-1.1802620696105062
1761914274385230300,8.893230224609376,0.04803367080688476,-0.031225743868947026,-1.3208965749643742
1761914274395286300,8.903286376953124,0.10475450593829154,-0.041324528557062146,-1.3957352505885063
1761914274405342200,8.91334228515625,0.279469267809391,0.02218961997628212,-1.411706872832775
1761914274415398100,8.923398193359375,0.41834757714569565,0.08691022168993949,-1.369619250948727
1761914274425454000,8.9334541015625,0.48849604912698263,0.1369640001475811,-1.32820149115026
1761914274435511000,8.943510986328125,0.46537587030231947,0.22315292182564733,-1.2672443336233497
1761914274445567200,8.953567138671875,0.40039164921641346,0.3649900809675455,-1.2080951023012398
1761914274455623200,8.963623046875,0.3721516431599855,0.6104430974066257,-1.124560348393768
1761914274465679000,8.97367919921875,0.3370166168928146,0.8963222322583198,-1.000519981096685
1761914274475738600,8.983738525390624,0.2521604051232338,1.181479482576251,-0.8819498619042336
1761914274485794600,8.993794677734375,0.12730068426728247,1.4416338090628384,-0.7453928351223469
1761914274495851500,9.0038515625,0.039271687680482864,1.6638374673396348,-0.6173965698063373
1761914274505907500,9.013907470703124,0.019055413603782653,1.802457418000698,-0.5581107795577496
1761914274515963600,9.023963623046875,0.06396949108541011,1.817493074569106,-0.5544236520102247
1761914274526019600,9.03401953125,0.15119418555200098,1.728174038171768,-0.5014317377414554
1761914274536075500,9.044075439453126,0.23904724105000494,1.5667565647691488,-0.44076468573492017
1761914274546131700,9.054131591796875,0.2950713260889053,1.3299731769979,-0.3946499272266403
1761914274556187400,9.0641875,0.30665012020170684,1.0817787528961895,-0.317556750673987
1761914274566244600,9.07424462890625,0.30889059260487556,0.8329419392377138,-0.2604585701301694
1761914274576300300,9.08430029296875,0.28031624002754685,0.5893406881451606,-0.21264394890144467
1761914274586356500,9.0943564453125,0.19210078095793723,0.4020195426791906,-0.13747308218088
1761914274596412400,9.104412353515626,0.03156359752118587,0.2781137615472078,-0.024645726157817988
1761914274606468400,9.11446826171875,-0.13008125489652156,0.18943945279419422,0.08425671150647103
1761914274616524500,9.124524658203125,-0.22688626313507557,0.04435585907697678,0.18572008521119132
1761914274626581500,9.13458154296875,-0.2238426576554775,-0.05732230815589428,0.2989423223033547
1761914274636637400,9.144637451171874,-0.20567337923645973,-0.11011866331994533,0.38636389104891566
1761914274646693400,9.154693359375,-0.2720142756283283,-0.16318799020648,0.4469426802501082
1761914274656749600,9.16474951171875,-0.37563597814440725,-0.16049977403581142,0.49765134241990744
1761914274666805500,9.174805419921874,-0.4168856878995895,-0.13864040892720222,0.5477479371059686
1761914274676861400,9.184861328125,-0.37642391365170474,-0.11159808822274207,0.5872844862677157
1761914274686917600,9.194917724609375,-0.306135156416893,-0.12368366281390189,0.6244247148774564
1761914274696974600,9.204974609375,-0.25409166544675826,-0.16198445963561534,0.645798707621917
1761914274707030500,9.215030517578125,-0.1828700112760067,-0.176774617010355,0.6110648825667798
1761914274717086500,9.22508642578125,-0.12074001057744026,-0.2014917096376419,0.5302849803254008
1761914274727142700,9.235142578125,-0.10318506466448306,-0.21471651739180087,0.44084746864754704
1761914274737198600,9.245198486328125,-0.13496259719729423,-0.2615413969308138,0.36722079916168004
1761914274747254500,9.255254638671875,-0.1745481731325388,-0.34626492223143573,0.30234188334746287
1761914274757311500,9.2653115234375,-0.16139935322403906,-0.43865386759340763,0.27012614206047725
1761914274767367700,9.27536767578125,-0.17343056727945805,-0.5075304199427366,0.2620163026998751
1761914274777423600,9.285423583984375,-0.22998481367230414,-0.5530827953279018,0.2550403444737196
1761914274787479300,9.295479248046876,-0.2929506806731224,-0.5082534735202789,0.2578677133867517
1761914274797535500,9.305535400390625,-0.4165887507796287,-0.4602268169760704,0.25472064753267915
1761914274807591400,9.31559130859375,-0.6054962886542081,-0.5949906767308711,0.1075474063261412
1761914274817647400,9.3256474609375,-0.7205950784742832,-0.7260521748363972,-0.010484678733162582
1761914274827704300,9.335704345703125,-0.6174626207798719,-0.6247147838652134,0.08584804495167918
1761914274837760500,9.345760498046875,-0.5554530315905809,-0.5890162784963846,0.11241364238932729
1761914274847816400,9.35581640625,-0.6743366006463766,-0.6185054078310728,-0.0015778803085908294
1761914274857872400,9.365872314453124,-0.7615794152915477,-0.6273211669713258,-0.1341963803314604
1761914274867928600,9.375928466796875,-0.6051987670123576,-0.5762725322574377,-0.16968195533566177
1761914274877984500,9.385984619140626,-0.4136790008127689,-0.44479836169779297,-0.11638515810249372
1761914274888041500,9.39604150390625,-0.2964046205192804,-0.30061376264691353,0.006834229934215545
1761914274898097400,9.406097412109375,-0.2635164963960647,-0.17925649695396423,0.12186048424104227
1761914274908153600,9.416153564453126,-0.268639246237278,-0.16775310616493225,0.16246661712937055
1761914274918209500,9.42620947265625,-0.1253781917721033,-0.10192483547031879,0.269361167303659
1761914274928265500,9.436265380859375,0.13834639441668986,0.01386544374525547,0.41581466113459314
1761914274938321700,9.44632177734375,0.2975906154334545,0.15181436327695846,0.5772611049033701
1761914274948378600,9.456378662109374,0.26250410448312755,0.32709844946861266,0.7807545097522437
1761914274958434600,9.4664345703125,0.03433481580018997,0.5289204139739274,0.9959417864609509
1761914274968490500,9.476490478515625,-0.27108722391128537,0.6966559844821691,1.1727553472422063
1761914274978546700,9.486546630859374,-0.4738151973456144,0.7478630246281623,1.2906971054032443
1761914274988602400,9.496602294921875,-0.6021276890039443,0.698051238232851,1.2886676454022525
1761914274998658300,9.506658203125,-0.602255114775896,0.5514630851715803,1.199179243787378
1761914275008714500,9.516714599609376,-0.376539064463973,0.38070261388421056,1.0825490066163241
1761914275018771500,9.526771484375,-0.06066401979923248,0.2704682152301073,0.9914316155601293
1761914275028827400,9.536827392578125,0.16509996130764484,0.09793605809509753,0.8974524053320289
1761914275038883300,9.54688330078125,0.28724574702978134,-0.028811668464541435,0.841520017164573
1761914275048939500,9.556939453125,0.36086043381690974,-0.11079904679954052,0.7731630317099392
1761914275058995500,9.566995361328125,0.28571079254746434,-0.15128887809813021,0.7580852165002375
1761914275069051400,9.577051513671876,0.08401800737977028,-0.11284370436966419,0.8456438921615481
1761914275079108400,9.5871083984375,-0.2335813768595457,-0.00573299069404602,1.0405294084671883
1761914275089164500,9.59716455078125,-0.5524205320268869,0.14188918159008027,1.3065722815357148
1761914275099220500,9.607220458984376,-0.7309668348848819,0.2731955943673849,1.5348635891631244
1761914275109276400,9.6172763671875,-0.7701929298579693,0.38012393721342086,1.696664070533961
1761914275119332600,9.62733251953125,-0.7319844874948263,0.3984527901083231,1.747833262887597
1761914275129388500,9.637388427734376,-0.6178928288906812,0.29702246015667916,1.6866086865961551
1761914275139445500,9.647445556640625,-0.3898036197066307,0.18343875107467172,1.6288500328496098
1761914275149501400,9.65750146484375,-0.11101064372360706,0.07719780597090721,1.5826666660845279
1761914275159557600,9.6675576171875,0.11745792016685008,-0.005070142871141433,1.573969564887881
1761914275169613600,9.677613525390624,0.23354338293671606,-0.05677461114525795,1.5464514433652161
1761914275179669500,9.68766943359375,0.28094460105895996,-0.12259703662097453,1.4699059638231993
1761914275189725400,9.697725341796875,0.2788859149634838,-0.1940150901466608,1.3672054678052663
1761914275199781400,9.707781494140624,0.2734521994769573,-0.24641397042572497,1.2764828482203185
1761914275209838300,9.71783837890625,0.31185645667314527,-0.2571826171994209,1.2016311669841409
1761914275219894500,9.72789453125,0.4055062157511711,-0.2792202614843845,1.1219397906318307
1761914275229950500,9.737950439453124,0.4585182594925165,-0.26342998715639115,1.0138233339797704
1761914275240006400,9.74800634765625,0.5074468333125114,-0.20749241135716437,0.8725940776031463
1761914275250062600,9.7580625,0.5587982503652572,-0.12498773114979267,0.7575772669780999
1761914275260118500,9.768118408203126,0.6471744529545307,-0.029561610049009323,0.6457607136990875
1761914275270175500,9.778175537109375,0.7084832003980874,0.03208031487166881,0.5452364657416939
1761914275280231400,9.7882314453125,0.7484943082690239,0.06389525680541992,0.47205103721730407
1761914275290287600,9.79828759765625,0.7879355072975158,0.10664952590465546,0.4137682134661823
1761914275300343600,9.808343505859375,0.7957260150432586,0.10345628282129764,0.342219811559096
1761914275310399500,9.8183994140625,0.8042623727202415,0.10520341874957084,0.28438619288019834
1761914275320455400,9.828455322265626,0.7893471276611089,0.14373159458637236,0.2480144826912321
1761914275330511600,9.83851171875,0.7701631192415952,0.15166940184831618,0.2181663655847311
1761914275340568600,9.848568603515625,0.780204620784521,0.12222177356779575,0.21010354370363055
1761914275350624500,9.85862451171875,0.8266343635261059,0.062092006775736806,0.23171364675890652
1761914275360680700,9.8686806640625,0.8810036670953035,0.04118482782542705,0.2641026987861842
1761914275370736600,9.878736572265625,0.838974789661169,-0.051718496799468994,0.27958624525256454
1761914275380792600,9.88879248046875,0.7137883210688829,-0.20605974820554254,0.2485115272268653
1761914275390848500,9.8988486328125,0.6018617315441369,-0.30962650566399097,0.29118633788172155
1761914275400905700,9.90890576171875,0.47123394868075846,-0.41411388509869573,0.36008250824697313
1761914275410961400,9.91896142578125,0.32341946869492527,-0.532653170761466,0.4081615160329267
1761914275421017300,9.929017333984374,0.15544892038702965,-0.6535872426062822,0.4388345944551751
1761914275431073500,9.939073486328125,-0.024990064349770545,-0.7555377970397472,0.4734215218529105
1761914275441129500,9.94912939453125,-0.09986439580917358,-0.8158131097823381,0.47256545301284636
1761914275451185400,9.959185302734374,-0.05961538752913475,-0.8377098842918872,0.4122969718698412
1761914275461242400,9.969242431640625,0.025036826100945472,-0.8504355103522538,0.36237785264253614
1761914275471295000,9.979294921875,0.04322247113287449,-0.8442758186787367,0.3650246042916551
1761914275481351000,9.989350830078125,-0.02291851877272129,-0.8124182066470385,0.4324309379579499
1761914275491406800,9.99940673828125,-0.13408172270953655,-0.7293190676778555,0.5120595147397369
1761914275501463000,10.009463134765625,-0.21788521055579185,-0.6236152981907129,0.5556519516961649
1761914275511518700,10.019518798828125,-0.26409166593551636,-0.5498772772848606,0.5421989977419376
1761914275521574700,10.02957470703125,-0.21823300108015536,-0.4821417116641998,0.5133022082772105
1761914275531631900,10.0396318359375,-0.25070143848657606,-0.5003823017537593,0.4099322154998779
1761914275541687800,10.049687744140625,-0.3457055347830057,-0.573817540320754,0.2753591290768236
1761914275551743700,10.05974365234375,-0.24316812037229538,-0.570247865140438,0.21147406487185508
1761914275561799700,10.069799560546874,-0.059791328617930406,-0.5148860434025526,0.22388328192681073
1761914275571856000,10.07985595703125,0.034650457620620724,-0.5868102928847074,0.13206800826694814
1761914275581911800,10.089911865234376,0.04771101472377777,-0.7407458860993384,-0.03492317361477762
1761914275591968800,10.09996875,0.06713526163995266,-0.8139590063482522,-0.1832481969386339
1761914275602024700,10.110024658203125,0.11892448558807373,-0.7321785487622022,-0.21638525432161987
1761914275612081000,10.120080810546876,0.11358137099444865,-0.5322457590043544,-0.11040241216477006
1761914275622136800,10.13013671875,0.05740764835178852,-0.2904489269852638,0.038974056440778074
1761914275632192800,10.14019287109375,-0.00630289953649044,-0.06986848599612712,0.1344006524655968
1761914275642249000,10.1502490234375,-0.07392915956377982,0.10527882207334041,0.19467282340303063
1761914275652306000,10.160305908203124,-0.10153495936989784,0.3429413307666778,0.27729557703211904
1761914275662361900,10.17036181640625,-0.16544833635389805,0.6190256323128939,0.39936574023477733
1761914275672417800,10.180417724609375,-0.2762000368803739,0.84870824816823,0.5077599178496748
1761914275682474000,10.190473876953124,-0.352875864803791,1.0117185437202454,0.5478421912606806
1761914275692530000,10.200530029296875,-0.3380418682873249,1.0705202767789364,0.46288178846426303
1761914275702585900,10.2105859375,-0.223729844930768,0.9848433962762355,0.2526866940196603
1761914275712642800,10.220642822265624,-0.07656944493949412,0.8210083403378725,0.03299421484619379
1761914275722699000,10.230698974609375,0.024385668715834617,0.611184855684638,-0.11882862399816513
1761914275732755000,10.2407548828125,0.07592354825139046,0.3469856377214193,-0.2283077473055571
1761914275742810600,10.250810546875,0.010771569383144377,0.052558454754948615,-0.3327066447392106
1761914275752866800,10.26086669921875,-0.09386720122098922,-0.1514326704829931,-0.32522008837610483
1761914275762922800,10.2709228515625,-0.14532266317009926,-0.24539397972822188,-0.2668126153320074
1761914275772979700,10.280979736328124,-0.141626731261611,-0.27655250357985495,-0.22018413514792917
1761914275783035600,10.29103564453125,-0.15289455972909927,-0.2689776844114065,-0.21898988386206328
1761914275793091800,10.301091796875,-0.15697043086588383,-0.16436872442364692,-0.19439407952688634
1761914275803147800,10.311147705078126,-0.10558277345597743,0.06488602140843867,-0.13313677000962196
1761914275813203700,10.32120361328125,-0.0727361503869295,0.36081250302195544,-0.028031624002754687
1761914275823260000,10.331260009765625,-0.08875847990512847,0.6947808382600545,0.11200484239272773
1761914275833315800,10.34131591796875,-0.1498912862598896,0.9730787242025136,0.2637777046155184
1761914275843372800,10.351372802734375,-0.22790274670124053,1.197572539243102,0.4483347191303968
1761914275853428700,10.3614287109375,-0.32658465472757814,1.3550988504260777,0.6000753595840186
1761914275863485000,10.37148486328125,-0.3977618852347135,1.390824828323722,0.6884118146847933
1761914275873540900,10.381540771484374,-0.48762861864268775,1.3308072897344827,0.8497551268726586
1761914275883596800,10.3915966796875,-0.5633709651082753,1.1081547186464071,1.0268321608956903
1761914275893653000,10.401653076171876,-0.48280222139954565,0.6451496691286563,1.062324841494113
1761914275903710000,10.4117099609375,-0.10201309827566146,0.20554010824561117,0.9943298942849039
1761914275913766000,10.421765869140625,0.3695779932796955,-0.12337912690937518,0.851599001173675
1761914275923821800,10.43182177734375,0.8017349000692368,-0.30986148346364495,0.6835241157084703
1761914275933878000,10.4418779296875,0.9898486572176217,-0.4482061243146658,0.48659752202928064
1761914275943933700,10.45193359375,1.0574246483623981,-0.5165718045324087,0.30881241280212995
1761914275953989600,10.46198974609375,1.0165426028758286,-0.5941378592938185,0.17370090865343807
1761914275964046600,10.472046630859374,0.9515513675272464,-0.6325047070890665,0.07102043251022697
1761914275974102800,10.482102783203125,0.8938111262202262,-0.5975491290420294,0.0018931202702224253
1761914275984158700,10.49215869140625,0.8409633331298828,-0.46405777344107624,-0.03365457845106721
1761914275994214700,10.502214599609376,0.7853753014206886,-0.19965455733835696,0.02280512152612209
1761914276004270800,10.512270751953125,0.6199158591508865,0.07885258744060993,0.12394143696725368
1761914276014326800,10.522326904296875,0.3673766838431358,0.24377368505001068,0.24080928228646514
1761914276024383700,10.5323837890625,0.1086643728584051,0.2502572018504143,0.3211937554694712
1761914276034439700,10.542439697265625,-0.040734161448478697,0.28942133750319476,0.3999260775312781
1761914276044496000,10.552495849609375,0.013846154522895813,0.35664661551415916,0.46669484394639726
1761914276054551800,10.5625517578125,0.10796703824400901,0.29630291371047496,0.4324545745618641
1761914276064607700,10.572607666015625,0.21839842077493665,0.1527928529202938,0.40312560422495003
1761914276074664000,10.582663818359375,0.3265653655052185,-0.02155775181353092,0.3445531498774886
1761914276084721000,10.592720947265626,0.4560989233911037,-0.15097265175580976,0.2607743580810726
1761914276094776800,10.60277685546875,0.6349339800626039,-0.2753174088269472,0.1780284164637327
1761914276104832800,10.612832763671875,0.6665817487359047,-0.33219957199990746,0.1395617615558207
1761914276114889000,10.622888916015626,0.5633949305057525,-0.298818695923686,0.18781272837519644
1761914276124945000,10.63294482421875,0.28022563913464543,-0.3135457249343395,0.21707915486991405
1761914276135000800,10.643000732421875,-0.04520166225135326,-0.2996048778653145,0.2497166652329266
1761914276145057800,10.653057861328126,-0.37214229080975053,-0.2676923207759857,0.2722187121592462
1761914276155114000,10.663114013671875,-0.6094681148946285,-0.1341577105551958,0.37769627167508
1761914276165169700,10.673169677734375,-0.5881500170558691,-0.054476271075010296,0.33023616297245023
1761914276175225900,10.683225830078126,-0.2545902626186609,0.08856909481287002,0.19738281301409005
1761914276185281800,10.69328173828125,1.1038871243298054,-0.057338090246915815,-0.3483807453416288
1761914276195337700,10.703337646484375,2.5976912656128404,-0.26456688223183156,-0.8302088610120117
1761914276205394700,10.713394775390626,2.342159922751784,0.40359073751866814,-0.3806919463597238
1761914276215451000,10.723450927734374,1.81036132299304,0.5023492179125547,-0.20506723003685473
1761914276225506800,10.7335068359375,0.8256248942226171,0.19480536374151705,-0.014089461759477853
1761914276235562800,10.743562744140625,-0.24793431186079978,-0.06875614084005355,0.3138144588731229
1761914276245619000,10.753618896484374,-0.8905015632808208,-0.19680442860424519,0.47365562286972995
