time,seconds_elapsed,z,y,x
1761914265562198300,0.0701982421875,-0.1697205901145935,-0.23750150203704834,-0.05806170403957367
1761914265572254200,0.080254150390625,-0.14296674728393555,-0.271407812833786,-0.0033606430515646935
1761914265582310100,0.09031005859375,-0.11212440580129623,-0.31154564023017883,0.055750880390405655
1761914265592366300,0.100366455078125,-0.08795488625764847,-0.3449139893054962,0.09528284519910812
1761914265602422300,0.11042236328125,-0.07916512340307236,-0.3651342988014221,0.1186819076538086
1761914265612478000,0.12047802734375,-0.07261348515748978,-0.3714004456996918,0.12518134713172913
1761914265622535200,0.13053515625,-0.07221268117427826,-0.37532782554626465,0.11748188734054565
1761914265632591000,0.140591064453125,-0.06900116801261902,-0.36225807666778564,0.10267791152000427
1761914265642647000,0.15064697265625,-0.06453505158424377,-0.33427679538726807,0.0918729305267334
1761914265652703000,0.160702880859375,-0.05686727911233902,-0.29930174350738525,0.0694911926984787
1761914265662759200,0.17075927734375,-0.039320506155490875,-0.25273212790489197,0.04903705045580864
1761914265672816000,0.180816162109375,-0.01894919015467167,-0.19285599887371063,0.01846316270530224
1761914265682872000,0.1908720703125,0.015901468694210052,-0.13344940543174744,-0.01606924831867218
1761914265692928000,0.200927978515625,0.05149434879422188,-0.0743384137749672,-0.056230250746011734
1761914265702984200,0.210984130859375,0.0945613905787468,-0.033790986984968185,-0.08835835754871368
1761914265713040100,0.2210400390625,0.12873081862926483,-0.015207715332508087,-0.1120823323726654
1761914265723096000,0.231095947265625,0.14699476957321167,0.002665824256837368,-0.12549081444740295
1761914265733153000,0.241153076171875,0.14624668657779694,0.03073980286717415,-0.12745942175388336
1761914265743209200,0.251209228515625,0.136604443192482,0.056182313710451126,-0.13062885403633118
1761914265753265200,0.26126513671875,0.13074763119220734,0.08943107724189758,-0.1284160315990448
1761914265763321000,0.271321044921875,0.12658298015594482,0.11943238973617554,-0.1284751445055008
1761914265773377300,0.281377197265625,0.12931910157203674,0.1461968868970871,-0.12203482538461685
1761914265783433200,0.29143310546875,0.13345952332019806,0.17113712430000305,-0.11019228398799896
1761914265793490200,0.301490234375,0.14003273844718933,0.18421511352062225,-0.09753747284412384
1761914265803546000,0.311546142578125,0.145193412899971,0.17459790408611298,-0.08283975720405579
1761914265813602300,0.321602294921875,0.14465758204460144,0.15864050388336182,-0.06684481352567673
1761914265823658200,0.331658203125,0.15256130695343018,0.14535853266716003,-0.052312739193439484
1761914265833714000,0.3417138671875,0.15969352424144745,0.14071343839168549,-0.03557636961340904
1761914265843771100,0.351771240234375,0.16439692676067352,0.12928767502307892,-0.02648274041712284
1761914265853827300,0.361827392578125,0.16304245591163635,0.13097798824310303,-0.032821595668792725
1761914265863883000,0.371883056640625,0.16813760995864868,0.14437980949878693,-0.04200763627886772
1761914265873939000,0.38193896484375,0.17326898872852325,0.15702956914901733,-0.053576141595840454
1761914265883995100,0.3919951171875,0.17543679475784302,0.1509559601545334,-0.06520377099514008
1761914265894051000,0.402051025390625,0.1785138100385666,0.12317545711994171,-0.07130800187587738
1761914265904108000,0.41210791015625,0.17466901242733002,0.08803531527519226,-0.06866428256034851
1761914265914164000,0.4221640625,0.1698039472103119,0.05386243388056755,-0.0713878944516182
1761914265924220200,0.43222021484375,0.17706958949565887,0.04543619230389595,-0.07717414945363998
1761914265934276000,0.442276123046875,0.19575005769729614,0.06127214431762695,-0.0859772264957428
1761914265944332000,0.45233203125,0.21751661598682404,0.09421917796134949,-0.09872977435588837
1761914265954388200,0.46238818359375,0.23936544358730316,0.12506736814975739,-0.12184494733810425
1761914265964445200,0.472445068359375,0.25002261996269226,0.15146808326244354,-0.14630421996116638
1761914265974501000,0.482501220703125,0.26251843571662903,0.15251870453357697,-0.1679282784461975
1761914265984557000,0.49255712890625,0.2705390751361847,0.14660488069057465,-0.18982452154159546
1761914265994613200,0.50261328125,0.27972033619880676,0.13894590735435486,-0.21064965426921844
1761914266004669200,0.512669189453125,0.2929368019104004,0.13401612639427185,-0.22807790338993073
1761914266014726100,0.52272607421875,0.31037676334381104,0.1416066586971283,-0.23664210736751556
1761914266024782000,0.532781982421875,0.3247389495372772,0.15581196546554565,-0.2463890016078949
1761914266034838300,0.54283837890625,0.33853384852409363,0.175733745098114,-0.2518972158432007
1761914266044894200,0.552894287109375,0.3561232388019562,0.1744554191827774,-0.2504551112651825
1761914266054950100,0.5629501953125,0.3821215331554413,0.1544465571641922,-0.24223873019218445
1761914266065006000,0.573006103515625,0.40375760197639465,0.12964960932731628,-0.22184185683727264
1761914266075063300,0.583063232421875,0.4217485785484314,0.10833020508289337,-0.1988675594329834
1761914266085119000,0.593118896484375,0.43308165669441223,0.08556497097015381,-0.17273102700710297
1761914266095175000,0.6031748046875,0.4453047513961792,0.05842362716794014,-0.1586330533027649
1761914266105231000,0.613231201171875,0.46397697925567627,0.05163576453924179,-0.14902757108211517
1761914266115287000,0.623287109375,0.47387996315956116,0.059297945350408554,-0.1438644975423813
1761914266125344000,0.633343994140625,0.47799667716026306,0.06673082709312439,-0.14881478250026703
1761914266135400000,0.64339990234375,0.4870748519897461,0.08179552853107452,-0.15273015201091766
1761914266145456000,0.6534560546875,0.47788774967193604,0.07601141184568405,-0.1550428420305252
1761914266155512000,0.663511962890625,0.4780363440513611,0.046486008912324905,-0.1469889134168625
1761914266165568000,0.673568115234375,0.47589781880378723,0.019472766667604446,-0.1293710321187973
1761914266175624200,0.683624267578125,0.47356462478637695,-0.004073305055499077,-0.10347552597522736
1761914266185681200,0.69368115234375,0.47951892018318176,-0.005822735372930765,-0.06344395130872726
1761914266195737000,0.703737060546875,0.4878982901573181,0.013666809536516666,-0.015687083825469017
1761914266205793000,0.71379296875,0.4939364790916443,0.06253102421760559,0.045580800622701645
1761914266215849200,0.72384912109375,0.4782653748989105,0.15948154032230377,0.09443968534469604
1761914266225905200,0.7339052734375,0.43857309222221375,0.24089063704013824,0.10922049731016159
1761914266235961000,0.743961181640625,0.37081030011177063,0.24246670305728912,0.09088356792926788
1761914266246018000,0.75401806640625,0.261216938495636,0.1638970524072647,0.07380977272987366
1761914266256074200,0.76407421875,0.07579569518566132,0.07139988243579865,0.05077263340353966
1761914266266130200,0.774130126953125,-0.016643425449728966,0.21787160634994507,0.08930165320634842
1761914266276186000,0.78418603515625,-0.0715828388929367,0.4539054334163666,0.1203189566731453
1761914266286242000,0.794241943359375,-0.09005079418420792,0.6701405644416809,0.12710602581501007
1761914266296299300,0.80429931640625,-0.08842520415782928,0.8166263699531555,0.10986524820327759
1761914266306355200,0.814355224609375,-0.0890212208032608,0.8959653973579407,0.08098859339952469
1761914266316411100,0.8244111328125,-0.07660795748233795,0.9133838415145874,0.042456381022930145
1761914266326467000,0.834467041015625,-0.08995252847671509,0.9075459241867065,0.02237854339182377
1761914266336523000,0.84452294921875,-0.11456786096096039,0.8618125319480896,0.0027441212441772223
1761914266346579200,0.8545791015625,-0.14067722856998444,0.7942286729812622,-0.026584206148982048
1761914266356636200,0.86463623046875,-0.14701128005981445,0.7597431540489197,-0.04364361613988876
1761914266366692000,0.874692138671875,-0.13599085807800293,0.7538508772850037,-0.04643727466464043
1761914266376748000,0.884748046875,-0.10250240564346313,0.7265188694000244,-0.06082899495959282
1761914266386804200,0.89480419921875,-0.05111032351851463,0.6636456251144409,-0.1009947881102562
1761914266396860200,0.904860107421875,0.015670040622353554,0.5848221778869629,-0.16102270781993866
1761914266406916000,0.914916015625,0.09604663401842117,0.5090219378471375,-0.22589091956615448
1761914266416973000,0.92497314453125,0.17704668641090393,0.45299890637397766,-0.2836221158504486
1761914266427029200,0.935029296875,0.25342774391174316,0.40190351009368896,-0.3396960496902466
1761914266437085200,0.945085205078125,0.3181513547897339,0.33121708035469055,-0.39879798889160156
1761914266447141000,0.95514111328125,0.3734399080276489,0.25637906789779663,-0.45467138290405273
1761914266457197600,0.965197509765625,0.4306643009185791,0.1750091016292572,-0.5024839043617249
1761914266467254500,0.975254638671875,0.479158878326416,0.1139523983001709,-0.5369393229484558
1761914266477310700,0.985310791015625,0.5312758684158325,0.06711778789758682,-0.5509888529777527
1761914266487366700,0.99536669921875,0.5756113529205322,0.020790765061974525,-0.5505233407020569
1761914266497422600,1.005422607421875,0.6174384355545044,-0.023847542703151703,-0.5316734910011292
1761914266507478800,1.015478759765625,0.6719762682914734,-0.04770200699567795,-0.49241846799850464
1761914266517534700,1.02553466796875,0.7309303879737854,-0.05777648091316223,-0.4495280086994171
1761914266527591700,1.035591796875,0.793417751789093,-0.058522965759038925,-0.40978699922561646
1761914266537647600,1.045647705078125,0.839670717716217,-0.028479844331741333,-0.37262657284736633
1761914266547703800,1.055703857421875,0.8735860586166382,0.01979048177599907,-0.34628817439079285
1761914266557759500,1.065759521484375,0.8940674066543579,0.06109025329351425,-0.3236294686794281
1761914266567815400,1.0758154296875,0.9086974263191223,0.07855739444494247,-0.30511143803596497
1761914266577872600,1.08587255859375,0.934196949005127,0.09159516543149948,-0.28090783953666687
1761914266587928600,1.095928466796875,0.9605867266654968,0.11411724984645844,-0.2533281445503235
1761914266597984500,1.105984619140625,0.995535135269165,0.134322389960289,-0.23208916187286377
1761914266608040400,1.11604052734375,1.033555507659912,0.21314077079296112,-0.21270427107810974
1761914266618096600,1.1260966796875,1.0578606128692627,0.3323292136192322,-0.19584433734416962
1761914266628152600,1.136152587890625,1.061064600944519,0.41017740964889526,-0.17926669120788574
1761914266638209500,1.14620947265625,1.0402277708053589,0.41497695446014404,-0.16477003693580627
1761914266648265700,1.156265625,1.0148510932922363,0.38526833057403564,-0.15016792714595795
1761914266658321700,1.16632177734375,0.9669836759567261,0.30126529932022095,-0.11624857783317566
1761914266668377600,1.176377685546875,0.8791545033454895,0.2193797528743744,-0.05239449813961983
1761914266678433500,1.18643359375,0.7516050338745117,0.1271161437034607,0.03478594496846199
1761914266688489700,1.19648974609375,0.6224518418312073,-0.0012900352012366056,0.13389335572719574
1761914266698546700,1.206546630859375,0.5808823108673096,-0.1711307317018509,0.22107912600040436
1761914266708602600,1.2166025390625,0.6262204647064209,-0.2734605669975281,0.36518195271492004
1761914266718658600,1.226658447265625,0.6442607641220093,-0.4416048228740692,0.46874138712882996
1761914266728714800,1.23671484375,0.5836450457572937,-0.5803342461585999,0.5793363451957703
1761914266738770700,1.246770751953125,0.45928847789764404,-0.654225766658783,0.6851639747619629
1761914266748827600,1.25682763671875,0.30492129921913147,-0.7104986310005188,0.7808049917221069
1761914266758883800,1.2668837890625,0.20627887547016144,-0.7562791705131531,0.8383607268333435
1761914266768939800,1.276939697265625,0.21548062562942505,-0.8637659549713135,0.8164340853691101
1761914266778995500,1.286995361328125,0.3268713355064392,-0.9405131936073303,0.7363523244857788
1761914266789051600,1.2970517578125,0.4493224024772644,-1.003462791442871,0.6346762776374817
1761914266799107600,1.307107666015625,0.5259591341018677,-1.0929511785507202,0.5444462895393372
1761914266809164500,1.31716455078125,0.594750702381134,-1.1572036743164062,0.497501403093338
1761914266819220500,1.327220458984375,0.6817032098770142,-1.204063057899475,0.5000209808349609
1761914266829276700,1.337276611328125,0.7652108669281006,-1.2795612812042236,0.4667626619338989
1761914266839332600,1.34733251953125,0.8011960387229919,-1.4145153760910034,0.3804892897605896
1761914266849388500,1.357388427734375,0.8189483880996704,-1.5205166339874268,0.287702351808548
1761914266859444700,1.36744482421875,0.825410008430481,-1.6155962944030762,0.13524597883224487
1761914266869501700,1.377501708984375,0.8501902222633362,-1.572266936302185,-0.2402709275484085
1761914266879557600,1.3875576171875,1.0185246467590332,-1.3974186182022095,-0.7252954244613647
1761914266889613600,1.397613525390625,1.10641348361969,-1.1744332313537598,-1.1446319818496704
1761914266899669800,1.407669677734375,1.3005075454711914,-1.119356393814087,-1.3120241165161133
1761914266909725700,1.4177255859375,1.5526282787322998,-1.0339754819869995,-1.210038423538208
1761914266919782700,1.42778271484375,1.6401962041854858,-0.9978366494178772,-0.9462594985961914
1761914266929838600,1.437838623046875,1.6595245599746704,-0.8318607211112976,-0.769586443901062
1761914266939894800,1.447894775390625,1.664997935295105,-0.5817773938179016,-0.7049091458320618
1761914266949950700,1.45795068359375,1.6440510749816895,-0.3508232533931732,-0.6313561201095581
1761914266960006700,1.468006591796875,1.5797224044799805,-0.1392039656639099,-0.483014851808548
1761914266970062800,1.478062744140625,1.4917079210281372,0.1230769231915474,-0.29746976494789124
1761914266980119800,1.488119873046875,1.3916587829589844,0.3577147424221039,-0.10837201029062271
1761914266990175700,1.49817578125,1.311730980873108,0.5823659300804138,0.049144111573696136
1761914267000231700,1.508231689453125,1.2614424228668213,0.7698301076889038,0.10706280171871185
1761914267010287600,1.51828759765625,1.2429169416427612,0.8531503081321716,0.1512603610754013
1761914267020343600,1.528343505859375,1.2666715383529663,0.8996914625167847,0.23437415063381195
1761914267030399500,1.5383994140625,1.3287365436553955,0.9643524885177612,0.4128011465072632
1761914267040456400,1.54845654296875,1.4066859483718872,1.1498559713363647,0.6645726561546326
1761914267050512600,1.5585126953125,1.4722676277160645,1.48008394241333,0.89033442735672
1761914267060568600,1.568568603515625,1.506971001625061,1.9055441617965698,1.0546200275421143
1761914267070624500,1.57862451171875,1.5124685764312744,2.3364078998565674,1.1499793529510498
1761914267080680700,1.5886806640625,1.4816203117370605,2.6022329330444336,1.2016617059707642
1761914267090737700,1.598737548828125,1.4255222082138062,2.7405927181243896,1.199643850326538
1761914267100793600,1.608793701171875,1.3444174528121948,2.7508022785186768,1.1772862672805786
1761914267110849500,1.618849609375,1.2588845491409302,2.6318910121917725,1.1707884073257446
1761914267120905700,1.62890576171875,1.1589874029159546,2.4091010093688965,1.109859824180603
1761914267130961700,1.638961669921875,1.0029741525650024,1.9231812953948975,0.8340908885002136
1761914267141017600,1.649017578125,0.8336450457572937,1.1661484241485596,0.590935468673706
1761914267151074600,1.659074462890625,0.7044577598571777,0.6955438852310181,0.4509756863117218
1761914267161130800,1.669130859375,0.7126259207725525,0.3071053624153137,0.2537958025932312
1761914267171186700,1.679186767578125,0.6976819038391113,0.13814961910247803,0.05108768492937088
1761914267181242600,1.68924267578125,0.6462674140930176,0.047566719353199005,-0.0504237599670887
1761914267191298800,1.699298828125,0.6244678497314453,0.004659732803702354,-0.11123225092887878
1761914267201355800,1.709355712890625,0.6121946573257446,0.03334251046180725,-0.1419539451599121
1761914267211411700,1.71941162109375,0.6189486980438232,0.07996327430009842,-0.13104669749736786
1761914267221467600,1.729467529296875,0.6344954371452332,0.15109790861606598,-0.08452074229717255
1761914267231523600,1.739523681640625,0.6423536539077759,0.24776746332645416,-0.0033132387325167656
1761914267241579500,1.74957958984375,0.6340150237083435,0.3459901511669159,0.1148269847035408
1761914267251635500,1.759635498046875,0.6016296744346619,0.42244577407836914,0.24666011333465576
1761914267261692400,1.7696923828125,0.5533246994018555,0.4734882116317749,0.3599994480609894
1761914267271748600,1.77974853515625,0.507624089717865,0.5058959126472473,0.4190092384815216
1761914267281804500,1.789804443359375,0.45391982793807983,0.5148377418518066,0.40718987584114075
1761914267291860500,1.799860595703125,0.40702342987060547,0.5100411772727966,0.33604326844215393
1761914267301916700,1.809916748046875,0.3672877252101898,0.4984894096851349,0.24285738170146942
1761914267311972600,1.81997265625,0.3405834138393402,0.47777190804481506,0.17177602648735046
1761914267322029600,1.830029541015625,0.3150964379310608,0.4694178104400635,0.14241600036621094
1761914267332085500,1.84008544921875,0.2951328456401825,0.4783594012260437,0.16351622343063354
1761914267342141700,1.8501416015625,0.2785285711288452,0.4717768430709839,0.21239641308784485
1761914267352197600,1.86019775390625,0.26776885986328125,0.47309350967407227,0.25975432991981506
1761914267362253600,1.870253662109375,0.2711324393749237,0.49526646733283997,0.2938880920410156
1761914267372309800,1.880309814453125,0.288226455450058,0.5428686141967773,0.32386648654937744
1761914267382366700,1.89036669921875,0.3142993450164795,0.6346970796585083,0.34477177262306213
1761914267392422700,1.900422607421875,0.34141138195991516,0.7379643321037292,0.36566001176834106
1761914267402478600,1.910478515625,0.37659788131713867,0.8149248957633972,0.3798240125179291
1761914267412534800,1.92053466796875,0.41752001643180847,0.8561087846755981,0.3618104159832001
1761914267422590700,1.9305908203125,0.4730152189731598,0.857905387878418,0.3206302225589752
1761914267432646400,1.940646484375,0.519732654094696,0.833855152130127,0.25487491488456726
1761914267442703600,1.95070361328125,0.5578923225402832,0.7935602068901062,0.17893379926681519
1761914267452759800,1.960759765625,0.5802401900291443,0.7437175512313843,0.10783671587705612
1761914267462815700,1.970815673828125,0.5880379676818848,0.7000449299812317,0.04518159106373787
1761914267472871700,1.98087158203125,0.5745072364807129,0.6749494075775146,-0.0030517163686454296
1761914267482927900,1.990927978515625,0.5547066330909729,0.6736583113670349,-0.048277515918016434
1761914267492984800,2.00098486328125,0.524894118309021,0.6796121001243591,-0.08258356153964996
1761914267503040800,2.011040771484375,0.4931148886680603,0.6992323994636536,-0.10923061519861221
1761914267513096700,2.0210966796875,0.4578391909599304,0.723113477230072,-0.11509862542152405
1761914267523153000,2.03115283203125,0.4347469210624695,0.6978680491447449,-0.10269282013177872
1761914267533208800,2.041208740234375,0.42686158418655396,0.6215950846672058,-0.09066572040319443
1761914267543264800,2.0512646484375,0.43118175864219666,0.4931034445762634,-0.08497215062379837
1761914267553321700,2.06132177734375,0.4345588982105255,0.31912338733673096,-0.09103110432624817
1761914267563378000,2.0713779296875,0.4397867023944855,0.13227148354053497,-0.10835763067007065
1761914267573433900,2.081433837890625,0.44273561239242554,-0.023897875100374222,-0.1332683116197586
1761914267583489800,2.09148974609375,0.44390979409217834,-0.114195816218853,-0.15733157098293304
1761914267593546000,2.1015458984375,0.4488459825515747,-0.13352477550506592,-0.17791619896888733
1761914267603602000,2.111601806640625,0.4628451466560364,-0.09683200716972351,-0.17804057896137238
1761914267613659000,2.121658935546875,0.4876386523246765,-0.023480825126171112,-0.14268843829631805
1761914267623714800,2.13171484375,0.526901364326477,0.06938919425010681,-0.09008088707923889
1761914267633771000,2.14177099609375,0.5766881108283997,0.15454669296741486,-0.022609172388911247
1761914267643827000,2.151826904296875,0.6316168308258057,0.22681796550750732,0.05630668252706528
1761914267653883000,2.1618828125,0.6893794536590576,0.27619537711143494,0.1533256322145462
1761914267663938800,2.171938720703125,0.737686038017273,0.3096148371696472,0.25436943769454956
1761914267673996000,2.18199609375,0.7714130878448486,0.3259964883327484,0.3663122057914734
1761914267684052000,2.192052001953125,0.7747148871421814,0.3061644434928894,0.471577912569046
1761914267694107600,2.202107666015625,0.7758129239082336,0.30216437578201294,0.5548996925354004
1761914267704163800,2.212163818359375,0.8037129640579224,0.33517932891845703,0.6161268353462219
1761914267714219800,2.2222197265625,0.8346117734909058,0.3294309079647064,0.6716830730438232
1761914267724276700,2.23227685546875,0.8446550965309143,0.2682463526725769,0.7113697528839111
1761914267734332700,2.242332763671875,0.8691202402114868,0.213636115193367,0.7127745747566223
1761914267744388900,2.252388916015625,0.9455236196517944,0.21918854117393494,0.6505780220031738
1761914267754444800,2.26244482421875,1.046787142753601,0.22940842807292938,0.5440816879272461
1761914267764500700,2.272500732421875,1.1231995820999146,0.17625465989112854,0.4325604736804962
1761914267774557000,2.282556884765625,1.1838393211364746,0.11829681694507599,0.3104148507118225
1761914267784614000,2.29261376953125,1.2669427394866943,0.11478623747825623,0.16347068548202515
1761914267794669800,2.302669921875,1.3781040906906128,0.19154919683933258,-0.0031105722300708294
1761914267804725800,2.312725830078125,1.505994439125061,0.3228997588157654,-0.1828095018863678
1761914267814782000,2.322781982421875,1.6023374795913696,0.47578543424606323,-0.3317161500453949
1761914267824838000,2.332837890625,1.600537657737732,0.5826303958892822,-0.4082021415233612
1761914267834893800,2.342893798828125,1.5081467628479004,0.6270079612731934,-0.39784616231918335
1761914267844951000,2.352950927734375,1.3818751573562622,0.6300357580184937,-0.3189138174057007
1761914267855007000,2.363007080078125,1.2608006000518799,0.6366829872131348,-0.19751094281673431
1761914267865063000,2.37306298828125,1.1544140577316284,0.6331995725631714,-0.0457986481487751
1761914267875118800,2.383118896484375,1.0596915483474731,0.623297929763794,0.11466905474662781
1761914267885175000,2.393175048828125,0.9909161329269409,0.6352299451828003,0.24451573193073273
1761914267895230700,2.403230712890625,0.9338808655738831,0.6689168214797974,0.33102160692214966
1761914267905288000,2.413287841796875,0.8798394203186035,0.7383235692977905,0.3909837305545807
1761914267915344000,2.42334375,0.8492213487625122,0.8206871747970581,0.44405999779701233
1761914267925399800,2.43339990234375,0.8324040174484253,0.9029216170310974,0.4892091155052185
1761914267935455700,2.443455810546875,0.8247655630111694,0.9932501316070557,0.5146417617797852
1761914267945512000,2.453511962890625,0.83406662940979,1.0906517505645752,0.5175840258598328
1761914267955569000,2.46356884765625,0.8511228561401367,1.1864702701568604,0.4966835379600525
1761914267965624800,2.473624755859375,0.8749498724937439,1.2655456066131592,0.4502420127391815
1761914267975680800,2.4836806640625,0.8852001428604126,1.3119086027145386,0.38735464215278625
1761914267985737000,2.493737060546875,0.8706566095352173,1.329084873199463,0.30961352586746216
1761914267995793000,2.50379296875,0.8316711187362671,1.315932035446167,0.23170460760593414
1761914268005848800,2.513848876953125,0.7815773487091064,1.261842966079712,0.16844627261161804
1761914268015905800,2.52390576171875,0.7380013465881348,1.1592096090316772,0.12101776897907257
1761914268025962000,2.5339619140625,0.6886883974075317,1.0285285711288452,0.10398285835981369
1761914268036018000,2.544017822265625,0.6342147588729858,0.8788519501686096,0.0956205353140831
1761914268046073900,2.554073974609375,0.5952713489532471,0.7389800548553467,0.08497267961502075
1761914268056130000,2.564130126953125,0.5909541249275208,0.6365612745285034,0.04968979209661484
1761914268066186000,2.57418603515625,0.6164147257804871,0.5724784135818481,0.004991828929632902
1761914268076243000,2.584242919921875,0.6550644040107727,0.5071929097175598,-0.02552027441561222
1761914268086299000,2.594298828125,0.6858651638031006,0.4193839430809021,-0.03413639962673187
1761914268096355000,2.60435498046875,0.7109915614128113,0.33593326807022095,-0.03302399441599846
1761914268106411000,2.614410888671875,0.7352545857429504,0.2679148018360138,-0.045710496604442596
1761914268116466700,2.624466796875,0.7664687037467957,0.23154480755329132,-0.07402469217777252
1761914268126523000,2.63452294921875,0.7916946411132812,0.20870128273963928,-0.11206182092428207
1761914268136580000,2.644580078125,0.7995392680168152,0.20117679238319397,-0.13721324503421783
1761914268146635800,2.6546357421875,0.7772771120071411,0.2084091305732727,-0.1427512913942337
1761914268156691700,2.664691650390625,0.7368077039718628,0.2208964228630066,-0.12516777217388153
1761914268166748000,2.674747802734375,0.6886945366859436,0.23467588424682617,-0.09468922764062881
1761914268176803800,2.684803955078125,0.639731228351593,0.2541816830635071,-0.05156625434756279
1761914268186860800,2.69486083984375,0.5895213484764099,0.29302096366882324,-0.00512711750343442
1761914268196916700,2.704916748046875,0.5503590106964111,0.34485405683517456,0.04680026322603226
1761914268206973000,2.714972900390625,0.5324364900588989,0.4121348261833191,0.09432809799909592
1761914268217028900,2.72502880859375,0.5463957190513611,0.48959633708000183,0.12760642170906067
1761914268227084800,2.735084716796875,0.5908721089363098,0.5496327877044678,0.1460309773683548
1761914268237141000,2.74514111328125,0.6659716367721558,0.5826751589775085,0.142596036195755
1761914268247198000,2.755197998046875,0.7464150786399841,0.5831909775733948,0.12663517892360687
1761914268257254000,2.76525390625,0.8125344514846802,0.5612159371376038,0.09770019352436066
1761914268267309800,2.775309814453125,0.8517902493476868,0.5110142827033997,0.05913176387548447
1761914268277366000,2.785365966796875,0.8606500625610352,0.44853225350379944,0.0290532223880291
1761914268287422000,2.795421875,0.8429914116859436,0.39784589409828186,-0.0041670482605695724
1761914268297478000,2.805477783203125,0.8119096755981445,0.37527376413345337,-0.027240941300988197
1761914268307534800,2.815534912109375,0.7886490821838379,0.3782455623149872,-0.04397651180624962
1761914268317591000,2.825591064453125,0.7734653353691101,0.40209177136421204,-0.04824928939342499
1761914268327647000,2.83564697265625,0.7531201243400574,0.43032902479171753,-0.048641305416822433
1761914268337703000,2.845702880859375,0.7216141223907471,0.4533501863479614,-0.035943884402513504
1761914268347758800,2.8557587890625,0.6704624891281128,0.4603193998336792,-0.015931028872728348
1761914268357814800,2.865814697265625,0.607079029083252,0.4566301107406616,0.010999920777976513
1761914268367871700,2.875871826171875,0.5446851253509521,0.4460488557815552,0.04434908926486969
1761914268377927700,2.885927734375,0.47878843545913696,0.4267004430294037,0.07572032511234283
1761914268387984000,2.89598388671875,0.41447708010673523,0.3925006687641144,0.12361647933721542
1761914268398039800,2.906039794921875,0.35213273763656616,0.3468138873577118,0.18733447790145874
1761914268408095700,2.916095703125,0.2818862795829773,0.295838326215744,0.26064491271972656
1761914268418152700,2.926152587890625,0.22946514189243317,0.2612350583076477,0.31228014826774597
1761914268428209000,2.936208984375,0.19943587481975555,0.2719196677207947,0.31951913237571716
1761914268438264800,2.946264892578125,0.1850643903017044,0.29019293189048767,0.29250723123550415
1761914268448320800,2.95632080078125,0.185337096452713,0.32972145080566406,0.2495725452899933
1761914268458377000,2.966376953125,0.20702216029167175,0.3941510319709778,0.20365698635578156
1761914268468433000,2.976432861328125,0.2428552508354187,0.48189207911491394,0.17767758667469025
1761914268478489900,2.98648974609375,0.27520227432250977,0.5521185398101807,0.16862763464450836
1761914268488545800,2.9965458984375,0.3026554584503174,0.5979251861572266,0.18488676846027374
1761914268498602000,3.00660205078125,0.3336797058582306,0.6237053871154785,0.2310742288827896
1761914268508658000,3.016657958984375,0.36383599042892456,0.6093499064445496,0.3019433319568634
1761914268518713900,3.0267138671875,0.391670823097229,0.5457165837287903,0.39317524433135986
1761914268528769800,3.036769775390625,0.39969706535339355,0.4647921919822693,0.47570449113845825
1761914268538827000,3.046826904296875,0.3981114327907562,0.38379958271980286,0.5298689007759094
1761914268548882700,3.056882568359375,0.39512041211128235,0.31699445843696594,0.5562747120857239
1761914268558938600,3.066938720703125,0.39191532135009766,0.2565620243549347,0.5537593364715576
1761914268568994800,3.076994873046875,0.39409324526786804,0.19575804471969604,0.5376781225204468
1761914268579050800,3.08705078125,0.41110390424728394,0.15749429166316986,0.5040426254272461
1761914268589106700,3.097106689453125,0.4273239076137543,0.144631490111351,0.452224463224411
1761914268599163600,3.10716357421875,0.4443020820617676,0.13008981943130493,0.39628157019615173
1761914268609219800,3.1172197265625,0.45362287759780884,0.10811635106801987,0.34689828753471375
1761914268619275800,3.12727587890625,0.44682222604751587,0.09068942070007324,0.3188493549823761
1761914268629331700,3.137331787109375,0.43333810567855835,0.08550132066011429,0.3101424276828766
1761914268639388000,3.147387939453125,0.429770290851593,0.10302998125553131,0.3267357647418976
1761914268649443800,3.15744384765625,0.4441470801830292,0.13037239015102386,0.34639015793800354
1761914268659500800,3.167500732421875,0.46911609172821045,0.1611207127571106,0.36201971769332886
1761914268669556700,3.177556640625,0.49880075454711914,0.20590123534202576,0.36614418029785156
1761914268679613000,3.187613037109375,0.5318865180015564,0.25963902473449707,0.3639449179172516
1761914268689668900,3.1976689453125,0.5560690760612488,0.3117467164993286,0.36801397800445557
1761914268699724800,3.207724853515625,0.582715630531311,0.34490466117858887,0.3760252892971039
1761914268709781800,3.21778173828125,0.6028693318367004,0.35472798347473145,0.36901238560676575
1761914268719838000,3.227837890625,0.6245235204696655,0.3751227557659149,0.3296290338039398
1761914268729894000,3.237893798828125,0.6362446546554565,0.4010518193244934,0.2706035375595093
1761914268739949800,3.24794970703125,0.647350549697876,0.4118943512439728,0.21094979345798492
1761914268750005800,3.258005859375,0.667608916759491,0.40006059408187866,0.14763472974300385
1761914268760061700,3.268061767578125,0.6953662633895874,0.38441479206085205,0.06366446614265442
1761914268770119000,3.278118896484375,0.7435060739517212,0.40385931730270386,-0.04770147427916527
1761914268780174800,3.2881748046875,0.801856517791748,0.46874457597732544,-0.18129868805408478
1761914268790230800,3.298230712890625,0.8715940117835999,0.5700283050537109,-0.3235791325569153
1761914268800286700,3.30828662109375,0.9429435729980469,0.6807399392127991,-0.46353596448898315
1761914268810343000,3.318343017578125,1.007041335105896,0.7555563449859619,-0.5958700180053711
1761914268820398800,3.32839892578125,1.0632820129394531,0.7791748642921448,-0.720500648021698
1761914268830455800,3.338455810546875,1.0991824865341187,0.7512004971504211,-0.8381996154785156
1761914268840511700,3.34851171875,1.1038099527359009,0.6903496980667114,-0.9308280348777771
1761914268850568000,3.35856787109375,1.06724214553833,0.6182368397712708,-0.9815080165863037
1761914268860624000,3.368623779296875,0.9925534725189209,0.5641701817512512,-0.983061671257019
1761914268870679800,3.3786796875,0.8941590189933777,0.5392272472381592,-0.940015971660614
1761914268880736000,3.388736083984375,0.789980947971344,0.5437929630279541,-0.8713958859443665
1761914268890793000,3.39879296875,0.6928713917732239,0.564934253692627,-0.7796867489814758
1761914268900849000,3.408848876953125,0.6188238263130188,0.5969696640968323,-0.6820136904716492
1761914268910904800,3.41890478515625,0.5638045072555542,0.6462575793266296,-0.6001156568527222
1761914268920961000,3.4289609375,0.5190175771713257,0.7072128057479858,-0.5145634412765503
1761914268931017000,3.439016845703125,0.48190298676490784,0.7276821136474609,-0.4179389178752899
1761914268941074000,3.449073974609375,0.4548300802707672,0.7201054096221924,-0.31619152426719666
1761914268951129900,3.4591298828125,0.4271042048931122,0.694351851940155,-0.23308998346328735
1761914268961186000,3.46918603515625,0.38846224546432495,0.6511484980583191,-0.16896770894527435
1761914268971242000,3.479241943359375,0.34269237518310547,0.6094793081283569,-0.1197088211774826
1761914268981297700,3.489297607421875,0.2880038321018219,0.5727436542510986,-0.08239208161830902
1761914268991353900,3.499353759765625,0.23911671340465546,0.5397031903266907,-0.04559225216507912
1761914269001410800,3.509410888671875,0.20073656737804413,0.5206463932991028,-0.008253934793174267
1761914269011466800,3.519466796875,0.18526360392570496,0.5322902798652649,0.027696343138813972
1761914269021522700,3.529522705078125,0.18826071918010712,0.550584077835083,0.07058601826429367
1761914269031579000,3.539578857421875,0.20496459305286407,0.5627169013023376,0.11270524561405182
1761914269041634800,3.549634765625,0.23482529819011688,0.5747085809707642,0.14108681678771973
1761914269051690800,3.559690673828125,0.2752472758293152,0.5926116704940796,0.13724307715892792
1761914269061747700,3.569747802734375,0.31930530071258545,0.6202986836433411,0.10126563161611557
1761914269071804000,3.579803955078125,0.3548544943332672,0.6763265132904053,0.03849652409553528
1761914269081859800,3.58985986328125,0.3802509307861328,0.7153370380401611,-0.022362031042575836
1761914269091915800,3.599915771484375,0.3818562924861908,0.7202638983726501,-0.05919088423252106
1761914269101972000,3.609971923828125,0.3755464553833008,0.7116560339927673,-0.07098788768053055
1761914269112029000,3.62002880859375,0.3542896509170532,0.7124925255775452,-0.07085633277893066
1761914269122084900,3.6300849609375,0.3335859477519989,0.7044225931167603,-0.05506565049290657
1761914269132140800,3.640140869140625,0.3033747971057892,0.6510536670684814,-0.029934197664260864
1761914269142197000,3.650197021484375,0.2865588068962097,0.5534879565238953,0.004622715059667826
1761914269152253000,3.6602529296875,0.2765977680683136,0.43811288475990295,0.04370806738734245
1761914269162308900,3.670308837890625,0.2863590717315674,0.32674482464790344,0.07421004772186279
1761914269172365800,3.68036572265625,0.30009695887565613,0.24698901176452637,0.09819500893354416
1761914269182422000,3.690422119140625,0.307125061750412,0.19498227536678314,0.11664192378520966
1761914269192478000,3.70047802734375,0.3074379861354828,0.15223348140716553,0.1410926729440689
1761914269202533600,3.71053369140625,0.3009244203567505,0.11798468977212906,0.16521239280700684
1761914269212589800,3.72058984375,0.2874642610549927,0.08792692422866821,0.19572129845619202
1761914269222645800,3.730645751953125,0.2780159115791321,0.06668209284543991,0.23110565543174744
1761914269232702700,3.74070263671875,0.2688876688480377,0.05319690704345703,0.2619658410549164
1761914269242758700,3.750758544921875,0.26451635360717773,0.05535034090280533,0.2805466949939728
1761914269252814800,3.76081494140625,0.26987117528915405,0.05524221807718277,0.2871449589729309
1761914269262870800,3.770870849609375,0.28565067052841187,0.05116251856088638,0.2744525969028473
1761914269272926700,3.7809267578125,0.32388246059417725,0.06698116660118103,0.20980197191238403
1761914269282983000,3.79098291015625,0.3759472668170929,0.10990545898675919,0.10414424538612366
1761914269293039900,3.801039794921875,0.4332031011581421,0.13999491930007935,-0.022400647401809692
1761914269303095800,3.811095703125,0.47138136625289917,0.11968325823545456,-0.13348668813705444
1761914269313151700,3.82115185546875,0.4944363534450531,0.04469503462314606,-0.2164582759141922
1761914269323208000,3.8312080078125,0.4967469274997711,-0.03593190014362335,-0.2667379379272461
1761914269333264000,3.841263916015625,0.4921873211860657,-0.07143503427505493,-0.3128255605697632
1761914269343320800,3.85132080078125,0.4602629542350769,-0.09286868572235107,-0.34179115295410156
1761914269353376800,3.861376708984375,0.40686655044555664,-0.11434042453765869,-0.35365235805511475
1761914269363433000,3.871432861328125,0.32227736711502075,-0.1443641036748886,-0.3523031771183014
1761914269373489000,3.881489013671875,0.2032279521226883,-0.14813673496246338,-0.3341372311115265
1761914269383544800,3.891544921875,0.09347828477621078,-0.1036188006401062,-0.2897186279296875
1761914269393601000,3.90160107421875,0.010056362487375736,-0.024107201024889946,-0.21146857738494873
1761914269403658000,3.911657958984375,-0.03465891256928444,0.09357788413763046,-0.10261798650026321
1761914269413714000,3.9217138671875,-0.0539119690656662,0.19622330367565155,0.01643436774611473
1761914269423769900,3.931769775390625,-0.05269250646233559,0.25588342547416687,0.10960745066404343
1761914269433825800,3.94182568359375,-0.045392781496047974,0.260985791683197,0.2008870393037796
1761914269443881700,3.9518818359375,-0.09255363792181015,0.13256044685840607,0.24666863679885864
1761914269453937700,3.961937744140625,-0.14549674093723297,0.22756950557231903,0.19074279069900513
1761914269463995100,3.9719951171875,-0.1991003155708313,0.33356305956840515,0.07097697257995605
1761914269474051300,3.98205126953125,-0.2922790050506592,0.2563934326171875,-0.10500817745923996
1761914269484107000,3.99210693359375,-0.38429999351501465,0.2596195936203003,-0.34857502579689026
1761914269494163000,4.002162841796875,-0.4481205344200134,0.32719624042510986,-0.6023838520050049
1761914269504219100,4.01221923828125,-0.48869165778160095,0.3413914144039154,-0.7953474521636963
1761914269514272300,4.022272216796875,-0.5017677545547485,0.31087079644203186,-0.9204931259155273
1761914269524329200,4.0323291015625,-0.4982457458972931,0.25297048687934875,-0.9859344363212585
1761914269534385200,4.04238525390625,-0.4612107574939728,0.1860625445842743,-0.9976771473884583
1761914269544441300,4.05244140625,-0.39547595381736755,0.08136969059705734,-0.9716479182243347
1761914269554497300,4.062497314453125,-0.29409101605415344,-0.10498260706663132,-0.9263874888420105
1761914269564553000,4.072552978515625,-0.18049494922161102,-0.1900109499692917,-0.9125787615776062
1761914269574609200,4.082609130859375,-0.06885842978954315,-0.17220239341259003,-0.943600594997406
1761914269584666000,4.092666015625,0.04152480512857437,-0.12915799021720886,-0.9931183457374573
1761914269594722000,4.10272216796875,0.14399366080760956,-0.06966056674718857,-1.0434685945510864
1761914269604778000,4.112778076171875,0.2381260097026825,-0.03640354797244072,-1.0641608238220215
1761914269614834200,4.122834228515625,0.3107759952545166,-0.03666293993592262,-1.0386210680007935
1761914269624890000,4.13289013671875,0.3623307943344116,-0.04788576811552048,-0.9750863313674927
1761914269634947000,4.142947021484375,0.3924756348133087,-0.057791661471128464,-0.8863042593002319
1761914269645003000,4.1530029296875,0.4205440282821655,-0.03639449179172516,-0.7848434448242188
1761914269655059200,4.16305908203125,0.4579923450946808,0.0040946099907159805,-0.6849154829978943
1761914269665115100,4.173115234375,0.5212844610214233,0.019724169746041298,-0.5781930685043335
1761914269675171000,4.183171142578125,0.591098964214325,0.020306337624788284,-0.47480034828186035
1761914269685227300,4.193227294921875,0.6640037894248962,0.05164109170436859,-0.3798389434814453
1761914269695284200,4.2032841796875,0.7292107939720154,0.10986631363630295,-0.29386278986930847
1761914269705340200,4.213340087890625,0.763764500617981,0.16547338664531708,-0.21303769946098328
1761914269715396000,4.22339599609375,0.7657451033592224,0.20556913316249847,-0.13266350328922272
1761914269725452300,4.233452392578125,0.7371078729629517,0.23562024533748627,-0.054899200797080994
1761914269735508200,4.24350830078125,0.6765763163566589,0.2715015411376953,0.01775236614048481
1761914269745564200,4.253564208984375,0.5908968448638916,0.3116742670536041,0.08020136505365372
1761914269755621000,4.26362109375,0.5012441873550415,0.32800236344337463,0.1225392296910286
1761914269765677300,4.27367724609375,0.40681222081184387,0.3113970458507538,0.14418619871139526
1761914269775733200,4.283733154296875,0.31623733043670654,0.3030690550804138,0.14650341868400574
1761914269785789000,4.293788818359375,0.2285175919532776,0.2994098663330078,0.1366843432188034
1761914269795845000,4.30384521484375,0.16879834234714508,0.277086466550827,0.12431902438402176
1761914269805902300,4.31390234375,0.13826492428779602,0.24044935405254364,0.10520152002573013
1761914269815958000,4.3239580078125,0.13939863443374634,0.19274654984474182,0.07507850229740143
1761914269826014000,4.334013916015625,0.16574954986572266,0.11752183735370636,0.04386679083108902
1761914269836070100,4.344070068359375,0.20289158821105957,0.03652019426226616,0.007713047321885824
1761914269846126000,4.3541259765625,0.23363246023654938,-0.0359279066324234,-0.021020064130425453
1761914269856182000,4.36418212890625,0.24561455845832825,-0.08664754033088684,-0.03826136887073517
1761914269866239000,4.374239013671875,0.23911911249160767,-0.10629820823669434,-0.04104703664779663
1761914269876295200,4.384295166015625,0.2279130518436432,-0.11517558991909027,-0.03471457213163376
1761914269886351000,4.39435107421875,0.19791974127292633,-0.12592437863349915,-0.024895496666431427
1761914269896407000,4.404406982421875,0.16181287169456482,-0.14221759140491486,-0.0019233349012210965
1761914269906463200,4.414463134765625,0.12090618163347244,-0.15263135731220245,0.02857758291065693
1761914269916519200,4.424519287109375,0.08368184417486191,-0.12335735559463501,0.07694165408611298
1761914269926576000,4.434576171875,0.06009502708911896,-0.052992645651102066,0.13384221494197845
1761914269936632000,4.444632080078125,0.033902838826179504,-0.0041310954838991165,0.2039230316877365
1761914269946688300,4.454688232421875,-0.005666940473020077,-0.0771978497505188,0.30219048261642456
1761914269956744200,4.464744140625,-0.07083049416542053,-0.20578938722610474,0.4231848120689392
1761914269966800100,4.474800048828125,-0.1383773237466812,-0.3099714517593384,0.5298779606819153
1761914269976857000,4.484857177734375,-0.18644550442695618,-0.3447645902633667,0.6135827302932739
1761914269986913300,4.494913330078125,-0.20086678862571716,-0.3477172255516052,0.6677242517471313
1761914269996969200,4.50496923828125,-0.19378438591957092,-0.3322144150733948,0.7042146325111389
1761914270007025200,4.515025146484375,-0.17657023668289185,-0.3045378029346466,0.7304246425628662
1761914270017081000,4.5250810546875,-0.14495985209941864,-0.22869309782981873,0.7392977476119995
1761914270027137000,4.535136962890625,-0.09500294178724289,-0.07038628309965134,0.7198724150657654
1761914270037194000,4.545194091796875,-0.029952306300401688,0.13036014139652252,0.6537445187568665
1761914270047250000,4.55525,0.044500090181827545,0.29679253697395325,0.5688086152076721
1761914270057306000,4.56530615234375,0.11780306696891785,0.37774357199668884,0.489399790763855
1761914270067365000,4.575365234375,0.19625286757946014,0.35622867941856384,0.4198891520500183
1761914270077421300,4.58542138671875,0.2664484679698944,0.2706775665283203,0.36578598618507385
1761914270087477200,4.595477294921875,0.32129228115081787,0.13736078143119812,0.331330806016922
1761914270097534200,4.6055341796875,0.3462471663951874,-0.015844743698835373,0.30912137031555176
1761914270107590100,4.615590087890625,0.3314700722694397,-0.1809178590774536,0.2913048267364502
1761914270117646300,4.625646240234375,0.2764587700366974,-0.33771786093711853,0.2691830098628998
1761914270127702300,4.635702392578125,0.19575059413909912,-0.4333280026912689,0.2397175133228302
1761914270137758000,4.645758056640625,0.10444678366184235,-0.44149965047836304,0.1993011236190796
1761914270147815200,4.655815185546875,0.004680771846324205,-0.4119183123111725,0.1608935445547104
1761914270157871000,4.66587109375,-0.09614730626344681,-0.40375572443008423,0.13948732614517212
1761914270167927000,4.675927001953125,-0.19133107364177704,-0.42228758335113525,0.14352813363075256
1761914270177983000,4.68598291015625,-0.27339106798171997,-0.45672839879989624,0.1628219336271286
1761914270188039200,4.6960390625,-0.34945148229599,-0.49692800641059875,0.18887031078338623
1761914270198095000,4.70609521484375,-0.4137135446071625,-0.5590597987174988,0.23415310680866241
1761914270208152000,4.716152099609375,-0.46884337067604065,-0.6046390533447266,0.28193795680999756
1761914270218208000,4.7262080078125,-0.5025038719177246,-0.6187213063240051,0.3231671452522278
1761914270228264200,4.73626416015625,-0.5070352554321289,-0.570311963558197,0.32636159658432007
1761914270238320000,4.746320068359375,-0.47209563851356506,-0.48736727237701416,0.2922704815864563
1761914270248376000,4.7563759765625,-0.42936867475509644,-0.37833479046821594,0.23065291345119476
1761914270258432300,4.766432373046875,-0.3906036913394928,-0.2862352132797241,0.15058684349060059
1761914270268489200,4.7764892578125,-0.3586327135562897,-0.18788787722587585,0.07203983515501022
1761914270278545200,4.786545166015625,-0.3281043767929077,-0.08459024876356125,-0.025068335235118866
1761914270288601000,4.79660107421875,-0.2901889383792877,0.011078483425080776,-0.14025111496448517
1761914270298657300,4.8066572265625,-0.24292422831058502,0.05553968995809555,-0.2871484160423279
1761914270308713200,4.816713134765625,-0.17684827744960785,0.05566965416073799,-0.46399083733558655
1761914270318770200,4.826770263671875,-0.09917797893285751,0.02021525613963604,-0.6742538213729858
1761914270328826000,4.836826171875,-0.017491109669208527,-0.04439649358391762,-0.9019008278846741
1761914270338882300,4.84688232421875,0.05324298143386841,-0.14709463715553284,-1.1425656080245972
1761914270348938200,4.856938232421875,0.10573095828294754,-0.2545502483844757,-1.3843481540679932
1761914270358994200,4.866994140625,0.12546338140964508,-0.35423532128334045,-1.5998183488845825
1761914270369050000,4.877050048828125,0.09375205636024475,-0.4494822025299072,-1.7564111948013306
1761914270379107300,4.887107421875,0.008627576753497124,-0.5502285361289978,-1.8255071640014648
1761914270389163000,4.8971630859375,-0.1306658685207367,-0.6256228685379028,-1.809148907661438
1761914270399219000,4.907218994140625,-0.3492376208305359,-0.7038564085960388,-1.7197316884994507
1761914270409275100,4.917275146484375,-0.6159494519233704,-0.8004005551338196,-1.5655498504638672
1761914270419331000,4.9273310546875,-0.8588880896568298,-0.8612098097801208,-1.387582540512085
1761914270429388000,4.937387939453125,-1.0330617427825928,-0.8435208201408386,-1.2230769395828247
1761914270439444000,4.94744384765625,-1.1444975137710571,-0.7512732148170471,-1.0684927701950073
1761914270449500200,4.957500244140625,-1.2103019952774048,-0.6380388140678406,-0.9101312756538391
1761914270459556000,4.96755615234375,-1.2364065647125244,-0.48029205203056335,-0.7414765357971191
1761914270469615000,4.977614990234375,-1.228209376335144,-0.29893025755882263,-0.5588576793670654
1761914270479671300,4.98767138671875,-1.2002555131912231,-0.12769964337348938,-0.3633230924606323
1761914270489728300,4.997728271484375,-1.1610535383224487,0.025551699101924896,-0.16437003016471863
1761914270499784200,5.0077841796875,-1.1117368936538696,0.1647506058216095,0.026885943487286568
1761914270509840100,5.017840087890625,-1.0620536804199219,0.2856493294239044,0.19044318795204163
1761914270519896000,5.02789599609375,-1.0057175159454346,0.3769257068634033,0.32667478919029236
1761914270529952000,5.037951904296875,-0.9473881125450134,0.4122682511806488,0.43931904435157776
1761914270540008200,5.04800830078125,-0.8929610848426819,0.37588414549827576,0.5393438935279846
1761914270550065200,5.058065185546875,-0.8475326299667358,0.26091787219047546,0.628303050994873
1761914270560121000,5.06812109375,-0.8185883164405823,0.09969170391559601,0.7001189589500427
1761914270570177000,5.078177001953125,-0.8093264102935791,-0.07193224877119064,0.7469602227210999
1761914270580233200,5.088233154296875,-0.8088433146476746,-0.23264868557453156,0.7621561884880066
1761914270590289200,5.0982890625,-0.8144026398658752,-0.37346598505973816,0.7372753620147705
1761914270600346000,5.10834619140625,-0.8115975260734558,-0.4633684456348419,0.6718937158584595
1761914270610402000,5.118402099609375,-0.8019193410873413,-0.5080856084823608,0.5776937007904053
1761914270620458200,5.128458251953125,-0.7740134000778198,-0.5282220244407654,0.4636233150959015
1761914270630514200,5.13851416015625,-0.7269814610481262,-0.526537299156189,0.33233213424682617
1761914270640570000,5.148570068359375,-0.6656504273414612,-0.5025057196617126,0.19008605182170868
1761914270650626300,5.158626220703125,-0.6076276302337646,-0.44038325548171997,0.046301450580358505
1761914270660683300,5.168683349609375,-0.5682567954063416,-0.374146968126297,-0.09683120250701904
1761914270670739200,5.1787392578125,-0.5441876649856567,-0.31062230467796326,-0.23184548318386078
1761914270680795100,5.188795166015625,-0.5400776267051697,-0.2885609567165375,-0.3536992073059082
1761914270690851300,5.198851318359375,-0.5500383973121643,-0.28965872526168823,-0.4571835398674011
1761914270700907300,5.2089072265625,-0.573754072189331,-0.28903207182884216,-0.544394314289093
1761914270710963000,5.218962890625,-0.6150767803192139,-0.29170507192611694,-0.5967416763305664
1761914270721020200,5.229020263671875,-0.6759427785873413,-0.31526660919189453,-0.6200243830680847
1761914270731076400,5.239076416015625,-0.7647554874420166,-0.34981420636177063,-0.6173545718193054
1761914270741132000,5.249132080078125,-0.8746020793914795,-0.3745642900466919,-0.6027556657791138
1761914270751188000,5.25918798828125,-0.9835610389709473,-0.3806450664997101,-0.580099880695343
1761914270761244200,5.269244140625,-1.0679177045822144,-0.3637164235115051,-0.5605037808418274
1761914270771300000,5.279300048828125,-1.1231836080551147,-0.3446955978870392,-0.5392767786979675
1761914270781357000,5.289357177734375,-1.152815580368042,-0.3615294396877289,-0.5052594542503357
1761914270791413000,5.2994130859375,-1.1578519344329834,-0.3990211486816406,-0.4598243236541748
1761914270801469200,5.30946923828125,-1.1348658800125122,-0.4469018578529358,-0.40300896763801575
1761914270811525000,5.319525146484375,-1.0706069469451904,-0.4661133885383606,-0.34325483441352844
1761914270821581000,5.3295810546875,-0.9719874858856201,-0.45917850732803345,-0.27616313099861145
1761914270831638000,5.339637939453125,-0.8539055585861206,-0.41965052485466003,-0.21042434871196747
1761914270841694200,5.349694091796875,-0.7310992479324341,-0.36737000942230225,-0.13880795240402222
1761914270851750100,5.359750244140625,-0.6160887479782104,-0.3028576076030731,-0.0639752522110939
1761914270861806000,5.36980615234375,-0.5106214284896851,-0.2353089153766632,0.02238946221768856
1761914270871862300,5.3798623046875,-0.4074271619319916,-0.1640579104423523,0.10354476422071457
1761914270881918200,5.389918212890625,-0.2946673333644867,-0.08399583399295807,0.18552938103675842
1761914270891975200,5.39997509765625,-0.1732034683227539,0.014782674610614777,0.260130375623703
1761914270902031000,5.410031005859375,-0.035058651119470596,0.12009018659591675,0.3305946886539459
1761914270912087300,5.42008740234375,0.11819162219762802,0.2235012650489807,0.39605918526649475
1761914270922143200,5.430143310546875,0.2841310501098633,0.3218376934528351,0.45989835262298584
1761914270932199200,5.44019921875,0.4531587064266205,0.42556995153427124,0.5282310843467712
1761914270942255000,5.450255126953125,0.6127268075942993,0.507628858089447,0.6168477535247803
1761914270952312300,5.460312255859375,0.7389994859695435,0.5937474966049194,0.7148704528808594
1761914270962368000,5.470367919921875,0.8291522860527039,0.640403687953949,0.8080166578292847
1761914270972424000,5.480423828125,0.8870808482170105,0.676189124584198,0.8784726858139038
1761914270982480100,5.490480224609375,0.9171721935272217,0.706666886806488,0.9255414009094238
1761914270992536000,5.5005361328125,0.934499204158783,0.741413950920105,0.9398729801177979
1761914271002593000,5.510593017578125,0.9335585832595825,0.788041889667511,0.9357767701148987
1761914271012649000,5.52064892578125,0.9273012280464172,0.8677907586097717,0.8971585035324097
1761914271022705200,5.530705078125,0.933441698551178,0.9566428661346436,0.823681652545929
1761914271032761000,5.540760986328125,0.9599795341491699,1.025117039680481,0.716550886631012
1761914271042817000,5.550817138671875,0.9895632863044739,1.093130111694336,0.5793635249137878
1761914271052873200,5.560873291015625,1.001343011856079,1.1829180717468262,0.46071967482566833
1761914271062930200,5.57093017578125,0.9754919409751892,1.2003085613250732,0.3896484375
1761914271072986000,5.580986083984375,0.9089962840080261,1.1449651718139648,0.3436204791069031
1761914271083042000,5.5910419921875,0.8085405230522156,1.093721628189087,0.2911756634712219
1761914271093098200,5.60109814453125,0.7049168944358826,1.048221468925476,0.23678138852119446
1761914271103154200,5.611154296875,0.6102122068405151,0.9891214370727539,0.18819573521614075
1761914271113210000,5.621210205078125,0.5314977169036865,0.9335977435112,0.1546178013086319
1761914271123267000,5.63126708984375,0.474903404712677,0.8944330215454102,0.1499956250190735
1761914271133323300,5.6413232421875,0.42530763149261475,0.8191100358963013,0.1721659004688263
1761914271143379200,5.651379150390625,0.39211663603782654,0.7010920643806458,0.21314795315265656
1761914271153435100,5.66143505859375,0.3768351674079895,0.5457985997200012,0.2579069137573242
1761914271163491000,5.671490966796875,0.39719662070274353,0.4014725983142853,0.29251015186309814
1761914271173548300,5.68154833984375,0.4391099810600281,0.3224177360534668,0.3056725561618805
1761914271183604200,5.691604248046875,0.5070288777351379,0.3274862468242645,0.2817155718803406
1761914271193660000,5.701659912109375,0.6017066240310669,0.39808905124664307,0.21567343175411224
1761914271203716000,5.711716064453125,0.7127007842063904,0.4919295310974121,0.13035480678081512
1761914271213772000,5.72177197265625,0.8107376098632812,0.5871396660804749,0.030953921377658844
1761914271223828000,5.731827880859375,0.8929917216300964,0.6646522879600525,-0.07006270438432693
1761914271233885000,5.741885009765625,0.9514726400375366,0.7228937745094299,-0.15751080214977264
1761914271243941000,5.751941162109375,0.9824337363243103,0.7307799458503723,-0.21595999598503113
1761914271253997000,5.7619970703125,0.9972797632217407,0.6356065273284912,-0.24690991640090942
1761914271264053000,5.772052978515625,0.9839075207710266,0.4405837655067444,-0.24538685381412506
1761914271274109200,5.782109130859375,0.9449207186698914,0.18667134642601013,-0.21354050934314728
1761914271284165000,5.7921650390625,0.883527398109436,-0.0537327378988266,-0.15323589742183685
1761914271294222000,5.80222216796875,0.8220475316047668,-0.22247302532196045,-0.07231094688177109
1761914271304278000,5.812278076171875,0.768545925617218,-0.3197649419307709,0.010057960636913776
1761914271314334200,5.822334228515625,0.735073983669281,-0.3733181953430176,0.09978731721639633
1761914271324390100,5.83239013671875,0.7061827182769775,-0.38451650738716125,0.1934964954853058
1761914271334446000,5.842446044921875,0.6627960801124573,-0.36483922600746155,0.2834396958351135
1761914271344502300,5.852502197265625,0.6087427139282227,-0.2887772023677826,0.3585142195224762
1761914271354559200,5.862559326171875,0.5393449664115906,-0.17943286895751953,0.4236316978931427
1761914271364615200,5.872615234375,0.46042191982269287,-0.11965742707252502,0.4890333414077759
1761914271374671000,5.882671142578125,0.37584632635116577,-0.11285491287708282,0.5492253303527832
1761914271384727300,5.892727294921875,0.2909325063228607,-0.07755924016237259,0.5922976732254028
1761914271394783000,5.902782958984375,0.23009072244167328,0.011666242964565754,0.6120647192001343
1761914271404839000,5.9128388671875,0.2077404111623764,0.09912791848182678,0.6247317790985107
1761914271414896000,5.922896240234375,0.23277758061885834,0.12469585984945297,0.6318722367286682
1761914271424952000,5.9329521484375,0.30874958634376526,0.13445501029491425,0.6240923404693604
1761914271435008000,5.943008056640625,0.4296451210975647,0.18535494804382324,0.5875353813171387
1761914271445064200,5.953064208984375,0.56224125623703,0.288254976272583,0.5140185952186584
1761914271455120100,5.9631201171875,0.6706380248069763,0.39250439405441284,0.4355948865413666
1761914271465173800,5.973173828125,0.7227829694747925,0.4494694173336029,0.40532273054122925
1761914271475229700,5.983229736328125,0.7110557556152344,0.42511507868766785,0.4419614374637604
1761914271485285600,5.99328564453125,0.6438689827919006,0.30557137727737427,0.5546237826347351
1761914271495341800,6.003341796875,0.5483754873275757,0.13037239015102386,0.7174755930900574
1761914271505397800,6.013397705078125,0.4691142141819,-0.046487607061862946,0.8935355544090271
1761914271515453700,6.02345361328125,0.4417819380760193,-0.18143689632415771,1.053283929824829
1761914271525511000,6.033510986328125,0.46770647168159485,-0.25462988018989563,1.1815379858016968
1761914271535566800,6.04356689453125,0.550823450088501,-0.2547188401222229,1.277753233909607
1761914271545622800,6.053622802734375,0.6606631278991699,-0.13071461021900177,1.3235784769058228
1761914271555678700,6.0636787109375,0.7590006589889526,0.09411264955997467,1.328698992729187
1761914271565735000,6.07373486328125,0.789979875087738,0.33331671357154846,1.2968957424163818
1761914271575790800,6.083790771484375,0.7366713881492615,0.46088266372680664,1.2334624528884888
1761914271585847800,6.093847900390625,0.6273387670516968,0.43378233909606934,1.156402587890625
1761914271595904000,6.103904052734375,0.493695467710495,0.27853283286094666,1.0993348360061646
1761914271605960000,6.1139599609375,0.36818280816078186,0.034810177981853485,1.0626550912857056
1761914271616016000,6.124015869140625,0.25429567694664,-0.21884340047836304,1.0348879098892212
1761914271626071800,6.13407177734375,0.16779619455337524,-0.4866817593574524,0.9807327389717102
1761914271636129000,6.14412890625,0.13172021508216858,-0.7230703234672546,0.8789475560188293
1761914271646185000,6.15418505859375,0.12738138437271118,-0.8370909094810486,0.7123132944107056
1761914271656241000,6.164240966796875,0.12663570046424866,-0.7726674675941467,0.5064120888710022
1761914271666296800,6.174296875,0.11795060336589813,-0.6034555435180664,0.2886754870414734
1761914271676352800,6.184352783203125,0.08992908895015717,-0.4182355999946594,0.09670630097389221
1761914271686408700,6.19440869140625,0.04379887878894806,-0.2591007947921753,-0.05317506939172745
1761914271696465700,6.204465576171875,-0.03502589464187622,-0.11967713385820389,-0.1296543926000595
1761914271706521900,6.21452197265625,-0.14306101202964783,0.0008820389630272985,-0.13603639602661133
1761914271716577800,6.224577880859375,-0.25949177145957947,0.10935099422931671,-0.10371015220880508
1761914271726633700,6.2346337890625,-0.3446023762226105,0.18638718128204346,-0.06738249957561493
1761914271736690000,6.24468994140625,-0.3917376697063446,0.22626802325248718,-0.05944228917360306
1761914271746745900,6.254745849609375,-0.4139963686466217,0.23379464447498322,-0.08576896786689758
1761914271756802800,6.264802734375,-0.42018210887908936,0.21441669762134552,-0.15069043636322021
1761914271766858800,6.274858642578125,-0.42369455099105835,0.15604180097579956,-0.2357534021139145
1761914271776915000,6.2849150390625,-0.4343988597393036,0.06356459110975266,-0.3329284191131592
1761914271786971000,6.294970947265625,-0.4537903964519501,-0.04067791998386383,-0.41460543870925903
1761914271797026800,6.30502685546875,-0.47765710949897766,-0.1186896339058876,-0.4757620096206665
1761914271807083000,6.3150830078125,-0.4952464997768402,-0.12094719707965851,-0.5148473381996155
1761914271817140000,6.325139892578125,-0.4744328260421753,-0.028873993083834648,-0.53303462266922
1761914271827196000,6.33519580078125,-0.43857043981552124,0.11307142674922943,-0.523990273475647
1761914271837251800,6.345251953125,-0.41891124844551086,0.05823347717523575,-0.4525613486766815
1761914271847308000,6.35530810546875,-0.4246008098125458,0.005062669049948454,-0.34221354126930237
1761914271857364000,6.365364013671875,-0.43316102027893066,-0.07861784845590591,-0.20724906027317047
1761914271867419600,6.375419677734375,-0.3895195424556732,-0.1862311214208603,-0.07225502282381058
1761914271877476900,6.385476806640625,-0.3085058927536011,-0.25670182704925537,0.03966885060071945
1761914271887533000,6.395532958984375,-0.2087572067975998,-0.29793980717658997,0.1310453712940216
1761914271897588700,6.405588623046875,-0.1067056730389595,-0.2984316945075989,0.17505410313606262
1761914271907644700,6.415644775390625,-0.009682455100119114,-0.23050165176391602,0.17327937483787537
1761914271917700900,6.425700927734375,0.0698818787932396,-0.12378985434770584,0.14670422673225403
1761914271927756800,6.4357568359375,0.1271856427192688,-0.014191985130310059,0.10436848551034927
1761914271937813800,6.445813720703125,0.1498238444328308,0.07772541791200638,0.06460215896368027
1761914271947869700,6.45586962890625,0.13473011553287506,0.15071973204612732,0.009610815905034542
1761914271957926000,6.46592578125,0.09152352809906006,0.1772432178258896,-0.06344901025295258
1761914271967981800,6.47598193359375,0.03407514467835426,0.16988463699817657,-0.15560877323150635
1761914271978037800,6.486037841796875,-0.017602695152163506,0.1555166244506836,-0.2713199257850647
1761914271988094000,6.496093994140625,-0.05525153875350952,0.14745523035526276,-0.37824344635009766
1761914271998151000,6.50615087890625,-0.09121273458003998,0.139533132314682,-0.4485951066017151
1761914272008206800,6.516206787109375,-0.11663500219583511,0.14004898071289062,-0.49300092458724976
1761914272018262800,6.5262626953125,-0.12848074734210968,0.14315423369407654,-0.5054306983947754
1761914272028319000,6.536319091796875,-0.12545858323574066,0.16891498863697052,-0.492312490940094
1761914272038375000,6.546375,-0.10595732182264328,0.21408912539482117,-0.47119787335395813
1761914272048431900,6.556431884765625,-0.08463632315397263,0.2642627954483032,-0.44290977716445923
1761914272058487800,6.56648779296875,-0.07885593175888062,0.30952057242393494,-0.38567498326301575
1761914272068544000,6.5765439453125,-0.07835392653942108,0.34746822714805603,-0.2881854474544525
1761914272078600000,6.586599853515625,-0.07919628173112869,0.4463236927986145,-0.15041480958461761
1761914272088656000,6.59665576171875,0.004219246096909046,0.6748157143592834,0.011636416427791119
1761914272098711800,6.6067119140625,0.22192680835723877,0.8701444864273071,0.13297057151794434
1761914272108769000,6.61676904296875,0.34893563389778137,1.0571238994598389,0.16266508400440216
1761914272118824700,6.62682470703125,0.339557021856308,1.164314866065979,0.2690066993236542
1761914272128880600,6.636880615234375,0.25594601035118103,1.235954999923706,0.38495275378227234
1761914272138936800,6.646936767578125,0.18343427777290344,1.14129638671875,0.45958542823791504
1761914272148992800,6.65699267578125,0.14223144948482513,0.8871383666992188,0.5193355679512024
1761914272159048700,6.667048583984375,0.08728457242250443,0.6612301468849182,0.5751293301582336
1761914272169105700,6.677105712890625,0.022549251094460487,0.5237748026847839,0.6142730116844177
1761914272179161900,6.687161865234375,0.001957689644768834,0.4324566125869751,0.6150532960891724
1761914272189217800,6.6972177734375,0.04258980602025986,0.29564815759658813,0.5639821290969849
1761914272199273700,6.707273681640625,0.0973406657576561,0.13181474804878235,0.47558942437171936
1761914272209330000,6.717329833984375,0.16737034916877747,-0.08175132423639297,0.3222163915634155
1761914272219385900,6.7273857421875,0.2491304576396942,-0.3568854331970215,0.1334667205810547
1761914272229442800,6.73744287109375,0.3080635666847229,-0.6411541700363159,-0.05784732103347778
1761914272239498800,6.747498779296875,0.3441011905670166,-0.8025467991828918,-0.19510504603385925
1761914272249555000,6.757554931640625,0.37183961272239685,-0.9113840460777283,-0.3203950524330139
1761914272259611000,6.76761083984375,0.3653281629085541,-0.9604032635688782,-0.4180028438568115
1761914272269666800,6.777666748046875,0.32859891653060913,-0.9780954122543335,-0.4743127226829529
1761914272279723000,6.787722900390625,0.26697948575019836,-0.963554859161377,-0.48413312435150146
1761914272289780000,6.797780029296875,0.19429756700992584,-0.9178973436355591,-0.4428749084472656
1761914272299836000,6.8078359375,0.12484552711248398,-0.8109415769577026,-0.3616141378879547
1761914272309891800,6.817891845703125,0.055691491812467575,-0.6609654426574707,-0.2510620653629303
1761914272319947800,6.82794775390625,0.0020623519085347652,-0.5193478465080261,-0.14521311223506927
1761914272330003700,6.838003662109375,-0.049727607518434525,-0.413032591342926,-0.06791140884160995
1761914272340059600,6.8480595703125,-0.11160535365343094,-0.3786778151988983,-0.007224357221275568
1761914272350116600,6.85811669921875,-0.172127828001976,-0.3671306073665619,0.0498834028840065
1761914272360172800,6.8681728515625,-0.2128145396709442,-0.2886006534099579,0.09297654777765274
1761914272370228700,6.878228759765625,-0.24541641771793365,-0.1425531506538391,0.12290408462285995
1761914272380284700,6.88828466796875,-0.27312713861465454,0.03311401233077049,0.1362965852022171
1761914272390340900,6.8983408203125,-0.2943000793457031,0.1897859126329422,0.14620435237884521
1761914272400396800,6.908396728515625,-0.29221346974372864,0.2776696979999542,0.1632472425699234
1761914272410453800,6.918453857421875,-0.2565564215183258,0.2938832938671112,0.19614367187023163
1761914272420509700,6.928509765625,-0.19272205233573914,0.282879114151001,0.2261822670698166
1761914272430566000,6.93856591796875,-0.11179204285144806,0.2784462869167328,0.24644333124160767
1761914272440621800,6.948621826171875,-0.033736392855644226,0.2905418276786804,0.24861088395118713
1761914272450677800,6.958677734375,0.046962980180978775,0.29364705085754395,0.25018295645713806
1761914272460734000,6.96873388671875,0.11836978793144226,0.28061676025390625,0.2477181851863861
1761914272470791200,6.978791259765625,0.19263575971126556,0.2653230130672455,0.2469932734966278
1761914272480847000,6.98884716796875,0.2795669436454773,0.26696351170539856,0.24191676080226898
1761914272490903000,6.998903076171875,0.37142467498779297,0.3235144019126892,0.22610662877559662
1761914272500959200,7.008959228515625,0.4564197361469269,0.42087745666503906,0.20276854932308197
1761914272511015200,7.01901513671875,0.5281274914741516,0.5280460119247437,0.1801583170890808
1761914272521071000,7.029071044921875,0.5896824598312378,0.6110734939575195,0.1659434288740158
1761914272531128000,7.039128173828125,0.6341788172721863,0.6618847250938416,0.13414502143859863
1761914272541184300,7.049184326171875,0.6585230231285095,0.6997551321983337,0.0815393328666687
1761914272551240200,7.059240234375,0.672534167766571,0.7177802324295044,0.018986474722623825
1761914272561296100,7.069296142578125,0.6519684791564941,0.710332453250885,-0.055991631001234055
1761914272571352300,7.079352294921875,0.6127510070800781,0.659902811050415,-0.14137044548988342
1761914272581408000,7.089407958984375,0.5445562601089478,0.5612865090370178,-0.21832861006259918
1761914272591464000,7.0994638671875,0.46129652857780457,0.41263630986213684,-0.27702227234840393
1761914272601521000,7.10952099609375,0.37717312574386597,0.22445254027843475,-0.3099794387817383
1761914272611577000,7.1195771484375,0.29384467005729675,0.0380065031349659,-0.3266843855381012
1761914272621633000,7.129633056640625,0.2060314565896988,-0.0887165516614914,-0.3240284025669098
1761914272631689000,7.13968896484375,0.13109330832958221,-0.1681828796863556,-0.29385557770729065
1761914272641745200,7.1497451171875,0.06254486739635468,-0.2386983335018158,-0.23535819351673126
1761914272651801000,7.159801025390625,-0.0073388731107115746,-0.28461894392967224,-0.16637006402015686
1761914272661858000,7.169858154296875,-0.06886161863803864,-0.28636518120765686,-0.08689548075199127
1761914272671914000,7.1799140625,-0.11356597393751144,-0.25452497601509094,-0.008289887569844723
1761914272681970200,7.18997021484375,-0.1238337904214859,-0.21176844835281372,0.06833644956350327
1761914272692026000,7.200026123046875,-0.09975908696651459,-0.1729384958744049,0.13915975391864777
1761914272702082000,7.21008203125,-0.06570897251367569,-0.15079110860824585,0.19807979464530945
1761914272712138200,7.22013818359375,-0.02713468112051487,-0.15061055123806,0.24150130152702332
1761914272722195200,7.2301953125,0.006610231939703226,-0.1544867753982544,0.2737383246421814
1761914272732251100,7.240251220703125,0.031030885875225067,-0.1593686193227768,0.29708465933799744
1761914272742307000,7.25030712890625,0.04766525700688362,-0.12830443680286407,0.3171646296977997
1761914272752363300,7.26036328125,0.057849984616041183,-0.08279021829366684,0.3386307954788208
1761914272762419200,7.270419189453125,0.049492184072732925,-0.019268237054347992,0.37397411465644836
1761914272772475100,7.28047509765625,0.03852049261331558,0.043231360614299774,0.41483074426651
1761914272782532000,7.290531982421875,0.021571071818470955,0.073961041867733,0.4522830545902252
1761914272792588300,7.30058837890625,0.0013198626693338156,0.055217716842889786,0.48745009303092957
1761914272802644000,7.31064404296875,-0.029499301686882973,0.03050251491367817,0.5096869468688965
1761914272812700200,7.3207001953125,-0.05847875773906708,0.03459552675485611,0.5072458982467651
1761914272822756000,7.330756103515625,-0.08024530112743378,0.05787928029894829,0.481329083442688
1761914272832812000,7.34081201171875,-0.10274741798639297,0.07819866389036179,0.44071081280708313
1761914272842869000,7.350868896484375,-0.1283441185951233,0.111533984541893,0.38454315066337585
1761914272852925200,7.36092529296875,-0.1544010192155838,0.19471009075641632,0.294833779335022
1761914272862981000,7.370981201171875,-0.1613617241382599,0.33928272128105164,0.1724034547805786
1761914272873037000,7.381037109375,-0.14681340754032135,0.48434749245643616,0.04898511990904808
1761914272883093000,7.391093017578125,-0.13043257594108582,0.5545646548271179,-0.04447212815284729
1761914272893149200,7.401149169921875,-0.09787090122699738,0.5430529117584229,-0.08576017618179321
1761914272903206100,7.4112060546875,-0.045879874378442764,0.4637141227722168,-0.08450476080179214
1761914272913262000,7.421261962890625,0.013652428984642029,0.33735114336013794,-0.04486547410488129
1761914272923318300,7.431318359375,0.06731485575437546,0.18278472125530243,0.021759090945124626
1761914272933374200,7.441374267578125,0.11812690645456314,0.05500173196196556,0.10555624961853027
1761914272943430100,7.45143017578125,0.1534113883972168,-0.034814439713954926,0.20659498870372772
1761914272953486000,7.461486083984375,0.17475023865699768,-0.10977177321910858,0.31984272599220276
1761914272963543300,7.471543212890625,0.1730644553899765,-0.2061302661895752,0.43829745054244995
1761914272973599200,7.48159912109375,0.15509557723999023,-0.31496381759643555,0.5411655306816101
1761914272983655200,7.4916552734375,0.1289752870798111,-0.3967697322368622,0.6024214029312134
1761914272993711400,7.50171142578125,0.11697082966566086,-0.39563149213790894,0.621493399143219
1761914273003767000,7.51176708984375,0.11685071885585785,-0.3410966098308563,0.6042195558547974
1761914273013823000,7.521822998046875,0.13735546171665192,-0.242421954870224,0.5602641105651855
1761914273023880200,7.531880126953125,0.1690441519021988,-0.10960585623979568,0.48991137742996216
1761914273033936100,7.54193603515625,0.21224941313266754,0.03412627801299095,0.39535585045814514
1761914273043992000,7.551991943359375,0.25571271777153015,0.17929412424564362,0.2910579442977905
1761914273054048000,7.562048095703125,0.2975142300128937,0.3111482858657837,0.20411904156208038
1761914273064104200,7.572104248046875,0.3329273462295532,0.40601596236228943,0.13238760828971863
1761914273074160000,7.58216015625,0.3517915904521942,0.4496521055698395,0.07706442475318909
1761914273084216000,7.592216064453125,0.35258200764656067,0.46974432468414307,0.016760338097810745
1761914273094273000,7.60227294921875,0.3378821611404419,0.4943159818649292,-0.061041250824928284
1761914273104329200,7.6123291015625,0.3221122622489929,0.4972531795501709,-0.15164199471473694
1761914273114385200,7.62238525390625,0.30180487036705017,0.4236367642879486,-0.24740126729011536
1761914273124441000,7.632441162109375,0.2613072395324707,0.2900632619857788,-0.3326682448387146
1761914273134497300,7.642497314453125,0.20046359300613403,0.1372273564338684,-0.41552209854125977
1761914273144553200,7.65255322265625,0.13350586593151093,-0.010385529138147831,-0.49241262674331665
1761914273154610200,7.662610107421875,0.0518040768802166,-0.12746581435203552,-0.5559098124504089
1761914273164666000,7.672666015625,-0.03447222337126732,-0.18737389147281647,-0.6010555028915405
1761914273174722300,7.682722412109375,-0.11726084351539612,-0.21858321130275726,-0.6188856363296509
1761914273184778200,7.6927783203125,-0.186736062169075,-0.23409292101860046,-0.5865780115127563
1761914273194834200,7.702834228515625,-0.23994575440883636,-0.26073572039604187,-0.5066256523132324
1761914273204890000,7.71289013671875,-0.2755221128463745,-0.2877865135669708,-0.4002193212509155
1761914273214947300,7.722947265625,-0.2810031771659851,-0.2937842309474945,-0.2824077308177948
1761914273225003300,7.733003173828125,-0.26432111859321594,-0.2840365171432495,-0.17695534229278564
1761914273235059000,7.743058837890625,-0.23369398713111877,-0.2769423723220825,-0.0835990235209465
1761914273245115100,7.753115234375,-0.20358401536941528,-0.2633168697357178,-0.008985505439341068
1761914273255171000,7.763171142578125,-0.1683080494403839,-0.2496713548898697,0.03934687376022339
1761914273265227000,7.77322705078125,-0.13274472951889038,-0.2204897701740265,0.06841474026441574
1761914273275284000,7.783283935546875,-0.10654854774475098,-0.17928986251354218,0.08378970623016357
1761914273285340200,7.793340087890625,-0.09159675985574722,-0.11211615055799484,0.09160315245389938
1761914273295396000,7.80339599609375,-0.09902910888195038,-0.031985096633434296,0.08806408196687698
1761914273305452000,7.8134521484375,-0.10177802294492722,0.04626283794641495,0.05721375346183777
1761914273315508200,7.82350830078125,-0.09754440188407898,0.10549154132604599,0.017008278518915176
1761914273325564200,7.833564208984375,-0.09451878070831299,0.13359534740447998,-0.02185230143368244
1761914273335620000,7.8436201171875,-0.08022533357143402,0.11395826190710068,-0.04138632118701935
1761914273345677000,7.853677001953125,-0.062123026698827744,0.06621337682008743,-0.03475957736372948
1761914273355733200,7.863733154296875,-0.04977208375930786,-0.005302620120346546,-0.0014239922165870667
1761914273365789200,7.8737890625,-0.0474838949739933,-0.07461165636777878,0.039873912930488586
1761914273375845000,7.88384521484375,-0.0523710623383522,-0.14098161458969116,0.09409534186124802
1761914273385901300,7.8939013671875,-0.06864111125469208,-0.17283089458942413,0.1316368579864502
1761914273395957200,7.903957275390625,-0.07610542327165604,-0.1647372841835022,0.1536119282245636
1761914273406014200,7.91401416015625,-0.0736401304602623,-0.12122602760791779,0.16161926090717316
1761914273416070100,7.924070068359375,-0.06487007439136505,-0.06281251460313797,0.17385780811309814
1761914273426126300,7.934126220703125,-0.05957864224910736,-0.01818113401532173,0.2032995969057083
1761914273436182000,7.94418212890625,-0.0383247509598732,0.001674861996434629,0.23802880942821503
1761914273446238000,7.954238037109375,-0.003938016481697559,-0.017410149797797203,0.2524988353252411
1761914273456294100,7.964294189453125,0.0354035310447216,-0.03418087214231491,0.236333966255188
1761914273466351400,7.974351318359375,0.07711555808782578,-0.03473933786153793,0.195459246635437
1761914273476407300,7.9844072265625,0.12903468310832977,-0.009501892141997814,0.11801505088806152
1761914273486463200,7.994463134765625,0.17959852516651154,0.017539046704769135,0.02628912776708603
1761914273496519400,8.00451953125,0.229159414768219,0.03344584256410599,-0.08607443422079086
1761914273506575000,8.0145751953125,0.25600114464759827,0.0306340754032135,-0.20219464600086212
1761914273516628200,8.024628173828125,0.22460460662841797,-0.0458548404276371,-0.31651589274406433
1761914273526684200,8.03468408203125,0.07845406234264374,-0.4238032102584839,-0.3984411060810089
1761914273536741400,8.044741455078125,-0.1623114049434662,-0.5369305610656738,-0.4926547110080719
1761914273546797300,8.05479736328125,-0.26708710193634033,-0.1775795817375183,-0.6312991380691528
1761914273556853200,8.064853271484376,-0.16718339920043945,-0.17212648689746857,-0.6765726208686829
1761914273566909400,8.074909423828124,-0.20939131081104279,-0.3729269802570343,-0.6177992820739746
1761914273576965000,8.084965087890625,-0.3377106487751007,-0.4123886227607727,-0.5659536719322205
1761914273587021000,8.09502099609375,-0.4195762276649475,-0.38431650400161743,-0.5239614844322205
1761914273597078300,8.105078369140625,-0.4197773039340973,-0.36368048191070557,-0.46942901611328125
1761914273607134200,8.11513427734375,-0.365969717502594,-0.3423546850681305,-0.38981541991233826
1761914273617190100,8.125190185546876,-0.30058538913726807,-0.3334759771823883,-0.27114948630332947
1761914273627246000,8.13524609375,-0.2463378757238388,-0.3536219894886017,-0.11907046288251877
1761914273637302300,8.14530224609375,-0.21673311293125153,-0.38034868240356445,0.04941122606396675
1761914273647358200,8.155358154296875,-0.20678193867206573,-0.3626953661441803,0.19838392734527588
1761914273657414100,8.1654140625,-0.20971834659576416,-0.29273971915245056,0.32094287872314453
1761914273667471000,8.17547119140625,-0.2199893593788147,-0.1816057413816452,0.39979133009910583
1761914273677527300,8.18552734375,-0.21572110056877136,-0.03283997252583504,0.42644426226615906
1761914273687583200,8.195583251953124,-0.19452448189258575,0.10480523854494095,0.39289748668670654
1761914273697639200,8.20563916015625,-0.16990754008293152,0.2388669103384018,0.3124564290046692
1761914273707695400,8.2156953125,-0.1422351747751236,0.3892287015914917,0.18768654763698578
1761914273717751300,8.225751220703126,-0.1152203306555748,0.5179451704025269,0.04951535537838936
1761914273727808300,8.235808349609375,-0.09671242535114288,0.5882946848869324,-0.06953753530979156
1761914273737864200,8.2458642578125,-0.09141326695680618,0.5972940325737,-0.14463362097740173
1761914273747920400,8.25592041015625,-0.10890411585569382,0.5145943760871887,-0.1717270165681839
1761914273757976300,8.265976318359375,-0.15232029557228088,0.36613723635673523,-0.16455912590026855
1761914273768032300,8.2760322265625,-0.20589084923267365,0.19147010147571564,-0.14748266339302063
1761914273778088200,8.286088134765626,-0.24136468768119812,0.05216067284345627,-0.13967746496200562
1761914273788145400,8.2961455078125,-0.24750806391239166,-0.020684504881501198,-0.15128140151500702
1761914273798201300,8.306201416015625,-0.23733586072921753,-0.03732473403215408,-0.17012353241443634
1761914273808257000,8.316257080078126,-0.20669272541999817,-0.02365046739578247,-0.18131598830223083
1761914273818313200,8.326313232421874,-0.16314737498760223,0.015846608206629753,-0.1717989295721054
1761914273828369200,8.336369140625,-0.1037551537156105,0.07113649696111679,-0.143026664853096
1761914273838425000,8.346425048828126,-0.039512522518634796,0.12845571339130402,-0.10473094135522842
1761914273848481300,8.356481201171874,0.019751334562897682,0.16596926748752594,-0.0489230677485466
1761914273858538200,8.366538330078125,0.07888522744178772,0.16650375723838806,-0.0015108112711459398
1761914273868594200,8.37659423828125,0.14487862586975098,0.14409139752388,0.03524693846702576
1761914273878650000,8.386650146484374,0.20625996589660645,0.11939536780118942,0.06172355264425278
1761914273888706300,8.396706298828125,0.24934431910514832,0.08761107176542282,0.07958483695983887
1761914273898762200,8.40676220703125,0.2706541419029236,0.04481301084160805,0.08832799643278122
1761914273908818200,8.416818115234374,0.2617165744304657,-0.009504023008048534,0.08860523253679276
1761914273918875100,8.426875244140625,0.23540985584259033,-0.06245112791657448,0.08414576947689056
1761914273928931300,8.436931396484376,0.19771334528923035,-0.09601787477731705,0.06665359437465668
1761914273938987300,8.4469873046875,0.16314683854579926,-0.09647806733846664,0.04465162381529808
1761914273949043200,8.457043212890625,0.1189626082777977,-0.0914878398180008,0.036974795162677765
1761914273959099400,8.467099365234375,0.07212905585765839,-0.09556247293949127,0.03624642267823219
1761914273969155300,8.4771552734375,0.02653121016919613,-0.09602826088666916,0.034806184470653534
1761914273979211000,8.4872109375,-0.015254054218530655,-0.07576986402273178,0.028142422437667847
1761914273989268200,8.497268310546875,-0.042327217757701874,-0.044670797884464264,0.019390741363167763
1761914273999324400,8.507324462890624,-0.050149451941251755,-0.029453495517373085,0.021762020885944366
1761914274009380000,8.517380126953125,-0.04559571295976639,-0.031004788354039192,0.0522400364279747
1761914274019436000,8.52743603515625,-0.04308648407459259,-0.04921495169401169,0.10654029250144958
1761914274029492200,8.5374921875,-0.04054715856909752,-0.07362069189548492,0.18037617206573486
1761914274039548200,8.547548095703124,-0.04063451290130615,-0.09508603811264038,0.25223252177238464
1761914274049605000,8.557605224609375,-0.0469810925424099,-0.1025647222995758,0.3123522996902466
1761914274059661000,8.5676611328125,-0.059577576816082,-0.10213010013103485,0.3624117374420166
1761914274069717200,8.57771728515625,-0.0673670545220375,-0.08419051021337509,0.39555343985557556
1761914274079773200,8.587773193359375,-0.07603271305561066,-0.059110190719366074,0.41168954968452454
1761914274089829000,8.5978291015625,-0.0833449587225914,-0.03316754102706909,0.43007946014404297
1761914274099885300,8.60788525390625,-0.08598201721906662,-0.02520442195236683,0.45134055614471436
1761914274109942300,8.6179423828125,-0.08219580352306366,-0.02604571543633938,0.47653084993362427
1761914274119998200,8.627998291015626,-0.08387865126132965,-0.046496663242578506,0.4956478178501129
1761914274130054100,8.63805419921875,-0.0836498886346817,-0.062441274523735046,0.502780556678772
1761914274140110300,8.6481103515625,-0.0757131353020668,-0.08749416470527649,0.48822081089019775
1761914274150166300,8.658166259765625,-0.057675812393426895,-0.12486922740936279,0.4696345925331116
1761914274160222200,8.66822216796875,-0.05239289999008179,-0.1445595771074295,0.4341985881328583
1761914274170278400,8.6782783203125,-0.05108528956770897,-0.11687575280666351,0.37660452723503113
1761914274180335400,8.68833544921875,-0.019327625632286072,-0.027632959187030792,0.28439125418663025
1761914274190391300,8.698391357421874,0.04265398532152176,0.09595821797847748,0.17936310172080994
1761914274200447200,8.708447265625,0.09947466105222702,0.1809769719839096,0.10658290237188339
1761914274210503200,8.718503173828125,0.14052888751029968,0.1826702058315277,0.08723876625299454
1761914274220559000,8.72855908203125,0.1646004021167755,0.11951760947704315,0.12240847200155258
1761914274230615000,8.738614990234375,0.16739271581172943,0.00446931691840291,0.18845778703689575
1761914274240672000,8.748672119140625,0.14510419964790344,-0.13189038634300232,0.26723942160606384
1761914274250728200,8.758728271484374,0.10935871303081512,-0.266818106174469,0.3190680146217346
1761914274260784000,8.7687841796875,0.0872853696346283,-0.34949275851249695,0.35153940320014954
1761914274270840000,8.778840087890625,0.07291974872350693,-0.36983612179756165,0.36283013224601746
1761914274280896300,8.788896240234376,0.0569319911301136,-0.334655225276947,0.37312376499176025
1761914274290952200,8.7989521484375,0.03970480337738991,-0.2715851664543152,0.3951990008354187
1761914274301008100,8.809008056640625,0.024413464590907097,-0.18418101966381073,0.4136091470718384
1761914274311065000,8.819065185546876,0.03436756134033203,-0.08716259896755219,0.41831550002098083
1761914274321121300,8.829121337890625,0.05939488485455513,-0.004320978652685881,0.4102751314640045
1761914274331177200,8.83917724609375,0.08495590090751648,0.03947896510362625,0.3932892382144928
1761914274341233200,8.849233154296876,0.11077125370502472,0.03254569321870804,0.37023186683654785
1761914274351289300,8.859289306640624,0.12647059559822083,-0.007940215058624744,0.33575722575187683
1761914274361345300,8.86934521484375,0.13851366937160492,-0.07650329917669296,0.2893977165222168
1761914274371402200,8.87940234375,0.1381533443927765,-0.1512736678123474,0.2314087301492691
1761914274381458200,8.889458251953124,0.13418257236480713,-0.20408974587917328,0.16305683553218842
1761914274391514400,8.899514404296875,0.12054292857646942,-0.20670843124389648,0.08085276931524277
1761914274401570300,8.9095703125,0.10239854454994202,-0.18007150292396545,-0.014688132330775261
1761914274411626000,8.9196259765625,0.08843665570020676,-0.14397980272769928,-0.11166580766439438
1761914274421682200,8.92968212890625,0.0833636000752449,-0.11945928633213043,-0.21861302852630615
1761914274431738000,8.939738037109375,0.07758347690105438,-0.10826575011014938,-0.33504191040992737
1761914274441795000,8.949795166015624,0.06053871288895607,-0.10211784392595291,-0.4576636850833893
1761914274451851000,8.95985107421875,0.02642468363046646,-0.10153195261955261,-0.5759450793266296
1761914274461907200,8.9699072265625,-0.03328472003340721,-0.1287582516670227,-0.6771669983863831
1761914274471966500,8.979966552734375,-0.110881507396698,-0.18313653767108917,-0.7516937255859375
1761914274482022400,8.9900224609375,-0.20031099021434784,-0.2545475959777832,-0.7950068712234497
1761914274492078600,9.00007861328125,-0.29830119013786316,-0.32265928387641907,-0.8096763491630554
1761914274502135600,9.010135498046875,-0.408967524766922,-0.36477184295654297,-0.79694002866745
1761914274512191500,9.02019140625,-0.5107924342155457,-0.38338175415992737,-0.7644425630569458
1761914274522247700,9.03024755859375,-0.6007151007652283,-0.36803367733955383,-0.7269470691680908
1761914274532303600,9.0403037109375,-0.663256824016571,-0.32644522190093994,-0.6770375967025757
1761914274542359600,9.050359619140625,-0.7124691009521484,-0.27797970175743103,-0.6121435761451721
1761914274552415500,9.06041552734375,-0.7341269850730896,-0.22492632269859314,-0.532961368560791
1761914274562472700,9.07047265625,-0.7305591702461243,-0.15669187903404236,-0.4586802124977112
1761914274572528600,9.080528564453125,-0.7062854766845703,-0.08562701940536499,-0.4070306122303009
1761914274582584600,9.09058447265625,-0.6698598265647888,-0.02640817128121853,-0.37937209010124207
1761914274592640500,9.100640625,-0.6295545101165771,0.004861334338784218,-0.36164289712905884
1761914274602696400,9.110696533203125,-0.5719468593597412,0.025895513594150543,-0.337909072637558
1761914274612752400,9.12075244140625,-0.5007443428039551,0.05871977284550667,-0.2992253303527832
1761914274622808600,9.13080859375,-0.40601301193237305,0.10815443098545074,-0.25980761647224426
1761914274632865500,9.140865478515625,-0.3099767565727234,0.15559172630310059,-0.2125849723815918
1761914274642921500,9.15092138671875,-0.2239002138376236,0.16993923485279083,-0.16484194993972778
1761914274652977400,9.160977294921874,-0.14973409473896027,0.14591433107852936,-0.11009187996387482
1761914274663033600,9.17103369140625,-0.07809320092201233,0.11052145063877106,-0.06697903573513031
1761914274673089500,9.181089599609376,-0.009370066225528717,0.08931256830692291,-0.0393412820994854
1761914274683145500,9.1911455078125,0.06023937091231346,0.07136153429746628,-0.016896424815058708
1761914274693202400,9.201202392578125,0.1301816999912262,0.07355650514364243,-0.008823585696518421
1761914274703258600,9.211258544921876,0.1876433938741684,0.09843682497739792,0.009222793392837048
1761914274713314600,9.221314453125,0.22861160337924957,0.11833836138248444,0.034090060740709305
1761914274723370500,9.23137060546875,0.2579069137573242,0.12898807227611542,0.06169132888317108
1761914274733426700,9.2414267578125,0.28190839290618896,0.13400040566921234,0.07394932210445404
1761914274743482600,9.251482666015624,0.31022655963897705,0.1432727426290512,0.06706345826387405
1761914274753539600,9.26153955078125,0.34363114833831787,0.1725960075855255,0.055335160344839096
1761914274763595500,9.271595458984375,0.38910114765167236,0.20364393293857574,0.04848604276776314
1761914274773651700,9.281651611328124,0.4284738600254059,0.2342713624238968,0.061411429196596146
1761914274783707600,9.291707763671875,0.4666779637336731,0.2548442780971527,0.09247880429029465
1761914274793763300,9.301763427734375,0.49638447165489197,0.25430017709732056,0.14348046481609344
1761914274803819500,9.311819580078126,0.5223617553710938,0.22363895177841187,0.20500189065933228
1761914274813875500,9.32187548828125,0.5481832027435303,0.21549633145332336,0.25621873140335083
1761914274823932400,9.331932373046875,0.5939956903457642,0.23242631554603577,0.2783421576023102
1761914274833988400,9.34198828125,0.6361380815505981,0.23723918199539185,0.2735319435596466
1761914274844044500,9.35204443359375,0.645861029624939,0.20190009474754333,0.2589239776134491
1761914274854100500,9.3621005859375,0.6411618590354919,0.18694698810577393,0.23751269280910492
1761914274864156400,9.372156494140626,0.6372923254966736,0.19436654448509216,0.19928380846977234
1761914274874212600,9.382212646484374,0.6333545446395874,0.2024388611316681,0.15232083201408386
1761914274884269600,9.39226953125,0.6248079538345337,0.18721622228622437,0.10459831357002258
1761914274894325500,9.402325439453126,0.6051524877548218,0.13664039969444275,0.057186055928468704
1761914274904381400,9.41238134765625,0.5845620036125183,0.09438056498765945,0.01564713567495346
1761914274914437600,9.422437744140625,0.5733397006988525,0.10576584190130234,-0.04586442559957504
1761914274924493600,9.43249365234375,0.5616838335990906,0.18066352605819702,-0.1239195466041565
1761914274934549500,9.442549560546874,0.550137996673584,0.26860055327415466,-0.2057662159204483
1761914274944605700,9.452605712890625,0.5290683507919312,0.32592350244522095,-0.26501354575157166
1761914274954662700,9.46266259765625,0.4906802475452423,0.31698355078697205,-0.2876160740852356
1761914274964718600,9.472718505859374,0.45508256554603577,0.26202628016471863,-0.2597130537033081
1761914274974774500,9.4827744140625,0.4193874001502991,0.17349135875701904,-0.18825379014015198
1761914274984830700,9.492830810546875,0.38010019063949585,0.06937241554260254,-0.07718692719936371
1761914274994886400,9.502886474609374,0.3537474274635315,0.0031971249263733625,0.038354046642780304
1761914275004942300,9.5129423828125,0.3463701903820038,0.010272877290844917,0.13096493482589722
1761914275014999300,9.522999267578125,0.3516264855861664,0.06951756030321121,0.1810837686061859
1761914275025055500,9.533055419921874,0.3699181377887726,0.16859248280525208,0.1863887906074524
1761914275035111400,9.543111328125,0.3904540240764618,0.3134591281414032,0.15261803567409515
1761914275045167400,9.55316748046875,0.4102242887020111,0.478415846824646,0.09381277859210968
1761914275055223600,9.5632236328125,0.42744746804237366,0.6295529007911682,0.015541941858828068
1761914275065279500,9.573279541015625,0.44060906767845154,0.7222253084182739,-0.06326285749673843
1761914275075335400,9.58333544921875,0.45548123121261597,0.7458432912826538,-0.13607901334762573
1761914275085392400,9.593392333984376,0.46259161829948425,0.7097893953323364,-0.1948259472846985
1761914275095448600,9.603448486328125,0.46520575881004333,0.6425802707672119,-0.2414909154176712
1761914275105504500,9.61350439453125,0.4595161974430084,0.5563167929649353,-0.266928106546402
1761914275115560400,9.623560546875,0.45613664388656616,0.46575412154197693,-0.2795725166797638
1761914275125616600,9.63361669921875,0.4517211318016052,0.4048750400543213,-0.2863484025001526
1761914275135672600,9.643672607421875,0.4560580849647522,0.3924995958805084,-0.293456107378006
1761914275145729500,9.6537294921875,0.4645306468009949,0.4253734052181244,-0.2982596457004547
1761914275155785500,9.663785400390625,0.49221155047416687,0.4718572795391083,-0.2799328565597534
1761914275165841700,9.673841552734375,0.5181683301925659,0.515853762626648,-0.23658457398414612
1761914275175897600,9.683897705078126,0.5543729066848755,0.5445138812065125,-0.16584649682044983
1761914275185953500,9.69395361328125,0.5971297025680542,0.5432249307632446,-0.08476655185222626
1761914275196009500,9.704009521484375,0.6550012826919556,0.5295096635818481,-0.001892175991088152
1761914275206066700,9.714066650390626,0.7116360664367676,0.5273064374923706,0.06550391018390656
1761914275216122400,9.724122314453124,0.7663307189941406,0.52690190076828,0.127728670835495
1761914275226178300,9.73417822265625,0.8136695027351379,0.5241748094558716,0.17754283547401428
1761914275236234500,9.744234375,0.8447661399841309,0.5218226909637451,0.22258566319942474
1761914275246290400,9.75429052734375,0.8687447309494019,0.5105458498001099,0.25471511483192444
1761914275256346400,9.764346435546875,0.8800093531608582,0.5002713203430176,0.2732587158679962
1761914275266402600,9.774402587890625,0.8839516043663025,0.48640692234039307,0.26537200808525085
1761914275276459500,9.78445947265625,0.8788290619850159,0.46598848700523376,0.24722710251808167
1761914275286515500,9.794515380859375,0.873443067073822,0.43455037474632263,0.22157500684261322
1761914275296571400,9.8045712890625,0.8581288456916809,0.4036065936088562,0.19455589354038239
1761914275306627600,9.814627685546874,0.8324924111366272,0.3701983094215393,0.1634722799062729
1761914275316683500,9.82468359375,0.8002524971961975,0.3281794786453247,0.12060044705867767
1761914275326739500,9.834739501953125,0.7617996335029602,0.2879337966442108,0.08864331990480423
1761914275336796400,9.84479638671875,0.7243494391441345,0.2638111412525177,0.05746142938733101
1761914275346852600,9.8548525390625,0.679551899433136,0.27158623933792114,0.028725920245051384
1761914275356908500,9.864908447265625,0.6358936429023743,0.30149248242378235,0.016807476058602333
1761914275366964500,9.874964599609376,0.5877386331558228,0.32352134585380554,0.01804717816412449
1761914275377020700,9.885020751953125,0.5369563698768616,0.3435661494731903,0.025791117921471596
1761914275387076600,9.89507666015625,0.49762922525405884,0.36307859420776367,0.029158417135477066
1761914275397133600,9.905133544921876,0.46750035881996155,0.38079315423965454,0.03158189356327057
1761914275407189500,9.915189453125,0.44527971744537354,0.38893231749534607,0.04865941405296326
1761914275417245400,9.925245361328125,0.4333043098449707,0.37637415528297424,0.09125693887472153
1761914275427301400,9.93530126953125,0.429620623588562,0.3480517268180847,0.15543006360530853
1761914275437357300,9.945357421875,0.42213526368141174,0.34782400727272034,0.21980533003807068
1761914275447413500,9.95541357421875,0.4114415943622589,0.36956846714019775,0.29030054807662964
1761914275457469400,9.965469482421875,0.4118690490722656,0.4097241461277008,0.34720322489738464
1761914275467526400,9.9755263671875,0.4200558662414551,0.44872453808784485,0.3834099769592285
1761914275477578800,9.985578857421874,0.4370947778224945,0.4572144150733948,0.3966027498245239
1761914275487635000,9.995635009765625,0.45801711082458496,0.42842617630958557,0.4076370298862457
1761914275497691000,10.00569091796875,0.4751446843147278,0.3731623888015747,0.4302384555339813
1761914275507746800,10.015746826171876,0.49026399850845337,0.3266809284687042,0.4594551920890808
1761914275517803000,10.025802978515625,0.5073327422142029,0.2831590175628662,0.4928776025772095
1761914275527860000,10.03585986328125,0.5205965638160706,0.20701231062412262,0.5387865304946899
1761914275537916000,10.045916015625,0.5231364369392395,0.1341008096933365,0.5817670226097107
1761914275547971800,10.055971923828125,0.5324870944023132,0.10444491356611252,0.5982074737548828
1761914275558027800,10.06602783203125,0.5529745221138,0.09936600178480148,0.5921434760093689
1761914275568083700,10.076083740234376,0.5832016468048096,0.11501020938158035,0.5745517015457153
1761914275578140000,10.086139892578124,0.6146559715270996,0.14967311918735504,0.5517460107803345
1761914275588196900,10.09619677734375,0.6470485329627991,0.20309533178806305,0.52809739112854
1761914275598252800,10.106252685546876,0.680834174156189,0.25273585319519043,0.511432945728302
1761914275608308700,10.116308837890625,0.7121061086654663,0.2872285842895508,0.4903702437877655
1761914275618365000,10.126364990234375,0.7419691681861877,0.3025204539299011,0.46961304545402527
1761914275628420900,10.1364208984375,0.7612797617912292,0.29872649908065796,0.4466105103492737
1761914275638476800,10.146476806640624,0.7720093727111816,0.28838786482810974,0.4242125153541565
1761914275648533800,10.15653369140625,0.7691757678985596,0.2791261672973633,0.41116249561309814
1761914275658590000,10.16658984375,0.7612326145172119,0.2517850995063782,0.41199955344200134
1761914275668646000,10.17664599609375,0.7361552715301514,0.2105575054883957,0.4310419261455536
1761914275678701800,10.186701904296875,0.7021616101264954,0.16822628676891327,0.4780278205871582
1761914275688758000,10.196758056640626,0.6666222214698792,0.14877882599830627,0.5433013439178467
1761914275698814000,10.20681396484375,0.6265155673027039,0.17193101346492767,0.6239421367645264
1761914275708870000,10.216869873046875,0.588103711605072,0.22451487183570862,0.7023029923439026
1761914275718926800,10.2269267578125,0.5619767904281616,0.31064069271087646,0.7726466655731201
1761914275728983000,10.236983154296874,0.556727945804596,0.40814781188964844,0.8239167928695679
1761914275739039000,10.2470390625,0.5630415081977844,0.4797559380531311,0.8552568554878235
1761914275749094700,10.2570947265625,0.5879785418510437,0.526084303855896,0.8524930477142334
1761914275759150800,10.26715087890625,0.6283251643180847,0.5654865503311157,0.8040437698364258
1761914275769206800,10.277206787109375,0.6745576858520508,0.5843207240104675,0.7147508859634399
1761914275779263700,10.287263671875,0.7100560069084167,0.5761932730674744,0.5865116715431213
1761914275789319700,10.297319580078126,0.7296374440193176,0.5468177795410156,0.424996018409729
1761914275799376000,10.3073759765625,0.7276960015296936,0.51890629529953,0.2314654439687729
1761914275809431800,10.317431884765625,0.6973993182182312,0.4721355736255646,0.007869907654821873
1761914275819487700,10.32748779296875,0.6291427612304688,0.3933342397212982,-0.22081467509269714
1761914275829544000,10.3375439453125,0.5470532178878784,0.2898866832256317,-0.42686688899993896
1761914275839601000,10.347600830078125,0.4522654712200165,0.1520601063966751,-0.5964450240135193
1761914275849656800,10.35765673828125,0.34923601150512695,-0.009512278251349926,-0.7001376152038574
1761914275859712800,10.367712646484375,0.2281751185655594,-0.19389064610004425,-0.7182025909423828
1761914275869769000,10.37776904296875,0.10583535581827164,-0.42064574360847473,-0.6619380116462708
1761914275879825000,10.387824951171876,0.02544384077191353,-0.6643074154853821,-0.54693603515625
1761914275889880800,10.397880859375,-0.008166050538420677,-0.8344109654426575,-0.4072982668876648
1761914275899937800,10.407937744140625,-0.0022482406347990036,-0.8892907500267029,-0.2737487256526947
1761914275909994000,10.417993896484376,0.03351641446352005,-0.8057993054389954,-0.15942001342773438
1761914275920050000,10.4280498046875,0.10279562324285507,-0.6456530690193176,-0.0692102313041687
1761914275930105900,10.43810595703125,0.1814448982477188,-0.46377378702163696,0.014674549922347069
1761914275940162000,10.448162109375,0.2567758560180664,-0.300287663936615,0.08202216774225235
1761914275950217700,10.4582177734375,0.33951494097709656,-0.1583494246006012,0.12010430544614792
1761914275960273700,10.468273681640625,0.4111633002758026,-0.015025022439658642,0.12130539119243622
1761914275970331000,10.478330810546876,0.4825410842895508,0.1377251148223877,0.09536939859390259
1761914275980386800,10.48838671875,0.5326521992683411,0.2828178405761719,0.061882276087999344
1761914275990442800,10.49844287109375,0.5485408902168274,0.39627596735954285,0.04867193102836609
1761914276000498700,10.508498779296875,0.5379015207290649,0.4488912522792816,0.05997944623231888
1761914276010555000,10.518554931640624,0.5258299708366394,0.45366203784942627,0.08540225028991699
1761914276020610800,10.52861083984375,0.5185310244560242,0.41976797580718994,0.1103382259607315
1761914276030667800,10.538667724609375,0.5030684471130371,0.3857530355453491,0.14095951616764069
1761914276040723700,10.5487236328125,0.4825943410396576,0.3564009964466095,0.16743533313274384
1761914276050780000,10.55877978515625,0.4743899405002594,0.33945396542549133,0.18272240459918976
1761914276060835800,10.5688359375,0.46391281485557556,0.34647005796432495,0.18272480368614197
1761914276070891800,10.578891845703126,0.45788395404815674,0.3855692744255066,0.17356033623218536
1761914276080948000,10.588947998046875,0.4667948782444,0.45796409249305725,0.16764545440673828
1761914276091005000,10.5990048828125,0.49567607045173645,0.5403394103050232,0.16587604582309723
1761914276101060900,10.609060791015626,0.5211116671562195,0.6159870028495789,0.17889465391635895
1761914276111116800,10.61911669921875,0.5550344586372375,0.6458354592323303,0.21141104400157928
1761914276121173000,10.629173095703125,0.5937946438789368,0.6072651743888855,0.2728826701641083
1761914276131229000,10.63922900390625,0.6360739469528198,0.502321183681488,0.34603676199913025
1761914276141284900,10.649284912109374,0.6608767509460449,0.3216499388217926,0.41588881611824036
1761914276151341800,10.659341796875,0.6771190762519836,0.12143801152706146,0.45983976125717163
1761914276161398000,10.66939794921875,0.6845338344573975,-0.02279878966510296,0.485403448343277
1761914276171454000,10.679453857421874,0.7130810618400574,-0.019816847518086433,0.6289158463478088
1761914276181509600,10.689509521484375,0.7953006029129028,0.47808560729026794,0.7543190717697144
1761914276191565800,10.69956591796875,0.76533442735672,1.006428599357605,0.7537981271743774
1761914276201621800,10.709621826171874,0.7079609036445618,1.4193636178970337,0.7554376125335693
1761914276211678700,10.7196787109375,0.6952338814735413,1.5825645923614502,0.7685973644256592
1761914276221734700,10.729734619140626,0.7146469950675964,1.5633559226989746,0.7087380290031433
1761914276231790800,10.739790771484374,0.8156591057777405,1.3697580099105835,0.6543075442314148
1761914276241846800,10.7498466796875,0.911700427532196,1.0301709175109863,0.6838600635528564
