time,seconds_elapsed,z,y,x
1761915725346159600,0.11815966796875,0.15621932023763654,0.22225202746316788,-0.0007245879475027323
1761915725356213500,0.128213623046875,0.18174656020402907,0.1888026161953807,-0.027564043023623523
1761915725366267600,0.138267578125,0.12938450480401514,0.12153992878347634,-0.03496493039727211
1761915725376321500,0.148321533203125,0.03626198447048664,0.09035027914121746,-0.021051848118007182
1761915725386375700,0.158375732421875,-0.011808511215448379,0.07310381465554237,-0.006165061968378722
1761915725396429600,0.1684296875,-0.04247077598273754,0.0027514906652271747,-0.03423497215490788
1761915725406484500,0.178484375,-0.05472235479056835,-0.032185382681339976,-0.048894050495885306
1761915725416538600,0.18853857421875,-0.016741291442513465,0.011491408090293406,-0.024506007159873843
1761915725426592500,0.198592529296875,0.009607786300778388,0.018164748374372718,-0.023614172886684534
1761915725436646700,0.208646728515625,0.026122867771983145,0.012284165903180837,-0.027924364235997198
1761915725446700500,0.218700439453125,0.05459317545294761,0.01704275860711932,-0.029111601259186864
1761915725456754700,0.228754638671875,0.09674889413714409,0.011082827289402485,-0.03156524148900062
1761915725466808600,0.23880859375,0.0872761323928833,-0.0012915011152625083,-0.017049115282669662
1761915725476862700,0.24886279296875,0.01577332319319248,-0.017261515924334524,-0.007216689913161099
1761915725486916600,0.25891650390625,-0.013825696256756781,-0.0007977262489497661,0.006045381111465394
1761915725496970800,0.268970703125,-0.01474164205789566,0.04160509906411171,0.010229133069515228
1761915725507024600,0.279024658203125,-0.03637304362952709,0.04090396505743265,-0.0020981413230299947
1761915725517078500,0.28907861328125,-0.07713058595359325,0.04309752957895398,-0.01899772859979421
1761915725527132400,0.29913232421875,-0.08181786698698996,0.06602130904868245,-0.03391929380185902
1761915725537187600,0.3091875,-0.03548983105421066,0.08782616749107837,-0.02496938688792288
1761915725547241700,0.31924169921875,-0.033412440258264536,0.10463584799468517,-0.007446589678898453
1761915725557295600,0.329295654296875,-0.020434300741553304,0.1186056288972497,-0.013274017190746962
1761915725567349800,0.339349853515625,0.012267360898852348,0.09572831891775131,-0.067649348641932
1761915725577403600,0.349403564453125,0.04492167626619339,0.05519581752121448,-0.10247731825392693
1761915725587457500,0.35945751953125,0.10116904866695403,0.038677228918671605,-0.10327292561102658
1761915725597511400,0.369511474609375,0.14347089782357214,0.042387043222039934,-0.0730661860588938
1761915725607565600,0.379565673828125,0.19232523736357687,0.03760755386054516,-0.04144263851139694
1761915725617619500,0.389619384765625,0.17039806771576405,0.003544102347642183,-0.023399288026988506
1761915725627673600,0.399673583984375,0.11401274814903735,-0.004868628949671983,0.021659933546371756
1761915725637727700,0.409727783203125,0.04828267713189125,-0.020570055950433014,0.027525172317959368
1761915725647781600,0.41978173828125,0.00868833336830139,-0.008982347878813744,0.03444810344893485
1761915725657835800,0.429835693359375,0.02171148107051849,0.03898293386697769,0.043784561995044345
1761915725667889700,0.4398896484375,-0.032304771277308464,0.06784399443119764,0.04209145780894905
1761915725677944600,0.449944580078125,-0.05181202030181885,0.020201076507568357,0.04806315262969583
1761915725687998500,0.45999853515625,-0.01632277376949787,-0.027445786938816306,0.07068977578375488
1761915725698052600,0.470052490234375,0.061796238699555396,-0.030636838065087792,0.08382186375316232
1761915725708106500,0.4801064453125,0.125643564710021,-0.027572774319350717,0.07235825698524713
1761915725718160600,0.49016064453125,0.17927637069821356,0.034764147128164766,0.07082100094798952
1761915725728214800,0.50021484375,0.12115560564100741,0.08312778054177761,0.08160111896377056
1761915725738268700,0.5102685546875,0.003644493982195854,0.07499474296867847,0.1241190950891003
1761915725748322800,0.52032275390625,-0.1403138950973749,0.042286213196069,0.17199874437805265
1761915725758376700,0.530376708984375,-0.18598375938236714,0.057413493570685384,0.21996968867965042
1761915725768430600,0.5404306640625,-0.13033961357176302,0.08230243563354014,0.1903623763253912
1761915725778484500,0.550484375,0.02876432219147682,0.10416881500482558,0.09440291553288697
1761915725788538600,0.56053857421875,0.14548925190865994,0.13613997041359543,0.019051248885318634
1761915725798592500,0.570592529296875,0.19991993027627467,0.13967764302045105,0.022482136649452148
1761915725808647700,0.580647705078125,0.21534721651077268,0.09695537649467587,0.017153361108433456
1761915725818701800,0.590701904296875,0.2633200970411301,0.013200111704319714,0.03291400748314336
1761915725828755700,0.600755615234375,0.5361375057458877,-0.21113149851188062,0.080464169089403
1761915725838809900,0.610809814453125,0.9718091426581144,-0.6217819452837109,0.27610764588918535
1761915725848863500,0.620863525390625,0.6660100863277911,-0.7456089620910584,0.22921949185561388
1761915725858917600,0.630917724609375,0.3512918104827404,-0.43806554631143807,0.12495141772739589
1761915725868971500,0.640971435546875,0.0793418322622776,-0.0872545050829649,0.07001315516382456
1761915725879025700,0.651025634765625,-0.1335825410157442,0.08500497259050607,0.03885770005211234
1761915725889079600,0.66107958984375,-0.26709435488283634,0.1844593262940645,0.10632836765889078
1761915725899133700,0.6711337890625,-0.3006231149971485,0.1877240271784365,0.13653028490543365
1761915725909187600,0.6811875,-0.11736790379583835,0.07428761761263013,0.05723689489476382
1761915725919241700,0.69124169921875,0.053307227295637125,0.046405923474580044,0.05724931598491966
1761915725929295600,0.701295654296875,0.14821020130515097,-0.019547434904426335,0.05896569144874811
1761915725939350500,0.7113505859375,0.24773206728696823,-0.10450842222273349,0.03510388221023604
1761915725949404700,0.72140478515625,0.26531857738196846,-0.16680077387616038,0.011576675220951438
1761915725959458600,0.73145849609375,0.24151743055582045,-0.16060338054075837,0.002511215635947883
1761915725969512700,0.7415126953125,0.18948796811103819,-0.10136091797724366,0.013338570326939225
1761915725979566600,0.751566650390625,0.07644552629888057,-0.03421381976902485,0.029518611157499253
1761915725989620700,0.761620849609375,-0.0669195730626583,0.05099573548287153,0.07101794829219579
1761915725999674600,0.771674560546875,-0.18670973556935785,0.09141162476241588,0.08894063153900206
1761915726009728800,0.781728759765625,-0.2614391056001186,0.046184243547916407,0.08027969763427972
1761915726019782700,0.79178271484375,-0.27765432734191414,0.009744710553437471,0.06169993871822953
1761915726029836500,0.80183642578125,-0.18990823934972284,-0.006995411845296621,0.045129583395831285
1761915726039890400,0.811890380859375,-0.06853986774086952,0.06173676359727978,0.025191833999566732
1761915726049944600,0.821944580078125,-0.004323708418011665,0.09899448110684751,-0.023146518842317162
1761915726059998500,0.83199853515625,0.027117724028229713,0.10722937161922454,-0.0679659403104335
1761915726070052600,0.842052490234375,0.030537761604785916,0.0991603391930461,-0.08700823870431632
1761915726080107800,0.852107666015625,0.08885667958259583,0.06889131152704357,-0.06947959627639502
1761915726090161700,0.86216162109375,0.15770634392499921,-0.01488470379039645,-0.01914634329024702
1761915726100215600,0.872215576171875,0.16686287932693958,-0.08795943848192692,0.03366721873693168
1761915726110269400,0.88226953125,0.13564648780822752,-0.11225699052289127,0.05542798230927437
1761915726120323600,0.892323486328125,0.12301847690343856,-0.10033084427714348,0.08138890098519623
1761915726130377500,0.90237744140625,0.2012654996663332,-0.0675365359172225,0.0689272230906412
1761915726140431600,0.912431640625,0.24506840103566646,-0.039281770683079954,0.02413633359726518
1761915726150485200,0.9224853515625,0.2614695007383823,-0.042102819453179834,0.011381700638122856
1761915726160539100,0.9325390625,0.2590799752533436,-0.05058379368111491,0.03588894990701228
1761915726170593300,0.94259326171875,0.18194938929975032,-0.06616174043267965,0.08463128043990582
1761915726180647200,0.952647216796875,0.10758885258138179,-0.08576455878615379,0.1287144600553438
1761915726190701300,0.962701416015625,0.06686228991746902,-0.08792436716854572,0.147906615248695
1761915726200755200,0.972755126953125,0.08113923707306385,-0.07225041269659996,0.12020013154707848
1761915726210810000,0.98281005859375,0.10978256323337554,-0.038139761041104794,0.08271108949966728
1761915726220864000,0.992864013671875,0.10709843871593475,0.026210692185908553,0.04870258304439485
1761915726230918100,1.002918212890625,0.09165770847797393,0.07394304195865989,0.022327311413921413
1761915726240972300,1.01297216796875,0.04589022903740406,0.10069237106591462,0.02966576454322785
1761915726251026200,1.023026123046875,-0.06405950745642185,0.0992334044292569,0.022198241674154996
1761915726261080300,1.033080322265625,-0.14005962807536124,0.07479746683090925,0.03371756068468094
1761915726271134200,1.04313427734375,-0.0953624082148075,0.07928966368362307,0.027700017428211866
1761915726281188400,1.053188232421875,-0.005589782831072807,0.08614084475263953,0.006616641660779714
1761915726291242200,1.0632421875,0.03910159181058406,0.08580328336134553,-0.017335092617198823
1761915726301296000,1.073296142578125,0.21879940279126167,0.05893076626583933,-0.012294358503632247
1761915726311350000,1.08335009765625,0.41319092503488064,-0.1982094730965793,0.0829177545202896
1761915726321404200,1.093404052734375,0.16412322522997855,-0.35345790247544645,0.08651797096934169
1761915726331458000,1.1034580078125,0.1261795712828636,-0.10217238049060105,0.008266710422746836
1761915726341512200,1.11351220703125,0.13265607382059097,0.08770341789424418,0.01658774484861642
1761915726351567400,1.1235673828125,0.08787585185170173,0.05813420906066894,0.04517747765816748
1761915726361621200,1.133621337890625,0.0756383015692234,0.012700199358165264,0.07004197939950972
1761915726371675100,1.143675048828125,0.02378770282268524,-0.03418430141359567,0.115120965119265
1761915726381729000,1.15372900390625,-0.047907998600602145,-0.06385287896841764,0.13766995645985006
1761915726391783200,1.163783203125,-0.014798340681195258,-0.059497898629307745,0.15088281804788856
1761915726401837000,1.173837158203125,0.07151976033449173,-0.019158727847784756,0.13278908908311277
1761915726411891200,1.18389111328125,0.09237959301173686,0.011034311972558497,0.11737382207997142
1761915726421945000,1.193945068359375,0.10139935029149055,0.029096769016236066,0.09061766137313097
1761915726431999200,1.203999267578125,0.10426292302906513,0.0031049802780151363,0.061379182331264014
1761915726442053000,1.21405322265625,0.09872866977751255,-0.013325345519185065,0.057503875267878174
1761915726452107300,1.224107177734375,0.07559738503694534,-0.03383651088923215,0.04610847489796579
1761915726462161200,1.2341611328125,0.08248480646312237,-0.023754238944500683,0.03683200291078537
1761915726472215300,1.24421533203125,0.07536006914973259,0.006210106686502695,0.012146912856958805
1761915726482270200,1.254270263671875,0.07395897018015385,0.06347571621909737,-0.011301438476145266
1761915726492324000,1.264323974609375,0.07984861274063587,0.0801917270898819,-0.033697358146868646
1761915726502378200,1.274378173828125,0.06732756934165954,0.0515666672386229,-0.05968669919967651
1761915726512432000,1.28443212890625,0.034226094728708266,0.037882717540115116,-0.04424224263466894
1761915726522486300,1.294486328125,0.013819851037859916,0.04055208287984133,0.005190956239216029
1761915726532540200,1.3045400390625,0.012928455156087875,0.03747062960788607,0.031180005031079053
1761915726542594300,1.31459423828125,0.005108721315860748,0.018477613715827464,0.02554185301363468
1761915726552648200,1.324648193359375,-0.014124971464276314,0.006294277838617563,0.025480916606634853
1761915726562702000,1.3347021484375,-0.03581131809353828,-0.0027494448386132715,0.01613280415534973
1761915726572756000,1.344755859375,-0.011768179205060004,0.018893208779394627,0.01855115387607366
1761915726582810000,1.35481005859375,0.03164543058574199,0.05381050064265728,0.04004588692337274
1761915726592864300,1.3648642578125,0.018909867653250693,0.03190101278200745,0.06810553144421429
1761915726602918100,1.374918212890625,0.019041385078430173,0.007809943098574876,0.08901366024259477
1761915726612972300,1.38497216796875,0.06099018301367759,-0.007381926944851875,0.07076495991181582
1761915726623027200,1.395027099609375,0.1186772328287363,-0.011737784066796302,0.015555515724048018
1761915726633081000,1.4050810546875,0.17498071933090686,-0.02411532734185457,-0.03138550100792199
1761915726643135000,1.415135009765625,0.18944237540364264,-0.02422989363223314,-0.03712879390027374
1761915726653189000,1.425189208984375,0.10592179615199565,-0.05551672003865242,0.0035768355734646317
1761915726663243000,1.435242919921875,-0.03853752818703651,-0.06709317606389523,0.031091048105992374
1761915726673297200,1.445297119140625,-0.12959727077186106,-0.040848873869329685,0.0425501613618806
1761915726683351300,1.455351318359375,-0.11453998689353466,0.022913696467131376,0.02399524462614208
1761915726693405200,1.4654052734375,-0.0315361249923706,0.07824030076116323,0.005199724067561328
1761915726703459300,1.475459228515625,0.09289806392788887,0.11136559464111924,0.01211933073028922
1761915726713513200,1.48551318359375,0.8180892380207777,-0.034423224736005065,0.29758144574631
1761915726723567400,1.4955673828125,0.7118126370817422,-0.6744146343186497,0.3217653448123485
1761915726733621200,1.505621337890625,0.33642274265289307,-0.4990016610503196,0.09159633367955684
1761915726743675100,1.515675048828125,0.015272972455620764,-0.08698109496906399,-0.0034065570404753086
1761915726753729000,1.52572900390625,-0.1770920123964548,0.14894801406040786,0.05131316740158945
1761915726763784200,1.5357841796875,-0.15256781199276445,0.18191826350912452,0.11707856546044348
1761915726773838300,1.54583837890625,-0.015105799195170402,0.1263381228454411,-0.0009483502333983778
1761915726783892200,1.555892333984375,0.12674012777507304,0.17021087458059192,-0.012831826381199061
1761915726793946400,1.5659462890625,0.11800737074315547,0.1718237166047096,-0.005089797419682145
1761915726804000300,1.576000244140625,0.06086509532928466,0.09868030059114098,0.009579254326038062
1761915726814054100,1.58605419921875,0.07588087815344333,0.03924260771647096,0.02881853659674525
1761915726824108000,1.59610791015625,0.1179758065611124,-0.01072743798047304,0.052341377938166254
1761915726834162200,1.606162109375,0.19504560223817824,-0.035664456968754525,0.05567454094886779
1761915726844216000,1.616216064453125,0.21147709707915782,-0.06683481738865375,0.03861183553226292
1761915726854270200,1.626270263671875,0.12212591197788715,-0.10230024465397,0.029072547890432177
1761915726864324000,1.636323974609375,0.011990297523140906,-0.052303164819628,0.047171829813159996
1761915726874378200,1.646378173828125,-0.10841595105528831,-0.003841770119965076,0.04708385926876217
1761915726884432100,1.65643212890625,-0.08387947569191455,0.025648674388974904,0.030416363714821634
1761915726894486300,1.666486328125,0.053017304438352585,0.040850919695943594,-0.017083821269869803
1761915726904541200,1.676541259765625,0.157533325445652,0.0133532564394176,-0.024232341317646205
1761915726914595000,1.686594970703125,0.15999708521068096,-0.017894699261337518,0.003410867889411747
1761915726924649200,1.696649169921875,0.11611176625490188,-0.055121875502169126,0.037154878189601004
1761915726934703000,1.706703125,0.07669862427711487,-0.06587912409901618,0.058350116833671924
1761915726944757200,1.71675732421875,0.059769701308012006,-0.0379433616861701,0.05200509518850594
1761915726954811100,1.72681103515625,0.04059095358550548,-0.014555764096975326,0.0512122277777642
1761915726964865300,1.736865234375,0.04284896164536476,0.02020838303118944,0.06051536857616156
1761915726974919200,1.746919189453125,0.07581365813612938,0.03661795830130577,0.07108827358204871
1761915726984973300,1.756973388671875,0.11439268737733363,0.007003595151752233,0.03486030097901821
1761915726995027000,1.76702685546875,0.11570961519479751,-0.005929536179453134,0.024789427211135626
1761915727005081000,1.7770810546875,0.11084814663827419,-0.01666983364149928,0.06928469475880265
1761915727015135000,1.787135009765625,0.12432663689255714,-0.006264905613660812,0.08658340088836848
1761915727025189000,1.797189208984375,0.10128069234788417,-0.017566928611695766,0.05991729308515787
1761915727035243300,1.8072431640625,0.07156359947621822,-0.028986878900974986,0.04664342202488333
1761915727045298200,1.817298095703125,0.05174772289395332,-0.017030775908380747,0.02571421390585601
1761915727055352300,1.827352294921875,0.09861351896524428,0.039310119994729754,0.015143172063492237
1761915727065406200,1.83740625,0.15957915205955506,0.11284355823919176,0.03559588524457067
1761915727075460000,1.847460205078125,0.10448153421580791,0.14041340994909404,0.03357431628908962
1761915727085514000,1.857513916015625,0.04114391129314899,0.14581366155743597,0.042856487364694475
1761915727095568100,1.867568115234375,0.01864683280289173,0.104802144472301,0.03032196342963725
1761915727105622000,1.8776220703125,0.0759212101638317,0.03808627728819847,-0.011414214668236672
1761915727115676200,1.88767626953125,0.18624504066705702,-0.033059973558783526,-0.04813198008220643
1761915727125730300,1.897730224609375,0.29160803389251233,-0.07185366846397519,-0.06388725616205483
1761915727135784200,1.9077841796875,0.35437867058217526,-0.09885463424474,-0.05451415539998561
1761915727145838300,1.91783837890625,0.2787017905682325,-0.1013140100955963,-0.013549071272462606
1761915727155893000,1.92789306640625,0.12182429868280886,-0.08216770333796738,0.012636523004807531
1761915727165947000,1.93794677734375,-0.010225041416287422,-0.04511749109923839,0.003783683257177472
1761915727176001000,1.9480009765625,-0.0268786545753479,0.031162615504860876,0.037098398762010036
1761915727186056000,1.958055908203125,-0.08254793482720851,0.06290799933373928,0.03918119638543576
1761915727196110000,1.968110107421875,-0.06685995182991028,0.09410758584812283,0.06543101500533521
1761915727206164000,1.9781640625,-0.020650573840737343,0.06754106596186757,0.10702372951190918
1761915727216218000,1.988218017578125,0.00022796353697776794,0.0022549393199384213,0.11107559871859848
1761915727226272000,1.99827197265625,0.02944412114918232,-0.07259630352482199,0.10769676993526518
1761915727236326000,2.008325927734375,0.1007347489029169,-0.13578180462568998,0.08925305848903954
1761915727246380000,2.018380126953125,0.230557645124197,-0.16419819016233086,0.08069193169698119
1761915727256434000,2.028433837890625,0.3093880207329988,-0.1656046959593892,0.05642850112132728
1761915727266488000,2.038488037109375,0.3034200522392988,-0.13391396492719648,0.04258212740272283
1761915727276542000,2.0485419921875,0.2644283505439758,-0.0936119112856686,0.025263876322470603
1761915727286596000,2.05859619140625,0.20703414619565008,-0.03637333589047193,0.013321582659520208
1761915727296650000,2.06864990234375,0.12203764917254448,0.03232055336833,0.01584595003798604
1761915727306704100,2.0787041015625,0.024129063606262206,0.09169453335702418,0.001682071335427463
1761915727316758000,2.088758056640625,-0.07179448562264441,0.13587810460701585,-0.0023305983720347282
1761915727326813000,2.09881298828125,-0.14523030871152878,0.15961013171970842,-0.014691190512292087
1761915727336867000,2.1088671875,-0.19069266772568225,0.15178528331294655,-0.004067212906293571
1761915727346921000,2.1189208984375,-0.22324118463099002,0.12078604167625308,-0.007206278117001056
1761915727356975000,2.12897509765625,-0.20926818885803222,0.09536664599850773,-0.0042281390890479085
1761915727367029000,2.139029052734375,-0.1610147378206253,0.06601517156884074,-0.019362872117757796
1761915727377083100,2.149083251953125,-0.08899111961722374,0.02659574598073959,-0.008877389666996896
1761915727387137000,2.159136962890625,-0.0371744231402874,0.006016776071488857,-0.017116189169511197
1761915727397191200,2.169191162109375,0.0350438408523798,0.023929449380934237,0.004096621663868427
1761915727407244800,2.179244873046875,0.08322890282869339,0.02190218133702874,0.02029821673911065
1761915727417299000,2.189298828125,0.1101940666437149,0.011343231791257858,0.04980732941590249
1761915727427352800,2.199352783203125,0.12769348297715186,-0.010945610775798559,0.06713095079101622
1761915727437407000,2.209406982421875,0.10387363145053385,-0.037686172054708,0.11067706438768654
1761915727447460900,2.2194609375,0.03129471745193004,-0.07148702710866928,0.16678557630702853
1761915727457515000,2.229514892578125,-0.07395487852692603,-0.04899038700982928,0.17172661290578542
1761915727467570200,2.239570068359375,-0.14733166490495203,-0.0005361527033150195,0.13913878690339623
1761915727477624000,2.2496240234375,-0.15092998165786264,0.07519523397684097,0.08327142679616809
1761915727487678000,2.259677978515625,-0.0572907439738512,0.14774009957537054,0.04389558462146669
1761915727497731800,2.26973193359375,0.06782265938222408,0.1437270645417273,-0.014413981006108224
1761915727507786000,2.279785888671875,0.18743045105934142,0.09492840071171521,-0.053782005200535055
1761915727517840000,2.28983984375,0.2495809100240469,0.012487433390319347,-0.07022997625228017
1761915727527894000,2.29989404296875,0.2697393164336681,-0.06866817029565572,-0.10991177910361438
1761915727537948000,2.309947998046875,0.21859482012987136,-0.09005670302212238,-0.12600907355416566
1761915727548002000,2.320001953125,0.1452899299442768,-0.019857377636432645,-0.09032306234072893
1761915727558056200,2.33005615234375,0.08804010250270367,0.09560030862390995,-0.044820005990006025
1761915727568110000,2.340110107421875,0.02878185784816742,0.16696195578724146,-0.03157068484909832
1761915727578164200,2.350164306640625,-0.044241292786598205,0.17955445698723196,0.00027834201734513043
1761915727588217900,2.3602177734375,-0.06183014096915722,0.11904708905443548,0.031243242993019518
1761915727598272000,2.37027197265625,-0.07634265044629573,0.03846636264696717,0.04651891886238008
1761915727608327000,2.380326904296875,-0.03351122445762157,-0.014916414102911947,0.07809804274626075
1761915727618381000,2.390381103515625,0.029923429098725318,-0.06184402336403727,0.09893080475348978
1761915727628435000,2.40043505859375,0.058682490593194955,-0.11229513057619332,0.11638678380399942
1761915727638489000,2.410489013671875,0.09251169495880603,-0.13515022872388363,0.13931951376516372
1761915727648543200,2.420543212890625,0.1395464178562164,-0.15388006363511084,0.13845818422809242
1761915727658597000,2.43059716796875,0.17281857286095617,-0.15932327760234474,0.12907609644196927
1761915727668651000,2.440651123046875,0.15250643719434737,-0.1371389183230698,0.1297440222987905
1761915727678705000,2.450704833984375,0.1441091957271099,-0.08659399534761905,0.1278601265146397
1761915727688759000,2.460759033203125,0.19935411308705805,-0.06123407477214932,0.13992100505596025
1761915727698813000,2.47081298828125,0.2310842993468046,-0.08118497591093182,0.13594395465115083
1761915727708867000,2.4808671875,0.22754969547986983,-0.11606968067884445,0.14067635346790774
1761915727718921000,2.4909208984375,0.1750181287318468,-0.13636004290506243,0.1545402628432028
1761915727728975000,2.50097509765625,0.1462315947085619,-0.14094313291162253,0.15876867592688648
1761915727739029000,2.511029052734375,0.1425228033185005,-0.10183598814308643,0.1556080564714968
1761915727749084000,2.521083984375,0.1490682794392109,-0.07884776513502001,0.10997242324966937
1761915727759138000,2.531137939453125,0.18730711694061755,-0.055446577411890026,0.05599748929291963
1761915727769192000,2.54119189453125,0.18029343878626822,-0.016298662241548297,0.0354370962199755
1761915727779246000,2.55124609375,0.09455810609459876,0.005591536396741867,0.014839768670126794
1761915727789300000,2.561300048828125,0.004658054938912391,0.022378420546650884,0.00434305243929848
1761915727799354000,2.57135400390625,-0.02319733571410179,0.02944967410713434,0.004246167936082929
1761915727809408000,2.581407958984375,0.01193476794362068,0.052265755418688054,-0.018600692106224597
1761915727819462100,2.591462158203125,0.050965048083662985,0.053624476551264524,-0.0578348242552951
1761915727829516000,2.60151611328125,0.028189737173914906,0.05401902882680296,-0.06698069213274865
1761915727839570000,2.61156982421875,-0.026983868515491484,0.0651250908613205,-0.048038200851529836
1761915727849623800,2.621623779296875,-0.023523498928546903,0.031467735931277274,-0.031022512914426623
1761915727859678000,2.631677978515625,0.06496200925409794,0.002942190931737423,-0.04039168642004952
1761915727869731800,2.64173193359375,0.1553548123627901,-0.05395195493996143,-0.049195371530018746
1761915727879786000,2.651785888671875,0.27085809133052824,-0.06736936265677214,-0.08204489894220605
1761915727889841200,2.661841064453125,0.23786884492039678,-0.08417612055093049,-0.04286894498746842
1761915727899895000,2.67189501953125,0.11921966914236545,-0.0391349095582962,0.014616627438738941
1761915727909949200,2.68194921875,0.04056581914424896,0.004682750988751649,0.03731229724101722
1761915727920002800,2.6920029296875,-0.03657645724713802,0.03262289731577039,0.016827764149568974
1761915727930057000,2.702056884765625,0.006371288597583771,0.0763930654592812,0.0011485124479979276
1761915727940110800,2.71211083984375,0.11270400363802908,0.09513561372160911,-0.03412378513170406
1761915727950165000,2.7221650390625,0.13653963725566864,0.09590645196363329,-0.03453360804161057
1761915727960219000,2.732218994140625,-0.020614333483576774,0.08271291613057255,0.03393715825211256
1761915727970273000,2.74227294921875,-0.1011748938858509,0.024326193613559005,0.10098812087578699
1761915727980327000,2.752326904296875,-0.1867559127986431,0.09234817496016622,0.13420173236001282
1761915727990381000,2.762381103515625,-0.03279869227409363,0.006351268722862005,0.1788897825334221
1761915728000435200,2.772435302734375,0.21009294924438,-0.027375205920636653,-0.008872530828788876
1761915728010489000,2.782489013671875,0.26235388235747814,0.014584113408625124,0.00026356457332149145
1761915728020543000,2.79254296875,0.19924013131856916,0.045574148825556035,-0.01608830742649734
1761915728030598000,2.802597900390625,0.2440086628496647,0.028600509931892153,-0.029719284828752277
1761915728040652000,2.812652099609375,0.29641221930384637,0.0404040527112782,-0.03266551261479035
1761915728050706000,2.822705810546875,0.26443361124098297,0.058291007057577365,-0.03230964838182553
1761915728060760000,2.832760009765625,0.22216917148530482,0.09903086759448052,-0.02503848833506927
1761915728070814000,2.84281396484375,0.16634557745456693,0.1094096382677555,-0.014784549617860465
1761915728080868000,2.8528681640625,0.07691431285440921,0.014678805954754352,0.00440846409201622
1761915728090922200,2.862922119140625,-0.024293314257264137,-0.05766352280899882,0.06197367762569338
1761915728100975900,2.872975830078125,-0.03163257110416889,-0.08394771862253546,0.14833700602259486
1761915728111030000,2.883030029296875,0.06589958236515521,-0.12570508563891053,0.13599186717979608
1761915728121084000,2.893083984375,0.14837211386859417,-0.1453660639204085,0.0704265948029235
1761915728131138000,2.903137939453125,0.1782464431285858,-0.09187120509818196,0.028648933917190877
1761915728141192000,2.91319189453125,0.14120353741347788,-0.04127645163163542,0.03331365605890751
1761915728151249400,2.92324951171875,0.0724053109973669,-0.02454042088612914,0.03888608589638024
1761915728161304600,2.9333046875,0.07622282345890999,-0.03724295833185315,0.022294632987026122
1761915728171358500,2.9433583984375,0.11444587886929511,-0.027150018862634896,-0.00466364442948252
1761915728181412400,2.953412353515625,0.10992577109634875,-0.0162953012406826,-0.025295002113096415
1761915728191466500,2.963466552734375,0.10492518633008002,0.004156535157561302,-0.008161496482603251
1761915728201520400,2.973520263671875,0.08225684292614459,-0.0035062545552849767,0.001757620789669454
1761915728211574500,2.983574462890625,0.0053641573816537854,-0.03309270678460598,-0.01502356427181512
1761915728221628400,2.99362841796875,-0.059245969694852824,-0.010731529633700847,-0.01762231206074357
1761915728231682600,3.0036826171875,-0.08048866420984267,0.04668284071981907,-0.002682133489754051
1761915728241736400,3.013736328125,-0.08621873229444027,0.07227657005116343,-0.021126265061087904
1761915728251790600,3.02379052734375,-0.07910276280939578,0.0724200701750815,-0.01229950960278511
1761915728261844500,3.033844482421875,-0.06681143651306629,0.060462359747290605,-0.010873458855040371
1761915728271898600,3.043898681640625,-0.07473989142477512,0.019233254388719798,0.005988207564130425
1761915728281952500,3.053952392578125,-0.05245908603370189,-0.0014763561628758906,0.048495589230209586
1761915728292006400,3.06400634765625,-0.03771335232257843,-0.02081204801276326,0.06540580749884248
1761915728302061600,3.0740615234375,0.007834931409358977,-0.043291444715857504,0.09732685842188074
1761915728312115500,3.084115478515625,0.1033750342786312,-0.06720876526758074,0.0963868741580285
1761915728322169600,3.094169677734375,0.09346914181411266,-0.11499050714001059,0.07707733966270461
1761915728332223500,3.104223388671875,0.025833529436588287,-0.08799319462105631,0.0994293836590834
1761915728342277600,3.114277587890625,-0.02404781506359577,-0.010501666400581597,0.11796881056474522
1761915728352331500,3.12433154296875,-0.0446335069745779,0.031019553772360084,0.12022440747180953
1761915728362385400,3.134385498046875,-0.039055414581298825,0.05801905824840069,0.10882822165060788
1761915728372439300,3.144439208984375,-0.011105915904045104,0.025291677644848822,0.0909493775455281
1761915728382493400,3.154493408203125,0.036167291924357414,-0.017171791814267635,0.0766944047597237
1761915728392547600,3.164547607421875,0.0795551827520132,-0.07494403569474815,0.08231211677733809
1761915728402601500,3.1746015625,0.10002280124127864,-0.108612350410223,0.08787716702595352
1761915728412655600,3.184655517578125,0.11426876873672008,-0.10260521894991398,0.07849241235870867
1761915728422709500,3.19470947265625,0.09781681562960147,-0.10638006131350994,0.08414196255300194
1761915728432764400,3.204764404296875,0.08117956908345222,-0.09606924130991101,0.10348328042607755
1761915728442818300,3.214818359375,0.04161035976111889,-0.0850355138592422,0.09190602068323642
1761915728452872400,3.22487255859375,0.0592559065669775,-0.055779316497594114,0.06057192106898874
1761915728462926300,3.23492626953125,0.0989227310448885,-0.005159282459318637,0.0560513018393889
1761915728472980500,3.24498046875,0.17332476881742476,0.07919321757182478,0.05939487664625048
1761915728483034600,3.25503466796875,0.19128478839993476,0.08052680426314472,0.018876531639229505
1761915728493088500,3.265088623046875,0.12347089684605597,0.02173793068602681,0.00402008582893759
1761915728503142700,3.275142578125,0.08059680075943469,-0.02041150438785553,0.015318327700998634
1761915728513196500,3.285196533203125,0.08272562948167324,-0.0543520601734519,0.02057184604872018
1761915728523250700,3.295250732421875,0.12039631170630455,-0.047405455905944104,0.03359817208871245
1761915728533304600,3.3053046875,0.1562789414703846,0.003680442078411579,0.04101009231302887
1761915728543358500,3.3153583984375,0.14361352116465567,0.09128288381621241,0.02024031253941357
1761915728553412400,3.325412353515625,0.15382687214314936,0.16412030262053012,-0.01343413965590298
1761915728563466500,3.335466552734375,0.17855740877389906,0.15871376740187407,-0.05365419583609327
1761915728573520400,3.345520263671875,0.21660744570493698,0.1117244910813868,-0.07298210623832418
1761915728583575600,3.355575439453125,0.23764321947097777,0.04763751109614968,-0.051150688582565634
1761915728593629700,3.365629638671875,0.20956571049988268,-0.021234803469479084,-0.02901248826626688
1761915728603683600,3.37568359375,0.19516835183501244,-0.03505392385497689,-0.026150559496507048
1761915728613737500,3.385737548828125,0.18566402590870856,0.02703939809501171,-0.04806373715158552
1761915728623791400,3.395791259765625,0.14791034157574176,0.08161708371788264,-0.0691081326154992
1761915728633845500,3.405845458984375,0.07774433393776416,0.11524813516288995,-0.033338571304455396
1761915728643899400,3.4158994140625,-0.016908464702963828,0.12389832847788929,0.005864435053989291
1761915728653953500,3.42595361328125,-0.0832148743033409,0.09850099850147961,0.028395342748612162
1761915728664007400,3.43600732421875,-0.04132043690383434,0.11289338873028755,0.05948456422369927
1761915728674061600,3.4460615234375,-0.04135667726099491,0.11757117128297685,0.09809303875509649
1761915728684115500,3.456115478515625,0.007421089911460876,0.1478261704236269,0.13017306136582046
1761915728694169600,3.466169677734375,-0.021168460234999655,0.02712459216043353,0.12389018170405179
1761915728704223500,3.476223388671875,-0.025599136158823966,0.011607581815868616,0.14738715795185417
1761915728714278400,3.4862783203125,0.09446282902657985,0.017414222268015145,0.1362225523968227
1761915728724332500,3.49633251953125,0.19079145192503927,-0.013635434381663798,0.09253671980220823
1761915728734386400,3.506386474609375,0.23415245474576948,-0.04343626001402735,0.0760926212079823
1761915728744440600,3.516440673828125,0.22983926772177218,-0.07082534832954407,0.08489687257353216
1761915728754494500,3.526494384765625,0.22826631931662558,-0.10644114385098219,0.10904968238156289
1761915728764548600,3.536548583984375,0.20408932491540907,-0.171586108456552,0.1348712656520307
1761915728774602500,3.5466025390625,0.12077975806593894,-0.2328603691086173,0.16525113328136504
1761915728784656600,3.55665673828125,0.053263388153910636,-0.26006606368124485,0.17528700880110262
1761915728794710300,3.566710205078125,0.025536007794737813,-0.2780857044965029,0.13909710318613797
1761915728804764400,3.576764404296875,-0.04123158957660198,-0.2337096794143319,0.1214309519836679
1761915728814818600,3.586818603515625,-0.12986556631922722,-0.14636223535090684,0.1213850670153275
1761915728824872400,3.59687255859375,-0.19552374114394186,-0.0605507686831057,0.1288284052912146
1761915728834926600,3.606926513671875,-0.2224450658172369,-0.014088731107115745,0.10734017504993826
1761915728844981500,3.6169814453125,-0.13248188629746435,-0.006896919906884432,0.0941121889580041
1761915728855035600,3.62703564453125,-0.01434299812912941,-0.041080490668117996,0.06790434631630778
1761915728865089500,3.637089599609375,0.07435176889002322,-0.08423267304375767,0.06199077489096671
1761915728875143400,3.647143310546875,0.08059095554053783,-0.08707754108086228,0.08345323137016966
1761915728885197300,3.657197265625,0.06790916862189769,-0.07254325816333293,0.07725370087660849
1761915728895251500,3.66725146484375,0.04802373393476009,-0.05598009976670146,0.0403277726046741
1761915728905305300,3.677305419921875,0.043325346985459326,0.02513414899557829,0.038215675821527836
1761915728915359500,3.687359375,0.06577215659320354,0.05856953173801303,0.03664720266209915
1761915728925413600,3.69741357421875,0.13125906650424002,0.03847439982295036,0.005415777971036732
1761915728935467500,3.707467529296875,0.20324118365347385,0.03695172030031681,0.006805825823638588
1761915728945521700,3.717521728515625,0.2731780587106943,0.06077683252394199,-0.007212726124096662
1761915728955575600,3.727575439453125,0.3087310181289911,0.09077595720738171,-0.01887766415039077
1761915728965629700,3.737629638671875,0.2982119622021913,0.10455445332154631,-0.0477705994239077
1761915728975684400,3.747684326171875,0.26682079863846303,0.11507818542346358,-0.07075463944720103
1761915728985738500,3.757738525390625,0.21228081467747686,0.12626023530364036,-0.06719663643836975
1761915728995792400,3.76779248046875,0.15967559817135332,0.11012450853884219,-0.04946816058941185
1761915729005846500,3.777846435546875,0.14639818344712258,0.13082652030587197,0.014556787010282277
1761915729015900700,3.787900634765625,0.10535948609411716,0.14368556348755954,0.037421822030097245
1761915729025954600,3.79795458984375,0.10785364099740981,0.16880583008825778,0.02408677710080519
1761915729036008700,3.8080087890625,0.09711129770874977,0.20409517013430595,-0.021225231923535464
1761915729046062600,3.8180625,0.05018529588282108,0.1947152012400329,-0.0492173276335001
1761915729056116500,3.828116455078125,0.04414017049968243,0.11918678978607058,-0.04866829718230292
1761915729066170400,3.83817041015625,0.10245675038993358,0.026276597028970717,-0.031175493252743033
1761915729076224500,3.848224609375,0.1488590206027031,-0.048750294643640515,-0.03466581958653405
1761915729086278400,3.8582783203125,0.17159049237072466,-0.08622954594939947,-0.023097583400364965
1761915729096332500,3.86833251953125,0.17653262494802474,-0.0977872972741723,-0.010859265932906419
1761915729106387700,3.8783876953125,0.20268705690205097,-0.08079626885429024,-0.017109357569925487
1761915729116441600,3.888441650390625,0.1851215895950794,-0.03701806353479624,-0.018364727925881744
1761915729126495500,3.89849560546875,0.08017302238941192,-0.0005507657505571842,0.003202303172647953
1761915729136549400,3.90854931640625,-0.05580430480837822,0.004822597850859165,0.04510503347646445
1761915729146603500,3.918603515625,-0.12017945408523081,-0.01494505567550659,0.08102388533139601
1761915729156653600,3.928653564453125,-0.058905777955055236,-0.046213908033818,0.10293300786586478
1761915729166707500,3.93870751953125,0.06607961510717869,-0.10654898813962936,0.07846106737237424
1761915729176761600,3.94876171875,0.22905133221447466,-0.1789336947403848,0.03689346904074773
1761915729186815500,3.9588154296875,0.35032267318964,-0.2073157396160066,-0.009022844285983591
1761915729196869600,3.96886962890625,0.3950923737645149,-0.17801058854609728,-0.030514837386924773
1761915729206923500,3.978923583984375,0.32527357212901115,-0.11413476709350943,-0.047805999530851837
1761915729216977700,3.988977783203125,0.18033493984043597,-0.04886617610827088,-0.054699759366270154
1761915729227031600,3.999031494140625,0.04657528869211673,0.02331102522164583,-0.02591866870308295
1761915729237086500,4.00908642578125,-0.03680968148112297,0.03825461959242821,0.029195534949284046
1761915729247140600,4.019140625,-0.07059796931445599,0.04904065589234233,0.06971367902690544
1761915729257194500,4.029194580078125,-0.1436117675989866,0.08120163478478788,0.10402029164591804
1761915729267248600,4.03924853515625,-0.250494517737627,0.13193375089541076,0.12398953215898945
1761915729277302500,4.049302490234375,-0.33759821617305275,0.17212606055215,0.10611693513160571
1761915729287356700,4.059356689453125,-0.36048809337317944,0.16025485936403275,0.08234028342589736
1761915729297410600,4.06941064453125,-0.2669347804069519,0.14816738507673144,0.06848879514075815
1761915729307464700,4.079464599609375,-0.1302805768609047,0.0899785232193768,0.052749721277039495
1761915729317518600,4.0895185546875,0.06992343105375766,0.028456863677501675,0.05482404333306476
1761915729327572500,4.099572509765625,0.23566110574305058,-0.10714651564136148,0.029550376268941907
1761915729337626400,4.10962646484375,0.1465273627847433,-0.2046161252684891,0.013016096906922757
1761915729347680500,4.119680419921875,0.13240297584235666,-0.15174480517208574,0.08205996864717453
1761915729357734400,4.129734375,0.08342237957417964,-0.11024214356914162,0.07580697266701608
1761915729367788500,4.13978857421875,0.1030874495089054,-0.07380757901072502,0.07948328655958176
1761915729377843700,4.14984375,0.12546236292421817,-0.03870864697024226,0.061250587515532966
1761915729387897600,4.159897705078125,0.1403834532022476,-0.02291954168602824,0.0660357759654522
1761915729397951500,4.169951416015625,0.13120061431527136,-0.05066226574480533,0.04525118221519515
1761915729408005400,4.18000537109375,0.1549403863430023,-0.07622706124261021,0.033727552355732764
1761915729418059500,4.1900595703125,0.17177286320030688,-0.09897928353771566,0.012750979697331785
1761915729428113400,4.200113525390625,0.14646306537687778,-0.08066343625485897,-0.009995488710422069
1761915729438167600,4.21016748046875,0.15668986035883425,0.009242606250196695,0.00791090098870918
1761915729448221400,4.220221435546875,0.08290916935503483,0.0424259139277041,-0.00826775160236284
1761915729458275600,4.230275634765625,-0.0031669395983219143,0.048632075091451406,-0.004527304698713123
1761915729468329500,4.24032958984375,-0.10092881017029284,0.02731222368702292,-0.00174017646452412
1761915729478383600,4.250383544921875,-0.1125771623879671,0.051261108420789236,-0.007757409193739294
1761915729488437800,4.260437744140625,-0.021608020696043968,0.10090835190415381,-0.009314922567736358
1761915729498491600,4.27049169921875,0.031706805384159084,0.10543912720158695,-0.0035822058683261273
1761915729508546600,4.280546630859375,0.05209142176508903,0.11056158478185533,0.020294307748973367
1761915729518600400,4.290600341796875,0.01474164205789566,0.0975787690900266,0.02495491997115314
1761915729528654600,4.300654541015625,-0.02122223624885082,0.06466930991783738,0.015465499353036283
1761915729538708500,4.31070849609375,0.019959668967127798,0.04853402154445648,0.036237653746828434
1761915729548762600,4.3207626953125,0.1054711297750473,0.013179653438180684,0.022014628735557196
1761915729558816500,4.33081640625,0.18484160360991952,-0.04137494357004762,0.013367284964770078
1761915729568870700,4.34087060546875,0.17476444623172283,-0.061913289207965135,0.0016373371445573865
1761915729578924500,4.350924560546875,0.12054302670061588,-0.06990647991895675,0.0039047706198878586
1761915729588978400,4.360978515625,0.028042437657713887,-0.035722616896778345,0.022037205893546342
1761915729599032600,4.371032470703125,-0.07004618065059184,0.0231892985381186,0.04519539690734818
1761915729609086500,4.38108642578125,-0.0955453635662794,0.052873658183962106,0.036757056244742126
1761915729619140600,4.391140625,-0.10205810646116734,0.047312370795011514,0.034670788022596384
1761915729629195500,4.401195556640625,-0.11028817466795444,0.053649026470631356,0.06787835335852578
1761915729639249700,4.411249755859375,-0.06225041220784187,0.03782017369791865,0.07661671814732253
1761915729649303600,4.421303466796875,0.04957797763943672,-0.0035142917312681672,0.04479629632085561
1761915729659357400,4.431357421875,0.15443652847409248,-0.024678514182567595,0.02366612226963043
1761915729669411600,4.44141162109375,0.21980127331018445,-0.042034576522558924,0.01688937641000375
1761915729679465500,4.451465576171875,0.2259954517751932,-0.06662906568348408,0.01839192646006122
1761915729689519600,4.46151953125,0.18223229789435863,-0.06266556887999176,0.03503030551737174
1761915729699573500,4.471573486328125,0.12495733601152896,-0.032166824111342425,0.05272829489652067
1761915729709627600,4.481627685546875,0.0432306544393301,0.038311756607145066,0.09476685347445309
1761915729719681500,4.491681640625,-0.022160393881797788,0.11083499489575624,0.11502588898064568
1761915729729735700,4.501735595703125,-0.02839431983530521,0.12576383008882402,0.11180789504852146
1761915729739789600,4.51178955078125,-0.01699555846452713,0.13514745224490762,0.08256638379935174
1761915729749843700,4.52184375,0.021917817297577857,0.1241129941418767,0.07363898097816854
1761915729759898600,4.531898681640625,0.05698270093798637,0.06604425153285265,0.05230042487327009
1761915729769952500,4.541952392578125,0.05498948129415512,0.02665171395167708,0.07050512166554108
1761915729780006700,4.552006591796875,0.0801344439446926,0.02448722939416766,0.08749523676997051
1761915729790060500,4.562060546875,0.1047913308173418,0.020711217986792325,0.08718047173237428
1761915729800114700,4.57211474609375,0.09830372236371039,0.011463058778643608,0.0586091696286574
1761915729810168600,4.58216845703125,0.10349778387546539,0.005900456215441227,0.045365255315229294
1761915729820222700,4.59222265625,0.10375205089747905,0.013091975154727696,0.03917524156868458
1761915729830276600,4.602276611328125,0.042972880285978315,0.03615852409601211,0.059007302100770175
1761915729840330500,4.61233056640625,0.011789806514978409,0.05520385469719767,0.0782671522354707
1761915729850384400,4.62238427734375,0.02135609176158905,0.04263867989555001,0.07623431296730414
1761915729860438500,4.6324384765625,0.01308686058819294,0.025312428171932695,0.08316374690430238
1761915729870492400,4.642492431640625,0.0328606515944004,0.028530367305129766,0.10762637158017604
1761915729880547600,4.652547607421875,0.15303835211396216,0.0010045008674263954,0.07752610634351148
1761915729890601700,4.662601806640625,0.24373510660529135,-0.023048867154121397,0.050767644081730394
1761915729900655600,4.672655517578125,0.2216343339562416,-0.01522109613791108,0.06639381388919427
1761915729910709500,4.68270947265625,0.17712533014416693,0.008441519000381231,0.07087042958028614
1761915729920763400,4.692763427734375,0.17166940282583235,0.024148206698149443,0.05588831156371161
1761915729930817500,4.702817626953125,0.13637480208277702,0.00011325111612677573,0.04323986065909266
1761915729940871400,4.712871337890625,0.1422054079324007,-0.016725070960074664,0.017960713702253998
1761915729950925600,4.722925537109375,0.18791735779345034,-0.02644201672375202,-0.0031065329142846167
1761915729960979500,4.7329794921875,0.21465923424661157,-0.0026421850718557835,0.010402206347789615
1761915729971033600,4.74303369140625,0.14472761988639832,0.03965791051909327,0.03451707703191787
1761915729981087500,4.75308740234375,-0.02326046407818794,0.09720935125574469,0.07589647758137434
1761915729991141600,4.7631416015625,-0.2054781489253044,0.1791976063735783,0.09608730668956414
1761915730001195500,4.773195556640625,-0.25702771889865395,0.24721052763089535,0.10125608762959018
1761915730011250400,4.78325048828125,-0.2553781981259584,0.2609400700367987,0.11201941890735179
1761915730021304600,4.7933046875,-0.19108020573854445,0.21823314721062778,0.09316387525722383
1761915730031358500,4.8033583984375,-0.1477823312819004,0.11751681074723601,0.062079366489872334
1761915730041412600,4.81341259765625,-0.07927519676685332,0.05485562578141689,0.09572276595979928
1761915730051466500,4.823466552734375,-0.07324936060607433,-0.05873319786712527,0.06463990116026253
1761915730061520600,4.833520751953125,0.004826981765031814,-0.16025851262584329,0.06505041818991303
1761915730071574500,4.843574462890625,0.11070026260018348,-0.16765344518274067,0.07994189878096804
1761915730081628700,4.853628662109375,0.21976269486546515,-0.16026918015033007,0.033100269036553796
1761915730091682600,4.8636826171875,0.3619645956665277,-0.10522504605948925,-0.015999350501410662
1761915730101736400,4.873736328125,0.393969507214427,-0.05512552876397967,-0.03371556965699419
1761915730111790600,4.88379052734375,0.26331425182223317,-0.05177446477040648,-0.016903843326773492
1761915730121845500,4.893845458984375,0.0692202512204647,-0.03792933316081762,0.027881255746632812
1761915730131899600,4.903899658203125,-0.046373628640174865,-0.012123130122572183,0.060688752381689845
1761915730141953500,4.91395361328125,-0.01808218465745449,0.015581600013375281,0.03860306770391762
1761915730152007700,4.924007568359375,0.0602273819476366,0.018589549657702445,-0.0060153878320008515
1761915730162061600,4.9340615234375,0.16286533412337303,0.020260990001261234,-0.028963644155859947
1761915730172115500,4.944115478515625,0.23409517160058022,0.03396905122771859,-0.06047206829055212
1761915730182169600,4.954169677734375,0.19033961650431155,0.01988499629572034,-0.09005193551545962
1761915730192223500,4.964223388671875,0.12592471973896027,0.022514175755530594,-0.09997084272517823
1761915730202277600,4.974277587890625,0.11104220790565013,0.048954438913613556,-0.10780056823645717
1761915730212331500,4.98433154296875,0.11565583918094634,0.03929930633977055,-0.09633718979740515
1761915730222385700,4.9943857421875,0.15360709191262722,0.025348960790038108,-0.09408519135322421
1761915730232439600,5.004439453125,0.19191607204079628,-0.0032781448878347872,-0.08123773814463056
1761915730242493700,5.01449365234375,0.1764379324018955,-0.04719985033124685,-0.04853579337643459
1761915730252548600,5.024548583984375,0.07341945647597313,-0.06631751551628112,0.013620401209313421
1761915730262602500,5.0346025390625,-0.029415479576587675,-0.032683249200880525,0.0336709359308239
1761915730272656600,5.04465673828125,-0.047778819262981415,0.043819121851772065,0.04058961101179011
1761915730282710500,5.05471044921875,-0.04298164811432361,0.10144275104179978,0.03529021682888269
1761915730292764700,5.0647646484375,-0.06577215659320354,0.0962169792175293,0.039825695700896904
1761915730302818600,5.074818603515625,-0.09690963765680789,0.06568871609345078,0.08649490975416264
1761915730312872700,5.084872802734375,-0.07811959699094295,0.022462883959710595,0.11054364726636558
1761915730322926600,5.094926513671875,-0.02101531549990177,-0.016949381235241888,0.12143105244836769
1761915730332980700,5.104980712890625,0.04847323126792907,-0.031908319305628534,0.12630476856511086
1761915730343034600,5.11503466796875,0.10546820716559886,-0.06580386690571904,0.12377731418041511
1761915730353088500,5.125088623046875,0.12958148868083952,-0.11576368346959352,0.11061576265450566
1761915730363142700,5.135142578125,0.12120821261107921,-0.1316078799419105,0.08259307087687776
1761915730373197600,5.145197509765625,0.08457797935009002,-0.14631108968555925,0.07113318130285479
1761915730383251700,5.155251708984375,0.06443769311904907,-0.1439572200357914,0.07412453600540757
1761915730393305600,5.1653056640625,0.09781506206393241,-0.1008738651126623,0.09647627860768698
1761915730403359700,5.17535986328125,0.1420300513654947,-0.08871551754623651,0.0663351790371351
1761915730413413600,5.18541357421875,0.16216683046519756,-0.08356266482770443,0.014997735710814595
1761915730423467500,5.195467529296875,0.15426701712608337,-0.08047200533598661,-0.014415086117805911
1761915730433521400,5.205521484375,0.1740893234491348,-0.0718814332537353,-0.02708727409103885
1761915730443575600,5.215575439453125,0.2020014127254486,-0.027003596129268406,-0.021845158486743458
1761915730453629700,5.225629638671875,0.16740882277190686,0.023377076195180414,-0.005364805835625156
1761915730463683600,5.23568359375,0.09219546861648559,0.0460910123065114,0.004933839672990143
1761915730473737700,5.24573779296875,0.04975274968445301,0.05789703930392861,0.009357693130383267
1761915730483791600,5.25579150390625,0.08631400936245917,0.06041632864847779,0.003145494951494038
1761915730493846500,5.265846435546875,0.18309446768164633,0.06655658496916293,0.008891710453294217
1761915730503900400,5.275900390625,0.21538345686793325,0.05582666277065873,0.033740270273410713
1761915730513954600,5.28595458984375,0.16995266203582285,0.06155892281234264,0.059607332086842504
1761915730524008400,5.296008544921875,0.06985270390510559,0.06377338399142027,0.08430889835143461
1761915730534062600,5.3060625,0.07163900279998779,0.0595826543033123,0.11113567660907282
1761915730544116700,5.31611669921875,0.13558043683469295,0.04954100662991404,0.11216389627880416
1761915730554170600,5.326170654296875,0.2312590713918209,0.025429770941287278,0.09485827635126187
1761915730564224800,5.336224853515625,0.3269569951713085,0.000005699088424444198,0.08651189742158166
1761915730574278700,5.346278564453125,0.3594026362240314,-0.026161153955757615,0.0764774558071047
1761915730584332800,5.356332763671875,0.3271598242670297,-0.03521174476519227,0.07450942997003439
1761915730594386700,5.36638671875,0.26030571765601634,-0.02508095750361681,0.04342600348149426
1761915730604440600,5.376440673828125,0.2211287225216627,-0.007979746707528828,0.01846471313505899
1761915730614495500,5.38649560546875,0.2084586260408163,-0.01309051385000348,0.008326829412416555
1761915730624549600,5.396549560546875,0.1950607998073101,-0.04233195203393698,0.011862908283807337
1761915730634603800,5.406603759765625,0.21415596089959144,-0.07093859944567084,0.04476939004762098
1761915730644657700,5.41665771484375,0.04694236843883991,-0.07837401014342904,-0.04288343930370174
1761915730654711800,5.4267119140625,-0.07857318597733974,0.019688450810313222,-0.04701010904596187
1761915730664765700,5.436765625,-0.11542144590318203,0.0609760083578527,-0.07368978871679864
1761915730674819600,5.446819580078125,-0.044348844814300535,0.04623261273428798,-0.09107010871521197
1761915730684873500,5.45687353515625,0.038836803394556044,0.0028472061246633527,-0.09866618986739777
1761915730694927600,5.466927734375,0.08263327502310276,-0.01776435087993741,-0.1086644733231049
1761915730704981500,5.4769814453125,0.12924421955049037,-0.024365210449695585,-0.10568912904043681
1761915730715035600,5.48703564453125,0.1399088214278221,-0.04761149987205863,-0.10482081264015286
1761915730725090800,5.4970908203125,0.11000818868279456,-0.07232742345556617,-0.09210673088710755
1761915730735144700,5.507144775390625,0.10786357786953449,-0.06325082142204046,-0.05235543386298232
1761915730745198800,5.51719873046875,0.11365677431821822,-0.06590118980035185,-0.05562090193233452
1761915730755252500,5.52725244140625,0.09222235662341118,-0.0661735770009458,-0.05149802244920283
1761915730765306600,5.537306640625,0.08329261571466923,-0.0462435725197196,-0.025890675584459677
1761915730775360500,5.547360595703125,0.11546528504490852,-0.04875862408056855,-0.03591498853056691
1761915730785412600,5.55741259765625,0.11677052242457867,-0.05682999459430575,-0.03877394902510568
1761915730795466800,5.567466796875,0.13826339230835438,-0.048617023652791976,-0.02919492302793078
1761915730805520600,5.577520751953125,0.0780342567950487,-0.049737405984848736,0.016001478526415303
1761915730815574500,5.587574462890625,0.0026654198169708252,-0.04300970516502857,0.0467851959825959
1761915730825628400,5.59762841796875,-0.04082476234138012,-0.0414801575101912,0.08018768110242672
1761915730835682600,5.6076826171875,-0.061325114056468004,-0.05837883147150278,0.11448691413258202
1761915730845736700,5.61773681640625,-0.0872761323928833,-0.07601853305846452,0.10004263845290988
1761915730855790600,5.62779052734375,-0.03680208269655704,-0.045967970448732375,0.07674768758323043
1761915730865844700,5.6378447265625,0.024841011267900465,-0.016146686550229786,0.07077587403147481
1761915730875898600,5.647898681640625,0.08838964659273624,0.006161445239186287,0.06910486294617876
1761915730885953800,5.657953857421875,0.1411111829549074,-0.018611761489510534,0.07648454313501715
1761915730896007400,5.66800732421875,0.13442016088366507,-0.05545563750118017,0.08247276896545663
1761915730906061600,5.6780615234375,0.0762877053886652,-0.08556436003893614,0.07956523835514671
1761915730916115500,5.688115478515625,0.07323474755883216,-0.09255962575376034,0.0747914206826128
1761915730926169600,5.698169677734375,0.11060264744460582,-0.07771101619005202,0.08495848483396694
1761915730936223700,5.7082236328125,0.12533143002092836,-0.03667041914090514,0.08278251076806337
1761915730946277600,5.718277587890625,0.0753852035909891,-0.00592646743953228,0.08182623295653611
1761915730956331800,5.728331787109375,0.04516600641608238,0.020617986745387316,0.08401503910454922
1761915730966385700,5.7383857421875,0.09797171393036842,0.013124854511022566,0.06274897284712642
1761915730976439800,5.748439697265625,0.18446750960052014,-0.032307109364867206,0.03635572716854513
1761915730986493700,5.75849365234375,0.2682306654363871,-0.03125760031193495,0.04117116462625563
1761915730996548600,5.768548583984375,0.23219956711232662,-0.0452086765140295,0.03488373665353283
1761915731006602500,5.7786025390625,0.13052782962024212,-0.04129281824454665,0.058900498991739
1761915731016656600,5.78865673828125,0.021481763967871666,-0.0226566529661417,0.09786277366317808
1761915731026710500,5.79871044921875,-0.008636895442008971,0.012989245432615279,0.10911206182697787
1761915731036764700,5.8087646484375,0.09789923321604728,0.02872983539998531,0.11432174103297292
1761915731046818800,5.81881884765625,0.154109196215868,0.03643164194896817,0.10523593277968465
1761915731056872700,5.828872802734375,0.12636720280945302,0.06455752010643481,0.09882369111720472
1761915731066926600,5.838926513671875,0.008367430850863456,0.04914455465823411,0.10596526996754109
1761915731076980500,5.84898046875,-0.08058920197486877,0.0036976854741573332,0.12105285765258594
1761915731087034600,5.85903466796875,-0.048586628514528274,-0.10075272295102476,0.10308403370911255
1761915731097088500,5.869088623046875,-0.0629635289132595,-0.2626864753127098,-0.0259404512766283
1761915731107143700,5.879143798828125,0.010582768812775612,-0.26836101381778715,-0.0533487374829594
1761915731117197600,5.889197509765625,0.10650514899790287,-0.2671874399937689,-0.07240571285616607
1761915731127251700,5.899251708984375,0.13598492598235606,-0.2517323889695108,-0.08388345774728805
1761915731137305900,5.909305908203125,-0.01958615947961807,-0.16440014247521756,-0.05437730421256274
1761915731147359500,5.919359375,-0.2972299654275179,0.006584931348264217,0.014800843165535479
1761915731157412900,5.929412841796875,-0.4892711251527071,0.186522980825603,0.08002579593844711
1761915731167466800,5.939466796875,-0.5345990441322326,0.24184417829215527,0.11806949446024373
1761915731177520600,5.949520751953125,-0.42776247122287747,0.23013737388551234,0.1585692626309581
1761915731187574800,5.95957470703125,-0.2991425210505724,0.1938949708983302,0.2105314319931902
1761915731197628700,5.969628662109375,-0.1898398502886295,0.11210837583243846,0.2333930512132123
1761915731207682800,5.979682861328125,-0.10026128617227077,0.012039835753291844,0.2321341006606817
1761915731217737700,5.98973779296875,0.002935468930006027,-0.034117665918171405,0.21764214078122748
1761915731227792000,5.9997919921875,0.1721557250380516,-0.06791910549402237,0.1726203468751162
1761915731237845800,6.009845703125,0.35612580651044845,-0.11565846952944993,0.1499086849192623
1761915731247899600,6.019899658203125,0.45055181065797806,-0.15363324926719069,0.10575660478607751
1761915731257953500,6.02995361328125,0.38959962156713007,-0.1569460270769894,0.14185809233207256
1761915731268007700,6.040007568359375,0.2878448819667101,-0.1211217033714056,0.15183637417936696
1761915731278061800,6.050061767578125,0.13087971179783345,-0.04586027229055762,0.11720600949870422
1761915731288115700,6.06011572265625,0.026288287466764447,0.08786489206627011,0.0985737714767456
1761915731298169900,6.070169921875,-0.0682534520149231,0.18829978123977778,0.06697786085484549
1761915731308223700,6.0802236328125,-0.08107727775275707,0.21846476400941608,0.020114457670040428
1761915731318278000,6.09027783203125,-0.027966449812054633,0.19514277900233865,-0.029297278290707617
1761915731328331800,6.100331787109375,0.049015667581558224,0.15544000642821193,-0.09051979048922658
1761915731338386700,6.11038671875,0.10482523308694362,0.0854325503528118,-0.17122737641306593
1761915731348440600,6.120440673828125,0.1508499021589756,0.047652124143391844,-0.20915122968116773
1761915731358494700,6.13049462890625,0.20056465792059897,0.07108736026659608,-0.21656462947651742
1761915731368548900,6.140548828125,0.1746703382074833,0.10172215250506997,-0.24404232765724881
1761915731378603800,6.150603759765625,0.08218202412426472,0.14512100311815737,-0.25544578346945346
1761915731388658700,6.16065869140625,0.06921206791400909,0.18345628673136233,-0.2436180560968816
1761915731398712600,6.170712646484375,0.11244915209412575,0.2563881058208644,-0.19169716859310865
1761915731408766700,6.1807666015625,0.08135258756279945,0.29933833588361736,-0.09556585836503655
1761915731418820900,6.19082080078125,-0.010521978536248207,0.2747799409493804,-0.032314087094925344
1761915731428874800,6.200874755859375,-0.006892682123184204,0.2567158764705062,-0.01678987982459366
1761915731438929000,6.210928955078125,0.035998949620127674,0.2114060776695609,-0.012545629850961268
1761915731448982800,6.220982666015625,0.10710194584727287,0.10791881518810986,-0.010413595391483977
1761915731459037000,6.231036865234375,0.16209434975087642,0.026879092966765165,0.01903932098550722
1761915731469090800,6.2410908203125,0.17484277216494082,-0.01773673222064972,0.07380801740214228
1761915731479144700,6.251144775390625,0.16260755997002124,-0.05712137875631451,0.12791084292172453
1761915731489198600,6.261198486328125,0.16696458613574505,-0.08295037814825773,0.14934136075954885
1761915731499253800,6.271253662109375,0.25960487591028214,-0.0747688252583146,0.17501942563978953
1761915731509308000,6.281307861328125,0.33845746335089205,-0.07939765410274267,0.15132059754380023
1761915731519361800,6.29136181640625,0.3614332652688026,-0.08101517230197787,0.08193256114153191
1761915731529416000,6.301416015625,0.3387169910699129,-0.041096418889611956,0.06744044599845074
1761915731539469800,6.3114697265625,0.27571313014626503,-0.048209904156625266,0.08736653235638514
1761915731549523700,6.321523681640625,0.2385001285612583,-0.08429580140784382,0.11569257272845133
1761915731559577600,6.33157763671875,0.25405308700203894,-0.14494272394180296,0.08154426507684402
1761915731569631700,6.3416318359375,0.1626134051889181,-0.054538376525789495,0.0437834020844195
1761915731579685600,6.351685546875,0.06059270812869071,0.07777326777130365,0.17985132104195653
1761915731589739800,6.36173974609375,0.050690907317399975,-0.07848433865010739,0.017642012275056913
1761915731599793700,6.371793701171875,0.24252982246875762,-0.12970000049397348,-0.01696256951037794
1761915731609848800,6.381848876953125,0.30319501131176946,-0.033487551321089264,0.01162742816065438
1761915731619903000,6.391903076171875,0.19389760124683378,-0.04683057862743735,-0.028869015541812402
1761915731629956600,6.40195654296875,0.16489128699302671,-0.04984744223058223,-0.06579560140087269
1761915731640010800,6.4120107421875,0.12247077989280224,-0.029927666882425544,-0.045592707395553586
1761915731650064600,6.422064697265625,0.11944880172312258,-0.023657792832702397,-0.02538384030717425
1761915731660118800,6.432118896484375,0.12309621831476687,-0.04509308731034398,0.017016427722619847
1761915731670172700,6.442172607421875,0.10304185680150985,-0.11119871364161371,0.060498727968614545
1761915731680226800,6.452226806640625,0.03783551739752292,-0.15671061088591814,0.08100920835207216
1761915731690280700,6.46228076171875,0.02293430086374283,-0.17358941110298037,0.10750798763120546
1761915731700334800,6.4723349609375,0.025804303342103957,-0.17039470671489834,0.09421985971671529
1761915731710388700,6.482388671875,0.03860182559490204,-0.14356222936883567,0.07874857907686382
1761915731720443600,6.492443603515625,0.06980652667582035,-0.10540990110710263,0.08537473748466
1761915731730497800,6.502497802734375,0.07255553312301635,-0.087864161413908,0.12381925362600013
1761915731740551700,6.5125517578125,-0.009133739048242568,-0.09087824853807687,0.19382689236449077
1761915731750605800,6.522605712890625,-0.03863572786450386,-0.07540726929232477,0.246689152371604
1761915731760659700,6.53265966796875,-0.027626842594146727,-0.06909151027426123,0.25091983047761024
1761915731770713900,6.5427138671875,-0.04081540999114513,-0.04039075483828783,0.24083712014146147
1761915731780767700,6.552767822265625,-0.0504939234405756,-0.014434037413448094,0.23418343440592287
1761915731790822000,6.56282177734375,-0.00839081172645092,-0.0063762570336461065,0.19490803866470233
1761915731800875800,6.572875732421875,-0.0029091654449701306,0.0053206105008721345,0.1334233957981225
1761915731810929700,6.5829296875,-0.023515315622091294,0.023875673367083072,0.10701171941370703
1761915731820983600,6.592983642578125,0.06611001024544239,0.01535159064978361,0.03892987023917958
1761915731831038700,6.603038818359375,0.07220131285786628,0.07288242698982357,0.09068862598380073
1761915731841092900,6.6130927734375,0.09457271914184093,0.01694149018973112,0.0342715413056314
1761915731851146800,6.623146728515625,0.10646014081239699,-0.007189619243144989,-0.05437389754592441
1761915731861201000,6.633200927734375,0.08131517816185951,0.015058014530688524,-0.1080236638020724
1761915731871254800,6.6432548828125,0.13048632856607437,0.06285992240831255,-0.12038195438738912
1761915731881308700,6.65330859375,0.17897651096880435,0.07314151631742716,-0.1514334924669005
1761915731891362600,6.663362548828125,0.03768646431565285,0.1259352411329746,-0.15163064074050633
1761915731901416700,6.673416748046875,-0.06425006159245968,0.19432547127008437,-0.08417477797721512
1761915731911470600,6.683470703125,-0.14083879575431346,0.1818710633665323,-0.06909809527867473
1761915731921524700,6.693524658203125,-0.10711422080695629,0.14767244116663933,-0.07083251785584725
1761915731931578600,6.70357861328125,0.04733867428004741,0.13777254005149006,-0.07269641203158535
1761915731941633800,6.7136337890625,0.012298340559005737,0.11814780212715267,-0.12884984993804247
1761915731951688000,6.72368798828125,-0.08183774073123931,0.13619886099398135,-0.11319133049724622
1761915731961741600,6.733741455078125,-0.003967150065302848,0.17024959915578364,-0.10701579280062579
1761915731971795700,6.743795654296875,0.018663199415802953,0.14805603365674613,-0.10293802196769974
1761915731981849600,6.753849609375,0.006405190867185592,0.128790776694566,-0.051745759265730155
1761915731991903700,6.76390380859375,0.025708441752195357,0.08266250111758708,0.004413441661233082
1761915732001957600,6.77395751953125,0.07905074036121368,0.05204100675210356,0.05046556499577127
1761915732012011800,6.78401171875,0.10302607471048832,0.03845817934051156,0.06354700962333008
1761915732022065700,6.794065673828125,0.11258125404119491,0.020805618271976706,0.06815387323112226
1761915732032119800,6.804119873046875,0.0775379977107048,-0.004732143088430166,0.11587223101113922
1761915732042174700,6.8141748046875,0.03687280984520912,-0.011250731202214955,0.15783271025102585
1761915732052228600,6.824228515625,0.03499298744797706,-0.02209039738550782,0.15866375424768775
1761915732062282800,6.83428271484375,0.09470131395757198,-0.038553164147585625,0.13617141586462966
1761915732072336600,6.844336669921875,0.15337971289753913,-0.07434095523506402,0.11328440647502429
1761915732082390800,6.854390869140625,0.16095511658787726,-0.09743746092319489,0.13585974696641787
1761915732092444700,6.864444580078125,0.1091875199496746,-0.1244404725305736,0.16327881029509006
1761915732102498800,6.874498779296875,0.10331775113344192,-0.13172770692929625,0.15081099492069333
1761915732112552700,6.884552734375,0.17797405592799187,-0.10889262865632772,0.10848592928526922
1761915732122606800,6.89460693359375,0.2350502803683281,-0.07311199796199798,0.0612574282482732
1761915732132661000,6.904660888671875,0.27843524858653546,-0.04910699912682175,0.03112754419147968
1761915732142714600,6.914714599609375,0.22206337302327156,-0.06166852066665887,-0.0026596933290828017
1761915732152769800,6.924769775390625,0.10590542953908443,-0.057407209960371255,-0.004358551402529701
1761915732162825500,6.934825439453125,-0.01241407589316368,-0.03192702400609851,0.025001983116427436
1761915732172879000,6.944879150390625,-0.08826806603968143,-0.0017034429170191287,0.044380189800634975
1761915732182933200,6.954933349609375,-0.13901274937093258,0.013750731324404478,0.06231902046464383
1761915732192987100,6.964987060546875,-0.07547112830877303,0.04376519970744848,0.05914862853391096
1761915732203041300,6.975041259765625,0.0010264204382896423,0.0549805673353374,0.007192130860639735
1761915732213095200,6.98509521484375,-0.02562076346874237,0.10885843412578106,-0.024555828517815098
1761915732223149300,6.9951494140625,-0.05948796175718307,0.16044190636873246,-0.0034564971294254064
1761915732233203500,7.005203369140625,-0.09812661223113536,0.1332281746201217,0.008825275887269526
1761915732243257300,7.01525732421875,-0.13403613000214099,0.05713993732631206,0.04310359399355948
1761915732253311500,7.0253115234375,-0.1224894845932722,0.020922522649914024,0.09040276738028041
1761915732263366100,7.0353662109375,-0.06597732377648353,-0.04767316693142056,0.11812503317291848
1761915732273420300,7.045420166015625,-0.022325229054689404,-0.09746025727689266,0.10766805529743433
1761915732283474200,7.05547412109375,0.03418225558698177,-0.06984072120636702,0.12431562230819836
1761915732293528300,7.0655283203125,0.08978373129963874,-0.004286152886599302,0.12544391395207494
1761915732303582200,7.075582275390625,0.17106033101677895,0.045295770275592805,0.09094506669659166
1761915732313636400,7.08563623046875,0.19923311705589294,0.0699155400082469,0.05345356783061288
1761915732323690200,7.095690185546875,0.10996434954106807,0.04740297168791294,0.08869382630423642
1761915732333744400,7.105744384765625,-0.048772506475448604,0.02318666818961501,0.13696100447289644
1761915732343798300,7.11579833984375,-0.11120412046909331,0.011313421174883842,0.19213201634641736
1761915732353852200,7.12585205078125,-0.04921323598027229,0.014606617501378058,0.21806210149265826
1761915732363906300,7.13590625,0.06721943279206752,-0.000286561856418848,0.19005959398653358
1761915732373961200,7.145961181640625,0.12281973946094513,-0.007665712322294712,0.18211890064775943
1761915732384015400,7.156015380859375,0.07540858446657657,0.0026578210324048994,0.17245805071918294
1761915732394069200,7.1660693359375,0.018864859467744827,0.02918663925677538,0.15367938996385783
1761915732404123400,7.176123291015625,0.025111644902825355,0.0727300129070878,0.11652460310580208
1761915732414177300,7.18617724609375,0.14859890836179254,0.08937135110646485,0.06029845615616068
1761915732424231200,7.196231201171875,0.3039858694285154,0.04896291448101401,0.022743280936824158
1761915732434285300,7.206285400390625,0.36465514992475506,0.01009790790528059,0.02212839130833745
1761915732444339200,7.216339111328125,0.22191899611651897,0.0343120194464922,0.05326521935139317
1761915732454393300,7.226393310546875,0.05528349580466747,0.04963672208935022,0.1092932270801626
1761915732464447200,7.236447265625,0.22615035007596015,-0.01773950869962573,-0.029306073518516496
1761915732474502400,7.24650244140625,0.3985170875161886,0.03523673307597637,-0.06331734275303315
1761915732484556300,7.256556396484375,0.3515940082997083,0.06179565417766571,-0.10965353002622723
1761915732494610400,7.2666103515625,0.28191198478639123,0.12222031226307153,-0.07360708800256252
1761915732504664000,7.2766640625,0.11827274368107318,0.10702172021791338,-0.049636224332428536
1761915732514718200,7.28671826171875,-0.022387188374996186,0.08701397432535886,-0.018364198202919214
1761915732524772400,7.2967724609375,-0.050019876188039776,0.07181479775831102,-0.007215913595026359
1761915732534826200,7.306826171875,-0.010654080483317374,0.04317483259886503,-0.022138547376170752
1761915732544880400,7.31688037109375,0.08928338056206703,0.030783406928926706,-0.041413471782417034
1761915732554934300,7.326934326171875,0.1502484291344881,0.020768208871036767,-0.06936171465092338
1761915732564988400,7.336988525390625,0.11740122154355048,-0.004294920714944601,-0.09367485698666422
1761915732575042300,7.347042236328125,0.07132628358900546,-0.03506502977088093,-0.09546007816931232
1761915732585097200,7.35709716796875,0.10606558853685855,-0.056090136012434955,-0.08780758152161725
1761915732595151000,7.367151123046875,0.20430442897081375,-0.08218041668906807,-0.08026561431000008
1761915732605205200,7.377205322265625,0.29248773933649064,-0.12017580082342028,-0.11484753673905507
1761915732615259400,7.38725927734375,0.30250819809138774,-0.13570055608302353,-0.10338464235719293
1761915732625313300,7.397313232421875,0.235106394469738,-0.12024462827593087,-0.07176852919748053
1761915732635367400,7.407367431640625,0.11172609851658344,-0.10864537589699029,-0.03553103071427904
1761915732645421300,7.41742138671875,0.04418167155385017,-0.0947352162271738,-0.011875238042417913
1761915732655475500,7.427475341796875,0.0674473963290453,-0.08125204979777335,-0.01332000262378715
1761915732665529300,7.437529296875,0.07882628395557403,-0.03890869958698749,-0.028660441691894082
1761915732675583500,7.44758349609375,0.04673837029933929,-0.006512304503470659,-0.03226763587100431
1761915732685638100,7.45763818359375,-0.04264320994019508,0.007408668821305036,-0.017867080602049827
1761915732695692300,7.4676923828125,-0.06439969919621943,0.0417110436566174,0.01019674690356478
1761915732705746400,7.477746337890625,0.0019505495458841324,0.06532368217334152,0.02163615994513966
1761915732715800300,7.48780029296875,0.04817103345096111,0.06057268825396895,0.016986407043691722
1761915732725854500,7.4978544921875,0.06097556996643543,0.05738821299895644,0.026943792233429846
1761915732735908400,7.507908447265625,0.017838439029455182,0.016078005228191614,0.019370973225822673
1761915732745962500,7.51796240234375,-0.06600888795852661,-0.0070921502180397505,0.04203363580764271
1761915732756016000,7.52801611328125,-0.11813187390565871,-0.025614772119373082,0.07360868630460463
1761915732766070300,7.5380703125,-0.08583002523779869,-0.00310527253895998,0.10766870375140569
1761915732776124200,7.548124267578125,-0.00011807342171669006,0.007457330268621444,0.11707218138542957
1761915732786178300,7.55817822265625,0.08088087839782238,0.014778759197890758,0.10687300506276078
1761915732796233200,7.568233154296875,0.12076456049680709,-0.01649418481364846,0.09899487383249216
1761915732806287400,7.578287353515625,0.12423720504343509,-0.05514569476917386,0.08175224527171812
1761915732816341500,7.588341552734375,0.09845335996747016,-0.07073182482719421,0.09263085522591136
1761915732826395400,7.5983955078125,0.07622106989324093,-0.05911065287739038,0.12630317939622326
1761915732836449300,7.60844921875,0.05905600008070468,-0.02049333745241165,0.1320375583297573
1761915732846503200,7.618503173828125,0.061729018682241434,-0.02706613997146487,0.11836815774640999
1761915732856557300,7.628557373046875,0.12100012281835079,-0.04265446198657155,0.11363213306730613
1761915732866611200,7.638611083984375,0.16695990996062754,-0.07581497331038117,0.11543457937939092
1761915732876665300,7.648665283203125,0.2050467717707157,-0.09269201996177434,0.10683380556353367
1761915732886719200,7.65871923828125,0.22086276506185532,-0.09862199453264474,0.09169130935347639
1761915732896773400,7.6687734375,0.16138240208923815,-0.09604673721715808,0.1003886662784498
1761915732906828300,7.678828369140625,0.039026188486814495,-0.0700404815621674,0.11961272358056158
1761915732916882200,7.688882080078125,-0.09545359362959861,-0.020081541781127452,0.12804821469895541
1761915732926936300,7.698936279296875,-0.16352292124927043,0.031094957096129652,0.10771394939892924
1761915732936990200,7.708990234375,-0.14994097062051295,0.08939166324213146,0.0679133972724434
1761915732947044400,7.71904443359375,-0.11419161184728145,0.14503770874887703,0.032399418157665054
1761915732957098200,7.72909814453125,-0.058330608415603634,0.15940204192698001,0.0025330712747294454
1761915732967152400,7.73915234375,-0.0463023169696331,0.13733897093981504,0.011070506663946433
1761915732977206300,7.749206298828125,-0.09453647878468036,0.11210589161440729,0.02069843157045543
1761915732987260400,7.759260498046875,-0.15766893452405928,0.10303498866930604,0.028011010472988707
1761915732997314300,7.769314208984375,-0.17289806783795356,0.12716960523352025,0.014545023507252335
1761915733007369200,7.779369140625,-0.08259177396893501,0.14474530167356134,-0.006593032456329092
1761915733017423400,7.78942333984375,0.08613163853287696,0.12069617143571376,-0.020532801813120023
1761915733027477200,7.799477294921875,0.2346563126146793,0.06263342017605901,-0.03481304603749886
1761915733037531400,7.809531494140625,0.2601438050925732,-0.0025314181737601756,-0.03948579622204415
1761915733047585300,7.819585205078125,0.1844295156776905,-0.03451557919457555,0.007513919294066727
1761915733057639400,7.829639404296875,0.08238894487321376,-0.044522593946009874,0.054369458832824596
1761915733067693300,7.839693359375,0.03933656961023807,-0.03986220091953874,0.05183299002461135
1761915733077747500,7.84974755859375,0.05836217259764671,-0.03413403253108263,0.04375131731256842
1761915733087801300,7.85980126953125,0.0840606774777174,-0.03941548006534576,0.03505802464135922
1761915733097855200,7.869855224609375,0.08638122937977313,-0.049872430541366336,0.013802224049624055
1761915733107909000,7.8799091796875,0.10696692129075526,-0.062209934066981075,-0.013931321188854052
1761915733117964300,7.88996435546875,0.17021569688618182,-0.057213148692995305,-0.04102917147283442
1761915733128018400,7.900018310546875,0.191976277795434,-0.07331482705771923,-0.04254983256831765
1761915733138072300,7.910072265625,0.1683908195465803,-0.11558832690268754,-0.019063642576010897
1761915733148126500,7.92012646484375,0.06633329760730267,-0.17699103624001145,0.004668494134536013
1761915733158183000,7.930182861328125,-0.021716157245635984,-0.1339255092345178,0.04262050491804257
1761915733168237000,7.940237060546875,-0.008164601755142211,-0.07781827595680951,0.020484213431039823
1761915733178291000,7.950291015625,0.06910626945197582,-0.013101765896379947,-0.030094666612939906
1761915733188344800,7.9603447265625,0.12503741551041603,0.0376787194006145,-0.033490108604356646
1761915733198398700,7.970398681640625,0.13018705335855482,0.05119724940434098,-0.010624151135934515
1761915733208452900,7.980452880859375,0.09344050024151801,0.03270166164040565,-0.00680439191837795
1761915733218507800,7.9905078125,0.09220599001049995,-0.007963087833672762,0.003387669676914811
1761915733228562000,8.00056201171875,0.0983300258487463,-0.036086043381690976,-0.010960324287740512
1761915733238616000,8.010615966796875,0.08872983833253383,-0.005795826797187328,0.004743358602188527
1761915733248670000,8.020669921875,0.06934943055808544,0.06352160118743777,0.024986456753732636
1761915733258724000,8.03072412109375,-0.02136076793670654,0.12258344648703932,0.018073690823744982
1761915733268777700,8.04077783203125,-0.09184007930755615,0.15789134510308503,0.04327765365252271
1761915733278831900,8.050831787109376,-0.06275602364242076,0.1700176900960505,0.027128802544670177
1761915733288885800,8.0608857421875,0.07045183884203433,0.12279022110551595,0.012030136343184858
1761915733298940000,8.07093994140625,0.13230419164299964,0.07261062431111931,0.0640380354101304
1761915733308993800,8.080993896484374,0.10450491509139537,0.0407733244150877,0.11055569389718584
1761915733319049000,8.091049072265625,0.03115501672029495,0.015017536389827727,0.130624997251248
1761915733329103000,8.10110302734375,0.02524725398123264,0.00584931055009365,0.14228430925435387
1761915733339157000,8.111156982421875,0.11334580867290496,-0.014212211356312036,0.11326677948678843
1761915733349211000,8.1212109375,0.24289807125926016,-0.023816782786697147,0.0754590908111073
1761915733359264800,8.1312646484375,0.32893793985545633,-0.07256225512474775,0.06465343649527058
1761915733369319000,8.14131884765625,0.3305746011465788,-0.1223335633791983,0.06936914903870783
1761915733379372800,8.151372802734375,0.2772439929753542,-0.16961144738271833,0.09119523293222301
1761915733389427000,8.161427001953125,0.17172434788346289,-0.1868221099026501,0.09785508354706689
1761915733399480800,8.171480712890625,0.09619535190761089,-0.18343597459569572,0.10299586223531514
1761915733409535000,8.181534912109376,0.061011810323596,-0.0817161601781845,0.10559130382230504
1761915733419588900,8.1915888671875,0.05933773963153362,0.04727613043785095,0.10693996021859348
1761915733429643800,8.201643798828124,0.05073007028400898,0.1076740466468036,0.10413803627407178
1761915733439698000,8.211697998046875,-0.00966740753352642,0.10033552045226096,0.13095526125207543
1761915733449751800,8.221751708984375,-0.10811199967265128,0.09978153983131051,0.16219435779293997
1761915733459806000,8.231805908203125,-0.18519290126562118,0.07109963522627949,0.1650670636850409
1761915733469859800,8.24185986328125,-0.20605214942097663,0.035956425652652974,0.1582040825803764
1761915733479914000,8.2519140625,-0.19573358450233935,0.04970087336674332,0.14604124150192363
1761915733489967900,8.2619677734375,-0.1339396838903427,0.08669058758988976,0.10924578947555273
1761915733500022000,8.27202197265625,-0.04248772711753845,0.13418503695353864,0.07325032872045412
1761915733510076000,8.282075927734375,0.015185294172167777,0.14586393043994902,0.038657263842877
1761915733520129800,8.2921298828125,-0.03001519903540611,0.12696093091890215,0.001604713516589254
1761915733530185000,8.30218505859375,-0.11409048956036567,0.12399945076480508,0.03509496825141832
1761915733540238800,8.31223876953125,0.12942483681440353,0.12281374811157583,0.027683121092338114
1761915733550293000,8.32229296875,0.24946517468988894,0.018233868087828158,-0.05103900836901739
1761915733560347000,8.332346923828124,0.19011749818623064,-0.01748392650336027,-0.024856291035423052
1761915733570401000,8.342401123046875,0.1981622729539871,-0.00625146161019802,-0.0013793803281150758
1761915733580455000,8.352454833984375,0.22268471979200838,-0.05426408962905407,-0.05106149419546127
1761915733590509000,8.362509033203125,0.21103519853055475,-0.09278905059546232,-0.06332116497820243
1761915733600562700,8.372562744140625,0.20808453203141689,-0.09319529330879449,-0.061172206783387806
1761915733610616800,8.382616943359375,0.1434334884226322,-0.07397782101109623,-0.0355400634041056
1761915733620670700,8.392670654296875,0.16546470296680926,-0.11277210043817758,-0.06653499419186264
1761915733630724900,8.402724853515625,0.2811082671880722,-0.07303016489744187,-0.08598746255552396
1761915733640780000,8.412780029296876,0.28374153830111026,-0.09317410439029336,-0.10168432297902182
1761915733650834000,8.422833984375,0.24226211144328116,-0.0632085897155106,-0.06965123564940877
1761915733660888000,8.43288818359375,0.21348492977023123,-0.06027136721983552,-0.05791204507681541
1761915733670942000,8.44294189453125,0.20646189926564693,-0.057315001632273196,-0.04185298201111145
1761915733680995800,8.452995849609374,0.18346856169104575,-0.06311214360371231,-0.04131567853032611
1761915733691049700,8.4630498046875,0.1609878498136997,-0.06300137670561672,-0.07168351779514923
1761915733701103900,8.473103759765625,0.17119477105140685,0.00032207156121730803,-0.05649126415923238
1761915733711157800,8.48315771484375,0.14750234529674053,0.066220777143538,-0.017234646183717995
1761915733721212000,8.4932119140625,0.08747779244482516,0.1218880115687847,0.024526209697686135
1761915733731265800,8.503265869140625,0.00913198548257351,0.10827698097601532,0.036323231404740364
1761915733741321000,8.513321044921875,0.014831073907017708,0.07415405436083675,0.055044152357149864
1761915733751374800,8.523374755859376,0.09453355617523193,0.03885083191990852,0.03758218195727095
1761915733761428700,8.5334287109375,0.1523439401090145,-0.009799363350123167,0.04219144758470356
1761915733771483000,8.54348291015625,0.15069909551143645,0.01591083196774125,0.09578035963224246
1761915733781536800,8.553536865234374,0.07364800453484058,0.05279021768420934,0.13796654651993884
1761915733791591000,8.5635908203125,-0.054606619456410405,0.002021715085953474,0.1518165917666629
1761915733801644800,8.573644775390624,-0.04946750300228595,-0.038258857376128434,0.15970950044095517
1761915733811699000,8.583698974609375,0.08556991299688815,-0.07593962260335684,0.1284342914070934
1761915733821752800,8.5937529296875,0.1860235068708658,-0.10231617287546396,0.0843043500404805
1761915733831807000,8.603806884765625,0.20200024368166922,-0.11591463624760508,0.06612694311393424
1761915733841862000,8.61386181640625,0.13749182341396807,-0.11683613500669598,0.058328434724826364
1761915733851915800,8.623915771484375,0.05170329923033714,-0.1174431609891355,0.062404287595301866
1761915733861970000,8.633969970703125,-0.015302198550105095,-0.07940218414738774,0.06074740550005808
1761915733872023800,8.64402392578125,-0.005651742151379585,-0.06915010859370231,0.040077104045543814
1761915733882078000,8.654077880859376,0.039454058510065074,-0.043675767858326435,0.030140652045980095
1761915733892131800,8.6641318359375,0.043372693258523935,-0.03382175171151757,0.04398529046522453
1761915733902186000,8.67418603515625,0.03968786726593971,-0.08626023334860801,0.0611937975606881
1761915733912239900,8.684239990234374,0.03178162418603897,-0.13895181296393275,0.08660616070944815
1761915733922294000,8.6942939453125,-0.21471242573857305,-0.05445040598139166,0.11190066963220015
1761915733932347600,8.70434765625,-0.46967853593230247,0.1755560350008309,0.20434516284000126
1761915733942401800,8.71440185546875,-0.5752063643306493,0.16442703048214316,0.1184514429825358
1761915733952457000,8.72445703125,-0.21634674894213676,0.18426015046015382,0.0874661568059586
1761915733962510800,8.7345107421875,-0.01943418378829956,0.16696853165850042,-0.00444437565561384
1761915733972565000,8.74456494140625,0.014292144724726676,0.14251812714338302,-0.04434670765614137
1761915733982619000,8.754618896484375,0.04890870007574558,0.11021057938709855,-0.01804188917968422
1761915733992673000,8.764673095703126,0.11269231320023536,0.0920266879208386,-0.021413849830813705
1761915734002727000,8.774726806640626,0.1125420910745859,0.07330328275039792,-0.0301268609826453
1761915734012780800,8.78478076171875,0.08909165738224983,0.07115121928304434,0.007960092158988118
1761915734022834700,8.794834716796874,0.13313888890147207,0.041484395293891425,0.031981402808148415
1761915734032888800,8.804888916015624,0.14141162720620631,-0.003360416343808174,0.06913282866533846
1761915734042942700,8.814942626953124,0.12242051101028918,-0.059689621809124946,0.11434669281113892
1761915734052998000,8.824997802734375,0.13466390651166438,-0.10176803747341036,0.14161968046631662
1761915734063052000,8.835052001953125,0.22069266919195651,-0.054062721838057035,0.1308655554083176
1761915734073106000,8.84510595703125,0.25770693333446976,0.04605667164549231,0.08066122603146358
1761915734083159800,8.855159912109375,0.2267366255313158,0.12388926838859915,0.020964370763953775
1761915734093213700,8.865213623046875,0.1655810228228569,0.15886676600649952,-0.011012940390966832
1761915734103267800,8.875267822265625,0.09513678276538848,0.16118877921327948,-0.0037873730516061184
1761915734113321700,8.88532177734375,0.07838204731941223,0.15201690011173485,0.003873882291279733
1761915734123375900,8.8953759765625,0.08111702524125576,0.08996332565024495,0.009375959439435973
1761915734133429800,8.9054296875,0.13259002284705637,0.023791794475913047,0.020592349980631842
1761915734143484000,8.91548388671875,0.26402503044009207,-0.01490852305740118,-0.009228678189544006
1761915734153538000,8.9255380859375,0.37784079471230503,-0.08202624904066323,-0.04939034611284732
1761915734163593700,8.93559375,0.3778536541938782,-0.1277599723421037,-0.07244080243585631
1761915734173648000,8.94564794921875,0.27998715420365333,-0.12271803265213965,-0.036378870582114906
1761915734183701800,8.95570166015625,0.19295827457010745,-0.0727663993947208,0.023088523311074822
1761915734193756000,8.965755859375,0.12087912678718567,-0.014414748191088437,0.03301600655289367
1761915734203809800,8.975809814453125,0.08318681725263595,0.01858472735211253,0.012087784814555197
1761915734213864000,8.985864013671875,0.05061316590607166,0.008787848220020532,-0.009542392914369702
1761915734223917800,8.995917724609376,0.0522889901638031,-0.051035044579952955,-0.011845354360807686
1761915734233971700,9.0059716796875,0.07160159339904784,-0.04921791215538978,0.013433500335086137
1761915734244025600,9.016025634765626,0.048310149660706514,-0.04630728540569543,0.05385605681743472
1761915734254079700,9.026079833984374,-0.02033960819542408,-0.03529284717738628,0.06602156477700918
1761915734264135000,9.036135009765625,-0.05686053586304188,0.007174421674013137,0.06132210924862884
1761915734274188800,9.046188720703125,-0.0251619137853384,0.027343203347176312,0.03368035221314058
1761915734284243000,9.056242919921875,0.043535774865746495,0.03478299795910716,0.0063119230931624765
1761915734294296800,9.066296875,0.08394552666544913,0.019151421324163673,-0.0007481971519533544
1761915734304351000,9.07635107421875,0.10739420679211616,-0.04273936379104852,-0.004718278959859162
1761915734314404600,9.086404541015625,0.12366378906965254,-0.08037745892032981,0.010410654515726491
1761915734324458800,9.096458740234375,0.10682663603723049,-0.08140534066334366,0.026891614521620793
1761915734334512600,9.1065126953125,0.1157014318883419,-0.0666549307771027,0.02289199609197676
1761915734344566800,9.11656689453125,0.1111135195761919,-0.05840338139086961,0.02652492750054225
1761915734354620700,9.12662060546875,0.07250000354349613,-0.0054575347535312175,0.03381197923617437
1761915734364675800,9.13667578125,0.06277648190855979,0.025289485687762497,0.03439794416427612
1761915734374730000,9.14672998046875,0.06801438256204127,0.02944236758351326,0.02769369728527963
1761915734384784000,9.156783935546875,0.03171791130006313,0.016840660163760183,0.028181882661022246
1761915734394837800,9.166837646484375,-0.0240682733297348,0.021094518215954303,0.04891447222940624
1761915734404891600,9.1768916015625,-0.02281213578879833,0.062167994621396064,0.045757506035827095
1761915734414945800,9.18694580078125,0.02996960632801056,0.0948269861638546,-0.00024975524367764593
1761915734424999700,9.196999755859375,0.10125906503796576,0.09816095289215444,-0.025495383523404597
1761915734435053800,9.2070537109375,0.10357377172112464,0.054162236689776176,-0.0279422469525598
1761915734445107700,9.217107666015625,0.055852235603332516,0.015272095672786234,-0.015413732633180915
1761915734455161900,9.227161865234375,0.024153029003739356,0.022028584195673464,-0.016974333013407884
1761915734465215700,9.2372158203125,-0.005558218649029731,0.08323153317719698,-0.023702271295245735
1761915734475270700,9.247270751953126,-0.007427519652247428,0.15386939611062406,-0.0012172303026542067
1761915734485324800,9.25732470703125,-0.025636545559763906,0.19060002100616694,0.006171975766355172
1761915734495378700,9.267378662109374,-0.03280570653676986,0.16789952889829873,0.0388618465042673
1761915734505432800,9.277432861328125,-0.06477379320561885,0.11575535403266549,0.04430399189242162
1761915734515486700,9.28748681640625,-0.08077040376067161,0.08244915062785148,0.045588908003270624
1761915734525540900,9.297540771484375,-0.0652986938625574,0.06467647031098604,0.03043483095327392
1761915734535594800,9.3075947265625,-0.04652209720015526,0.049444268257170916,0.04509958098321221
1761915734545649000,9.31764892578125,-0.02082534588575363,0.014124240811914204,0.048377972466219214
1761915734555702800,9.327702880859375,0.034193361502885815,-0.027045535574853417,0.05907407459351234
1761915734565756700,9.337756591796875,0.07231587914824486,-0.048247167427092785,0.0917553601661697
1761915734575811800,9.347811767578126,0.09553601121604442,-0.046562721471488475,0.11665610226467252
1761915734585865700,9.35786572265625,0.13263561555445194,-0.06589023001492023,0.131561437851144
1761915734595920000,9.367919921875,0.17799626775979996,-0.07496683204844594,0.13034307503732853
1761915734605973800,9.377973876953124,0.20821604945659636,-0.08641118612661958,0.11753662055940367
1761915734616028000,9.38802783203125,0.2361211244702339,-0.09235197435244917,0.09332554122549482
1761915734626081800,9.398081787109374,0.2528343588620424,-0.09795783153548836,0.07228493602070957
1761915734636136000,9.408135986328125,0.18650047673285006,-0.10502207083329558,0.09010514527373015
1761915734646189600,9.418189453125,0.09709902274906634,-0.09290420140773058,0.1237193643149454
1761915734656243700,9.42824365234375,0.06883622033894062,-0.052219578189402815,0.12810461192815564
1761915734666297900,9.4382978515625,0.08459668405055999,-0.019008651852607725,0.12002461058339103
1761915734676351700,9.448351806640625,0.10112754761278629,-0.015094839409738778,0.09139173275185748
1761915734686407000,9.458406982421875,0.08074760740697383,-0.013263386198878287,0.0905157079691533
1761915734696460800,9.468460693359376,0.05127309111952781,-0.03822539349794388,0.11173430008934811
1761915734706515000,9.478514892578126,0.07365911045074462,-0.053205228225886816,0.11043683502417988
1761915734716568800,9.48856884765625,0.12188275087177752,-0.06338087754249572,0.1105857967745047
1761915734726622700,9.498622802734374,0.17006722832620144,-0.050396308284997936,0.08212136171190068
1761915734736676600,9.508676513671874,0.23077450274527073,-0.011315320871025323,0.051412243861891326
1761915734746730800,9.518730712890624,0.20434300741553305,0.004840718029439449,0.014989314942341297
1761915734756784600,9.52878466796875,0.14936989273428916,0.03081073332726955,-0.001981218678783625
1761915734766838800,9.5388388671875,0.11111936479508876,0.06599032938852906,-0.009971486780326813
1761915734776893000,9.548892822265625,-0.0002747252881526947,0.06826733440980315,-0.00013840382369235157
1761915734786947800,9.55894775390625,-0.10994213770925998,0.04624488769397139,0.04768633694024756
1761915734796999700,9.568999755859375,-0.16415069775879382,0.031658874589204786,0.061829757376667106
1761915734807053800,9.5790537109375,-0.12401859385669231,0.05875190256759524,0.04587864819746464
1761915734817107700,9.589107666015625,-0.045676878547668456,0.09936813672482966,0.009562476721173151
1761915734827161900,9.599161865234375,0.008832125753164291,0.12761018860787152,-0.015187321732472628
1761915734837216000,9.609216064453125,0.0019219079732894896,0.12174977214187382,-0.014432229048851877
1761915734847270700,9.619270751953126,-0.005344283637404442,0.08475465109124779,0.0027581213354133066
1761915734857324800,9.62932470703125,0.014665654212236404,0.061683718235790726,0.02436364868027158
1761915734867378700,9.639378662109374,-0.0015115736067295073,0.0409366982832551,0.03977744524553418
1761915734877432800,9.649432861328124,-0.01871872899532318,0.02986410012692213,0.0626391740634106
1761915734887486700,9.65948681640625,0.039486207213997836,0.024605010554939508,0.056887332538422195
1761915734897540900,9.669540771484375,0.1313081663429737,0.02301964105963707,0.050867926118429746
1761915734907594800,9.6795947265625,0.15033201576471328,0.022770780865103004,0.02031789868711494
1761915734917649000,9.68964892578125,0.099632340618968,0.036156039877980946,0.008760129096033051
1761915734927702800,9.699702880859375,0.0251139829903841,0.06853080765157937,0.04671755584017373
1761915734937756700,9.709756591796875,-0.013434651112556456,0.03691168055087328,0.04376887123556807
1761915734947811800,9.719811767578125,0.07357377025485039,-0.006525456245988607,0.05994833667739294
1761915734957865700,9.72986572265625,0.1059463460713625,0.07552709627971052,0.14853445569030008
1761915734967919900,9.739919921875,0.02659633050262928,-0.08055603035762905,0.06716003988818266
1761915734977973800,9.749973876953124,-0.03601180910170078,0.061682841452956196,0.1752227113932371
1761915734988028000,9.76002783203125,-0.19574995111525056,0.05633300485759973,0.22835547717111185
1761915734998081800,9.770081787109374,-0.004196867167949677,-0.07816022126227617,0.030715109199378636
1761915735008135700,9.7801357421875,0.1413940915495157,0.05393076602146029,0.04437470990791917
1761915735018189800,9.79018994140625,-0.01549625981748104,0.10181552987694739,0.10265409959293902
1761915735028243700,9.80024365234375,0.0007025953114032745,0.10921689217463135,0.06632773551619611
1761915735038297900,9.8102978515625,-0.01161678803563118,0.11783917456939816,0.15662753571234642
1761915735048351700,9.820351806640625,-0.10636953991949558,0.01470788591876626,0.23497772658877072
1761915735058407000,9.830406982421875,-0.13229016311764716,0.039200229879468675,0.37699097294993694
1761915735068460800,9.840460693359375,0.1936357354402542,-0.09081658147871494,0.2295908459186554
1761915735078514700,9.8505146484375,0.4156786501973867,-0.13472908070236445,0.1616163569755852
1761915735088568600,9.860568603515626,0.5459732555836438,-0.09500029690414667,0.21473854656051844
1761915735098622700,9.870622802734376,0.6169932497024536,-0.1655047427162528,0.20431257574465125
1761915735108676900,9.8806767578125,0.5416781887382268,-0.3761309220544994,0.10651093028471804
1761915735118730800,9.890730712890624,0.3097282124727964,-0.43332755800411105,0.16064111873526124
1761915735128785000,9.900784912109375,0.03898351838886738,-0.3148012779533863,0.27841292715687305
1761915735138838800,9.9108388671875,0.10220014528036117,-0.23445172995328903,0.29352829789798707
1761915735148893000,9.920892822265625,0.15590543198287485,-0.21042305798158048,0.2888916145406663
1761915735158947600,9.930947509765625,0.19292729490995406,-0.21549612346217034,0.22127439633635804
1761915735168997600,9.94099755859375,0.1680114648401737,-0.18265899887382983,0.17889904355211184
1761915735179051500,9.951051513671874,0.08360533492565154,-0.06121332424506545,0.1829489947963506
1761915735189105400,9.96110546875,0.06815408329367638,0.1001838370218873,0.13322690511164254
1761915735199159300,9.9711591796875,0.0012444471031427384,0.1709223838508129,0.12112234269222244
1761915735209213400,9.98121337890625,0.10846680445969104,0.15120762955546377,0.06547452535349875
1761915735219267600,9.991267578125,0.24113866037130355,0.07474208338186145,-0.034296091224998236
1761915735229321500,10.001321533203125,0.16015724420845506,0.10144318943321705,-0.05351076877741143
1761915735239375600,10.011375732421875,0.40226679543852806,0.02840279540270567,-0.16329369733696802
1761915735249429500,10.021429443359375,0.3979080157071352,-0.03142506583333015,-0.27655776427686213
1761915735259484400,10.031484375,0.12418985877037048,0.01690408078879118,-0.15048570848908274
1761915735269538300,10.041538330078126,0.004115618625283241,0.07902896692082285,-0.11395537367230281
1761915735279592400,10.051592529296874,0.07592354825139046,0.1383358730226755,-0.15745664348024874
1761915735289646300,10.061646240234374,0.18064590548574924,0.20316125028505921,-0.17524980032956228
1761915735299700500,10.071700439453124,0.22846856389045714,0.26531448572874067,-0.18587083705980328
1761915735309754600,10.081754638671875,0.11844868476986885,0.24523528203517198,-0.19401302605373782
1761915735319808500,10.09180859375,-0.1269949793189764,0.23765052599459885,-0.08964499868238344
1761915735329862700,10.101862548828125,-0.38804187073111535,0.18848361337408423,0.026173136654496193
1761915735339916500,10.11191650390625,-0.4784738368064165,0.17678206966444848,0.04645624715602025
1761915735349970700,10.121970703125,-0.4862900635153055,0.24253625220954417,0.09176352520631625
1761915735360024600,10.132024658203125,-0.4439911369681358,0.2623768248416483,0.13224420508407056
1761915735370079500,10.14207958984375,-0.3765010705411434,0.21466493333503603,0.13713899138830601
1761915735380135400,10.152135498046874,-0.255649416282773,0.16059914275705814,0.1742570264325477
1761915735390189300,10.162189208984374,-0.2802490200102329,0.05348141481876373,0.17765280635068192
1761915735400243500,10.172243408203125,-0.26416531569361684,-0.023390520198643208,0.18029164868798106
1761915735410297300,10.18229736328125,-0.0436620315939188,-0.04913491004705429,0.1570500354407355
1761915735420351500,10.1923515625,0.5977963818013667,-0.30220994579717514,-0.08576097858957946
1761915735430405600,10.202405517578125,1.024095210212469,-0.27475626781284807,-0.18441826363131403
1761915735440460500,10.21246044921875,1.031695163822174,-0.2436626258909702,-0.1364083024935797
1761915735450514400,10.222514404296875,0.9199205499887466,-0.2590998489975929,-0.19911434951443224
1761915735460568300,10.232568359375,0.24844635303616522,-0.12531973958313464,-0.11556279060263186
1761915735470622500,10.24262255859375,0.03885024739801884,-0.10963906310945748,-0.18517306405398995
