time,seconds_elapsed,z,y,x
1761915725346159600,0.11815966796875,0.019240524619817734,0.017412154003977776,-0.057897135615348816
1761915725356213500,0.128213623046875,-0.0029887184500694275,0.03068561479449272,-0.08260872215032578
1761915725366267600,0.138267578125,-0.012617377564311028,0.03517436981201172,-0.09328266978263855
1761915725376321500,0.148321533203125,-0.01969723217189312,0.018707849085330963,-0.09323278069496155
1761915725386375700,0.158375732421875,-0.023416869342327118,-0.0009739772649481893,-0.08420705795288086
1761915725396429600,0.1684296875,-0.01961195096373558,-0.02120867557823658,-0.07090213894844055
1761915725406484500,0.178484375,-0.007073789834976196,-0.03053533285856247,-0.042384207248687744
1761915725416538600,0.18853857421875,-0.00038973952177911997,-0.033617474138736725,-0.009851161390542984
1761915725426592500,0.198592529296875,0.0018049716018140316,-0.02539815939962864,0.023904137313365936
1761915725436646700,0.208646728515625,0.003994629252701998,-0.017133178189396858,0.04864395037293434
1761915725446700500,0.218700439453125,-0.0008539216360077262,-0.014487060718238354,0.05473726615309715
1761915725456754700,0.228754638671875,-0.004408767446875572,0.0043287090957164764,0.03837529942393303
1761915725466808600,0.23880859375,-0.005605326034128666,0.01657046191394329,0.012628123164176941
1761915725476862700,0.24886279296875,-0.005581730976700783,0.012623723596334457,-0.007618729490786791
1761915725486916600,0.25891650390625,-0.003125497605651617,0.010345389135181904,-0.0204133540391922
1761915725496970800,0.268970703125,-0.0059261261485517025,0.008031432516872883,-0.01828269474208355
1761915725507024600,0.279024658203125,-0.011925429105758667,0.0016734020318835974,-0.010014377534389496
1761915725517078500,0.28907861328125,-0.01831611804664135,-0.012185352854430676,-0.0009611686691641808
1761915725527132400,0.29913232421875,-0.028631338849663734,-0.02969883196055889,-0.0005441177636384964
1761915725537187600,0.3091875,-0.040837015956640244,-0.04013032466173172,-0.011866887100040913
1761915725547241700,0.31924169921875,-0.0516451895236969,-0.04946577176451683,-0.019183123484253883
1761915725557295600,0.329295654296875,-0.06074303761124611,-0.059324171394109726,-0.0026230402290821075
1761915725567349800,0.339349853515625,-0.06733089685440063,-0.0565028190612793,0.02395024523139
1761915725577403600,0.349403564453125,-0.06958397477865219,-0.058095287531614304,0.05800173804163933
1761915725587457500,0.35945751953125,-0.070046566426754,-0.05230797082185745,0.07687795162200928
1761915725597511400,0.369511474609375,-0.07025127112865448,-0.04751977324485779,0.07144279778003693
1761915725607565600,0.379565673828125,-0.07229392230510712,-0.03737445920705795,0.04642319679260254
1761915725617619500,0.389619384765625,-0.07224646210670471,-0.028161855414509773,0.012156978249549866
1761915725627673600,0.399673583984375,-0.07731258869171143,-0.033042632043361664,-0.021792467683553696
1761915725637727700,0.409727783203125,-0.07795663923025131,-0.053300440311431885,-0.039408959448337555
1761915725647781600,0.41978173828125,-0.0819452553987503,-0.06835208833217621,-0.04337441176176071
1761915725657835800,0.429835693359375,-0.09101339429616928,-0.076090969145298,-0.03270789980888367
1761915725667889700,0.4398896484375,-0.1007714793086052,-0.0804111510515213,-0.022479496896266937
1761915725677944600,0.449944580078125,-0.10548000037670135,-0.08929932117462158,-0.007041608914732933
1761915725687998500,0.45999853515625,-0.10118591785430908,-0.08867267519235611,0.004321832209825516
1761915725698052600,0.470052490234375,-0.08798074722290039,-0.07122091203927994,0.012239506468176842
1761915725708106500,0.4801064453125,-0.06781236082315445,-0.023556726053357124,0.01698552444577217
1761915725718160600,0.49016064453125,-0.056123241782188416,0.02188478596508503,0.03368794173002243
1761915725728214800,0.50021484375,-0.061420269310474396,0.05215560644865036,0.06371136009693146
1761915725738268700,0.5102685546875,-0.0602891780436039,0.04642701894044876,0.09600131213665009
1761915725748322800,0.52032275390625,-0.04578986391425133,0.002652372233569622,0.11679872870445251
1761915725758376700,0.530376708984375,-0.04221915453672409,-0.05851377174258232,0.12120568752288818
1761915725768430600,0.5404306640625,-0.051387883722782135,-0.1149837076663971,0.10589970648288727
1761915725778484500,0.550484375,-0.06932877004146576,-0.1363232135772705,0.07677295804023743
1761915725788538600,0.56053857421875,-0.09735347330570221,-0.13327071070671082,0.04648109897971153
1761915725798592500,0.570592529296875,-0.1214519813656807,-0.13474249839782715,0.022051110863685608
1761915725808647700,0.580647705078125,-0.1349954903125763,-0.12416548281908035,0.00867778155952692
1761915725818701800,0.590701904296875,-0.1391521394252777,-0.1071331724524498,0.004302154295146465
1761915725828755700,0.600755615234375,-0.11749133467674255,-0.0378052294254303,0.01989682763814926
1761915725838809900,0.610809814453125,-0.05026520416140556,0.0468900203704834,0.03554249554872513
1761915725848863500,0.620863525390625,0.031491976231336594,0.10088667273521423,0.0316912978887558
1761915725858917600,0.630917724609375,0.0766749158501625,0.12887069582939148,0.015391324646770954
1761915725868971500,0.640971435546875,0.06498869508504868,0.11497671157121658,-0.0029144464060664177
1761915725879025700,0.651025634765625,0.03526976332068443,0.06627742201089859,-0.01562880352139473
1761915725889079600,0.66107958984375,0.006805366836488247,-0.0004701793659478426,-0.02351868525147438
1761915725899133700,0.6711337890625,-0.016259990632534027,-0.06922394037246704,-0.031187307089567184
1761915725909187600,0.6811875,-0.03219980746507645,-0.0864492654800415,-0.0345788411796093
1761915725919241700,0.69124169921875,-0.04067099466919899,-0.08508393913507462,-0.044360268861055374
1761915725929295600,0.701295654296875,-0.04151015728712082,-0.06911563128232956,-0.05184055492281914
1761915725939350500,0.7113505859375,-0.02792803943157196,-0.02404262311756611,-0.05321267619729042
1761915725949404700,0.72140478515625,-0.0012913686223328114,0.023515840992331505,-0.04437896981835365
1761915725959458600,0.73145849609375,0.01750597171485424,0.06516720354557037,-0.020473234355449677
1761915725969512700,0.7415126953125,0.027589498087763786,0.09331201761960983,0.0030834898352622986
1761915725979566600,0.751566650390625,0.033527858555316925,0.1062990128993988,0.017700262367725372
1761915725989620700,0.761620849609375,0.023435276001691818,0.09697981923818588,0.02587190642952919
1761915725999674600,0.771674560546875,0.013661475852131844,0.063480444252491,0.03506673499941826
1761915726009728800,0.781728759765625,0.0069564348086714745,0.02132340520620346,0.03845614194869995
1761915726019782700,0.79178271484375,0.009081637486815453,-0.019821900874376297,0.035658758133649826
1761915726029836500,0.80183642578125,0.009944501332938671,-0.04553232342004776,0.024283066391944885
1761915726039890400,0.811890380859375,-0.004602013621479273,-0.049914490431547165,0.011750143021345139
1761915726049944600,0.821944580078125,-0.02285638451576233,-0.048282504081726074,0.0051620155572891235
1761915726059998500,0.83199853515625,-0.04315609857439995,-0.03989581763744354,0.010242557153105736
1761915726070052600,0.842052490234375,-0.06235802173614502,-0.03873121738433838,0.023913362994790077
1761915726080107800,0.852107666015625,-0.06934605538845062,-0.025823477655649185,0.045079004019498825
1761915726090161700,0.86216162109375,-0.05741216242313385,-0.004679842386394739,0.06044597923755646
1761915726100215600,0.872215576171875,-0.035346753895282745,0.007605188526213169,0.06908705830574036
1761915726110269400,0.88226953125,-0.01895606331527233,0.00694658886641264,0.07174037396907806
1761915726120323600,0.892323486328125,-0.008330645971000195,-0.011222487315535545,0.06843582540750504
1761915726130377500,0.90237744140625,-0.01315016858279705,-0.017725393176078796,0.05522095412015915
1761915726140431600,0.912431640625,-0.0160178504884243,-0.006921957712620497,0.034616511315107346
1761915726150485200,0.9224853515625,-0.019427228718996048,0.004279563669115305,0.020732387900352478
1761915726160539100,0.9325390625,-0.021718714386224747,0.010764546692371368,0.01014706864953041
1761915726170593300,0.94259326171875,-0.014078371226787567,0.007790860254317522,-0.003774339333176613
1761915726180647200,0.952647216796875,-0.005388453137129545,-0.009128853678703308,-0.013894602656364441
1761915726190701300,0.962701416015625,0.005843162536621094,-0.025614354759454727,-0.02845889702439308
1761915726200755200,0.972755126953125,0.012125459499657154,-0.03130292519927025,-0.03784048557281494
1761915726210810000,0.98281005859375,0.01450685877352953,-0.018991930410265923,-0.042856547981500626
1761915726220864000,0.992864013671875,0.010024347342550755,-0.002050566952675581,-0.03727949783205986
1761915726230918100,1.002918212890625,0.0025693606585264206,0.009265470318496227,-0.02385663241147995
1761915726240972300,1.01297216796875,-0.0035017291083931923,0.01675284281373024,-0.006407720502465963
1761915726251026200,1.023026123046875,-0.008968399837613106,0.004636258352547884,0.006930987350642681
1761915726261080300,1.033080322265625,-0.016277242451906204,-0.02362503856420517,0.017168015241622925
1761915726271134200,1.04313427734375,-0.018272748216986656,-0.0315181128680706,0.0217108316719532
1761915726281188400,1.053188232421875,-0.028162723407149315,-0.02956947311758995,0.01728994771838188
1761915726291242200,1.0632421875,-0.04017651081085205,-0.030662700533866882,0.012085066176950932
1761915726301296000,1.073296142578125,-0.04858202859759331,-0.00968191958963871,0.017157133668661118
1761915726311350000,1.08335009765625,-0.04121146351099014,0.0019457087619230151,0.015618356876075268
1761915726321404200,1.093404052734375,-0.009577849879860878,0.007591940462589264,-0.004126071929931641
1761915726331458000,1.1034580078125,0.000783445022534579,0.023381289094686508,-0.01585569977760315
1761915726341512200,1.11351220703125,-0.016044747084379196,0.026753978803753853,-0.007441991474479437
1761915726351567400,1.1235673828125,-0.030121950432658195,0.03132716193795204,0.010458978824317455
1761915726361621200,1.133621337890625,-0.02706875465810299,0.0390910841524601,0.029665354639291763
1761915726371675100,1.143675048828125,-0.012556923553347588,0.03306887671351433,0.03806895762681961
1761915726381729000,1.15372900390625,-0.008084299974143505,0.01649349555373192,0.03843403607606888
1761915726391783200,1.163783203125,-0.0008191965753212571,-0.0049984813667833805,0.034314658492803574
1761915726401837000,1.173837158203125,-0.0001875404268503189,-0.0036623848136514425,0.013633009977638721
1761915726411891200,1.18389111328125,-0.0021582795307040215,-0.005595573224127293,-0.006044022273272276
1761915726421945000,1.193945068359375,-0.008459857665002346,-0.0130754504352808,-0.02418532408773899
1761915726431999200,1.203999267578125,-0.011912379413843155,-0.01644035615026951,-0.034317053854465485
1761915726442053000,1.21405322265625,-0.0051378826610744,-0.010156494565308094,-0.042605798691511154
1761915726452107300,1.224107177734375,0.007014920469373465,-0.015287074260413647,-0.043166663497686386
1761915726462161200,1.2341611328125,0.014257434755563736,-0.016187286004424095,-0.04093879461288452
1761915726472215300,1.24421533203125,0.014113359153270721,-0.0071487827226519585,-0.033200979232788086
1761915726482270200,1.254270263671875,0.004097326658666134,-0.0019039675826206803,-0.01363279391080141
1761915726492324000,1.264323974609375,-0.005119075067341328,0.0002910097246058285,0.004898279905319214
1761915726502378200,1.274378173828125,-0.005297949071973562,0.015063044615089893,0.017730344086885452
1761915726512432000,1.28443212890625,-0.006934195291250944,0.024554550647735596,0.02367798238992691
1761915726522486300,1.294486328125,-0.010550816543400288,0.025734398514032364,0.020699631422758102
1761915726532540200,1.3045400390625,-0.01769900694489479,0.02264539711177349,0.014412708580493927
1761915726542594300,1.31459423828125,-0.023839930072426796,0.020251212641596794,0.010202818550169468
1761915726552648200,1.324648193359375,-0.025381101295351982,0.010552778840065002,0.006863747723400593
1761915726562702000,1.3347021484375,-0.024506350979208946,0.002590574324131012,0.011441459879279137
1761915726572756000,1.344755859375,-0.02261444181203842,0.004858255852013826,0.021720461547374725
1761915726582810000,1.35481005859375,-0.021236859261989594,0.01515059731900692,0.03234567865729332
1761915726592864300,1.3648642578125,-0.0218773502856493,0.006236730609089136,0.03759396821260452
1761915726602918100,1.374918212890625,-0.023919714614748955,-0.01204721163958311,0.036416277289390564
1761915726612972300,1.38497216796875,-0.02580869570374489,-0.025891389697790146,0.03517524152994156
1761915726623027200,1.395027099609375,-0.03528923913836479,-0.03076310083270073,0.019160132855176926
1761915726633081000,1.4050810546875,-0.04438313469290733,-0.022679872810840607,0.004413144662976265
1761915726643135000,1.415135009765625,-0.046619269996881485,-0.0062242913991212845,-0.009379228577017784
1761915726653189000,1.425189208984375,-0.03197667747735977,0.008313372731208801,-0.019567150622606277
1761915726663243000,1.435242919921875,-0.025462593883275986,-0.0025121564976871014,-0.020114073529839516
1761915726673297200,1.445297119140625,-0.01653061807155609,-0.021794242784380913,-0.011905145831406116
1761915726683351300,1.455351318359375,-0.017303409054875374,-0.02830647863447666,0.012745111249387264
1761915726693405200,1.4654052734375,-0.027536872774362564,-0.02220890484750271,0.03674498572945595
1761915726703459300,1.475459228515625,-0.04042838513851166,-0.000307659269310534,0.07314120978116989
1761915726713513200,1.48551318359375,-0.046065766364336014,0.04339641332626343,0.12208132445812225
1761915726723567400,1.4955673828125,0.01570097915828228,0.07349852472543716,0.1137562021613121
1761915726733621200,1.505621337890625,0.07041215896606445,0.11171168833971024,0.06983215361833572
1761915726743675100,1.515675048828125,0.07296920567750931,0.07210755348205566,0.008047018200159073
1761915726753729000,1.52572900390625,0.031926169991493225,-0.009286371059715748,-0.04215463250875473
1761915726763784200,1.5357841796875,0.004364327993243933,-0.0623742900788784,-0.08212292939424515
1761915726773838300,1.54583837890625,0.0010284525342285633,-0.06764441728591919,-0.09357158839702606
1761915726783892200,1.555892333984375,-0.005164719186723232,-0.041688404977321625,-0.07902975380420685
1761915726793946400,1.5659462890625,-0.016219768673181534,-0.02661704458296299,-0.0507240816950798
1761915726804000300,1.576000244140625,-0.016753461211919785,-0.02385781891644001,-0.021654020994901657
1761915726814054100,1.58605419921875,-0.011389589868485928,-0.014239813201129436,0.002501649782061577
1761915726824108000,1.59610791015625,-0.002356740180402994,-0.01076243445277214,0.011559490114450455
1761915726834162200,1.606162109375,0.007663136813789606,0.012610532343387604,0.01555902510881424
1761915726844216000,1.616216064453125,0.01979595609009266,0.0382993258535862,0.01181045826524496
1761915726854270200,1.626270263671875,0.02733083814382553,0.03947324678301811,0.005313144065439701
1761915726864324000,1.636323974609375,0.028537796810269356,0.022469937801361084,-0.005913123954087496
1761915726874378200,1.646378173828125,0.017775697633624077,-0.01654430665075779,-0.01869017258286476
1761915726884432100,1.65643212890625,0.005270130466669798,-0.047551486641168594,-0.03461097180843353
1761915726894486300,1.666486328125,-0.0023276014253497124,-0.04691552370786667,-0.04486627131700516
1761915726904541200,1.676541259765625,-0.009224398992955685,-0.020091412588953972,-0.04909155145287514
1761915726914595000,1.686594970703125,-0.0036525335162878036,0.004491959232836962,-0.03644819185137749
1761915726924649200,1.696649169921875,0.0069494703784585,0.012146520428359509,-0.012948412448167801
1761915726934703000,1.706703125,0.014324561692774296,0.0065413652919232845,0.007236483506858349
1761915726944757200,1.71675732421875,0.020170094445347786,0.009668784216046333,0.017184816300868988
1761915726954811100,1.72681103515625,0.01616230234503746,0.005466848611831665,0.013414044864475727
1761915726964865300,1.736865234375,0.00996585562825203,-0.007989542558789253,0.0031962925568223
1761915726974919200,1.746919189453125,0.0005683585768565536,-0.013186967931687832,-0.0031255194917321205
1761915726984973300,1.756973388671875,-0.005808411166071892,-0.011040067300200462,-0.005610784515738487
1761915726995027000,1.76702685546875,-0.0022054207511246204,-0.011331949383020401,-0.005261643789708614
1761915727005081000,1.7770810546875,-0.00045081996358931065,-0.005785524845123291,-0.003931163810193539
1761915727015135000,1.787135009765625,0.012218370102345943,0.0019767906051129103,-0.006013489793986082
1761915727025189000,1.797189208984375,0.018984399735927582,0.007937668822705746,0.0002007894217967987
1761915727035243300,1.8072431640625,0.024775709956884384,0.005172508768737316,0.0038895346224308014
1761915727045298200,1.817298095703125,0.02264224737882614,-0.013503897935152054,0.00481625460088253
1761915727055352300,1.827352294921875,0.021990306675434113,-0.012236233800649643,-0.00016678590327501297
1761915727065406200,1.83740625,0.018260657787322998,0.003094184910878539,-0.007373128551989794
1761915727075460000,1.847460205078125,0.010198469273746014,0.004844946786761284,-0.00922722090035677
1761915727085514000,1.857513916015625,-0.003190098563209176,-0.008458331227302551,-0.002013557590544224
1761915727095568100,1.867568115234375,-0.013454986736178398,-0.039418380707502365,0.0003819558769464493
1761915727105622000,1.8776220703125,-0.02274232916533947,-0.05511459708213806,0.0001653861254453659
1761915727115676200,1.88767626953125,-0.017493238672614098,-0.045321885496377945,-0.007476287893950939
1761915727125730300,1.897730224609375,-0.009550955146551132,-0.014528471045196056,-0.01648719049990177
1761915727135784200,1.9077841796875,0.002220483496785164,0.02832631766796112,-0.023743238300085068
1761915727145838300,1.91783837890625,0.014347353018820286,0.06012598052620888,-0.025723621249198914
1761915727155893000,1.92789306640625,0.02293791063129902,0.06317050755023956,-0.01902470737695694
1761915727165947000,1.93794677734375,0.023973405361175537,0.04988585039973259,-0.006834844127297401
1761915727176001000,1.9480009765625,0.020705441012978554,0.040839891880750656,0.011027775704860687
1761915727186056000,1.958055908203125,0.005526002496480942,0.02008030004799366,0.026231033727526665
1761915727196110000,1.968110107421875,-0.008895548060536385,-0.00046971457777544856,0.034234896302223206
1761915727206164000,1.9781640625,-0.019016413018107414,-0.016520917415618896,0.028249196708202362
1761915727216218000,1.988218017578125,-0.016122622415423393,-0.027929898351430893,0.012589012272655964
1761915727226272000,1.99827197265625,-0.009005315601825714,-0.040943123400211334,-0.014212865382432938
1761915727236326000,2.008325927734375,-0.00403399346396327,-0.04791394621133804,-0.044224560260772705
1761915727246380000,2.018380126953125,0.012173041701316833,-0.03543775528669357,-0.06752796471118927
1761915727256434000,2.028433837890625,0.02875201776623726,-0.009272463619709015,-0.086618572473526
1761915727266488000,2.038488037109375,0.040060389786958694,0.01737857609987259,-0.08326055109500885
1761915727276542000,2.0485419921875,0.04784507304430008,0.04168018326163292,-0.06848666071891785
1761915727286596000,2.05859619140625,0.0510411262512207,0.06437719613313675,-0.04347975552082062
1761915727296650000,2.06864990234375,0.05175858363509178,0.0780021920800209,-0.01779063791036606
1761915727306704100,2.0787041015625,0.049409884959459305,0.0867660641670227,0.006434560753405094
1761915727316758000,2.088758056640625,0.04007337614893913,0.08298144489526749,0.025898538529872894
1761915727326813000,2.09881298828125,0.025120962411165237,0.06595243513584137,0.037977904081344604
1761915727336867000,2.1088671875,0.014657935127615929,0.046615488827228546,0.03590010106563568
1761915727346921000,2.1189208984375,0.0070193856954574585,0.01691673882305622,0.02976284548640251
1761915727356975000,2.12897509765625,-0.0037104906514286995,-0.01405209582298994,0.017705384641885757
1761915727367029000,2.139029052734375,-0.01364604290574789,-0.032670922577381134,0.0033317692577838898
1761915727377083100,2.149083251953125,-0.01565220206975937,-0.043739285320043564,-0.007661227602511644
1761915727387137000,2.159136962890625,-0.018347959965467453,-0.05126131698489189,-0.013769358396530151
1761915727397191200,2.169191162109375,-0.0207876805216074,-0.04512086883187294,-0.010497132316231728
1761915727407244800,2.179244873046875,-0.022924447432160378,-0.03155059367418289,-0.008665371686220169
1761915727417299000,2.189298828125,-0.02354070357978344,-0.010420543141663074,-0.0026572812348604202
1761915727427352800,2.199352783203125,-0.01943538337945938,0.008062392473220825,0.0026064375415444374
1761915727437407000,2.209406982421875,-0.008568355813622475,0.020158205181360245,0.010405504144728184
1761915727447460900,2.2194609375,0.006032857112586498,0.022502774372696877,0.015045207925140858
1761915727457515000,2.229514892578125,0.01606072299182415,0.005416733678430319,0.021904978901147842
1761915727467570200,2.239570068359375,0.021127380430698395,-0.027407117187976837,0.022275839000940323
1761915727477624000,2.2496240234375,0.007654449436813593,-0.06083324924111366,0.013177684508264065
1761915727487678000,2.259677978515625,-0.014184114523231983,-0.08096128702163696,0.002362627536058426
1761915727497731800,2.26973193359375,-0.03593415021896362,-0.08067819476127625,-0.009360606782138348
1761915727507786000,2.279785888671875,-0.04858751222491264,-0.059149134904146194,-0.002209204249083996
1761915727517840000,2.28983984375,-0.040402818471193314,-0.028727583587169647,0.008270335383713245
1761915727527894000,2.29989404296875,-0.022933967411518097,0.005286552477627993,0.027571678161621094
1761915727537948000,2.309947998046875,-0.002267570700496435,0.029223842546343803,0.043517086654901505
1761915727548002000,2.320001953125,0.006211285479366779,0.047346413135528564,0.05813243240118027
1761915727558056200,2.33005615234375,0.0033350717276334763,0.044823866337537766,0.0728200301527977
1761915727568110000,2.340110107421875,-0.016234630718827248,0.03583509474992752,0.07817383855581284
1761915727578164200,2.350164306640625,-0.03573882579803467,0.014873085543513298,0.07743667811155319
1761915727588217900,2.3602177734375,-0.048780426383018494,-0.014824170619249344,0.06405957043170929
1761915727598272000,2.37027197265625,-0.05412965267896652,-0.044014278799295425,0.04462834447622299
1761915727608327000,2.380326904296875,-0.05709701031446457,-0.06315851956605911,0.020750556141138077
1761915727618381000,2.390381103515625,-0.051178403198719025,-0.07540320605039597,-0.010088318958878517
1761915727628435000,2.40043505859375,-0.039672575891017914,-0.07903324067592621,-0.02844228968024254
1761915727638489000,2.410489013671875,-0.030484138056635857,-0.08372200280427933,-0.040034230798482895
1761915727648543200,2.420543212890625,-0.015280894935131073,-0.0747889056801796,-0.03444134443998337
1761915727658597000,2.43059716796875,0.0006219040951691568,-0.05459628254175186,-0.013740858063101768
1761915727668651000,2.440651123046875,0.011603595688939095,-0.03246479108929634,0.009433566592633724
1761915727678705000,2.450704833984375,0.017980001866817474,-0.024630839005112648,0.03346513211727142
1761915727688759000,2.460759033203125,0.01903366483747959,-0.018854986876249313,0.050389599055051804
1761915727698813000,2.47081298828125,0.018892250955104828,0.004641549661755562,0.044327445328235626
1761915727708867000,2.4808671875,0.025576084852218628,0.013825607486069202,0.02754952758550644
1761915727718921000,2.4909208984375,0.03208405151963234,0.0046875025145709515,0.0016667991876602173
1761915727728975000,2.50097509765625,0.03785049915313721,-0.008924667723476887,-0.0296428594738245
1761915727739029000,2.511029052734375,0.040545351803302765,-0.018197260797023773,-0.04989566653966904
1761915727749084000,2.521083984375,0.04135756194591522,-0.0203118734061718,-0.06616117060184479
1761915727759138000,2.531137939453125,0.04109736904501915,-0.0036103911697864532,-0.06821020692586899
1761915727769192000,2.54119189453125,0.043103791773319244,0.021313408389687538,-0.052163124084472656
1761915727779246000,2.55124609375,0.05085065960884094,0.035427629947662354,-0.023803122341632843
1761915727789300000,2.561300048828125,0.056602392345666885,0.03222278505563736,0.008456926792860031
1761915727799354000,2.57135400390625,0.06362409144639969,0.017263278365135193,0.03394790366292
1761915727809408000,2.581407958984375,0.05874958634376526,0.015893353149294853,0.04370832070708275
1761915727819462100,2.591462158203125,0.051504455506801605,0.01622624881565571,0.033045556396245956
1761915727829516000,2.60151611328125,0.0418851338326931,0.0063010952435433865,0.014327012002468109
1761915727839570000,2.61156982421875,0.028505677357316017,-0.0258611012250185,-0.013670001178979874
1761915727849623800,2.621623779296875,0.018675414845347404,-0.06202835217118263,-0.04010060057044029
1761915727859678000,2.631677978515625,0.015173092484474182,-0.08160285651683807,-0.059013575315475464
1761915727869731800,2.64173193359375,0.009213185869157314,-0.09064687043428421,-0.07971300184726715
1761915727879786000,2.651785888671875,0.014954961836338043,-0.056819405406713486,-0.09604723751544952
1761915727889841200,2.661841064453125,0.026081973686814308,-0.041288111358881,-0.10055354237556458
1761915727899895000,2.67189501953125,0.03989472612738609,-0.02829880826175213,-0.09437154233455658
1761915727909949200,2.68194921875,0.04855111613869667,-0.020229829475283623,-0.06812190264463425
1761915727920002800,2.6920029296875,0.05427105352282524,-0.0253289844840765,-0.018006006255745888
1761915727930057000,2.702056884765625,0.04872257262468338,-0.020402802154421806,0.0396171510219574
1761915727940110800,2.71211083984375,0.04480346292257309,0.005422402638942003,0.08535534143447876
1761915727950165000,2.7221650390625,0.039907149970531464,0.02837837114930153,0.10483349859714508
1761915727960219000,2.732218994140625,0.018055379390716553,-0.004683174192905426,0.09680246561765671
1761915727970273000,2.74227294921875,0.004819205030798912,-0.05580342188477516,0.06373618543148041
1761915727980327000,2.752326904296875,-0.03833172470331192,-0.12178803980350494,0.021603375673294067
1761915727990381000,2.762381103515625,-0.04108080267906189,-0.1585005819797516,-0.03156912326812744
1761915728000435200,2.772435302734375,-0.03687860071659088,-0.09850595146417618,-0.07047604024410248
1761915728010489000,2.782489013671875,-0.040058206766843796,-0.05435571074485779,-0.07938414812088013
1761915728020543000,2.79254296875,-0.04181402921676636,-0.023723503574728966,-0.06470640748739243
1761915728030598000,2.802597900390625,-0.027765417471528053,0.029080890119075775,-0.04017756134271622
1761915728040652000,2.812652099609375,-0.017804397270083427,0.09415629506111145,-0.006005474366247654
1761915728050706000,2.822705810546875,-0.006118773482739925,0.13443616032600403,0.027717232704162598
1761915728060760000,2.832760009765625,-0.012887995690107346,0.15724214911460876,0.059493537992239
1761915728070814000,2.84281396484375,-0.026241688057780266,0.15836648643016815,0.06304146349430084
1761915728080868000,2.8528681640625,-0.03220024332404137,0.1320382058620453,0.051337674260139465
1761915728090922200,2.862922119140625,-0.036836251616477966,0.07461009174585342,0.022825734689831734
1761915728100975900,2.872975830078125,-0.0370466411113739,0.01923525333404541,-0.018124360591173172
1761915728111030000,2.883030029296875,-0.02619139477610588,-0.005922668147832155,-0.06064667925238609
1761915728121084000,2.893083984375,-0.008192953653633595,-0.005991377867758274,-0.0902213528752327
1761915728131138000,2.903137939453125,-0.0007444045040756464,0.0018731870222836733,-0.1041438952088356
1761915728141192000,2.91319189453125,-0.0032405853271484375,0.001390355988405645,-0.10859271138906479
1761915728151249400,2.92324951171875,-0.00961519218981266,-0.008066642098128796,-0.11571948230266571
1761915728161304600,2.9333046875,-0.00591579545289278,-0.0040998635813593864,-0.11450162529945374
1761915728171358500,2.9433583984375,-0.0036744270473718643,0.015575171448290348,-0.09967587888240814
1761915728181412400,2.953412353515625,-0.006891525350511074,0.02216462977230549,-0.07597028464078903
1761915728191466500,2.963466552734375,-0.011778052896261215,0.02795294299721718,-0.048359788954257965
1761915728201520400,2.973520263671875,-0.010408388450741768,0.04258595034480095,-0.02684251219034195
1761915728211574500,2.983574462890625,0.0008661100873723626,0.04632968083024025,-0.008623180910944939
1761915728221628400,2.99362841796875,0.012102519161999226,0.04031173512339592,0.004679841920733452
1761915728231682600,3.0036826171875,0.006266783457249403,0.038267966359853745,0.013607422821223736
1761915728241736400,3.013736328125,-0.0023096606601029634,0.03030218556523323,0.011798338033258915
1761915728251790600,3.02379052734375,-0.011520953848958015,0.021441517397761345,0.0017295945435762405
1761915728261844500,3.033844482421875,-0.018844114616513252,0.008341960608959198,-0.009578453376889229
1761915728271898600,3.043898681640625,-0.026636580005288124,-0.01351094152778387,-0.02258424647152424
1761915728281952500,3.053952392578125,-0.031141048297286034,-0.025767607614398003,-0.03654000908136368
1761915728292006400,3.06400634765625,-0.03398039937019348,-0.0417073592543602,-0.047564152628183365
1761915728302061600,3.0740615234375,-0.033208880573511124,-0.039397865533828735,-0.04941345006227493
1761915728312115500,3.084115478515625,-0.019382916390895844,-0.014721819199621677,-0.03711321949958801
1761915728322169600,3.094169677734375,-0.003487573703750968,0.009782458655536175,-0.012122650630772114
1761915728332223500,3.104223388671875,0.007943394593894482,0.01798287034034729,0.012404194101691246
1761915728342277600,3.114277587890625,0.003543053986504674,0.010921763256192207,0.027513105422258377
1761915728352331500,3.12433154296875,-0.008362977765500546,0.004796493332833052,0.029895450919866562
1761915728362385400,3.134385498046875,-0.021336833015084267,-0.005928589031100273,0.01952749863266945
1761915728372439300,3.144439208984375,-0.028857551515102386,-0.008496743626892567,0.004274116829037666
1761915728382493400,3.154493408203125,-0.03392181918025017,-0.0018446996109560132,-0.004456789698451757
1761915728392547600,3.164547607421875,-0.02846866101026535,0.0065736109390854836,-0.0013164551928639412
1761915728402601500,3.1746015625,-0.01144440472126007,0.016547147184610367,0.011217179708182812
1761915728412655600,3.184655517578125,-0.0003291267203167081,0.022701259702444077,0.025513049215078354
1761915728422709500,3.19470947265625,0.01032990962266922,0.02073105238378048,0.033774975687265396
1761915728432764400,3.204764404296875,0.01679149456322193,0.006612759083509445,0.032505955547094345
1761915728442818300,3.214818359375,0.019578760489821434,-0.020034831017255783,0.014864911325275898
1761915728452872400,3.22487255859375,0.018884414806962013,-0.02944803237915039,-0.003987911157310009
1761915728462926300,3.23492626953125,0.011011311784386635,-0.03876989334821701,-0.020664624869823456
1761915728472980500,3.24498046875,0.005183568689972162,-0.030224474146962166,-0.02696174569427967
1761915728483034600,3.25503466796875,-0.004900490865111351,-0.01379649993032217,-0.024145986884832382
1761915728493088500,3.265088623046875,-0.008954880759119987,-0.005719274282455444,-0.012397069483995438
1761915728503142700,3.275142578125,-0.0025140258949249983,-0.007126755081117153,0.001682531088590622
1761915728513196500,3.285196533203125,0.013233767822384834,-0.008197668939828873,0.012095587328076363
1761915728523250700,3.295250732421875,0.024869119748473167,-0.0013469529803842306,0.02429180033504963
1761915728533304600,3.3053046875,0.031170038506388664,0.0029449884314090014,0.029879581183195114
1761915728543358500,3.3153583984375,0.019069435074925423,0.006566887721419334,0.03215179219841957
1761915728553412400,3.325412353515625,-0.00273497449234128,0.0014999659033492208,0.03221987932920456
1761915728563466500,3.335466552734375,-0.02533775568008423,-0.0003426752518862486,0.03466599062085152
1761915728573520400,3.345520263671875,-0.03643582761287689,0.008057727478444576,0.027355952188372612
1761915728583575600,3.355575439453125,-0.03619081899523735,0.01500112097710371,0.010886166244745255
1761915728593629700,3.365629638671875,-0.03345661610364914,0.01885645091533661,-0.010821937583386898
1761915728603683600,3.37568359375,-0.021980788558721542,0.024414734914898872,-0.030322134494781494
1761915728613737500,3.385737548828125,-0.017549175769090652,0.04243108630180359,-0.04171086475253105
1761915728623791400,3.395791259765625,-0.023419581353664398,0.050506591796875,-0.037043940275907516
1761915728633845500,3.405845458984375,-0.0331665463745594,0.049302373081445694,-0.029148820787668228
1761915728643899400,3.4158994140625,-0.03680415824055672,0.02533712051808834,-0.025274187326431274
1761915728653953500,3.42595361328125,-0.04312632977962494,-0.0008259075693786144,-0.02833230420947075
1761915728664007400,3.43600732421875,-0.04717034101486206,-0.025043629109859467,-0.038776688277721405
1761915728674061600,3.4460615234375,-0.058242399245500565,-0.0447426401078701,-0.0518975704908371
1761915728684115500,3.456115478515625,-0.07024100422859192,-0.05855219438672066,-0.07013542950153351
1761915728694169600,3.466169677734375,-0.07126700133085251,-0.07626227289438248,-0.0777365043759346
1761915728704223500,3.476223388671875,-0.06466875225305557,-0.0864853486418724,-0.0745638832449913
1761915728714278400,3.4862783203125,-0.05786480754613876,-0.07375184446573257,-0.05985017865896225
1761915728724332500,3.49633251953125,-0.05328603461384773,-0.04348155856132507,-0.040015753358602524
1761915728734386400,3.506386474609375,-0.04909893870353699,-0.009648316539824009,-0.020158106461167336
1761915728744440600,3.516440673828125,-0.04863927885890007,0.009484631009399891,-0.002763936296105385
1761915728754494500,3.526494384765625,-0.043549079447984695,0.02896733209490776,0.007188350893557072
1761915728764548600,3.536548583984375,-0.0347268246114254,0.05003507062792778,0.005818686448037624
1761915728774602500,3.5466025390625,-0.019532592967152596,0.04943999648094177,0.003362187184393406
1761915728784656600,3.55665673828125,0.004925877787172794,0.044397834688425064,-0.0006985999643802643
1761915728794710300,3.566710205078125,0.027729246765375137,0.04384882003068924,-0.011471428908407688
1761915728804764400,3.576764404296875,0.04291405901312828,0.04019602760672569,-0.018751712515950203
1761915728814818600,3.586818603515625,0.05070311948657036,0.02608027122914791,-0.02446310967206955
1761915728824872400,3.59687255859375,0.04536481574177742,-0.003335939720273018,-0.01936289109289646
1761915728834926600,3.606926513671875,0.03590947017073631,-0.04424561932682991,-0.01037683431059122
1761915728844981500,3.6169814453125,0.029169542714953423,-0.06972621381282806,-0.008500371128320694
1761915728855035600,3.62703564453125,0.032224301248788834,-0.06784935295581818,-0.01200326532125473
1761915728865089500,3.637089599609375,0.0407477468252182,-0.04849030449986458,-0.017914418131113052
1761915728875143400,3.647143310546875,0.05693193897604942,-0.035193413496017456,-0.018378984183073044
1761915728885197300,3.657197265625,0.07075614482164383,-0.01945466361939907,-0.012184472754597664
1761915728895251500,3.66725146484375,0.07850486040115356,-0.0124990064650774,-0.0020686807110905647
1761915728905305300,3.677305419921875,0.07313565909862518,-0.024270977824926376,0.01598382368683815
1761915728915359500,3.687359375,0.06188371405005455,-0.03738220036029816,0.0273052416741848
1761915728925413600,3.69741357421875,0.054337646812200546,-0.04137720540165901,0.028533492237329483
1761915728935467500,3.707467529296875,0.05613639950752258,-0.036838848143815994,0.017174558714032173
1761915728945521700,3.717521728515625,0.05351505056023598,-0.02689513936638832,0.004862232133746147
1761915728955575600,3.727575439453125,0.050007164478302,-0.008997887372970581,-0.009441481903195381
1761915728965629700,3.737629638671875,0.04187440127134323,0.005333381239324808,-0.02057056501507759
1761915728975684400,3.747684326171875,0.03318589925765991,0.013431590981781483,-0.024079833179712296
1761915728985738500,3.757738525390625,0.02809979021549225,0.0036380819510668516,-0.026766430586576462
1761915728995792400,3.76779248046875,0.0214881282299757,-0.006618880201131105,-0.03557942807674408
1761915729005846500,3.777846435546875,0.018098989501595497,-0.018464354798197746,-0.055717721581459045
1761915729015900700,3.787900634765625,0.016376834362745285,-0.03277764841914177,-0.07722145318984985
1761915729025954600,3.79795458984375,0.00882384367287159,-0.03173528611660004,-0.08746849745512009
1761915729036008700,3.8080087890625,-0.006449274718761444,-0.03072422184050083,-0.08773405104875565
1761915729046062600,3.8180625,-0.026063987985253334,-0.03771182522177696,-0.075312539935112
1761915729056116500,3.828116455078125,-0.03170722723007202,-0.0396796353161335,-0.05564376339316368
1761915729066170400,3.83817041015625,-0.02296486683189869,-0.026712169870734215,-0.041102636605501175
1761915729076224500,3.848224609375,-0.013269571587443352,-0.013448306359350681,-0.029630497097969055
1761915729086278400,3.8582783203125,0.0005327925318852067,0.004378627520054579,-0.025758793577551842
1761915729096332500,3.86833251953125,0.011065906845033169,0.017593778669834137,-0.018552472814917564
1761915729106387700,3.8783876953125,0.014463035389780998,0.03501138463616371,-0.02292644791305065
1761915729116441600,3.888441650390625,0.017191868275403976,0.059024911373853683,-0.023062441498041153
1761915729126495500,3.89849560546875,0.006714460905641317,0.058429159224033356,-0.027466244995594025
1761915729136549400,3.90854931640625,-0.007077476941049099,0.028068123385310173,-0.02898501418530941
1761915729146603500,3.918603515625,-0.017357811331748962,-0.016675911843776703,-0.027038509026169777
1761915729156653600,3.928653564453125,-0.023977480828762054,-0.05506785586476326,-0.02952803671360016
1761915729166707500,3.93870751953125,-0.025075234472751617,-0.06533674150705338,-0.03184019401669502
1761915729176761600,3.94876171875,-0.009876929223537445,-0.053119201213121414,-0.043000880628824234
1761915729186815500,3.9588154296875,0.0183872003108263,-0.005469127092510462,-0.05180582404136658
1761915729196869600,3.96886962890625,0.04255272075533867,0.04835256189107895,-0.055578723549842834
1761915729206923500,3.978923583984375,0.05994023382663727,0.08861929178237915,-0.05264365300536156
1761915729216977700,3.988977783203125,0.05591071397066116,0.10345728695392609,-0.046867355704307556
1761915729227031600,3.999031494140625,0.04500666633248329,0.08731773495674133,-0.04605349153280258
1761915729237086500,4.00908642578125,0.034655436873435974,0.06640120595693588,-0.05400566756725311
1761915729247140600,4.019140625,0.02525447867810726,0.05802076682448387,-0.0695958137512207
1761915729257194500,4.029194580078125,0.02210836671292782,0.04692443087697029,-0.08958529680967331
1761915729267248600,4.03924853515625,0.012048542499542236,0.023848138749599457,-0.09410867840051651
1761915729277302500,4.049302490234375,-0.004674436990171671,-0.010217683389782906,-0.08150049299001694
1761915729287356700,4.059356689453125,-0.020983370020985603,-0.041982803493738174,-0.04399652034044266
1761915729297410600,4.06941064453125,-0.03671563044190407,-0.060419462621212006,0.002063383348286152
1761915729307464700,4.079464599609375,-0.03993672505021095,-0.06352363526821136,0.03772817179560661
1761915729317518600,4.0895185546875,-0.039568837732076645,-0.028928380459547043,0.061450131237506866
1761915729327572500,4.099572509765625,-0.01816660910844803,0.019874311983585358,0.08546971529722214
1761915729337626400,4.10962646484375,0.008752996101975441,0.037815697491168976,0.09607485681772232
1761915729347680500,4.119680419921875,0.019809909164905548,0.031014515087008476,0.09371982514858246
1761915729357734400,4.129734375,0.023052306845784187,0.00828789733350277,0.08007484674453735
1761915729367788500,4.13978857421875,0.021056534722447395,-0.01268103439360857,0.0480564646422863
1761915729377843700,4.14984375,0.01747884415090084,-0.028815528377890587,0.008711187168955803
1761915729387897600,4.159897705078125,0.008764447644352913,-0.03991904482245445,-0.02627396024763584
1761915729397951500,4.169951416015625,0.011261430568993092,-0.04504622891545296,-0.04640687257051468
1761915729408005400,4.18000537109375,0.01893160119652748,-0.03580718860030174,-0.04743564873933792
1761915729418059500,4.1900595703125,0.03512228652834892,-0.018016941845417023,-0.02988014742732048
1761915729428113400,4.200113525390625,0.04742955043911934,-0.00595735153183341,-0.002977426163852215
1761915729438167600,4.21016748046875,0.044824015349149704,0.007682621479034424,0.014783794060349464
1761915729448221400,4.220221435546875,0.03653679043054581,0.012784439139068127,0.022975144907832146
1761915729458275600,4.230275634765625,0.03015788272023201,0.005237043835222721,0.01488460972905159
1761915729468329500,4.24032958984375,0.025203604251146317,-0.025265205651521683,-0.005179113708436489
1761915729478383600,4.250383544921875,0.01671728678047657,-0.05215686932206154,-0.02488122321665287
1761915729488437800,4.260437744140625,0.005586870945990086,-0.05709117650985718,-0.05286918208003044
1761915729498491600,4.27049169921875,-0.008405015803873539,-0.05261002108454704,-0.07307696342468262
1761915729508546600,4.280546630859375,-0.014671167358756065,-0.044682055711746216,-0.07213127613067627
1761915729518600400,4.290600341796875,-0.017954789102077484,-0.03930665925145149,-0.056632768362760544
1761915729528654600,4.300654541015625,-0.020080525428056717,-0.04677123203873634,-0.02434913069009781
1761915729538708500,4.31070849609375,-0.019591309130191803,-0.037885747849941254,0.013278571888804436
1761915729548762600,4.3207626953125,-0.012165618129074574,-0.01065971702337265,0.042152561247348785
1761915729558816500,4.33081640625,-0.0036562138702720404,0.021140113472938538,0.06425192207098007
1761915729568870700,4.34087060546875,0.009464115835726261,0.046579692512750626,0.0671214759349823
1761915729578924500,4.350924560546875,0.01939488761126995,0.06379396468400955,0.05738865211606026
1761915729588978400,4.360978515625,0.022898808121681213,0.05319405347108841,0.04147599637508392
1761915729599032600,4.371032470703125,0.014677193947136402,0.019597606733441353,0.015644408762454987
1761915729609086500,4.38108642578125,0.0029584860894829035,-0.014125201851129532,-0.01120398286730051
1761915729619140600,4.391140625,-0.012079370208084583,-0.03617790713906288,-0.0261509008705616
1761915729629195500,4.401195556640625,-0.024950960651040077,-0.06155117228627205,-0.03221811354160309
1761915729639249700,4.411249755859375,-0.02668003737926483,-0.08295679092407227,-0.02136225998401642
1761915729649303600,4.421303466796875,-0.023134037852287292,-0.07615161687135696,0.0027976715937256813
1761915729659357400,4.431357421875,-0.017551308497786522,-0.051290810108184814,0.020903991535305977
1761915729669411600,4.44141162109375,-0.002624290529638529,-0.016831902787089348,0.03114890493452549
1761915729679465500,4.451465576171875,0.013883956708014011,0.02193080447614193,0.03604056313633919
1761915729689519600,4.46151953125,0.03069782443344593,0.04659247398376465,0.03759850934147835
1761915729699573500,4.471573486328125,0.03849465399980545,0.05531679093837738,0.040704380720853806
1761915729709627600,4.481627685546875,0.035457585006952286,0.048738252371549606,0.045585423707962036
1761915729719681500,4.491681640625,0.022864768281579018,0.015621044673025608,0.04077226296067238
1761915729729735700,4.501735595703125,0.010890663601458073,-0.004062112420797348,0.02603672444820404
1761915729739789600,4.51178955078125,-0.005923466291278601,-0.021612944081425667,0.013452275656163692
1761915729749843700,4.52184375,-0.01670474000275135,-0.03426934778690338,-0.004332579672336578
1761915729759898600,4.531898681640625,-0.015721557661890984,-0.03799225017428398,-0.012671449221670628
1761915729769952500,4.541952392578125,-0.010670606046915054,-0.0375664122402668,-0.009020787663757801
1761915729780006700,4.552006591796875,-0.002272526267915964,-0.031090889126062393,-0.0005714325234293938
1761915729790060500,4.562060546875,0.0052527678199112415,-0.017009690403938293,0.01172278355807066
1761915729800114700,4.57211474609375,0.006531238555908203,-0.004338154569268227,0.02054767683148384
1761915729810168600,4.58216845703125,0.007535249926149845,0.010730809532105923,0.029416002333164215
1761915729820222700,4.59222265625,0.012427366338670254,0.020747363567352295,0.0371788889169693
1761915729830276600,4.602276611328125,0.007527416571974754,0.015002124942839146,0.04303997382521629
1761915729840330500,4.61233056640625,0.00409651780501008,0.005005817394703627,0.042691558599472046
1761915729850384400,4.62238427734375,0.006448621861636639,-0.006663888227194548,0.03544323146343231
1761915729860438500,4.6324384765625,0.0043373750522732735,-0.021873267367482185,0.033359747380018234
1761915729870492400,4.642492431640625,-0.0021183937788009644,-0.0484878346323967,0.03184067830443382
1761915729880547600,4.652547607421875,0.002270690631121397,-0.05126984789967537,0.03400271385908127
1761915729890601700,4.662601806640625,0.01373506709933281,-0.028569333255290985,0.026448391377925873
1761915729900655600,4.672655517578125,0.0182415209710598,-0.017712144181132317,0.011694536544382572
1761915729910709500,4.68270947265625,0.016367720440030098,-0.014354430139064789,0.0032818764448165894
1761915729920763400,4.692763427734375,0.01704714633524418,-0.015705585479736328,-0.004199817311018705
1761915729930817500,4.702817626953125,0.013234030455350876,-0.015229679644107819,-0.008056340739130974
1761915729940871400,4.712871337890625,0.01893480308353901,-0.01701180450618267,-0.005750142969191074
1761915729950925600,4.722925537109375,0.02911393716931343,-0.004644350614398718,0.00006114039570093155
1761915729960979500,4.7329794921875,0.039376094937324524,0.029081258922815323,-0.0010966798290610313
1761915729971033600,4.74303369140625,0.04993340000510216,0.0632924884557724,-0.0076802801340818405
1761915729981087500,4.75308740234375,0.051782846450805664,0.06776173412799835,-0.002564352937042713
1761915729991141600,4.7631416015625,0.03821564093232155,0.046414632350206375,0.016591498628258705
1761915730001195500,4.773195556640625,0.019351523369550705,0.0232864860445261,0.039828114211559296
1761915730011250400,4.78325048828125,-0.007090471219271421,-0.004129425622522831,0.06764243543148041
1761915730021304600,4.7933046875,-0.02808518335223198,-0.020885104313492775,0.09055912494659424
1761915730031358500,4.8033583984375,-0.03682088479399681,-0.04619152843952179,0.09580901265144348
1761915730041412600,4.81341259765625,-0.045339155942201614,-0.059818316251039505,0.08321813493967056
1761915730051466500,4.823466552734375,-0.03899843618273735,-0.08777671307325363,0.0550948902964592
1761915730061520600,4.833520751953125,-0.02189493179321289,-0.10042519867420197,0.020687371492385864
1761915730071574500,4.843574462890625,-0.0070312973111867905,-0.10725434124469757,-0.00514049781486392
1761915730081628700,4.853628662109375,0.005651840008795261,-0.09050966054201126,-0.02279798686504364
1761915730091682600,4.8636826171875,0.013545982539653778,-0.03925233706831932,-0.01833399385213852
1761915730101736400,4.873736328125,0.016015809029340744,0.011563519015908241,0.006853536702692509
1761915730111790600,4.88379052734375,0.022415384650230408,0.033737264573574066,0.04580413177609444
1761915730121845500,4.893845458984375,0.026317603886127472,0.022869300097227097,0.07580788433551788
1761915730131899600,4.903899658203125,0.025324512273073196,-0.018306897953152657,0.09488862752914429
1761915730141953500,4.91395361328125,0.019396835938096046,-0.049862779676914215,0.0886889100074768
1761915730152007700,4.924007568359375,0.012501112185418606,-0.06572110205888748,0.062023475766181946
1761915730162061600,4.9340615234375,0.0023928824812173843,-0.06920137256383896,0.023702526465058327
1761915730172115500,4.944115478515625,-0.005527624860405922,-0.054495129734277725,-0.01241313200443983
1761915730182169600,4.954169677734375,-0.014527077786624432,-0.05153855308890343,-0.03872203081846237
1761915730192223500,4.964223388671875,-0.025163210928440094,-0.0605594776570797,-0.04859676584601402
1761915730202277600,4.974277587890625,-0.03709901124238968,-0.0680011510848999,-0.04125664383172989
1761915730212331500,4.98433154296875,-0.0457548163831234,-0.06584851443767548,-0.0167145486921072
1761915730222385700,4.9943857421875,-0.04472343251109123,-0.04636109992861748,0.012840909883379936
1761915730232439600,5.004439453125,-0.04018460586667061,-0.013422058895230293,0.04644148051738739
1761915730242493700,5.01449365234375,-0.02852812223136425,0.015120232477784157,0.07024083286523819
1761915730252548600,5.024548583984375,-0.014207773841917515,0.027155855670571327,0.07618633657693863
1761915730262602500,5.0346025390625,-0.007013136055320501,0.015240540727972984,0.06711497902870178
1761915730272656600,5.04465673828125,-0.014407402835786343,0.011484951712191105,0.050717100501060486
1761915730282710500,5.05471044921875,-0.030666276812553406,0.003287329338490963,0.03671037405729294
1761915730292764700,5.0647646484375,-0.04639517143368721,-0.020333312451839447,0.02534400299191475
1761915730302818600,5.074818603515625,-0.05486934259533882,-0.04050767421722412,0.017359411343932152
1761915730312872700,5.084872802734375,-0.05510689690709114,-0.06037032976746559,0.015456847846508026
1761915730322926600,5.094926513671875,-0.05488014966249466,-0.07187824696302414,0.01596760004758835
1761915730332980700,5.104980712890625,-0.051782626658678055,-0.07001696527004242,0.02169658988714218
1761915730343034600,5.11503466796875,-0.047608669847249985,-0.05766897276043892,0.02642163634300232
1761915730353088500,5.125088623046875,-0.036399956792593,-0.04695693776011467,0.02924618497490883
1761915730363142700,5.135142578125,-0.019898897036910057,-0.027050260454416275,0.025680214166641235
1761915730373197600,5.145197509765625,-0.007498419843614101,-0.025597771629691124,0.023939836770296097
1761915730383251700,5.155251708984375,0.0009871070506051183,-0.030604511499404907,0.024797789752483368
1761915730393305600,5.1653056640625,0.002443856094032526,-0.036191556602716446,0.028992537409067154
1761915730403359700,5.17535986328125,0.0037387884221971035,-0.03424345701932907,0.032655298709869385
1761915730413413600,5.18541357421875,0.0034977723844349384,-0.02840820513665676,0.028887193650007248
1761915730423467500,5.195467529296875,0.005555497482419014,-0.02855047769844532,0.01995301991701126
1761915730433521400,5.205521484375,0.0062354025430977345,-0.01898200623691082,0.0088420445099473
1761915730443575600,5.215575439453125,0.016872165724635124,0.006112487055361271,0.00006166938692331314
1761915730453629700,5.225629638671875,0.022434445098042488,0.02040647156536579,0.006077483296394348
1761915730463683600,5.23568359375,0.018256165087223053,0.01648210920393467,0.02355859987437725
1761915730473737700,5.24573779296875,0.015385011211037636,-0.0018417701357975602,0.04766153544187546
1761915730483791600,5.25579150390625,0.012336107902228832,-0.017635991796851158,0.06251664459705353
1761915730493846500,5.265846435546875,0.012579521164298058,-0.008577780798077583,0.05445419251918793
1761915730503900400,5.275900390625,0.012770852074027061,0.0053777932189404964,0.031156597658991814
1761915730513954600,5.28595458984375,0.01720421575009823,0.009382388554513454,0.008143957704305649
1761915730524008400,5.296008544921875,0.01668650098145008,-0.013378381729125977,-0.00874362699687481
1761915730534062600,5.3060625,0.014616159722208977,-0.03974873572587967,-0.019009314477443695
1761915730544116700,5.31611669921875,0.008301116526126862,-0.057264480739831924,-0.030951770022511482
1761915730554170600,5.326170654296875,0.004001176916062832,-0.056475650519132614,-0.037471454590559006
1761915730564224800,5.336224853515625,0.005098868627101183,-0.036840636283159256,-0.05050664767622948
1761915730574278700,5.346278564453125,0.013272376731038094,-0.008197005838155746,-0.06245864927768707
1761915730584332800,5.356332763671875,0.023732786998152733,0.013615275733172894,-0.06625830382108688
1761915730594386700,5.36638671875,0.024819357320666313,0.022668424993753433,-0.05975726246833801
1761915730604440600,5.376440673828125,0.020666368305683136,0.02740265429019928,-0.049957070499658585
1761915730614495500,5.38649560546875,0.017364049330353737,0.04348388686776161,-0.04810750484466553
1761915730624549600,5.396549560546875,0.019747423008084297,0.05632925406098366,-0.0500471293926239
1761915730634603800,5.406603759765625,0.03385685384273529,0.09694991260766983,-0.054114580154418945
1761915730644657700,5.41665771484375,0.05145997926592827,0.09809980541467667,-0.05365951359272003
1761915730654711800,5.4267119140625,0.038386788219213486,0.07034008204936981,-0.04643888399004936
1761915730664765700,5.436765625,0.013373039662837982,0.029801037162542343,-0.0420551598072052
1761915730674819600,5.446819580078125,-0.004810491111129522,0.013172793202102184,-0.050326403230428696
1761915730684873500,5.45687353515625,-0.010360145010054111,0.013395101763308048,-0.05843263119459152
1761915730694927600,5.466927734375,-0.014391371980309486,0.019715048372745514,-0.06282924115657806
1761915730704981500,5.4769814453125,-0.016020264476537704,0.027253663167357445,-0.05822422355413437
1761915730715035600,5.48703564453125,-0.015263128094375134,0.0318625271320343,-0.04258773848414421
1761915730725090800,5.4970908203125,-0.011885023675858974,0.03396395221352577,-0.037557829171419144
1761915730735144700,5.507144775390625,-0.008062322624027729,0.036745890974998474,-0.03593090549111366
1761915730745198800,5.51719873046875,-0.00777469715103507,0.032872527837753296,-0.04054185375571251
1761915730755252500,5.52725244140625,-0.010705772787332535,0.02585483156144619,-0.05101393535733223
1761915730765306600,5.537306640625,-0.016906794160604477,0.017190685495734215,-0.06951384991407394
1761915730775360500,5.547360595703125,-0.023076005280017853,0.017558734863996506,-0.07963332533836365
1761915730785412600,5.55741259765625,-0.02620372176170349,0.03243936225771904,-0.0846012607216835
1761915730795466800,5.567466796875,-0.021180197596549988,0.03358771651983261,-0.07911328971385956
1761915730805520600,5.577520751953125,-0.017739353701472282,0.030112802982330322,-0.06938385963439941
1761915730815574500,5.587574462890625,-0.01658913493156433,0.018462805077433586,-0.056345291435718536
1761915730825628400,5.59762841796875,-0.015779506415128708,0.007813255302608013,-0.047218866646289825
1761915730835682600,5.6076826171875,-0.008008936420083046,-0.0035315442364662886,-0.049269504845142365
1761915730845736700,5.61773681640625,-0.01308839488774538,-0.017734788358211517,-0.05294802039861679
1761915730855790600,5.62779052734375,-0.0201638825237751,-0.015100124292075634,-0.06490267813205719
1761915730865844700,5.6378447265625,-0.02631579153239727,-0.007731038611382246,-0.06667405366897583
1761915730875898600,5.647898681640625,-0.028009828180074692,0.009396016597747803,-0.059645965695381165
1761915730885953800,5.657953857421875,-0.018703628331422806,0.023755643516778946,-0.04464178904891014
1761915730896007400,5.66800732421875,-0.010319995693862438,0.026698702946305275,-0.026374902576208115
1761915730906061600,5.6780615234375,-0.0016401656903326511,0.03198195621371269,-0.010918471962213516
1761915730916115500,5.688115478515625,0.008410871028900146,0.03484831377863884,-0.006698959972709417
1761915730926169600,5.698169677734375,0.01176085602492094,0.03381719812750816,-0.012225599028170109
1761915730936223700,5.7082236328125,0.0018208737019449472,0.019331196323037148,-0.022946685552597046
1761915730946277600,5.718277587890625,-0.011513153091073036,-0.014634374529123306,-0.03777778148651123
1761915730956331800,5.728331787109375,-0.02020384557545185,-0.030393630266189575,-0.05689261853694916
1761915730966385700,5.7383857421875,-0.02133275754749775,-0.026783501729369164,-0.0726718008518219
1761915730976439800,5.748439697265625,-0.015389910899102688,0.0010622424306347966,-0.08222402632236481
1761915730986493700,5.75849365234375,-0.006479031406342983,0.027118271216750145,-0.07259507477283478
1761915730996548600,5.768548583984375,0.00903920829296112,0.0384361706674099,-0.05389595776796341
1761915731006602500,5.7786025390625,0.012476627714931965,0.01809951663017273,-0.0249335914850235
1761915731016656600,5.78865673828125,0.010257681831717491,-0.0058351121842861176,-0.002990475855767727
1761915731026710500,5.79871044921875,0.013863267377018929,-0.0019896593876183033,0.008587487041950226
1761915731036764700,5.8087646484375,0.019196514040231705,0.017984315752983093,0.008943019434809685
1761915731046818800,5.81881884765625,0.016700642183423042,0.023834455758333206,0.011117590591311455
1761915731056872700,5.828872802734375,0.006738021969795227,0.010029159486293793,0.008293041959404945
1761915731066926600,5.838926513671875,-0.000241035595536232,-0.017687445506453514,0.00010513048619031906
1761915731076980500,5.84898046875,0.006184905767440796,-0.028826117515563965,-0.006813761778175831
1761915731087034600,5.85903466796875,0.02797946147620678,-0.043979253619909286,-0.005068233702331781
1761915731097088500,5.869088623046875,0.038062453269958496,-0.035731177777051926,-0.008630744181573391
1761915731107143700,5.879143798828125,0.053285833448171616,-0.007202459499239922,-0.018727248534560204
1761915731117197600,5.889197509765625,0.07761966437101364,0.05197750777006149,-0.029453128576278687
1761915731127251700,5.899251708984375,0.09712828695774078,0.09223785251379013,-0.04409930482506752
1761915731137305900,5.909305908203125,0.09779354184865952,0.08977895975112915,-0.038759663701057434
1761915731147359500,5.919359375,0.0743926614522934,0.048862215131521225,-0.007875809445977211
1761915731157412900,5.929412841796875,0.045331984758377075,0.011690347455441952,0.030734699219465256
1761915731167466800,5.939466796875,0.02863374352455139,-0.016350626945495605,0.0686371698975563
1761915731177520600,5.949520751953125,0.017214640974998474,-0.02372358739376068,0.09280828386545181
1761915731187574800,5.95957470703125,0.017709339037537575,-0.02731228992342949,0.09767814725637436
1761915731197628700,5.969628662109375,0.02322527766227722,-0.03617022931575775,0.09457050263881683
1761915731207682800,5.979682861328125,0.023845210671424866,-0.048002514988183975,0.07632392644882202
1761915731217737700,5.98973779296875,0.02364494279026985,-0.04550713300704956,0.05290888249874115
1761915731227792000,5.9997919921875,0.028374895453453064,-0.011269761249423027,0.032904889434576035
1761915731237845800,6.009845703125,0.04915314540266991,0.028175916522741318,0.016128571704030037
1761915731247899600,6.019899658203125,0.07161328196525574,0.059228699654340744,0.012879051268100739
1761915731257953500,6.02995361328125,0.09001199901103973,0.0800895020365715,0.01817714422941208
1761915731268007700,6.040007568359375,0.10440967977046967,0.08637029677629471,0.0386926606297493
1761915731278061800,6.050061767578125,0.10375373810529709,0.07152743637561798,0.06125016510486603
1761915731288115700,6.06011572265625,0.0899483859539032,0.04394106566905975,0.07793191820383072
1761915731298169900,6.070169921875,0.0761372372508049,0.020430412143468857,0.08358767628669739
1761915731308223700,6.0802236328125,0.06465672701597214,0.0029812022112309933,0.07979080080986023
1761915731318278000,6.09027783203125,0.06009606644511223,0.00043468756484799087,0.07248255610466003
1761915731328331800,6.100331787109375,0.0605037547647953,0.002286863513290882,0.06892826408147812
1761915731338386700,6.11038671875,0.06500822305679321,0.010807381942868233,0.06320832669734955
1761915731348440600,6.120440673828125,0.07037617266178131,0.024673955515027046,0.05360829830169678
1761915731358494700,6.13049462890625,0.07251788675785065,0.029552068561315536,0.046440932899713516
1761915731368548900,6.140548828125,0.06522100418806076,0.00786051619797945,0.04184802249073982
1761915731378603800,6.150603759765625,0.0519600547850132,-0.004625448491424322,0.03304440900683403
1761915731388658700,6.16065869140625,0.035800591111183167,-0.00833495706319809,0.01722739264369011
1761915731398712600,6.170712646484375,0.017867926508188248,-0.018462959676980972,0.006086589768528938
1761915731408766700,6.1807666015625,0.00005947239696979523,-0.039844416081905365,-0.004207206889986992
1761915731418820900,6.19082080078125,-0.023647455498576164,-0.05640528351068497,-0.0038447510451078415
1761915731428874800,6.200874755859375,-0.04291059449315071,-0.07248621433973312,-0.00535658048465848
1761915731438929000,6.210928955078125,-0.050328563898801804,-0.07000840455293655,-0.01204910408705473
1761915731448982800,6.220982666015625,-0.04883033037185669,-0.05519033595919609,-0.01766493171453476
1761915731459037000,6.231036865234375,-0.04310746490955353,-0.04312674701213837,-0.01869077980518341
1761915731469090800,6.2410908203125,-0.03721420839428902,-0.043849073350429535,-0.014936760999262333
1761915731479144700,6.251144775390625,-0.031968846917152405,-0.047158852219581604,-0.0017131008207798004
1761915731489198600,6.261198486328125,-0.02899407222867012,-0.039543814957141876,0.006203910335898399
1761915731499253800,6.271253662109375,-0.02320808917284012,-0.015327959321439266,0.01505439355969429
1761915731509308000,6.281307861328125,-0.01813030056655407,0.014229653403162956,0.02365664578974247
1761915731519361800,6.29136181640625,-0.02853340655565262,0.032623305916786194,0.03230872005224228
1761915731529416000,6.301416015625,-0.041337087750434875,0.027218688279390335,0.031091658398509026
1761915731539469800,6.3114697265625,-0.04511265084147453,0.017158597707748413,0.021401481702923775
1761915731549523700,6.321523681640625,-0.044021591544151306,0.010356838814914227,0.009153295308351517
1761915731559577600,6.33157763671875,-0.06931149959564209,-0.011146056465804577,0.011473441496491432
1761915731569631700,6.3416318359375,-0.09453680366277695,-0.07775351405143738,-0.006273769773542881
1761915731579685600,6.351685546875,-0.08385166525840759,-0.10092594474554062,-0.02327405847609043
1761915731589739800,6.36173974609375,-0.052617963403463364,-0.04866734519600868,-0.051224201917648315
1761915731599793700,6.371793701171875,-0.036989469081163406,-0.004398949909955263,-0.05149611085653305
1761915731609848800,6.381848876953125,-0.023558663204312325,0.017570607364177704,-0.030408017337322235
1761915731619903000,6.391903076171875,-0.013836529105901718,0.03721541166305542,-0.004651786293834448
1761915731629956600,6.40195654296875,-0.008823824115097523,0.04246237128973007,0.015635762363672256
1761915731640010800,6.4120107421875,-0.010501082986593246,0.0257214717566967,0.025063883513212204
1761915731650064600,6.422064697265625,-0.012988248839974403,0.019936498254537582,0.007073929533362389
1761915731660118800,6.432118896484375,-0.0024658325128257275,0.010909979231655598,-0.020307360216975212
1761915731670172700,6.442172607421875,0.0039658863097429276,-0.01564970053732395,-0.05197235941886902
1761915731680226800,6.452226806640625,0.013389481231570244,-0.032408975064754486,-0.07781141251325607
1761915731690280700,6.46228076171875,0.022105274721980095,-0.04113912209868431,-0.08726449310779572
1761915731700334800,6.4723349609375,0.03266817331314087,-0.035138219594955444,-0.09591098129749298
1761915731710388700,6.482388671875,0.03699181601405144,-0.018797656521201134,-0.09781616181135178
1761915731720443600,6.492443603515625,0.03742005303502083,-0.004126568324863911,-0.09917863458395004
1761915731730497800,6.502497802734375,0.04424306005239487,-0.005868956446647644,-0.09887246787548065
1761915731740551700,6.5125517578125,0.047188252210617065,-0.008754758164286613,-0.09060254693031311
1761915731750605800,6.522605712890625,0.05656319856643677,-0.006017145700752735,-0.07695093750953674
1761915731760659700,6.53265966796875,0.06453590840101242,-0.0051103392615914345,-0.04802714288234711
1761915731770713900,6.5427138671875,0.06035812199115753,-0.011720512062311172,-0.007337707094848156
1761915731780767700,6.552767822265625,0.0612042099237442,-0.011866453103721142,0.019967153668403625
1761915731790822000,6.56282177734375,0.05991273373365402,-0.02255232259631157,0.031329892575740814
1761915731800875800,6.572875732421875,0.05275255814194679,-0.05275176838040352,0.020626381039619446
1761915731810929700,6.5829296875,0.04227995499968529,-0.046388860791921616,-0.002293163910508156
1761915731820983600,6.592983642578125,0.0325908437371254,-0.052414264529943466,-0.028392143547534943
1761915731831038700,6.603038818359375,0.037167586386203766,-0.04469982534646988,-0.05671772360801697
1761915731841092900,6.6130927734375,0.045107536017894745,-0.0194954052567482,-0.06891713291406631
1761915731851146800,6.623146728515625,0.04738154634833336,-0.006786811165511608,-0.05540028214454651
1761915731861201000,6.633200927734375,0.04556926339864731,0.026778072118759155,-0.025357697159051895
1761915731871254800,6.6432548828125,0.058914270251989365,0.0761258602142334,0.00939914956688881
1761915731881308700,6.65330859375,0.06215027719736099,0.09250456839799881,0.03456495702266693
1761915731891362600,6.663362548828125,0.04948437213897705,0.08225422352552414,0.0539705827832222
1761915731901416700,6.673416748046875,0.034464407712221146,0.040235668420791626,0.06043381243944168
1761915731911470600,6.683470703125,0.02696288377046585,0.020849620923399925,0.05044521391391754
1761915731921524700,6.693524658203125,0.0255692508071661,0.03857801854610443,0.05499948561191559
1761915731931578600,6.70357861328125,0.023619534447789192,0.039942849427461624,0.06961525231599808
1761915731941633800,6.7136337890625,0.0180165097117424,0.02036568708717823,0.07917600125074387
1761915731951688000,6.72368798828125,0.00032641529105603695,0.012277750298380852,0.07220982760190964
1761915731961741600,6.733741455078125,-0.01725630648434162,-0.001639663241803646,0.051989778876304626
1761915731971795700,6.743795654296875,-0.03061072528362274,-0.02759062685072422,0.020539486780762672
1761915731981849600,6.753849609375,-0.040019672363996506,-0.052472274750471115,-0.016862746328115463
1761915731991903700,6.76390380859375,-0.04610361531376839,-0.06014039367437363,-0.049964625388383865
1761915732001957600,6.77395751953125,-0.044701460748910904,-0.05972840264439583,-0.06302157044410706
1761915732012011800,6.78401171875,-0.048556163907051086,-0.05265209823846817,-0.06755170226097107
1761915732022065700,6.794065673828125,-0.047112464904785156,-0.04730233922600746,-0.057788558304309845
1761915732032119800,6.804119873046875,-0.04344093054533005,-0.05276522785425186,-0.04626525193452835
1761915732042174700,6.8141748046875,-0.04021264612674713,-0.05932885780930519,-0.027928855270147324
1761915732052228600,6.824228515625,-0.03914185240864754,-0.05453465133905411,-0.014342761598527431
1761915732062282800,6.83428271484375,-0.03552953898906708,-0.03468877449631691,-0.0029239263385534286
1761915732072336600,6.844336669921875,-0.02735559269785881,-0.01467069610953331,0.0030263476073741913
1761915732082390800,6.854390869140625,-0.014073875732719898,-0.01422142144292593,0.006526806391775608
1761915732092444700,6.864444580078125,-0.004238411318510771,-0.02264024131000042,0.01338120736181736
1761915732102498800,6.874498779296875,-0.0032924567349255085,-0.01343981921672821,0.0070838965475559235
1761915732112552700,6.884552734375,-0.002814078237861395,0.009410213679075241,-0.008079975843429565
1761915732122606800,6.89460693359375,-0.007593121379613876,0.04208773374557495,-0.023793425410985947
1761915732132661000,6.904660888671875,-0.0028791758231818676,0.07708051800727844,-0.03742561489343643
1761915732142714600,6.914714599609375,0.0015704338438808918,0.09127383679151535,-0.033544592559337616
1761915732152769800,6.924769775390625,0.008802883327007294,0.08137912303209305,-0.009323552250862122
1761915732162825500,6.934825439453125,0.010864702053368092,0.06533917039632797,0.014062464237213135
1761915732172879000,6.944879150390625,0.010937826707959175,0.044943202286958694,0.03216348588466644
1761915732182933200,6.954933349609375,0.010582827031612396,0.03246389701962471,0.03930901736021042
1761915732192987100,6.964987060546875,0.00804398488253355,0.04743845388293266,0.03594711050391197
1761915732203041300,6.975041259765625,0.002285165246576071,0.06071537733078003,0.02535012736916542
1761915732213095200,6.98509521484375,-0.019409477710723877,0.05567774176597595,0.025929629802703857
1761915732223149300,6.9951494140625,-0.032215017825365067,0.04194142296910286,0.030022643506526947
1761915732233203500,7.005203369140625,-0.03216330334544182,0.02121763303875923,0.04256526380777359
1761915732243257300,7.01525732421875,-0.02935393527150154,-0.008690998889505863,0.05040108412504196
1761915732253311500,7.0253115234375,-0.021733900532126427,-0.0281288530677557,0.04603184014558792
1761915732263366100,7.0353662109375,-0.007741385139524937,-0.042485423386096954,0.02404771000146866
1761915732273420300,7.045420166015625,-0.0008232762338593602,-0.044127415865659714,0.007827860303223133
1761915732283474200,7.05547412109375,0.00064119603484869,-0.03814968466758728,0.007667004130780697
1761915732293528300,7.0655283203125,0.00011475000064820051,-0.0073914858512580395,0.02649211324751377
1761915732303582200,7.075582275390625,-0.0011382672237232327,0.027581676840782166,0.06318461149930954
1761915732313636400,7.08563623046875,0.0031683864071965218,0.04772083833813667,0.09427779167890549
1761915732323690200,7.095690185546875,0.011158669367432594,0.029755953699350357,0.11463126540184021
1761915732333744400,7.105744384765625,0.017885448411107063,-0.004332561977207661,0.11849277466535568
1761915732343798300,7.11579833984375,0.026379602029919624,-0.028685837984085083,0.10789845883846283
1761915732353852200,7.12585205078125,0.03272668272256851,-0.02705138735473156,0.09116846323013306
1761915732363906300,7.13590625,0.03890495002269745,-0.023660650476813316,0.07342275977134705
1761915732373961200,7.145961181640625,0.04656672850251198,-0.03124508075416088,0.06313665211200714
1761915732384015400,7.156015380859375,0.04511716961860657,-0.06204747036099434,0.06874021142721176
1761915732394069200,7.1660693359375,0.03807462751865387,-0.09596134722232819,0.07036617398262024
1761915732404123400,7.176123291015625,0.02321232482790947,-0.108648382127285,0.07054035365581512
1761915732414177300,7.18617724609375,0.010311100631952286,-0.09090273827314377,0.06261786818504333
1761915732424231200,7.196231201171875,0.019163981080055237,-0.06015414744615555,0.044038597494363785
1761915732434285300,7.206285400390625,0.01015463750809431,-0.06790194660425186,0.045181434601545334
1761915732444339200,7.216339111328125,0.009253157302737236,-0.12196970731019974,0.045242421329021454
1761915732454393300,7.226393310546875,0.021851737052202225,-0.0873773992061615,0.022177526727318764
1761915732464447200,7.236447265625,0.02604515105485916,-0.025112958624958992,-0.0000050086528062820435
1761915732474502400,7.24650244140625,0.022404931485652924,0.01376500353217125,-0.014314995147287846
1761915732484556300,7.256556396484375,0.013651121407747269,0.04742017015814781,-0.03080102801322937
1761915732494610400,7.2666103515625,0.007352417800575495,0.04474128037691116,-0.030096910893917084
1761915732504664000,7.2766640625,-0.0042717475444078445,0.024584613740444183,-0.03171691298484802
1761915732514718200,7.28671826171875,-0.007371513172984123,0.006692016497254372,-0.024302354082465172
1761915732524772400,7.2967724609375,-0.009857839904725552,-0.0015747018624097109,-0.013860631734132767
1761915732534826200,7.306826171875,-0.010654713958501816,0.010707722045481205,-0.004138203337788582
1761915732544880400,7.31688037109375,-0.013762623071670532,0.03279757499694824,0.004484846256673336
1761915732554934300,7.326934326171875,-0.018239866942167282,0.04092796519398689,0.016293054446578026
1761915732564988400,7.336988525390625,-0.0232255719602108,0.02362966723740101,0.0252215676009655
1761915732575042300,7.347042236328125,-0.02544429898262024,0.0035678897984325886,0.023223519325256348
1761915732585097200,7.35709716796875,-0.029218263924121857,0.0024136758875101805,0.008353493176400661
1761915732595151000,7.367151123046875,-0.027838705107569695,0.015801625326275826,-0.013471011072397232
1761915732605205200,7.377205322265625,-0.02329188957810402,0.03099522553384304,-0.043393757194280624
1761915732615259400,7.38725927734375,-0.017845669761300087,0.034043021500110626,-0.06596007943153381
1761915732625313300,7.397313232421875,-0.019084306433796883,0.017501862719655037,-0.08885101228952408
1761915732635367400,7.407367431640625,-0.017974883317947388,-0.004412886220961809,-0.10113077610731125
1761915732645421300,7.41742138671875,-0.011314318515360355,-0.00919006485491991,-0.10801531374454498
1761915732655475500,7.427475341796875,-0.011352676898241043,0.0005052787018939853,-0.10093911737203598
1761915732665529300,7.437529296875,-0.01247413456439972,0.009177596308290958,-0.0827350839972496
1761915732675583500,7.44758349609375,-0.012875093147158623,-0.0035228680353611708,-0.054424136877059937
1761915732685638100,7.45763818359375,-0.01730472967028618,-0.00833999365568161,-0.03133266419172287
1761915732695692300,7.4676923828125,-0.016511475667357445,0.007433919236063957,-0.018115252256393433
1761915732705746400,7.477746337890625,-0.018788479268550873,0.02532929740846157,-0.01383235678076744
1761915732715800300,7.48780029296875,-0.027771208435297012,0.04247726872563362,-0.0075532058253884315
1761915732725854500,7.4978544921875,-0.03052731417119503,0.04345731437206268,-0.007943092845380306
1761915732735908400,7.507908447265625,-0.031076554208993912,0.02817544899880886,-0.012446783483028412
1761915732745962500,7.51796240234375,-0.030310096219182014,0.00025646586436778307,-0.022166255861520767
1761915732756016000,7.52801611328125,-0.03414555639028549,-0.026475345715880394,-0.029764346778392792
1761915732766070300,7.5380703125,-0.041746485978364944,-0.03126291185617447,-0.038394585251808167
1761915732776124200,7.548124267578125,-0.043271247297525406,-0.021078437566757202,-0.04721803218126297
1761915732786178300,7.55817822265625,-0.0476103350520134,-0.006044892594218254,-0.05038665980100632
1761915732796233200,7.568233154296875,-0.04391113668680191,0.00519174849614501,-0.03523693233728409
1761915732806287400,7.578287353515625,-0.03001556359231472,0.013095211237668991,-0.024515844881534576
1761915732816341500,7.588341552734375,-0.016279669478535652,0.018479526042938232,-0.009606236591935158
1761915732826395400,7.5983955078125,-0.010278236120939255,0.011740130372345448,0.0007161758840084076
1761915732836449300,7.60844921875,-0.01451486349105835,-0.006162084639072418,0.009707962162792683
1761915732846503200,7.618503173828125,-0.019225729629397392,-0.011695867404341698,0.012272586114704609
1761915732856557300,7.628557373046875,-0.01236296258866787,-0.014856004156172276,0.003028818406164646
1761915732866611200,7.638611083984375,-0.0069223917089402676,-0.005329344421625137,-0.005790772382169962
1761915732876665300,7.648665283203125,0.00637084199115634,0.0171801820397377,-0.023770231753587723
1761915732886719200,7.65871923828125,0.020842725411057472,0.030264558270573616,-0.03348304703831673
1761915732896773400,7.6687734375,0.033935870975255966,0.026366181671619415,-0.042241573333740234
1761915732906828300,7.678828369140625,0.038147393614053726,0.0033325026743113995,-0.045016590505838394
1761915732916882200,7.688882080078125,0.03970208764076233,-0.018051374703645706,-0.03840850293636322
1761915732926936300,7.698936279296875,0.03181726485490799,-0.03204548731446266,-0.02034774422645569
1761915732936990200,7.708990234375,0.021715542301535606,-0.02662770077586174,0.0059408629313111305
1761915732947044400,7.71904443359375,0.010790189728140831,-0.012989385984838009,0.031192157417535782
1761915732957098200,7.72909814453125,0.009405827149748802,0.0075868661515414715,0.052380070090293884
1761915732967152400,7.73915234375,0.012093489989638329,0.0008187086787074804,0.06343086063861847
1761915732977206300,7.749206298828125,0.013211910612881184,-0.017845192924141884,0.06548185646533966
1761915732987260400,7.759260498046875,-0.0010743513703346252,-0.046913065016269684,0.060522787272930145
1761915732997314300,7.769314208984375,-0.020458651706576347,-0.06777986884117126,0.055694133043289185
1761915733007369200,7.779369140625,-0.03761047124862671,-0.06233050674200058,0.041441962122917175
1761915733017423400,7.78942333984375,-0.04330834746360779,-0.03207910433411598,0.02714681625366211
1761915733027477200,7.799477294921875,-0.04187876358628273,0.002836266066879034,0.018437480553984642
1761915733037531400,7.809531494140625,-0.03006882220506668,0.017121853306889534,0.012139950878918171
1761915733047585300,7.819585205078125,-0.02333102375268936,0.012783298268914223,0.008089282549917698
1761915733057639400,7.829639404296875,-0.016943395137786865,0.004789048805832863,0.011111758649349213
1761915733067693300,7.839693359375,-0.020296581089496613,-0.004059037193655968,0.020578764379024506
1761915733077747500,7.84974755859375,-0.0226215161383152,-0.009818708524107933,0.03094915673136711
1761915733087801300,7.85980126953125,-0.02900564670562744,-0.00841948390007019,0.030119050294160843
1761915733097855200,7.869855224609375,-0.03306121006608009,-0.00938726682215929,0.03293894976377487
1761915733107909000,7.8799091796875,-0.03660934045910835,-0.0019261548295617104,0.031749315559864044
1761915733117964300,7.88996435546875,-0.03836820274591446,0.013936549425125122,0.025194792076945305
1761915733128018400,7.900018310546875,-0.03006340190768242,0.029078219085931778,0.01746097393333912
1761915733138072300,7.910072265625,-0.01121717318892479,0.02340567298233509,0.009572281502187252
1761915733148126500,7.92012646484375,-0.0000923510524444282,-0.0020794461015611887,0.004720536060631275
1761915733158183000,7.930182861328125,0.0011882043909281492,-0.0137550737708807,0.004920175299048424
1761915733168237000,7.940237060546875,-0.0018472665688022971,-0.0032979059033095837,0.003391253761947155
1761915733178291000,7.950291015625,-0.014739026315510273,0.012914793565869331,0.00335035752505064
1761915733188344800,7.9603447265625,-0.02473333664238453,0.02668493241071701,0.013163306750357151
1761915733198398700,7.970398681640625,-0.02535982057452202,0.019042525440454483,0.02528531476855278
1761915733208452900,7.980452880859375,-0.025503363460302353,0.0169088002294302,0.029147963970899582
1761915733218507800,7.9905078125,-0.019490867853164673,0.02554326504468918,0.01825452595949173
1761915733228562000,8.00056201171875,-0.011546125635504723,0.029797665774822235,0.004816479980945587
1761915733238616000,8.010615966796875,-0.01636517234146595,0.03780864551663399,-0.011369120329618454
1761915733248670000,8.020669921875,-0.03434736654162407,0.03651488199830055,-0.004176721442490816
1761915733258724000,8.03072412109375,-0.046481307595968246,0.012990999966859818,0.025476627051830292
1761915733268777700,8.04077783203125,-0.0555160827934742,-0.0007836684235371649,0.06635215133428574
1761915733278831900,8.050831787109376,-0.05064821243286133,0.015332399867475033,0.0918353796005249
1761915733288885800,8.0608857421875,-0.04153088107705116,0.03823159262537956,0.09750498086214066
1761915733298940000,8.07093994140625,-0.032370395958423615,0.03907012194395065,0.08587078750133514
1761915733308993800,8.080993896484374,-0.028959952294826508,0.011831309646368027,0.06201338395476341
1761915733319049000,8.091049072265625,-0.04005371034145355,-0.022372033447027206,0.03131962567567825
1761915733329103000,8.10110302734375,-0.04774225503206253,-0.037223152816295624,0.0023388396948575974
1761915733339157000,8.111156982421875,-0.0530700720846653,-0.02289668470621109,-0.013168890960514545
1761915733349211000,8.1212109375,-0.046903520822525024,0.00034285831497982144,-0.015349220484495163
1761915733359264800,8.1312646484375,-0.029754728078842163,0.027478821575641632,-0.0058844201266765594
1761915733369319000,8.14131884765625,-0.009471560828387737,0.04156561195850372,-0.0009133638814091682
1761915733379372800,8.151372802734375,0.010225982405245304,0.04206090047955513,0.0019583720713853836
1761915733389427000,8.161427001953125,0.029462793841958046,0.041500840336084366,-0.00242625642567873
1761915733399480800,8.171480712890625,0.041035544127225876,0.04051223397254944,-0.003226460888981819
1761915733409535000,8.181534912109376,0.035910289734601974,0.04481883347034454,-0.00013293325901031494
1761915733419588900,8.1915888671875,0.025929994881153107,0.06341563910245895,0.011429636739194393
1761915733429643800,8.201643798828124,0.019016161561012268,0.07346507906913757,0.01967504993081093
1761915733439698000,8.211697998046875,0.024445805698633194,0.05931740999221802,0.03294708952307701
1761915733449751800,8.221751708984375,0.024768047034740448,0.035776931792497635,0.04434807971119881
1761915733459806000,8.231805908203125,0.03392963483929634,0.005160077940672636,0.04065362736582756
1761915733469859800,8.24185986328125,0.03806765377521515,-0.023769572377204895,0.035875916481018066
1761915733479914000,8.2519140625,0.03754483908414841,-0.03891845420002937,0.025613367557525635
1761915733489967900,8.2619677734375,0.03343185409903526,-0.03077743761241436,0.016828399151563644
1761915733500022000,8.27202197265625,0.022121571004390717,-0.025992263108491898,0.02120305225253105
1761915733510076000,8.282075927734375,0.00762625178322196,-0.029118014499545097,0.051797449588775635
1761915733520129800,8.2921298828125,0.0001597574446350336,-0.07253773510456085,0.09855325520038605
1761915733530185000,8.30218505859375,0.00312438840046525,-0.04780788719654083,0.11253565549850464
1761915733540238800,8.31223876953125,0.0038602049462497234,-0.010383917950093746,0.10745260864496231
1761915733550293000,8.32229296875,-0.00234336219727993,-0.012559986673295498,0.09074979275465012
1761915733560347000,8.332346923828124,-0.003519665915518999,-0.017716828733682632,0.05635174363851547
1761915733570401000,8.342401123046875,-0.0068590035662055016,-0.012017662636935711,0.017625650390982628
1761915733580455000,8.352454833984375,-0.015606324188411236,-0.010378708131611347,-0.01024718303233385
1761915733590509000,8.362509033203125,-0.011349794454872608,-0.01274173054844141,-0.019938159734010696
1761915733600562700,8.372562744140625,-0.01783960871398449,-0.03162438049912453,-0.013246062211692333
1761915733610616800,8.382616943359375,-0.014470977708697319,-0.036546431481838226,-0.0012091072276234627
1761915733620670700,8.392670654296875,-0.012756369076669216,-0.013718641363084316,-0.001080147922039032
1761915733630724900,8.402724853515625,-0.006315779406577349,0.007160541135817766,-0.010310930199921131
1761915733640780000,8.412780029296876,-0.002947885077446699,0.02315044403076172,-0.020739581435918808
1761915733650834000,8.422833984375,-0.004491986241191626,0.028371304273605347,-0.031807415187358856
1761915733660888000,8.43288818359375,-0.003060126444324851,0.04784083366394043,-0.03786667808890343
1761915733670942000,8.44294189453125,0.0041381316259503365,0.05683086812496185,-0.03908267617225647
1761915733680995800,8.452995849609374,0.015262981876730919,0.0663374811410904,-0.03188572824001312
1761915733691049700,8.4630498046875,0.018057970330119133,0.0774010568857193,-0.0275876522064209
1761915733701103900,8.473103759765625,0.013526862487196922,0.07966320216655731,-0.028312884271144867
1761915733711157800,8.48315771484375,-0.0028925901278853416,0.06851201504468918,-0.02531949058175087
1761915733721212000,8.4932119140625,-0.01341448724269867,0.04431736841797829,-0.027944447472691536
1761915733731265800,8.503265869140625,-0.0161729883402586,0.025717319920659065,-0.025116169825196266
1761915733741321000,8.513321044921875,-0.014917893335223198,0.029564660042524338,-0.035341303795576096
1761915733751374800,8.523374755859376,-0.0071816761046648026,0.042839452624320984,-0.0403006449341774
1761915733761428700,8.5334287109375,-0.001915392349474132,0.06251132488250732,-0.045430682599544525
1761915733771483000,8.54348291015625,-0.00536631653085351,0.05696769058704376,-0.03760392218828201
1761915733781536800,8.553536865234374,-0.005090178921818733,0.021222924813628197,-0.02411634847521782
1761915733791591000,8.5635908203125,-0.0012267313431948423,-0.0058190771378576756,-0.010871381498873234
1761915733801644800,8.573644775390624,0.007826604880392551,-0.0010693988297134638,-0.010967462323606014
1761915733811699000,8.583698974609375,0.018482444807887077,0.024963000789284706,-0.017397131770849228
1761915733821752800,8.5937529296875,0.030186794698238373,0.055706530809402466,-0.014767562970519066
1761915733831807000,8.603806884765625,0.04281976819038391,0.06925882399082184,-0.012633039616048336
1761915733841862000,8.61386181640625,0.049625784158706665,0.06349118798971176,-0.00218029972165823
1761915733851915800,8.623915771484375,0.06215888634324074,0.04033367335796356,0.008516020141541958
1761915733861970000,8.633969970703125,0.06242365762591362,0.02684963122010231,0.011065172031521797
1761915733872023800,8.64402392578125,0.060231875628232956,0.022711345925927162,0.005984660238027573
1761915733882078000,8.654077880859376,0.05988726392388344,0.021947018802165985,-0.002123599871993065
1761915733892131800,8.6641318359375,0.06202871352434158,0.026959620416164398,-0.003587006591260433
1761915733902186000,8.67418603515625,0.0827777236700058,0.03921576961874962,0.003530047833919525
1761915733912239900,8.684239990234374,0.09522560238838196,0.0055867028422653675,0.0243101604282856
1761915733922294000,8.6942939453125,0.05277740955352783,-0.06687377393245697,0.08898113667964935
1761915733932347600,8.70434765625,0.05425466224551201,-0.1618594080209732,0.12879912555217743
1761915733942401800,8.71440185546875,0.05626429244875908,-0.142917200922966,0.1342000514268875
1761915733952457000,8.72445703125,0.04586171731352806,-0.0933682844042778,0.12887799739837646
1761915733962510800,8.7345107421875,0.0351676419377327,-0.07061754167079926,0.12548828125
1761915733972565000,8.74456494140625,0.030937474220991135,-0.04435931146144867,0.11470140516757965
1761915733982619000,8.754618896484375,0.03154376894235611,-0.017508724704384804,0.1052107959985733
1761915733992673000,8.764673095703126,0.03473663330078125,-0.003479192266240716,0.08992371708154678
1761915734002727000,8.774726806640626,0.03771000728011131,0.0036339284852147102,0.061774492263793945
1761915734012780800,8.78478076171875,0.038635190576314926,0.010579985566437244,0.035191621631383896
1761915734022834700,8.794834716796874,0.044940534979104996,0.016977081075310707,0.004235982894897461
1761915734032888800,8.804888916015624,0.05729041248559952,0.005939609371125698,-0.010261734016239643
1761915734042942700,8.814942626953124,0.06990852952003479,-0.004488777369260788,-0.023198015987873077
1761915734052998000,8.824997802734375,0.07908125221729279,0.0025462289340794086,-0.02237456664443016
1761915734063052000,8.835052001953125,0.07390858978033066,0.008869427256286144,-0.02381964772939682
1761915734073106000,8.84510595703125,0.05027463659644127,0.01070514414459467,-0.0328991636633873
1761915734083159800,8.855159912109375,0.02255411446094513,0.004399918019771576,-0.03748355060815811
1761915734093213700,8.865213623046875,-0.0033491207286715508,-0.014610258862376213,-0.048342324793338776
1761915734103267800,8.875267822265625,-0.015032254159450531,-0.03228181228041649,-0.045928917825222015
1761915734113321700,8.88532177734375,-0.018349487334489822,-0.04552997276186943,-0.02795977145433426
1761915734123375900,8.8953759765625,-0.00984855554997921,-0.05393381044268608,-0.0006071962416172028
1761915734133429800,8.9054296875,0.0001537440111860633,-0.03209855034947395,0.023996151983737946
1761915734143484000,8.91548388671875,0.017213407903909683,0.011262405663728714,0.03681965917348862
1761915734153538000,8.9255380859375,0.03388426452875137,0.04570240527391434,0.03254874795675278
1761915734163593700,8.93559375,0.04522416740655899,0.05764589458703995,0.009268337860703468
1761915734173648000,8.94564794921875,0.04166378453373909,0.04732907563447952,-0.020002998411655426
1761915734183701800,8.95570166015625,0.025279292836785316,0.030694004148244858,-0.04348817467689514
1761915734193756000,8.965755859375,0.00586431659758091,0.01799818128347397,-0.048384398221969604
1761915734203809800,8.975809814453125,-0.009256553836166859,0.002845537615939975,-0.03798724710941315
1761915734213864000,8.985864013671875,-0.006846660282462835,-0.0036893270444124937,-0.03468998894095421
1761915734223917800,8.995917724609376,-0.002228079829365015,0.0003397487453185022,-0.036065682768821716
1761915734233971700,9.0059716796875,0.0045898789539933205,0.005126248113811016,-0.04956791177392006
1761915734244025600,9.016025634765626,0.007279933430254459,-0.012508879415690899,-0.05650097131729126
1761915734254079700,9.026079833984374,0.0036263426300138235,-0.03041810542345047,-0.060496509075164795
1761915734264135000,9.036135009765625,-0.008854085579514503,-0.04071049392223358,-0.05197250470519066
1761915734274188800,9.046188720703125,-0.018497124314308167,-0.040616750717163086,-0.03902634605765343
1761915734284243000,9.056242919921875,-0.01939418911933899,-0.021453857421875,-0.030346522107720375
1761915734294296800,9.066296875,-0.013484369032084942,-0.005239733494818211,-0.018685869872570038
1761915734304351000,9.07635107421875,-0.006000400520861149,0.007539526559412479,-0.010833421722054482
1761915734314404600,9.086404541015625,0.004985138773918152,0.008761385455727577,-0.003236754797399044
1761915734324458800,9.096458740234375,0.004381928127259016,0.014508808963000774,0.003846408799290657
1761915734334512600,9.1065126953125,0.01248912326991558,0.02642565593123436,0.0034562554210424423
1761915734344566800,9.11656689453125,0.015712669119238853,0.030963756144046783,0.004065295681357384
1761915734354620700,9.12662060546875,0.01569296233355999,0.04027629643678665,0.008839013054966927
1761915734364675800,9.13667578125,0.020830415189266205,0.052243079990148544,0.018270934000611305
1761915734374730000,9.14672998046875,0.023000359535217285,0.048219043761491776,0.024529894813895226
1761915734384784000,9.156783935546875,0.025841573253273964,0.0228554867208004,0.02617737650871277
1761915734394837800,9.166837646484375,0.02594490349292755,-0.006964460946619511,0.015989987179636955
1761915734404891600,9.1768916015625,0.011906152591109276,-0.022139694541692734,-0.007594577968120575
1761915734414945800,9.18694580078125,-0.006508008576929569,-0.021672576665878296,-0.04059407114982605
1761915734424999700,9.196999755859375,-0.011703512631356716,-0.010485362261533737,-0.06955384463071823
1761915734435053800,9.2070537109375,-0.006310878321528435,-0.019262874498963356,-0.08963647484779358
1761915734445107700,9.217107666015625,-0.0029545901343226433,-0.02533205971121788,-0.09453272074460983
1761915734455161900,9.227161865234375,-0.0053333258256316185,-0.021993255242705345,-0.07592015713453293
1761915734465215700,9.2372158203125,-0.01714976318180561,-0.022593654692173004,-0.048332370817661285
1761915734475270700,9.247270751953126,-0.029557429254055023,-0.019602125510573387,-0.010616148822009563
1761915734485324800,9.25732470703125,-0.036703143268823624,-0.0130762979388237,0.02233608439564705
1761915734495378700,9.267378662109374,-0.03693750128149986,-0.006448755506426096,0.04766194894909859
1761915734505432800,9.277432861328125,-0.03309817612171173,-0.009192727506160736,0.06804360449314117
1761915734515486700,9.28748681640625,-0.0288110189139843,-0.01090354286134243,0.08569982647895813
1761915734525540900,9.297540771484375,-0.028377246111631393,-0.014504211023449898,0.08168460428714752
1761915734535594800,9.3075947265625,-0.02937380224466324,-0.021285684779286385,0.06634825468063354
1761915734545649000,9.31764892578125,-0.03065083734691143,-0.02921697311103344,0.04423583671450615
1761915734555702800,9.327702880859375,-0.03361919894814491,-0.037798743695020676,0.020384564995765686
1761915734565756700,9.337756591796875,-0.037923235446214676,-0.05027191340923309,-0.008128689602017403
1761915734575811800,9.347811767578126,-0.038449209183454514,-0.05360379442572594,-0.018061215057969093
1761915734585865700,9.35786572265625,-0.03382415696978569,-0.03924863040447235,-0.021997341886162758
1761915734595920000,9.367919921875,-0.02605651132762432,-0.020692257210612297,-0.00982669647783041
1761915734605973800,9.377973876953124,-0.014927050098776817,0.005516056902706623,0.01648928038775921
1761915734616028000,9.38802783203125,-0.005049385596066713,0.03510723635554314,0.042174406349658966
1761915734626081800,9.398081787109374,0.011278875172138214,0.056095197796821594,0.05490303039550781
1761915734636136000,9.408135986328125,0.024709463119506836,0.04283132404088974,0.05993320792913437
1761915734646189600,9.418189453125,0.02218478173017502,0.021872833371162415,0.04465567693114281
1761915734656243700,9.42824365234375,0.010690311901271343,-0.0001469811686547473,0.01915697380900383
1761915734666297900,9.4382978515625,-0.0016377221327275038,-0.00918979849666357,-0.008719353936612606
1761915734676351700,9.448351806640625,-0.012697829864919186,-0.02395063452422619,-0.03012717328965664
1761915734686407000,9.458406982421875,-0.009969468228518963,-0.04241025447845459,-0.04373207688331604
1761915734696460800,9.468460693359376,-0.0021946358028799295,-0.050268176943063736,-0.05294794589281082
1761915734706515000,9.478514892578126,0.001707581919617951,-0.04444931447505951,-0.05238330736756325
1761915734716568800,9.48856884765625,0.010140215046703815,-0.023916076868772507,-0.049001891165971756
1761915734726622700,9.498622802734374,0.011423872783780098,0.006079730112105608,-0.03447020798921585
1761915734736676600,9.508676513671874,0.014318728819489479,0.029821278527379036,-0.015311161987483501
1761915734746730800,9.518730712890624,0.012517188675701618,0.05083804577589035,-0.0012398399412631989
1761915734756784600,9.52878466796875,0.009807955473661423,0.06767774373292923,0.009544365108013153
1761915734766838800,9.5388388671875,0.007396073546260595,0.06420519948005676,0.02393818460404873
1761915734776893000,9.548892822265625,0.005565682891756296,0.03922261670231819,0.023808753117918968
1761915734786947800,9.55894775390625,0.012021472677588463,0.006231171544641256,0.019289547577500343
1761915734796999700,9.568999755859375,0.011824664659798145,-0.01610901951789856,0.0017925789579749107
1761915734807053800,9.5790537109375,-0.00010879663750529289,-0.022969583049416542,-0.008255383931100368
1761915734817107700,9.589107666015625,-0.009094302542507648,-0.014879431575536728,-0.015555907040834427
1761915734827161900,9.599161865234375,-0.014021584764122963,-0.018764404579997063,-0.00444858567789197
1761915734837216000,9.609216064453125,-0.01828131079673767,-0.01777477376163006,0.012139445170760155
1761915734847270700,9.619270751953126,-0.016728151589632034,-0.010872447863221169,0.03786696121096611
1761915734857324800,9.62932470703125,-0.008900054730474949,-0.018062980845570564,0.06029397249221802
1761915734867378700,9.639378662109374,-0.006103941705077887,-0.029897522181272507,0.06425172090530396
1761915734877432800,9.649432861328124,-0.005876241251826286,-0.03437456116080284,0.0597967803478241
1761915734887486700,9.65948681640625,-0.006204838398844004,-0.020015038549900055,0.035865671932697296
1761915734897540900,9.669540771484375,-0.004322516266256571,0.001442051725462079,0.01626640558242798
1761915734907594800,9.6795947265625,-0.00426706625148654,0.009462237358093262,0.013217858038842678
1761915734917649000,9.68964892578125,-0.01775810681283474,0.005042454227805138,0.029405083507299423
1761915734927702800,9.699702880859375,-0.015952106565237045,-0.020952511578798294,0.06509698182344437
1761915734937756700,9.709756591796875,-0.010104335844516754,-0.017572160810232162,0.08603528887033463
1761915734947811800,9.719811767578125,-0.010448688641190529,-0.02014338970184326,0.09679361432790756
1761915734957865700,9.72986572265625,-0.0018152524717152119,-0.021903472021222115,0.08530446887016296
1761915734967919900,9.739919921875,-0.021753279492259026,-0.045909423381090164,0.07722679525613785
1761915734977973800,9.749973876953124,-0.0275493822991848,-0.12582822144031525,0.07236146181821823
1761915734988028000,9.76002783203125,-0.002243166323751211,-0.09261485189199448,0.047574374824762344
1761915734998081800,9.770081787109374,0.0040227193385362625,-0.03942513465881348,0.04271943122148514
1761915735008135700,9.7801357421875,-0.0023845802061259747,-0.06207265704870224,0.060709886252880096
1761915735018189800,9.79018994140625,-0.017200544476509094,-0.06183723360300064,0.10145331919193268
1761915735028243700,9.80024365234375,-0.02924165315926075,-0.09615931659936905,0.14442279934883118
1761915735038297900,9.8102978515625,-0.018695002421736717,-0.1563669890165329,0.16051307320594788
1761915735048351700,9.820351806640625,-0.014254499226808548,-0.24333851039409637,0.17364653944969177
1761915735058407000,9.830406982421875,-0.009131110273301601,-0.19876492023468018,0.1525348424911499
1761915735068460800,9.840460693359375,-0.013613037765026093,-0.1544651985168457,0.11332031339406967
1761915735078514700,9.8505146484375,-0.029935818165540695,-0.10863140225410461,0.07726377993822098
1761915735088568600,9.860568603515626,-0.033025894314050674,-0.07511007785797119,0.04791085422039032
1761915735098622700,9.870622802734376,0.0053744930773973465,-0.0333610363304615,0.005680041387677193
1761915735108676900,9.8806767578125,0.05127085745334625,-0.047050535678863525,-0.028023773804306984
1761915735118730800,9.890730712890624,0.0746946930885315,-0.11975909024477005,-0.03417913615703583
1761915735128785000,9.900784912109375,0.08702722191810608,-0.14256535470485687,-0.04258999228477478
1761915735138838800,9.9108388671875,0.09415890276432037,-0.1567765176296234,-0.047072358429431915
1761915735148893000,9.920892822265625,0.10517507046461105,-0.153224915266037,-0.04104429483413696
1761915735158947600,9.930947509765625,0.12521322071552277,-0.15655440092086792,-0.02868403121829033
1761915735168997600,9.94099755859375,0.13477523624897003,-0.15653488039970398,-0.026218853890895844
1761915735179051500,9.951051513671874,0.11989082396030426,-0.14293384552001953,-0.019730594009160995
1761915735189105400,9.96110546875,0.09981444478034973,-0.16158264875411987,-0.01612778566777706
1761915735199159300,9.9711591796875,0.0956370085477829,-0.15240086615085602,-0.023168649524450302
1761915735209213400,9.98121337890625,0.08974146842956543,-0.1287817656993866,-0.04035047069191933
1761915735219267600,9.991267578125,0.09242593497037888,-0.13605032861232758,-0.04378115385770798
1761915735229321500,10.001321533203125,0.10812889784574509,-0.02489616535604,-0.07099953293800354
1761915735239375600,10.011375732421875,0.12471213936805725,0.059503670781850815,-0.09483535587787628
1761915735249429500,10.021429443359375,0.12457277625799179,0.061261456459760666,-0.10799362510442734
1761915735259484400,10.031484375,0.12693579494953156,0.03653666749596596,-0.09949600696563721
1761915735269538300,10.041538330078126,0.12197167426347733,0.03621383756399155,-0.09618591517210007
1761915735279592400,10.051592529296874,0.10554982721805573,0.058532726019620895,-0.0892888605594635
1761915735289646300,10.061646240234374,0.08253531903028488,0.09056010842323303,-0.08582617342472076
1761915735299700500,10.071700439453124,0.05587787926197052,0.11138603091239929,-0.08375236392021179
1761915735309754600,10.081754638671875,0.03342156484723091,0.09869537502527237,-0.07184227555990219
1761915735319808500,10.09180859375,0.025440337136387825,0.03157120570540428,-0.04352967441082001
1761915735329862700,10.101862548828125,0.021164435893297195,-0.034111764281988144,0.004033168777823448
1761915735339916500,10.11191650390625,0.00007246597670018673,-0.11678347736597061,0.0558612123131752
1761915735349970700,10.121970703125,-0.02916269749403,-0.18449294567108154,0.07830752432346344
1761915735360024600,10.132024658203125,-0.05137345939874649,-0.2449946403503418,0.07288345694541931
1761915735370079500,10.14207958984375,-0.08176057040691376,-0.3075745105743408,0.03882879763841629
1761915735380135400,10.152135498046874,-0.10749976336956024,-0.349147230386734,-0.0064348215237259865
1761915735390189300,10.162189208984374,-0.10990207642316818,-0.41063106060028076,-0.06758973747491837
1761915735400243500,10.172243408203125,-0.10865971446037292,-0.4718132019042969,-0.12235471606254578
1761915735410297300,10.18229736328125,-0.11851987987756729,-0.5064069032669067,-0.14935459196567535
1761915735420351500,10.1923515625,-0.07128951698541641,-0.41372066736221313,-0.09045052528381348
1761915735430405600,10.202405517578125,-0.02573896013200283,-0.22467415034770966,-0.03987262398004532
1761915735440460500,10.21246044921875,0.01253598928451538,0.04311281070113182,0.007571324706077576
1761915735450514400,10.222514404296875,0.03744577243924141,0.231607586145401,0.031334903091192245
1761915735460568300,10.232568359375,0.06267522275447845,0.24227194488048553,0.06090957671403885
1761915735470622500,10.24262255859375,0.09402472525835037,0.22061777114868164,0.11127805709838867
