time,seconds_elapsed,z,y,x
1761914343662370000,0.1263701171875,-0.4781809913396835,-0.5519762953907251,-0.3029522885970771
1761914343672426000,0.136426025390625,-0.37371991539001465,-0.47081543100774287,-0.21640867172982542
1761914343682482000,0.14648193359375,-0.22491993149816988,-0.2793511943876743,-0.08708261911477894
1761914343692538000,0.1565380859375,-0.09971125107407569,-0.09114625182449818,0.05880757827758789
1761914343702594000,0.166593994140625,0.0112280809789896,-0.026172552132606504,0.10994104173071682
1761914343712650000,0.17664990234375,0.1360147365987301,0.05098141469657421,0.25276509301811456
1761914343722706200,0.1867060546875,0.17297288663983343,0.1081114151507616,0.4671562509130686
1761914343732761000,0.196760986328125,0.11889409044981002,0.2312023727685213,0.7334551445692777
1761914343742817300,0.2068173828125,0.028202012133598325,0.44939211922883987,1.0554224416945128
1761914343752873200,0.216873291015625,-0.04877192195355892,0.6999661319434642,1.304878337099403
1761914343762929200,0.22692919921875,-0.17443652945160865,0.899400909051299,1.4130099182553588
1761914343772985300,0.2369853515625,-0.30724750157296654,1.0562176106601953,1.4305303773768245
1761914343783041300,0.247041259765625,-0.4222679654598236,1.1687217078119516,1.4288658051654695
1761914343793097200,0.25709716796875,-0.46112990329563613,1.15488607468307,1.3305404554918407
1761914343803152100,0.267152099609375,-0.3520604567676782,0.9950053093284368,1.1186791083354501
1761914343813208000,0.2772080078125,-0.04378653475642204,0.7649643815547228,0.8967931377056986
1761914343823264000,0.287263916015625,0.21696166597008704,0.519398552390933,0.7085165912110358
1761914343833320200,0.2973203125,0.3708674485683441,0.24574936903715133,0.49668534693196414
1761914343843376000,0.307376220703125,0.44157413895428177,0.010714870759844779,0.3003874065451324
1761914343853432000,0.31743212890625,0.4334089526772499,-0.06999474272429942,0.2115943667832762
1761914343863488300,0.32748828125,0.3209107007443905,-0.05332242486476898,0.21810922857001422
1761914343873543200,0.337543212890625,0.20103636708557604,-0.007615151178836822,0.2691103708803654
1761914343883599400,0.347599365234375,0.014711246919631956,0.008136544704437256,0.3902320011865347
1761914343893655000,0.357655029296875,-0.21655074708163738,-0.0173234752446413,0.5842010602343827
1761914343903711000,0.3677109375,-0.34518472577929493,-0.03240004834532738,0.8304756952546536
1761914343913767200,0.37776708984375,-0.4109732489854097,-0.054791328373551364,1.0279570002071559
1761914343923823000,0.387822998046875,-0.5006114343345165,-0.048664954447746274,1.2111814509440213
1761914343933878300,0.397878173828125,-0.5926712938725948,-0.013589549413323401,1.33754025125131
1761914343943934200,0.407934326171875,-0.6710223615318537,0.08076631210744381,1.3536711557105183
1761914343953990100,0.417990234375,-0.6824567787379026,0.1793839227259159,1.2729229637816548
1761914343964046300,0.42804638671875,-0.6453039829075337,0.23287410537302491,1.1621098884567618
1761914343974102300,0.438102294921875,-0.5412216771423817,0.26187749701738355,1.0718342819869517
1761914343984158200,0.448158203125,-0.39321605849862096,0.21537176643013953,0.954543535080552
1761914343994214100,0.458214111328125,-0.22181904287338255,0.1168166996538639,0.7982409204736352
1761914344004269000,0.46826904296875,-0.00576046322286129,0.00177636202275753,0.6255903245907276
1761914344014325200,0.4783251953125,0.23438977063298225,-0.046433249872922897,0.467885222774744
1761914344024381200,0.488381103515625,0.41245384293198584,-0.05057283389568329,0.3226188929017633
1761914344034437000,0.49843701171875,0.5869412257879972,-0.013918050715327262,0.1556578138973564
1761914344044493300,0.508493408203125,0.7374579504698514,0.05715104324221611,-0.03710698392726481
1761914344054549200,0.51854931640625,0.8670464534133672,0.1687836182564497,-0.2165232745528221
1761914344064605200,0.528605224609375,1.0091618449747561,0.29750410619378087,-0.3566455926008522
1761914344074660000,0.53866015625,1.1468839700132607,0.44896892538070676,-0.4358279234524816
1761914344084716000,0.548716064453125,1.270412150004506,0.5642810656905174,-0.48033349319845436
1761914344094772200,0.558772216796875,1.3611474829405545,0.6225754337489604,-0.4695582705534994
1761914344104828200,0.568828125,1.4283084635436534,0.678252312785387,-0.40543439262397585
1761914344114884000,0.578884033203125,1.4371873510479927,0.6952841116070747,-0.24791056565903125
1761914344124940000,0.58893994140625,1.4054407981753347,0.6843389392226934,-0.03186740277335048
1761914344134995200,0.5989951171875,1.3687421758532523,0.6940162836283444,0.20370193303301928
1761914344145051100,0.609051025390625,1.3187205460995435,0.6799030026018619,0.4201889672286808
1761914344155107300,0.619107421875,1.303313133609295,0.6528618509411811,0.6022963966343552
1761914344165163300,0.629163330078125,1.2898258755266665,0.6076701255619525,0.7596287926804274
1761914344175219000,0.639218994140625,1.2943857307881117,0.559574495434761,0.8847557131052016
1761914344185275100,0.649275146484375,1.2401438529908657,0.488525275221467,0.9417725355084985
1761914344195331000,0.6593310546875,1.1133628086835146,0.3698118020355701,0.9185166014749556
1761914344205386200,0.66938623046875,1.0114712909609078,0.131757079154253,0.8901393058396875
1761914344215442200,0.679442138671875,0.9945166490286588,-0.1309907709568739,0.9341915057949721
1761914344225498000,0.689498046875,0.9450093985378741,-0.3683522508770227,1.0115320812374353
1761914344235554300,0.69955419921875,0.9099123661935329,-0.6283423267126083,1.0955737617537378
1761914344245610200,0.7096103515625,0.8737374754846096,-0.8821610204368829,1.173112563182041
1761914344255666200,0.719666259765625,0.8338450255572796,-1.130691544625163,1.2404407901108265
1761914344265721000,0.72972119140625,0.836725549429655,-1.2668629330903292,1.3279095224663615
1761914344275777000,0.739777099609375,0.8257809615671634,-1.2789362327218055,1.4929389027558266
1761914344285833200,0.749833251953125,0.6719996821314096,-1.2018980012267828,1.666574783349037
1761914344295889200,0.75988916015625,0.39487317805588246,-1.0367004247635603,1.8355109618186949
1761914344305945000,0.769945068359375,0.12409341265857218,-0.8571247788578271,1.8919716847091912
1761914344316001300,0.780001220703125,-0.18136954358518123,-0.784182876765728,1.9251777887403965
1761914344326057200,0.79005712890625,-0.3202466838777065,-0.7864625121355057,1.903034199862927
1761914344336112400,0.8001123046875,-0.4209130437195301,-0.7748398788809776,1.834822395032644
1761914344346168300,0.810168212890625,-0.559223782300949,-0.7570315427288412,1.8097892221935092
1761914344356224000,0.82022412109375,-0.6642477528303862,-0.5126671983093023,1.7506785693161189
1761914344366280200,0.8302802734375,-0.7811901246905326,-0.25792408321648835,1.5996983187757432
1761914344376336100,0.840336181640625,-1.0161451279908418,-0.2798807712197304,1.272230597603321
1761914344386392000,0.85039208984375,-1.2425830628365278,-0.3622349370405078,0.8834037139743566
1761914344396448300,0.8604482421875,-1.3904285224825144,-0.5303381718173623,0.5078257496275007
1761914344406503200,0.870503173828125,-1.6251958942562341,-0.7892796153828501,0.2256207732439041
1761914344416559000,0.88055908203125,-1.830706776407361,-0.9037082508563995,0.12354089334234594
1761914344426615300,0.890615234375,-1.6937410226941108,-0.9879694193422793,0.06473053858578205
1761914344436671200,0.900671142578125,-1.3629308592259883,-1.1489651602014899,0.03547638705074787
1761914344446727200,0.91072705078125,-1.1729565689027308,-1.38128864595443,-0.0978494027249515
1761914344456783000,0.920783203125,-1.1009019710391759,-1.6218898384481668,-0.37006606905758377
1761914344466838000,0.930838134765625,-1.0585229649931192,-1.6050348574981093,-0.6324143984571099
1761914344476894200,0.940894287109375,-0.9218629162281751,-1.3841156860738992,-0.7624842551767825
1761914344486950100,0.9509501953125,-0.7885515933692455,-1.009555812728405,-0.7856143708735704
1761914344497006000,0.961006103515625,-0.6700269207537174,-0.5750125953242182,-0.7546396791562437
1761914344507062300,0.971062255859375,-0.5670271495282649,-0.08616846341192722,-0.6537476938650012
1761914344517118200,0.9811181640625,-0.4068377566158771,0.4615621572330594,-0.439369322386384
1761914344527174100,0.991174072265625,-0.21795009248554706,1.0037950572445988,-0.18757453570514918
1761914344537229000,1.00122900390625,-0.008568506380915641,1.3658140134468675,-0.040759003628790376
1761914344547285000,1.011284912109375,0.224238963496685,1.5414838840857148,0.021187749457359312
1761914344557341200,1.021341064453125,0.4463660494059324,1.5513652266308664,0.05754296516925096
1761914344567397000,1.031397216796875,0.6003899054259062,1.390750009521842,0.07127893731594086
1761914344577453000,1.041453125,0.7287444826602936,1.096995026728511,-0.005647065976262093
1761914344587509200,1.05150927734375,0.7995920428216456,0.610489274635911,-0.22291531367748973
1761914344597564200,1.061564208984375,0.7863713267207145,0.03850362591743469,-0.4941682495445013
1761914344607620400,1.071620361328125,0.7734633298307657,-0.6172066001921892,-0.8093260858505964
1761914344617676300,1.08167626953125,0.7797218057036399,-1.3044856845200061,-1.1274331273511051
1761914344627732200,1.091732177734375,0.8169926749557256,-1.8871265827655792,-1.3520815484315156
1761914344637788200,1.1017880859375,0.8706266499876976,-2.3283158140555025,-1.4907143585741518
1761914344647844000,1.111843994140625,0.8717471784502268,-2.545436469979584,-1.5386045292571187
1761914344657900000,1.121900146484375,0.7331774966716766,-2.4529198065847155,-1.4666530995070934
1761914344667955200,1.131955078125,0.5355336946338415,-1.9427631297916172,-1.2606716772347688
1761914344678011100,1.14201123046875,0.3928296895295381,-1.118043075454235,-0.9887611542418598
1761914344688067000,1.152067138671875,0.29802842232882976,-0.3365156816333532,-0.7770151770934463
1761914344698123300,1.162123291015625,0.27339024015665053,0.34498891094624995,-0.5778872739776969
1761914344708179200,1.17217919921875,0.33635902976691723,0.9300517756417394,-0.40293987239450213
1761914344718235100,1.182235107421875,0.4549450771808624,1.4576479552745818,-0.25498276906758544
1761914344728291300,1.192291259765625,0.5112941563904285,1.833759441976249,-0.14853256512731314
1761914344738346500,1.202346435546875,0.6156190387398004,2.000151488921046,-0.03173106304258108
1761914344748402700,1.212402587890625,0.8773825539886951,2.16915079575479,0.07986702518016099
1761914344758458600,1.222458740234375,1.042459718942642,2.2003516974434256,0.12997837904393672
1761914344768514600,1.2325146484375,0.9549947859793901,2.0162793246403337,0.0931581761687994
1761914344778570800,1.24257080078125,0.8715180458694696,1.6978616097554564,0.04173135579228401
1761914344788626400,1.25262646484375,0.742932582488656,1.336224638608098,-0.04411415927559137
1761914344798681600,1.262681640625,0.6676596071004867,0.9471449492618441,-0.1725257273942232
1761914344808737500,1.272737548828125,0.6921621801942587,0.6786527102798223,-0.22427958776801823
1761914344818793500,1.28279345703125,0.7027741751015186,0.5106280936971307,-0.23499621209353208
1761914344828849700,1.292849609375,0.636013591992855,0.30506869622915983,-0.23158640365004537
1761914344838905600,1.302905517578125,0.5561649792522192,0.06314093130677938,-0.2000084853425622
1761914344848961500,1.31296142578125,0.4888151980787515,-0.15957973658144473,-0.19127017535269258
1761914344859017700,1.323017822265625,0.49755789198279377,-0.32560645734518767,-0.22269991736114023
1761914344869072400,1.333072265625,0.5990069266349077,-0.4298085900977254,-0.3034916561707854
1761914344879128600,1.343128662109375,0.6146826346725225,-0.4303197544902563,-0.36920711414068935
1761914344889184500,1.3531845703125,0.5365279663681983,-0.4494827201217413,-0.43716275225281714
1761914344899240400,1.363240478515625,0.40938744109869,-0.4628019281610846,-0.4526347544118762
1761914344909296600,1.373296630859375,0.18323241484761238,-0.463616167153418,-0.46042292407006025
1761914344919352600,1.3833525390625,-0.05278700281381607,-0.4746043018966913,-0.4522293884813785
1761914344929408500,1.393408447265625,-0.20681845761835574,-0.47251872779428955,-0.4479641322523355
1761914344939463700,1.403463623046875,-0.3212012081235647,-0.48820028105080127,-0.48599020378589625
1761914344949519600,1.41351953125,-0.29449089585244653,-0.6590960691556335,-0.5936982988327741
1761914344959575600,1.423575439453125,-0.2901075662016868,-0.9012851153627037,-0.6773600401207804
1761914344969631500,1.433631591796875,-0.27488486262857914,-1.0779112638130783,-0.6977963866889476
1761914344979687400,1.4436875,-0.2490881580710411,-1.21230044503659,-0.7637444843709469
1761914344989743400,1.453743408203125,-0.1354734693288803,-1.2544509030237794,-0.7160282089501618
1761914344999798500,1.463798583984375,-0.06428922455906867,-1.3359817697629333,-0.6702133832365273
1761914345009854500,1.4738544921875,0.00739127929508686,-1.3701231088176369,-0.6019520401760935
1761914345019910700,1.48391064453125,-0.02587035431563854,-1.3142141745910048,-0.4622793655917048
1761914345029966600,1.493966552734375,-0.20700024392604827,-1.2241755917474626,-0.21089082162380218
1761914345040022500,1.5040224609375,0.3688905955374241,-0.732768331348896,-0.4131576072871685
1761914345050078700,1.51407861328125,0.8494628659278154,-0.21071721862256526,0.05451075786650181
1761914345060134700,1.524134765625,0.746160896885395,-0.07518237449526786,0.31613837177604437
1761914345070189600,1.534189453125,0.5090303031116724,0.06949585329145193,0.2742912806496024
1761914345080245500,1.54424560546875,0.6977513785034418,0.3807476220697164,0.6047194590628147
1761914345090301400,1.554301513671875,0.9165829299986362,0.5373968581572175,0.8929664920896291
1761914345100357600,1.564357666015625,1.0586468836337328,0.5336038956150412,0.9966060225233435
1761914345110413600,1.57441357421875,1.222880583500862,0.44398295366168017,1.0360118579775095
1761914345120469500,1.584469482421875,1.318794195857644,0.31729747868329283,1.0238263301432131
1761914345130524700,1.594524658203125,1.2489718870908022,0.20954525223374365,1.021350003157556
1761914345140580600,1.60458056640625,1.0481360110133886,0.19728841272890565,1.0428810130946338
1761914345150636500,1.614636474609375,0.7499228797674179,0.23891893849521875,1.0981501881130038
1761914345160692500,1.6246923828125,0.1451373697310686,0.30247926425784827,1.0982036718659103
1761914345170748400,1.63474853515625,-0.09452128121554851,0.11124883639365434,0.9279309840954839
1761914345180804600,1.6448046875,0.025833529436588287,-0.3607292086526751,0.7197212182492018
1761914345190860500,1.654860595703125,-0.07154781738519668,-1.076962584786117,0.4296697661489248
1761914345200915500,1.66491552734375,-0.05086451031863689,-1.8039271982923148,0.1285841482065618
1761914345210971600,1.6749716796875,-0.1639642352759838,-2.534031863389909,-0.18393325659334658
1761914345221027600,1.685027587890625,-0.2896083845078945,-3.122183634011447,-0.3946737099610269
1761914345231083500,1.69508349609375,-0.4912129068702459,-3.4265815913721918,-0.4412354085192084
1761914345241139700,1.7051396484375,-0.8235890044808387,-3.396512031801045,-0.40552258236408234
1761914345251195400,1.7151953125,-1.3845400489658117,-2.9360613429412243,-0.32906682693213224
1761914345261250600,1.72525048828125,-1.9787930590718983,-1.9474720381349324,-0.18254983941093086
1761914345271306500,1.735306396484375,-2.464655837085843,-0.6369374288395047,-0.010560703111439943
1761914345281362400,1.745362548828125,-2.765609206950664,0.7129144608438015,0.19511106868982314
1761914345291418600,1.755418701171875,-2.692628141891956,1.8858090704262256,0.4730056345283985
1761914345301474600,1.765474609375,-2.4934558151125907,2.473229896424711,0.6104227852709591
1761914345311530500,1.775530517578125,-1.9142361234873533,2.6233444700464603,0.7544437181927264
1761914345321586700,1.785586669921875,-1.2765303406238555,2.5522984647035596,0.8625640473023056
1761914345331641300,1.795641357421875,-0.7515010888695717,2.127821006500721,0.850911749561876
1761914345341697500,1.805697509765625,-0.2718517785429954,1.5805343302309511,0.7169673894964158
1761914345351753500,1.81575341796875,0.24366028780341148,1.0632999701365828,0.4831893210209906
1761914345361809400,1.825809326171875,0.6547217995941639,0.7038809672996401,0.2992548953838646
1761914345371865600,1.835865478515625,0.9091770376563072,0.6553922462016344,0.2618741360165179
1761914345381921500,1.845921630859375,0.7967804925322532,0.8077198196977377,0.24944763903319833
1761914345391976700,1.855976806640625,0.39914369498193264,0.8457797935009003,0.1946186089977622
1761914345402032600,1.86603271484375,-0.04348550598323345,0.6016296763539314,0.04234568829834461
1761914345412088600,1.876088623046875,-0.4468120396077633,0.237141115167737,-0.09489201422408222
1761914345422144800,1.886144775390625,-0.7000462114423514,-0.036034020933508874,-0.09418832293413579
1761914345432200400,1.896200439453125,-0.8757225118219852,-0.17443039197176693,0.04611417398639023
1761914345442256400,1.90625634765625,-0.9419014956504106,-0.14778320806473494,0.2193338019289076
1761914345452312600,1.9163125,-0.8678677066683769,-0.035275311520695685,0.33849582259990274
1761914345462367500,1.926367431640625,-0.7463099499672651,0.14488924018889665,0.39977110616527495
1761914345472423700,1.936423583984375,-0.576518031451106,0.42144349733442066,0.48739020677693184
1761914345482479600,1.946479736328125,-0.34474633436203,0.7730962500840425,0.5816764371275901
1761914345492535600,1.95653564453125,-0.1132177983790636,1.0673887007549405,0.6879810951173305
1761914345502591500,1.966591552734375,0.10992869370579719,1.2789137286290526,0.8244440138749778
1761914345512647700,1.976647705078125,0.3454863390743732,1.4123539385646582,0.9593689094103872
1761914345522702300,1.986702392578125,0.6622475189238787,1.4823016272768377,1.098091297532618
1761914345532758500,1.996758544921875,1.05702951156497,1.4446268533989786,1.1890678918786346
1761914345542814500,2.006814453125,1.5022323624104261,1.2278253464266657,1.2121009769417346
1761914345552870400,2.016870361328125,1.9066858542382716,0.8235042488068341,1.1822554353848098
1761914345562926600,2.026926513671875,2.2114169890761373,0.2975862315192819,1.0998113993234933
1761914345572982500,2.036982421875,2.405947043007612,-0.2390855272337794,0.9652205580480396
1761914345583038500,2.04703857421875,2.4871482394009825,-0.65710694116503,0.8642948166176676
1761914345593093600,2.05709375,2.4536644874721762,-0.9273623904272913,0.7577563498720526
1761914345603149600,2.067149658203125,2.3998703534424304,-1.0890011053651572,0.6067850132904946
1761914345613205500,2.07720556640625,2.269352460694313,-1.1502084382608533,0.39928237280026074
1761914345623261400,2.087261474609375,2.054195798319578,-1.1623095026820898,0.15459639521092175
1761914345633317400,2.0973173828125,1.7798393434792756,-1.1203376161321996,-0.08131006359532475
1761914345643373600,2.10737353515625,1.4637614697188137,-1.070101466844976,-0.22534926282614468
1761914345653428500,2.117428466796875,1.0813736792266369,-1.0461515591979027,-0.3529198500759899
1761914345663484700,2.127484619140625,0.6969535061240196,-1.0138248683497308,-0.44247517944723364
1761914345673540600,2.13754052734375,0.3762397892564535,-0.9394973571181297,-0.48442076251208777
1761914345683596500,2.147596435546875,0.1393862588584423,-0.9031436027109623,-0.5651102099910378
1761914345693652700,2.15765283203125,0.008548632636666298,-0.9104916273862123,-0.6814188139922916
1761914345703708700,2.167708740234375,-0.03279460062086582,-0.9250283945217728,-0.8189042076654732
1761914345713764600,2.1777646484375,-0.04712006309330463,-0.9231973797023296,-0.9595062720544636
1761914345723819500,2.187819580078125,-0.03831833247840404,-0.8501488023653626,-1.0792029110588133
1761914345733875500,2.19787548828125,-0.036329789009690285,-0.7413502817332744,-1.1442487992040813
1761914345743931400,2.207931396484375,-0.12505962734222412,-0.6741822868674993,-1.1701187151283026
1761914345753987300,2.2179873046875,-0.2645627905786037,-0.5962041441738605,-1.1594121738053857
1761914345764043300,2.228043212890625,-0.39569560035467144,-0.5309036967456341,-1.1395770080007612
1761914345774099500,2.238099365234375,-0.48948096851110456,-0.5012622994586825,-1.1269828993655742
1761914345784155400,2.2481552734375,-0.5791945571839809,-0.4351914521798491,-1.0901106740422546
1761914345794210300,2.258210205078125,-0.5914373681634664,-0.33234190308004613,-1.0354413646131753
1761914345804266200,2.268266357421875,-0.49915480578541754,-0.22752952947467564,-0.9960311452448367
1761914345814322200,2.278322265625,-0.3434603862047195,-0.16435966433435678,-0.9804397544898092
1761914345824378400,2.28837841796875,-0.1561731430083513,-0.13086977492570875,-0.9693766548141837
1761914345834434300,2.298434326171875,0.057899231261014934,-0.12306085474044084,-0.9514838552489876
1761914345844490200,2.308490234375,0.2814712552815676,-0.13913228409737347,-0.9362934465102851
1761914345854545400,2.31854541015625,0.47772506426572797,-0.1390069041520357,-0.9368582407861947
1761914345864601300,2.328601318359375,0.6426999378889798,-0.12107143448889254,-0.8800957584701478
1761914345874657300,2.3386572265625,0.7358435010105371,-0.08359072187840938,-0.8174260979369282
1761914345884713500,2.34871337890625,0.7567857512742281,-0.03356909212470054,-0.7591710389755666
1761914345894769200,2.35876904296875,0.7483768193691969,-0.05969722059369087,-0.7365143860094249
1761914345904825000,2.3688251953125,0.7764169189393519,-0.1018392030134797,-0.7229023325033486
1761914345914881300,2.37888134765625,0.9049111969053745,-0.10726882684677838,-0.7274025665320456
1761914345924936200,2.388936279296875,1.0636170732617378,-0.11639116771817207,-0.7434644974082708
1761914345934992400,2.398992431640625,1.0924649820834398,-0.1504395677924156,-0.767991766551882
1761914345945048300,2.40904833984375,0.9420704224765301,-0.20829963608682153,-0.8347425589188933
1761914345955104300,2.419104248046875,0.6050818626344203,-0.36212270883768793,-0.9591963293224572
1761914345965160400,2.429160400390625,0.26602058817148205,-0.5590878809615969,-1.084971849849075
1761914345975216400,2.43921630859375,-0.045852819636464114,-0.8559837921291589,-1.2551152121514082
1761914345985271300,2.449271240234375,-0.32447043905258177,-1.2267679463282226,-1.3718147151663898
1761914345995327200,2.4593271484375,-0.5659276638537645,-1.5731632169410585,-1.379340580626577
1761914346005383200,2.469383056640625,-0.8798013055682182,-1.9036410797148942,-1.337877520381659
1761914346015439400,2.479439453125,-1.4104028044968842,-2.140321883894503,-1.278800185251981
1761914346025495300,2.489495361328125,-1.9419377848833799,-2.1033286625400183,-1.1502377374205737
1761914346035551200,2.49955126953125,-2.237009110972285,-1.6434847074016927,-0.8197224652457982
1761914346045607400,2.509607421875,-2.2269950819581745,-0.978240344749391,-0.44758485061116515
1761914346055662300,2.519662353515625,-1.9531231957644224,-0.29679420435875653,-0.08706037075035274
1761914346065718500,2.529718505859375,-1.521598741659522,0.30554274348169563,0.19114428395070135
1761914346075774200,2.539774169921875,-1.0620832878232003,0.8007935275658965,0.4227458851698786
1761914346085830100,2.549830078125,-0.6544710397034883,1.1745011679962276,0.5900966210789979
1761914346095886300,2.55988623046875,-0.3866483705461025,1.432960381002724,0.6930701618846505
1761914346105942300,2.5699423828125,-0.22258125941753387,1.5568369360402226,0.7249731474280356
1761914346115997400,2.57999755859375,-0.18266835122406483,1.6429533770039677,0.7255547467082738
1761914346126053400,2.590053466796875,-0.29855507655143737,1.660840039089322,0.7466375014211982
1761914346136109300,2.600109375,-0.3596428747206926,1.6424439661771058,0.7218056963730604
1761914346146165200,2.610165283203125,-0.30350889956653115,1.6408473446354268,0.6510495408222079
1761914346156221400,2.620221435546875,-0.08419745559990406,1.5903908305957912,0.5356074905224144
1761914346166277400,2.63027734375,0.1392810449182987,1.4113473918706179,0.3977096435908228
1761914346176333300,2.640333251953125,0.26790099509060383,1.1177730263411998,0.262682383659482
1761914346186388200,2.65038818359375,0.44587212840914725,0.701788671195507,0.0690946520794183
1761914346196444200,2.660444091796875,0.4408095843225717,0.21507950548529622,-0.17502360862456262
1761914346206500400,2.670500244140625,0.5688192936420441,-0.14450433252453804,-0.30773966900408267
1761914346216556300,2.680556396484375,0.5540227065265179,-0.41673663481771944,-0.4024772233188152
1761914346226612200,2.6906123046875,0.2390665302723646,-0.5892717145621776,-0.4467540258102119
1761914346236668400,2.70066845703125,-0.28435937793850896,-0.5398293460011482,-0.3035925592619926
1761914346246723300,2.710723388671875,-0.7099252158999443,-0.33327743036448954,-0.06111180009935051
1761914346256779300,2.720779296875,-0.8601672152936458,0.017179098337888717,0.20815584370195864
1761914346266835200,2.730835205078125,-0.8296545881301164,0.4877221421450376,0.5172593118725344
1761914346276891100,2.74089111328125,-0.7052887882709503,0.9256003491908311,0.7673745114363729
1761914346286947300,2.750947265625,-0.6301099209070206,1.2004308512836694,0.8778269367553293
1761914346297003300,2.761003173828125,-0.5353232667535543,1.3234393913149833,0.8645960645865648
1761914346307059200,2.77105908203125,-0.40361821004748344,1.3460054433882236,0.8048337428674102
1761914346317114400,2.7811142578125,-0.2136608708590269,1.2814789029419422,0.7512091201856732
1761914346327170300,2.79117041015625,-0.04544131622612476,1.2386451388657091,0.7678895482864231
1761914346337226500,2.8012265625,0.061896776464581485,1.1843541612297295,0.8416531420249491
1761914346347282400,2.811282470703125,0.2307663194388151,1.0854524729728698,0.8616255974084138
1761914346357338000,2.821338134765625,0.42914895714521406,0.9182441412091255,0.7991722830396145
1761914346367394300,2.831394287109375,0.6154536190450192,0.7152525484025478,0.6901077318824828
1761914346377449200,2.84144921875,0.7420739198327064,0.4569266063868999,0.6316396877575665
1761914346387505400,2.85150537109375,0.7742775688230991,0.1004383963048458,0.6203136993620544
1761914346397561300,2.861561279296875,0.7085889988601207,-0.3216115424901247,0.6273292041473091
1761914346407617300,2.8716171875,0.7450964825242757,-0.6518149722367524,0.5718607071645557
1761914346417673500,2.881673583984375,0.8814730381727218,-0.8255144195854663,0.4937180215589702
1761914346427729400,2.8917294921875,0.9723884038507938,-0.8212994322389364,0.5113507819484919
1761914346437785300,2.901785400390625,1.0634271036475895,-0.7199474282205104,0.5358310336126014
1761914346447840300,2.91184033203125,1.2228934429824352,-0.46365123846679923,0.5156986749596894
1761914346457896200,2.921896240234375,1.3714818299502134,-0.3162839177265763,0.3041061348073184
1761914346467952000,2.9319521484375,1.5900135217159985,-0.3228518979400396,0.3478542737821117
1761914346478008300,2.94200830078125,1.5882529417842626,-0.08156652257442473,0.38198918309602886
1761914346488064300,2.952064208984375,1.202677168905735,0.07979162185639142,0.3848291192296892
1761914346498120200,2.9621201171875,0.956000163629651,0.08175356957912444,0.45727742911856617
1761914346508176400,2.97217626953125,0.8526759827554226,0.013920681063830851,0.44511783944312483
1761914346518231300,2.982231201171875,0.7458785728126763,-0.08072071940004825,0.369168170369789
1761914346528287500,2.99228759765625,0.7192465864747762,-0.16444997296631336,0.30093806269783524
1761914346538343200,3.00234326171875,0.6932534825623035,-0.22414310190677642,0.27027181587517257
1761914346548399000,3.012399169921875,0.6763783356070519,-0.2673088744163513,0.2585984388140961
1761914346558455300,3.022455322265625,0.6765361565172672,-0.3059916562929749,0.24440230180975048
1761914346568511200,3.03251123046875,0.7082593285143375,-0.3565186052203178,0.2105108458628878
1761914346578566400,3.04256640625,0.7533563613474369,-0.36842999228835105,0.18295330564528703
1761914346588622300,3.052622314453125,0.7183464227646589,-0.37644729452729225,0.17680629079025237
1761914346598678300,3.06267822265625,0.518967759758234,-0.4008347168087959,0.16127755347527561
1761914346608734500,3.072734375,0.32168285416066644,-0.4549067909970879,0.16837010555211454
1761914346618790400,3.082790283203125,0.21036592096686363,-0.535877685765922,0.2058001839539036
1761914346628846300,3.092846435546875,0.15138181707859039,-0.6289411693885922,0.2613342935187742
1761914346638902300,3.10290234375,0.039894788014888764,-0.7425090963795781,0.3330631665593013
1761914346648957200,3.112957275390625,-0.0024760347247123715,-0.7385399004876613,0.47351369364839047
1761914346659013400,3.123013427734375,0.019355857855081558,-0.5892614854291081,0.5945682135351001
1761914346669069300,3.1330693359375,-0.10128244591355323,-0.506640193104744,0.5553648783830926
1761914346679125200,3.143125244140625,-0.33516777415573595,-0.5708297566816211,0.34685978285204616
1761914346689181400,3.153181396484375,-0.36798634017407894,-0.49265813724249596,0.2965273701161146
1761914346699237400,3.1632373046875,-0.5975438683450222,-0.28014059119969603,0.4384628750659525
1761914346709292300,3.173292236328125,-0.9670441202133894,-0.1855988517180085,0.429860101089254
1761914346719348200,3.18334814453125,-1.027607017725706,-0.2823889546483755,0.3473939262613654
1761914346729404200,3.193404052734375,-0.9930570978701114,-0.29798721353560687,0.5142167658388614
1761914346739460000,3.203460205078125,-0.8560685478031634,-0.09715776719897985,0.9490803012385964
1761914346749516000,3.21351611328125,-0.5981523556321859,0.10210574499517679,1.3247117493383587
1761914346759572000,3.223572021484375,-0.4958049108356237,0.11585340757966041,0.9616553398471325
1761914346769628000,3.2336279296875,-0.8622428525239229,-0.08904781824052334,1.056512063562125
1761914346779682800,3.243682861328125,-1.2943413071244954,-0.24518238280415533,1.2680347533486782
1761914346789739000,3.253739013671875,-1.4462497784256934,0.019202713119983672,1.4282479655280709
1761914346799795000,3.263794921875,-1.3711661881297825,0.4987365803733468,1.7054767609342931
1761914346809851000,3.273850830078125,-1.1575544171094894,0.9960583255127071,1.787731265772879
1761914346819907000,3.283906982421875,-0.8802180696755647,1.4355688099354504,1.7178987278729676
1761914346829963000,3.293962890625,-0.7121510752558707,1.7115040583997965,1.630449869261682
1761914346840019000,3.30401904296875,-0.7105740351974964,1.7898393439680338,1.5187828074559568
1761914346850073900,3.314073974609375,-0.8330687804877758,1.6542463399127125,1.4575317815490065
1761914346860129800,3.3241298828125,-1.015057332754135,1.4172186219915748,1.4433657474219799
1761914346870185700,3.334185791015625,-1.2147861243724822,1.0958008485078812,1.4385527941823004
1761914346880242000,3.344241943359375,-1.444292214617133,0.7808490561679006,1.4777265744462609
1761914346890297900,3.3542978515625,-1.5650971071243285,0.579184912572801,1.5159841166481374
1761914346900353800,3.364353759765625,-1.4522972418963909,0.3426189669445157,1.5052096246555446
1761914346910409000,3.374408935546875,-1.3873627051711082,0.07588701563328504,1.4584525496557355
1761914346920465000,3.38446484375,-1.3708271654337645,-0.16587386828958986,1.4767483770638703
1761914346930521000,3.39452099609375,-1.3652367980808018,-0.32203590538203714,1.541742535021901
1761914346940577000,3.404576904296875,-1.3599731784641742,-0.35099662692844863,1.671992424483597
1761914346950632700,3.4146328125,-1.4270008880764244,-0.25125001228004695,1.8990446918353436
1761914346960689000,3.42468896484375,-1.5611258654057978,-0.10841770462095737,1.9919547384619711
1761914346970744800,3.434744873046875,-1.4195499875485895,0.16868220370858908,2.0446213297665117
1761914346980800000,3.444800048828125,-0.8581739956498146,0.8440954936757683,2.447206397373974
1761914346990856000,3.45485595703125,-0.5089636676162481,1.420211666327715,2.6358666824892163
1761914347000912000,3.464911865234375,-0.04769698619842529,1.9059230531722307,2.8068311519160867
1761914347010968000,3.474968017578125,0.5051859026432037,2.2217080814659593,2.9727547045662996
1761914347021024000,3.48502392578125,0.8916898962825536,2.3550144358888265,3.1188264325380324
1761914347031080000,3.495079833984375,1.00818510889709,2.2606769868075847,3.1923446732133627
1761914347041134800,3.505134765625,1.0808072775155306,2.013223151940107,3.2468945940464735
1761914347051190800,3.515190673828125,1.2054770287573338,1.6109616171985863,3.102650081501901
1761914347061247000,3.5252470703125,1.3821476008713245,1.2364257092505693,2.795726697316766
1761914347071303000,3.535302978515625,1.6263386345505713,0.9520806520983576,2.48895353525728
1761914347081358800,3.54535888671875,1.8431378034353254,0.7159221182271838,2.217584133403748
1761914347091415000,3.5554150390625,1.9214853639632463,0.5096376213550567,1.9840049485012887
1761914347101471000,3.565470947265625,1.8759692289352417,0.39148967309743166,1.7708065805874764
1761914347111526000,3.57552587890625,1.7694488823682069,0.3589683364599943,1.575518255634606
1761914347121582000,3.58558203125,1.7252923452556133,0.3600958791851997,1.396111536554992
1761914347131637800,3.5956376953125,1.7097382177710532,0.3016998043179512,1.2223223650962114
1761914347141694000,3.60569384765625,1.766649022516608,0.1493248845487833,1.0011272993400693
1761914347151750000,3.61575,1.8032155428916214,-0.013596855936944484,0.681684040799737
1761914347161805800,3.625805908203125,1.7060037074178456,-0.06394727925360202,0.3594266016215086
1761914347171861800,3.63586181640625,1.4548293907225132,0.01917231798171997,0.11918109069764614
1761914347181917000,3.6459169921875,1.1506459528952837,0.11708119580894708,-0.06844312936812638
1761914347191972900,3.655972900390625,0.965321534204483,0.18294483007788656,-0.2516054015889764
1761914347202029000,3.666029052734375,0.8821019837260246,0.1281467797026038,-0.44314621057659387
1761914347212085000,3.6760849609375,0.7677414450526237,-0.014715338572859763,-0.6396817591115832
1761914347222141000,3.686140869140625,0.5895213054090738,-0.19308570034205913,-0.8227899630576372
1761914347232196900,3.69619677734375,0.40072015051841736,-0.4231052930667996,-0.9917322790071368
1761914347242251800,3.706251708984375,0.3275444396704435,-0.6494821453750134,-1.151928686182201
1761914347252308000,3.716307861328125,0.3436562010377645,-0.8818757737547158,-1.319534492830932
1761914347262364000,3.726364013671875,0.3020125235289335,-1.1045013107053936,-1.5478756309494375
1761914347272419800,3.736419921875,0.14529986681640147,-1.1315671584159135,-1.6879267834573983
1761914347282476000,3.74647607421875,-0.05115560221970081,-0.9501303948134183,-1.7887936343073845
1761914347292532000,3.756531982421875,-0.2385872223228216,-0.6880925926677882,-1.8750132433846591
1761914347302588000,3.766587890625,-0.3167261085361242,-0.4946725458048284,-1.9346603412263095
1761914347312642800,3.776642822265625,-0.3097586076110601,-0.31678821398690343,-1.9824831457614898
1761914347322698800,3.78669873046875,-0.5491442868351936,-0.21355463400557637,-2.0333312894672155
1761914347332755000,3.7967548828125,-0.8451450027287006,-0.13961393013447523,-2.0659889658354222
1761914347342811000,3.806810791015625,-1.0295955611944199,-0.24180033915042876,-2.0925519785903393
1761914347352866800,3.81686669921875,-0.6338245575159788,-1.24965665448457,-2.0577486684955657
1761914347362923000,3.826923095703125,0.1358043087184429,-1.8702977591700851,-2.4270357160046694
1761914347372979000,3.83697900390625,-0.29469840112328527,-1.0253023940451442,-2.6536206581056114
1761914347383034000,3.8470341796875,-1.1641735429883002,-0.6804993610598147,-2.1142729581415654
1761914347393090000,3.857090087890625,-1.1614292127162218,-1.5304465033732353,-1.8156937700621782
1761914347403146000,3.86714599609375,-0.4820429274648428,-1.0391446030452847,-2.1890499667063352
1761914347413202000,3.877201904296875,-0.3525976323843002,-0.30378888555169103,-2.2634917519673703
1761914347423257900,3.8872578125,-0.589644055005908,0.0016011515863239764,-1.6740160392656922
1761914347433313800,3.897313720703125,-0.9080945031166077,0.2423306466348469,-1.7852848955340683
1761914347443370000,3.907369873046875,-0.9848609319329261,0.8041501445174217,-1.9527821272417902
1761914347453425000,3.9174248046875,-1.0627145714640616,1.0702646945826708,-1.9357059047564864
1761914347463480800,3.927480712890625,-1.297661975979805,1.0426377058580518,-2.100324804548919
1761914347473537000,3.937537109375,-1.5843080035507677,0.7262912442892789,-2.399043401098996
1761914347483593000,3.947593017578125,-1.6046628093153237,0.15158610747903584,-2.5782097355514764
1761914347493649000,3.95764892578125,-1.6280729109972714,-0.28956279180049893,-2.5558736928418275
1761914347503705000,3.967705078125,-1.8104928404182195,-0.6902624840527772,-2.3747005486115813
1761914347513759700,3.977759765625,-1.8820809898138045,-1.093365438054502,-1.9240394323602317
1761914347523816000,3.98781591796875,-2.022839706069231,-1.4884943444371224,-1.4967746815264225
1761914347533870000,3.9978701171875,-2.408544658285379,-1.713227813452482,-1.2223897312439977
1761914347543926000,4.007926025390625,-2.818333665922284,-1.5850398249566555,-0.8779797892294824
1761914347553982000,4.01798193359375,-2.992603606635332,-1.0903662562385201,-0.4541715355250984
1761914347564038100,4.0280380859375,-2.9310645575672387,-0.3690799806296825,-0.06468852607496083
1761914347574093800,4.03809375,-2.682707051858306,0.4218474019601941,0.30380364472940563
1761914347584149000,4.04814892578125,-2.2872341543436048,1.0977961139783263,0.6408903311837464
1761914347594205000,4.058204833984375,-1.816594079902768,1.4949018733918666,0.8697614845257252
1761914347604260900,4.0682607421875,-1.3824118047654628,1.6436837371051312,1.0258603932540864
1761914347614317000,4.078317138671875,-0.9736427878260612,1.802300473873317,1.1810595035985112
1761914347624373000,4.088373046875,-0.6289513985216617,1.9766762130483984,1.3507422626517713
1761914347634429000,4.098428955078125,-0.38739129786789417,2.0415739248946307,1.463599703285843
1761914347644485000,4.108485107421875,-0.1134574523538351,2.0057623145401475,1.5627403148651122
1761914347654539800,4.118539794921875,0.23388474372029303,1.8101237148448823,1.630302569745481
1761914347664596000,4.128595947265625,0.5013800806194544,1.4383289222985505,1.6558721875488758
1761914347674652000,4.13865185546875,0.5566974786937237,0.9907456060573459,1.6356123665913938
1761914347684707800,4.148707763671875,0.5242734649509191,0.5765913889482617,1.6083759846195578
1761914347694763800,4.158763671875,0.577319995483756,0.28460692295879125,1.5944630484707654
1761914347704820000,4.168820068359375,0.7416641699880361,0.1243824587330222,1.628981842535734
1761914347714876000,4.1788759765625,0.9358744904458522,0.08113368411511182,1.7269843899957835
1761914347724931000,4.18893115234375,0.9959364526987076,0.13481442089825868,1.865069356997311
1761914347734987000,4.198987060546875,0.9166203393995761,0.2500900285899639,2.0477014678642154
1761914347745042400,4.20904248046875,0.7458119373172521,0.4181485474422574,2.2423579246543346
1761914347755098400,4.219098388671875,0.6189975752621889,0.6455170411363244,2.448534869498759
1761914347765154300,4.229154296875,0.542181462085247,0.8433478901788591,2.6092005016207693
1761914347775210500,4.23921044921875,0.46929041339755057,0.9645835753187537,2.735263168525696
1761914347785265400,4.249265380859375,0.46024493715465065,0.9783338682517408,2.813098395617306
1761914347795321300,4.2593212890625,0.5887269401609897,0.9370365199625491,2.887888555924594
1761914347805377300,4.269377197265625,0.7142752278029918,0.8032289380192756,2.9005066299572584
1761914347815433200,4.27943310546875,0.7048848836451769,0.5129077290669083,2.7707372174888847
1761914347825489400,4.289489501953125,0.6880804638385772,0.22581834164261816,2.633545253804326
1761914347835545300,4.29954541015625,0.7364519882977009,-0.03879033390432596,2.5115239712446926
1761914347845601300,4.309601318359375,0.7714379614830017,-0.2858089922249317,2.3365029199033973
1761914347855656400,4.319656494140625,0.8442647127628325,-0.4721753211840987,2.1588496203623713
1761914347865712400,4.32971240234375,1.0433324101239443,-0.5971946165159344,1.9894082688495516
1761914347875768300,4.339768310546875,1.2426269019782543,-0.6778247350230813,1.8007123278990387
1761914347885824500,4.349824462890625,1.367193192845583,-0.8090235957726836,1.5882317528657615
1761914347895880200,4.359880126953125,1.3642793512254952,-0.9570423661589622,1.3727537495821713
1761914347905936100,4.36993603515625,1.2524772648632525,-1.0515569253727792,1.2340190865002572
1761914347915992300,4.379992431640625,1.0618781206399202,-1.0392369575038551,1.2113047119975089
1761914347926047200,4.390047119140625,0.7890028442680835,-0.905854030713439,1.2446502244994044
1761914347936103400,4.400103515625,0.5672451761931181,-0.6621449353322386,1.2826757115110754
1761914347946159400,4.410159423828125,0.47311201751232146,-0.45880701330602164,1.2740274178922175
1761914347956215300,4.42021533203125,0.5542091690093278,-0.3071054627537727,1.239476182862371
1761914347966271500,4.430271484375,0.6781617118924855,-0.23898908112198114,1.1924975740663706
1761914347976327400,4.440327392578125,0.7184948913246393,-0.17897388062030076,1.2013456280410288
1761914347986383400,4.45038330078125,0.638292642840743,-0.04350362616181373,1.2761916101887822
1761914347996438300,4.460438232421875,0.5757891326546669,0.09090776689350605,1.3778423048928379
1761914348006494200,4.470494140625,0.566273700812459,0.09514292024523019,1.4646552036881446
1761914348016550400,4.48055029296875,0.5752390975564718,-0.08857786264121532,1.481405555219948
1761914348026606300,4.4906064453125,0.6124655431449413,-0.3535460191503167,1.4149386943608522
1761914348036662300,4.500662353515625,0.6852414410203694,-0.6295616393744945,1.2932216554448008
1761914348046718500,4.510718505859375,0.7171463993251324,-0.887936681228876,1.136785989042744
1761914348056774400,4.5207744140625,0.7440104408532381,-1.0540347136631607,0.99751005869098
1761914348066829600,4.53082958984375,0.7134913839489221,-1.1054480900362134,0.9317951852429658
1761914348076885200,4.54088525390625,0.6814478939563036,-1.0388523421004414,0.8859694728091358
1761914348086941200,4.550941162109375,0.7255541621863841,-0.8951204552531242,0.8325411033518612
1761914348096997400,4.560997314453125,0.8167898458600044,-0.7283864630028605,0.745391519948095
1761914348107053300,4.57105322265625,0.8988491203874349,-0.5423480508238077,0.6601493045356124
1761914348117109200,4.581109130859375,0.9658020111978054,-0.36442630960494277,0.5831310929153114
1761914348127164400,4.591164306640625,1.0395201583594083,-0.18053513858765363,0.5237908325331285
1761914348137220400,4.601220458984375,1.164724162608385,0.006393208168447018,0.5190380119828507
1761914348147276300,4.6112763671875,1.268009765037894,0.08401771511882543,0.5828735014250501
1761914348157332500,4.62133251953125,1.249720075109601,0.010196107582747936,0.6040588762622326
1761914348167388400,4.631388427734375,1.1540876177817583,-0.11194646326899528,0.6305025734864175
1761914348177444400,4.6414443359375,1.0658359183549881,-0.17729747184067962,0.6903527926847338
1761914348187500300,4.651500244140625,0.9458931956350802,-0.2361468434333801,0.733766110214591
1761914348197555200,4.66155517578125,0.8528717975884675,-0.3276794642269611,0.7820819589637219
1761914348207611400,4.671611328125,0.7702081274271011,-0.4792746317952871,0.8183503731749951
1761914348217667300,4.681667236328125,0.7621779657065868,-0.6448392880052328,0.8252638788904995
1761914348227723300,4.69172314453125,0.7742389903783797,-0.8266443003982306,0.7907010264880955
1761914348237779500,4.701779541015625,0.7632184146702289,-0.9382777521952986,0.7322782097443938
1761914348247835400,4.71183544921875,0.5722171193867921,-1.0052198293507097,0.5935579039813951
1761914348257891300,4.721891357421875,0.06286123758256434,-1.1601768745675682,0.24674780548997222
1761914348267946200,4.7319462890625,-0.4992430685907602,-1.322477560545504,-0.07284319095797837
1761914348278002200,4.742002197265625,-1.1863128940820693,-1.5503820608124137,-0.41928664809409527
1761914348288058400,4.752058349609375,-1.5030898560225963,-1.4871014287739992,-0.32831688534766434
1761914348298114300,4.7621142578125,-1.035069024169445,-0.9045648676857352,0.3930082974994555
1761914348308170200,4.772170166015625,-0.7441308523625135,-0.8066676802963018,0.6540210309136658
1761914348318226400,4.782226318359375,-0.9319973567515611,-1.2024825231164693,0.5445268561676144
1761914348328282400,4.792282470703125,-1.458585528385639,-1.7215838461264967,0.38854989331848916
1761914348338337500,4.802337646484375,-2.0586521932065485,-2.0779215418219565,0.3683907562565058
1761914348348393500,4.8123935546875,-2.2691052079349756,-1.9360157013580201,0.48204416957385837
1761914348358449400,4.822449462890625,-2.0494500650972127,-1.2294234292730688,0.7346665661856532
1761914348368505300,4.83250537109375,-1.5435644897520542,-0.0767839644730091,1.099737822630629
1761914348378561300,4.842561279296875,-1.089111580002308,1.1378592442974447,1.4285633150875567
1761914348388617200,4.8526171875,-0.914326675504446,2.101886062516272,1.6218416153922677
1761914348398673400,4.86267333984375,-0.8142623732089996,2.8163074207916856,1.7479148036912082
1761914348408728300,4.872728271484375,-0.5841553944617509,3.4103844898089766,1.9875810534223912
1761914348418784300,4.8827841796875,-0.6803174286216497,3.7448365169107913,2.2311098238006233
1761914348428840400,4.89284033203125,-1.1534469817906619,3.7047362694516774,2.390574263439327
1761914348438896400,4.902896484375,-1.5455729069650173,3.373577438676357,2.421543694459647
1761914348448952300,4.912952392578125,-1.6978116331338882,2.8316151722997427,2.3281755288019776
1761914348459008500,4.923008544921875,-1.5622645140469074,2.126282252626121,2.2383494196653366
1761914348469064200,4.933064208984375,-1.2482079169809817,1.281725278918445,2.0796283457398412
1761914348479119400,4.943119384765625,-0.824791366007924,0.4170914396047592,1.8488288546837865
1761914348489175300,4.95317529296875,-0.35741000110208987,-0.3676230598196387,1.5982226932652295
1761914348499231200,4.963231201171875,0.09254735079407692,-0.9752069684028625,1.403537448772043
1761914348509287400,4.973287353515625,0.48846916112005706,-1.362550919997692,1.2638687197104095
1761914348519343400,4.98334326171875,0.7212386370748282,-1.4814406265333293,1.1442076634760945
1761914348529399300,4.9933994140625,0.7206862638890743,-1.271072367478907,1.1556106626305729
1761914348539454200,5.0034541015625,0.4552075275093317,-0.7718707999423146,1.3661588813617824
1761914348549510100,5.01351025390625,-0.038136546170711515,-0.15588643502146005,1.6612413133665918
1761914348559566300,5.02356640625,-0.5298801989167928,0.3552797110751271,1.8699100750267506
1761914348569622300,5.033622314453125,-0.8188356724739074,0.6877300429657102,2.0023175809137523
1761914348579678200,5.04367822265625,-0.8146692004442214,0.8371721241533756,2.045931827843189
1761914348589734400,5.053734375,-0.6663280662357807,0.8511556413203477,2.0370690146908164
1761914348599790300,5.063790283203125,-0.45057694509923457,0.8119932592332363,1.9976050193086266
1761914348609845500,5.073845458984375,-0.16266425859332084,0.7936354725047946,1.9645166964381933
1761914348619901400,5.0839013671875,0.21881460036039352,0.8602168996542692,1.9023644839078186
1761914348629957400,5.093957275390625,0.6307230843693018,1.0019584894672036,1.8011022039994595
1761914348640013600,5.104013671875,1.0229887102752924,1.154968492269516,1.7002908827289938
1761914348650069200,5.1140693359375,1.3396610427975655,1.2744979580134153,1.6078136745616793
1761914348660125200,5.124125244140625,1.5977385630100964,1.2874293357789515,1.513328487572819
1761914348670181400,5.134181396484375,1.842857232928276,1.1503735656946896,1.4482641869880257
1761914348680236300,5.144236328125,2.05340903185606,0.7877201109811663,1.374318806941807
1761914348690292500,5.15429248046875,2.0004992794454095,0.316553090056777,1.2681766460373998
1761914348700348400,5.164348388671875,1.832127749121189,0.025874153707921503,1.2002005496591328
1761914348710404400,5.174404296875,1.5774644212663174,-0.07885258744060993,1.0911606945518404
1761914348720460300,5.184460205078125,1.3807272126793861,0.041050972312688824,0.9589762568309903
1761914348730516500,5.1945166015625,1.3025760515064,0.2699754632771015,0.7389677705109119
1761914348740572400,5.204572509765625,1.1566273653924464,0.4011930287271738,0.369465180554986
1761914348750628400,5.21462841796875,0.9604746786952019,0.5378051466971635,0.0039982393233105535
1761914348760684300,5.224684326171875,0.5988379998087883,0.7053083697542548,-0.2296948908150196
1761914348770740200,5.234740234375,0.2619879716545343,0.8774772465348243,-0.35655879110023375
1761914348780796400,5.24479638671875,0.031953473621606825,0.9504051201015711,-0.4397574449211359
1761914348790852400,5.254852294921875,-0.0030862755775451656,0.8737938818469643,-0.5046240675093606
1761914348800908300,5.264908203125,0.1030786816805601,0.6251622353717684,-0.5650667361754924
1761914348810964200,5.274964111328125,0.1873217299878597,0.30879005483984945,-0.6397253059923649
1761914348821019400,5.285019287109375,0.23699147756397723,0.020653496450185774,-0.6631110038854181
1761914348831075000,5.295074951171875,0.12062252167761325,-0.24278204366415737,-0.6742911540694534
1761914348841131300,5.30513134765625,-0.20952537848949432,-0.4913572837769985,-0.6772757228381932
1761914348851187200,5.315187255859375,-0.6537362956881523,-0.5930445110991597,-0.6549127921216189
1761914348861243100,5.3252431640625,-1.1569295632094143,-0.6277820624813437,-0.6263811827074736
1761914348871299300,5.33529931640625,-1.566879314365983,-0.5969438566252588,-0.5499555301528424
1761914348881355300,5.345355224609375,-1.7269243303716182,-0.4640270860418677,-0.45529520579278465
1761914348891410400,5.355410400390625,-1.8184838391721247,-0.3975049878641963,-0.4156222803676501
1761914348901466400,5.36546630859375,-1.9285545716971157,-0.4371709355592727,-0.4072846601331606
1761914348911522300,5.375522216796875,-2.1145155347257854,-0.5926400219514966,-0.47603111982941626
1761914348921578500,5.38557861328125,-2.171598188906908,-0.6982704339414835,-0.47886725657079365
1761914348931634200,5.39563427734375,-1.9213620298445224,-0.7560010306373238,-0.3922754166476428
1761914348941690000,5.405690185546875,-1.494960910102725,-0.8383899755105376,-0.2976816912503913
1761914348951746300,5.415746337890625,-1.1763462113410235,-0.933603330643475,-0.20023659501001237
1761914348961801200,5.42580126953125,-1.084150158202648,-1.0110989505171775,-0.08154657576493918
1761914348971857400,5.435857421875,-1.2371774044007062,-0.9896057883724569,0.06874116246663034
1761914348981913300,5.445913330078125,-1.4660902049273252,-0.817057264624536,0.22942206522300837
1761914348991969300,5.45596923828125,-1.654683854547143,-0.5496995826303959,0.334242439471744
1761914349002025500,5.466025390625,-1.6664169624388216,-0.236363408793509,0.39434210338648407
1761914349012081400,5.476081298828125,-1.5076947194695471,0.16008008731901643,0.45418183772340415
1761914349022136300,5.48613623046875,-1.3960697432398794,0.5891708845362067,0.5826562419451773
1761914349032192300,5.496192138671875,-1.354108085823059,0.9417717317909001,0.7377862325761467
1761914349042248200,5.506248291015625,-1.3015145597547293,1.1455521368876098,0.8526283442214131
1761914349052304400,5.516304443359375,-1.1597107183605433,1.2078715226784347,0.8810195953167974
1761914349062360300,5.5263603515625,-1.0523170960903168,1.1964864975720644,0.8359529576219618
1761914349072416300,5.536416259765625,-1.1483616413503885,1.1592191354513168,0.777597726221755
1761914349082472400,5.546472412109375,-1.2473685435473918,1.2367121249765156,0.7731688038635999
1761914349092527400,5.55652734375,-1.0962234578341246,1.3647691805690527,0.7431764011818915
1761914349102583300,5.566583251953125,-0.827165693923831,1.381115042953193,0.581823663578555
1761914349112639200,5.57663916015625,-0.6092763917148113,1.3027838490381836,0.31681751314662393
1761914349122695200,5.586695068359375,-0.35508477302491664,1.2304840442419052,0.10552211104361339
1761914349132751000,5.596751220703125,-0.06795476132929325,1.169896012288332,-0.03802771093479823
1761914349142807300,5.606807373046875,0.15393500869274138,1.1069859671279787,-0.12105543320216237
1761914349152863200,5.61686328125,0.30917057859003544,1.013026119187474,-0.16159845599271355
1761914349162918400,5.62691845703125,0.321111191752553,0.907910963243246,-0.17415234221536666
1761914349172974300,5.636974365234375,0.2514934656471014,0.8728785205677151,-0.17579795399792492
1761914349183030300,5.6470302734375,0.1492857215821743,0.9031444794937967,-0.16252959936298428
1761914349193086500,5.65708642578125,-0.046270752787590026,0.9855351779326796,-0.06974351247616578
1761914349203142400,5.667142333984375,-0.24576281304061412,1.0692480648860334,0.02886575043906923
1761914349213198000,5.677197998046875,-0.3941127150774002,1.0716758765548466,0.07401262746299617
1761914349223254300,5.687254150390625,-0.44965749216675754,1.0079656209275125,0.12400834645731373
1761914349233309200,5.69730908203125,-0.46963469679057596,0.9254138867080212,0.179854608977586
1761914349243365400,5.707365478515625,-0.4590355613648891,0.840261614601314,0.20990612143538892
1761914349253421300,5.71742138671875,-0.4324760557413101,0.7604352136924862,0.20808875154880804
1761914349263477200,5.727477294921875,-0.4044207586020231,0.6989587084665894,0.21214579012095927
1761914349273533400,5.737533447265625,-0.3464250812292099,0.7071291554406285,0.24418180919317528
1761914349283589400,5.74758935546875,-0.24347733245193956,0.8034986948713659,0.2537939976744354
1761914349293644300,5.757644287109375,-0.1187339314520359,0.971226082073152,0.2675653699280694
1761914349303700200,5.7677001953125,0.04185118277966976,1.1362664221480487,0.23653587928358463
1761914349313756200,5.777756103515625,0.1892395463079214,1.2001359599903225,0.14812323540775105
1761914349323812400,5.787812255859375,0.4146820403754711,1.218302023538947,0.02670543516660109
1761914349333868300,5.797868408203125,0.6848626708358526,1.2422984006762503,-0.06449110380671919
1761914349343924200,5.80792431640625,0.9456932891488075,1.2391519193440674,-0.0886384702546522
1761914349353980400,5.81798046875,1.1306015282541513,1.1422253305524588,-0.13118147122338414
1761914349364035300,5.828035400390625,1.3005039214074612,0.9579644494399427,-0.21712376119662075
1761914349374091300,5.83809130859375,1.4182260454684494,0.7021762092083692,-0.3569288665216416
1761914349384147500,5.8481474609375,1.4877350505024194,0.42340865992754695,-0.4589108755392953
1761914349394203100,5.858203125,1.5287877763807773,0.19436434197574853,-0.5455854618424549
1761914349404259300,5.86825927734375,1.4829320341348646,0.017052257087826726,-0.6458568675499409
1761914349414315300,5.878315185546875,1.4066869988441466,-0.12435235585570335,-0.7529303179550916
1761914349424371200,5.88837109375,1.318094523155689,-0.2510831312805414,-0.8673961436338722
1761914349434426400,5.89842626953125,1.3232885846674443,-0.3568655189618468,-0.997590795776993
1761914349444482300,5.908482421875,1.4202122508496045,-0.3640376025483012,-1.2279045491427183
1761914349454538200,5.918538330078125,1.5056927319973705,-0.2592375039026141,-1.4501181442916393
1761914349464594400,5.928594482421875,1.4128350000798702,-0.030729192523658275,-1.550110112003237
1761914349474650400,5.938650390625,1.1663888809502123,0.2320543134227395,-1.540525706578046
1761914349484706300,5.948706298828125,0.9619786535173654,0.4101230618968606,-1.5046883772604167
1761914349494762200,5.95876220703125,0.8987772241950035,0.45302696859985586,-1.4706407078385353
1761914349504817200,5.968817138671875,0.9095183984398841,0.37002135313302276,-1.402110338578373
1761914349514873300,5.978873291015625,0.8820037840485573,0.23945377602428197,-1.3472780936725437
1761914349524929300,5.98892919921875,0.7475976516902446,0.07155775425732136,-1.3215218672558664
1761914349534985200,5.998985107421875,0.5337544100016355,-0.09660217914283276,-1.2508711448408663
1761914349545041400,6.00904150390625,0.23202479506731033,-0.2028594908595085,-1.2011192719392478
1761914349555097300,6.019097412109375,-0.01092179150879383,-0.26133009226769205,-1.1876948499597608
1761914349565152500,6.029152587890625,-0.13976736713051796,-0.2510460141405463,-1.1468509445264934
1761914349575208200,6.039208251953125,-0.18759061005711555,-0.23679098655581474,-1.113359447682649
1761914349585264000,6.04926416015625,-0.16124796205461026,-0.23852146361023185,-1.0681865000691264
1761914349595320300,6.0593203125,-0.09956862773299216,-0.27104922998845576,-0.9819671832527965
1761914349605376300,6.069376220703125,0.026880992662906646,-0.33592414548099037,-0.8837772234618664
1761914349615432200,6.07943212890625,0.10774258183836936,-0.43644115997999905,-0.8075760273128747
1761914349625488400,6.08948828125,0.12696107704937457,-0.5286538719922304,-0.7257333912108093
1761914349635543300,6.099543212890625,0.17276187423765657,-0.5845657288283109,-0.6432575717717409
1761914349645599500,6.109599609375,0.2264624847650528,-0.6221978326082229,-0.5329639537436888
1761914349655655400,6.119655517578125,0.25111352641880513,-0.6819529208689927,-0.39730709067191927
1761914349665711400,6.12971142578125,0.3159247290253639,-0.7640855528935789,-0.28848128017410635
1761914349675767300,6.139767333984375,0.44440673203170294,-0.8882122832998632,-0.23835476527381688
1761914349685823200,6.1498232421875,0.6018336744934321,-1.0190145459473132,-0.21399894370697436
1761914349695879200,6.159879150390625,0.7133668807864189,-1.195946399345994,-0.23938056465759872
1761914349705934300,6.169934326171875,0.7816805385559796,-1.3830129855290054,-0.293814896287024
1761914349715990300,6.179990234375,0.7889730336517096,-1.5079802584126591,-0.3088058734634891
1761914349726046200,6.190046142578125,0.7701648728072643,-1.629789651787281,-0.321909027599357
1761914349736102400,6.200102294921875,0.7473235109239816,-1.7886746841028331,-0.33601774204857643
1761914349746157800,6.21015771484375,0.7239414662927389,-1.910482031650841,-0.3391556747481227
1761914349756214000,6.220214111328125,0.6672165395081043,-1.9459329919993875,-0.3107692459583282
1761914349766268700,6.2302685546875,0.5344219339996577,-1.9039502917945383,-0.27782789381053297
1761914349776324900,6.240324951171875,0.39758828223347664,-1.8022832304775713,-0.21498391789002344
1761914349786380800,6.250380859375,0.21613924367129803,-1.7544263775423168,-0.17761947033666073
1761914349796436700,6.260436767578125,-0.06069909111261367,-1.6681307806193828,-0.11762554095187223
1761914349806493000,6.270492919921875,-0.4109206420153379,-1.5283862098425627,-0.005526636200677604
1761914349816548900,6.280548828125,-0.7714052282571792,-1.367201960673928,0.1141409959048964
1761914349826604800,6.290604736328125,-1.119814761301875,-1.1710434287577867,0.23302147795446215
1761914349836660000,6.300659912109375,-1.3630775742202996,-1.0322904993668198,0.3071676778024062
1761914349846715600,6.310715576171875,-1.450823662212491,-0.9160828715220093,0.3441968107204884
1761914349856771600,6.320771484375,-1.4220090711385012,-0.8282783313408494,0.29556424243869256
1761914349866827800,6.330827880859375,-1.2239660406500101,-0.7707444262608886,0.17014480534074827
1761914349876883700,6.3408837890625,-0.9634259297162294,-0.7518459567844867,0.011621053218794987
1761914349886939600,6.350939697265625,-0.7170815173953771,-0.6826762667074799,-0.09634917249614372
1761914349896995800,6.360995849609375,-0.4546235901415348,-0.6172156602814793,-0.15852445537485182
1761914349907050800,6.37105078125,-0.2644850491672754,-0.5794073231518269,-0.1644172032078728
1761914349917107000,6.38110693359375,-0.25815759971141816,-0.5423068420305848,-0.043438283007754944
1761914349927163000,6.391162841796875,-0.39477907003164286,-0.5228668130233883,0.13361648895111866
1761914349937218800,6.40121875,-0.575509146669507,-0.6539034689486026,0.21391155768446624
1761914349947274800,6.411274658203125,-0.7291536479830741,-0.8934045912459492,0.21890063467603177
1761914349957330700,6.42133056640625,-0.8359510579258203,-1.0683265661269425,0.22202358900215474
1761914349967385900,6.4313857421875,-0.9399562068015337,-1.0876236795321106,0.26843610661430284
1761914349977441800,6.44144189453125,-1.0524895300477743,-0.9455494967639446,0.3802201641295105
1761914349987497700,6.451497802734375,-1.2000462358802557,-0.6636024406641722,0.4534397141192108
1761914349997554000,6.461553955078125,-1.4087205504983662,-0.31327012286335226,0.5131835503336042
1761914350007609900,6.47160986328125,-1.5437813473731279,0.05418634821772575,0.5867500140648335
1761914350017665800,6.481665771484375,-1.5830729087978601,0.4531789442911744,0.6313695655792951
1761914350027722000,6.491721923828125,-1.5482687219202518,0.8886761014193296,0.6837947493433952
1761914350037776600,6.501776611328125,-1.4046873494595289,1.310060562042892,0.7590367450714111
1761914350047832800,6.511832763671875,-1.2329986574113367,1.6409923060640692,0.8459012279234827
1761914350057888800,6.521888671875,-1.0631751747131346,1.8598890317499637,0.9214328542478382
1761914350067944700,6.53194482421875,-0.8541209208667278,1.913807668942213,0.9855199803635477
1761914350078001000,6.5420009765625,-0.6237099907368421,1.807226532098651,1.017888099200651
1761914350088056800,6.552056884765625,-0.37133681964576243,1.6285332219853996,1.034106974204257
1761914350098112800,6.56211279296875,-0.08298048102557659,1.4411249827578663,1.0224071840602904
1761914350108168000,6.57216796875,0.20449498310685157,1.2852604673072694,1.0006487220428884
1761914350118224000,6.582223876953125,0.4285170889824629,1.2093021400034427,1.0286631026498974
1761914350128279800,6.59227978515625,0.5771376246541738,1.172829727652669,1.0732834578819572
1761914350138335700,6.602335693359375,0.7034399455338716,1.1017287772521376,1.1256911059893666
1761914350148391700,6.6123916015625,0.7924795804679393,1.005986137548089,1.1942299508169292
1761914350158447600,6.622447509765625,0.8766618384987115,0.909082052849233,1.2743765235908329
1761914350168502800,6.632502685546875,0.9791437233299016,0.788157041093707,1.3014626834370195
1761914350178558700,6.642558837890625,1.110720769742131,0.7241951487928628,1.3527397200793028
1761914350188615000,6.652614990234375,1.1846487602621316,0.6717483377188443,1.4049769800558685
1761914350198670800,6.6626708984375,1.2283680750012398,0.6351023223668336,1.4676204832345245
1761914350208726800,6.672726806640625,1.2723773125976323,0.5925321776628494,1.534720235169679
1761914350218783000,6.682782958984375,1.3465683379679918,0.5315533928260207,1.5881968276828526
1761914350228838700,6.692838623046875,1.3240642452150582,0.3915905031234026,1.6271674865901469
1761914350238893800,6.702893798828125,1.2654179949790239,0.23834727608710526,1.6417942700967192
1761914350248949800,6.71294970703125,1.1834119119435549,0.12715280022919176,1.60180230531767
1761914350259005700,6.723005615234375,1.152222992953658,0.0986021207883954,1.5363970823407171
1761914350269062000,6.733061767578125,1.25546592528522,0.11887947740256785,1.4627460090659559
1761914350279117800,6.743117919921875,1.5136509975254535,0.15171324099004269,1.3921627989292145
1761914350289173800,6.753173828125,1.7923159632146357,0.11084288594126701,1.3146011280819774
1761914350299230000,6.76322998046875,1.9125275660037993,-0.02874415618628263,1.2786451408207415
1761914350309284600,6.77328466796875,1.870826605349779,-0.2019891377657652,1.23140276652202
1761914350319340800,6.7833408203125,1.67563311907351,-0.3232967190980911,1.1783230643719433
1761914350329396700,6.793396728515625,1.3831190762519836,-0.43827451288700103,1.1400254824206233
1761914350339452700,6.80345263671875,1.0889812316209078,-0.5359583497866988,1.0943301914334296
1761914350349508900,6.8135087890625,0.8964759615153074,-0.6462535387173295,1.0126803014244883
1761914350359564800,6.823564697265625,0.8319301318466663,-0.8034764830395579,0.9243119168154895
1761914350369620000,6.833619873046875,0.8842547778457402,-0.9534645076721906,0.8465877488829195
1761914350379676000,6.843676025390625,0.9838356805384159,-1.1497899205878377,0.684094462942332
1761914350389731800,6.85373193359375,0.9453186106175183,-1.3134142563849687,0.5271875257667153
1761914350399787800,6.863787841796875,0.7866004593014717,-1.393929516340792,0.3920349954878911
1761914350409843700,6.87384375,0.6055570789307355,-1.4609373522087932,0.3007412980167195
1761914350419899600,6.883899658203125,0.4721458028286695,-1.5740505211696028,0.2389603116852231
1761914350429955800,6.893955810546875,0.3370610405564308,-1.7595681243449448,0.20803811734011396
1761914350440010800,6.9040107421875,0.1760989097058773,-1.9410799990102647,0.22578257620949296
1761914350450066700,6.914066650390625,0.07114741989076137,-2.040721107457578,0.22999895179551094
1761914350460123000,6.924122802734375,-0.10827800388932228,-1.9788836599647999,0.22909904381372034
1761914350470178800,6.9341787109375,-0.5260153401821851,-1.7412541767582297,0.2413676285552792
1761914350480234800,6.94423486328125,-0.976228128144145,-1.4134104618802665,0.28177007383136077
1761914350490291000,6.954291015625,-1.3214344812333583,-1.0824766720324754,0.3166146475182846
1761914350500347000,6.964346923828125,-1.5011147565573453,-0.852701409457624,0.3069116937473416
1761914350510401800,6.97440185546875,-1.477746740451455,-0.6667875004410744,0.2877514863285236
1761914350520457700,6.984457763671875,-1.3116928394198417,-0.5488736532002687,0.2691699555804953
1761914350530513700,6.994513671875,-1.0693342818647622,-0.4749848256468773,0.2647915943657979
1761914350540569900,7.00456982421875,-0.9801841722935437,-0.4927379244804382,0.17489738842900843
1761914350550625800,7.014625732421875,-1.0161872135668992,-0.5857075923398136,0.018617679773643613
1761914350560681700,7.024681640625,-1.0358265645384788,-0.5890346909359098,-0.052609600420296186
1761914350570737000,7.03473681640625,-1.0312322224855421,-0.5406731033489107,-0.04107877363506705
1761914350580792800,7.044792724609375,-1.1399936259776353,-0.6212368786215782,-0.0758853716654703
1761914350590848800,7.054848876953125,-1.2743629334568976,-0.760579298338294,-0.13220124272517858
1761914350600904700,7.06490478515625,-1.37644909696877,-0.8526952719777822,-0.19079017328340558
1761914350610960600,7.074960693359375,-1.400533736911416,-0.9059671356990933,-0.2379127571273595
1761914350621016800,7.085016845703125,-1.3315215754836798,-0.9186737647980451,-0.24997655827812848
1761914350631072800,7.09507275390625,-1.1501894412994385,-0.9103525111764669,-0.19870671856161207
1761914350641128000,7.1051279296875,-0.9569815758824348,-0.8735787777915597,-0.09937690455317497
1761914350651183900,7.115183837890625,-0.7905284464001655,-0.7807058483049273,-0.032884580459259447
1761914350661239800,7.12523974609375,-0.8088321648538113,-0.5209060343444347,0.02786488913372159
1761914350671296000,7.1352958984375,-0.9591355390459299,-0.002521335171163082,0.13297730513159184
1761914350681352000,7.14535205078125,-1.0893395435392856,0.5702578020125627,0.22975425631944088
1761914350691407600,7.15540771484375,-1.1567699887335299,1.1064248261138796,0.2510135366430506
1761914350701462800,7.165462890625,-1.1269739854067564,1.5935983944654464,0.2485480963775888
1761914350711518700,7.175518798828125,-1.058625840845704,1.9646713024780154,0.2130479265924543
1761914350721574700,7.18557470703125,-0.9524953703790903,2.21194393555969,0.21137802061885594
1761914350731630800,7.195630859375,-0.8699187939792871,2.2741344342738388,0.20479469670578837
1761914350741686800,7.205686767578125,-0.7526502589046955,2.155301426361501,0.11442512834221125
1761914350751742700,7.21574267578125,-0.4913005851536989,1.9965683697372674,-0.037131753042340274
1761914350761798700,7.225798583984375,-0.18240940802693367,1.9336556942284107,-0.26502584151308983
1761914350771853600,7.235853515625,0.06817980225682259,1.937560300451517,-0.5014757230136543
1761914350781909800,7.24590966796875,0.23186288250386713,1.9834549134030937,-0.692802085532993
1761914350791965700,7.255965576171875,0.36352468459010123,2.0230118477657437,-0.8153570365779101
1761914350802021600,7.266021728515625,0.48212592957317824,2.0013158565253018,-0.958611222910881
1761914350812077800,7.276077880859375,0.5783814872354268,1.951480689254403,-1.0314799136362969
1761914350822133800,7.2861337890625,0.698901717582345,1.8872317967057226,-1.1039699072424323
1761914350832189400,7.296189453125,0.834289846715331,1.7696525882467626,-1.1268329695008694
1761914350842244600,7.30624462890625,1.0189034867882727,1.6355948309347033,-1.1058647080130874
1761914350852300500,7.316300537109375,1.221439152520895,1.4730813789889217,-1.0691457735553382
1761914350862356700,7.326356689453125,1.4048200359284877,1.3003914009436963,-1.0170061287343501
1761914350872412700,7.33641259765625,1.559104004189372,1.1200582146689295,-1.0323943981327115
1761914350882468600,7.346468505859375,1.64597973908782,0.9509846735551952,-1.096448937153071
1761914350892524800,7.35652490234375,1.661034100356698,0.8485115565523504,-1.1463951635830103
1761914350902579700,7.366579833984375,1.577684786018729,0.8687176014959812,-1.1444682141084224
1761914350912635600,7.3766357421875,1.4751561394363641,1.0018161583870648,-1.0534500456430018
1761914350922691600,7.386691650390625,1.4272826276272534,1.1197791054666042,-0.9770576377708464
1761914350932747500,7.39674755859375,1.4723825830698012,1.1898469134271143,-0.9421524016715586
1761914350942803700,7.4068037109375,1.581241601717472,1.1684461057409643,-0.9555484012741595
1761914350952859600,7.416859619140625,1.6853168932199478,1.1011527309298514,-0.9627014878991991
1761914350962915600,7.42691552734375,1.7335972322642803,0.9905001068636774,-0.9681250473178923
1761914350972970800,7.436970703125,1.6441683057516812,0.7848936553835868,-1.0102014171555638
1761914350983026700,7.447026611328125,1.4627531694591045,0.5339779896244407,-1.0317457249656319
1761914350993083000,7.457082763671875,1.2449497919678687,0.2951508210659027,-1.0587428182888776
1761914351003138800,7.467138916015625,1.0566799674749374,0.08297931198179721,-1.0864438220977783
1761914351013194500,7.477194580078125,0.8500748603463173,-0.099915833735466,-1.1214237308684736
1761914351023250700,7.487250732421875,0.6821937438875436,-0.24776889216601847,-1.1625678613573311
1761914351033305600,7.4973056640625,0.565011133530736,-0.32408407008349893,-1.2192657540045677
1761914351043361500,7.507361572265625,0.4883966804057359,-0.2984875642731786,-1.248845338101685
1761914351053417700,7.517417724609375,0.3916641528815031,-0.2068263486638665,-1.2013774844840168
1761914351063473700,7.5274736328125,0.23753449839949606,-0.1561824953585863,-1.1566571029435841
1761914351073529600,7.537529541015625,0.05886661498844623,-0.12664134357571602,-1.124944306210056
1761914351083585800,7.547585693359375,-0.08426935179233551,-0.10414514186829328,-1.1135919412642716
1761914351093641700,7.557641845703125,-0.15076514648497102,-0.11331132188141345,-1.1189288453128188
1761914351103696600,7.567696533203125,-0.059465165403485294,-0.1217380817040801,-1.110485791942477
1761914351113752600,7.577752685546875,0.1238794776469469,-0.0928752675741911,-1.0754388823501766
1761914351123808500,7.58780859375,0.19134148702323436,-0.1153153551802039,-1.0343348646759987
1761914351133864700,7.59786474609375,0.014044891965389251,-0.17437924630641935,-1.0309636346772313
1761914351143920600,7.607920654296875,-0.21557927170097826,-0.17724691069722173,-1.0188451807297765
1761914351153976600,7.6179765625,-0.38682197354733944,-0.14259002333581447,-1.0071739590931683
1761914351164032800,7.62803271484375,-0.44161914713978767,-0.0905003551363945,-1.0034304617159069
1761914351174087700,7.638087646484375,-0.362118909445405,-0.022183190235495566,-0.986786785428971
1761914351184144000,7.648143798828125,-0.26027941417098044,0.03923807767182588,-0.945157647902146
1761914351194199600,7.658199462890625,-0.15173253021240232,0.07432838801443577,-0.9028031187102198
1761914351204255500,7.66825537109375,-0.17066870135068893,0.03455547281354666,-0.8836656528461724
1761914351214311700,7.678311767578125,-0.26245851177573204,-0.026458383336663244,-0.8189630982458591
1761914351224367600,7.68836767578125,-0.32137305755913254,-0.08057283536195754,-0.7408206318359821
1761914351234422800,7.6984228515625,-0.28677812951803205,-0.15490619181245566,-0.6297256708297878
1761914351244478700,7.708478759765625,-0.18845394888818262,-0.23836627304852007,-0.5152620371080935
1761914351254534700,7.71853466796875,-0.05638356600105762,-0.3112821639165282,-0.4074897907838225
1761914351264590800,7.7285908203125,0.021277765828371046,-0.38033524187654255,-0.3377484017660841
1761914351274646800,7.738646728515625,0.06889759513735771,-0.4420853033468127,-0.320733444481343
1761914351284702700,7.74870263671875,0.11353227115571499,-0.45431408580094573,-0.3329740269711241
1761914351294757600,7.758757568359375,0.20453180798590181,-0.4410772953480482,-0.3352139513850212
1761914351304813600,7.7688134765625,0.2665677006602287,-0.4058618973210454,-0.3407937973439693
1761914351314869800,7.778869873046875,0.24835984379649162,-0.40897915255874395,-0.38508579740449783
1761914351324925700,7.78892578125,0.20559680686891077,-0.44192514434903857,-0.4310834323391318
1761914351334981600,7.798981689453125,0.1417693546026945,-0.5083411518037318,-0.5033839312551542
1761914351345037800,7.809037841796875,0.09583177929222583,-0.6155272688031196,-0.6109750488588586
1761914351355093800,7.81909375,0.04468319133520126,-0.7149243393614888,-0.6837921920601279
1761914351365148700,7.829148681640625,-0.06459902116060257,-0.7990045983225107,-0.7121054825484753
1761914351375204600,7.83920458984375,-0.29619068550765515,-0.8807377096354961,-0.676250836769864
1761914351385260500,7.849260498046875,-0.49208150639832016,-0.9037409840822219,-0.5903296991825103
1761914351395316500,7.85931640625,-0.5618137987941503,-0.8798658952370285,-0.5442869464645161
1761914351405372700,7.86937255859375,-0.5940022502154112,-0.8656474002704024,-0.5386921586647629
1761914351415428600,7.8794287109375,-0.6062912384241819,-0.7929869454681873,-0.46395946416575456
1761914351425484500,7.889484619140625,-0.6418833608090877,-0.6932508522137999,-0.33318829077631235
1761914351435539700,7.899539794921875,-0.800803756698966,-0.652707244901359,-0.16500044645592568
1761914351445595600,7.909595703125,-1.0818179158627985,-0.5960419393494725,0.05511277888026088
1761914351455651800,7.91965185546875,-1.4719441916525362,-0.4048980207249522,0.3826371621433645
1761914351465707800,7.929707763671875,-1.799127981317043,-0.16264321580529212,0.7513716172710061
1761914351475763500,7.939763427734375,-2.0086048444896933,0.05758797335475683,1.0526475701536984
1761914351485819600,7.949819580078125,-2.1151409731477497,0.31504122418910263,1.3042995142981408
1761914351495874600,7.95987451171875,-2.0993319941192863,0.6477887854605913,1.491791924677789
1761914351505930800,7.9699306640625,-1.9776351212084293,1.0200824674397706,1.616506976366043
1761914351515986700,7.979986572265625,-1.7021528772085903,1.3508999374315143,1.652920936527848
1761914351526042600,7.990042724609375,-1.3147773614317178,1.6291154057875274,1.598241982487589
1761914351536098800,8.000098876953125,-0.8663929579406976,1.8169453775584696,1.496079684999585
1761914351546154800,8.01015478515625,-0.47372751906216143,1.9529089684918521,1.3918845665097235
1761914351556210700,8.020210693359376,-0.24272797538936136,2.00307234480381,1.253758682975918
1761914351566265600,8.030265625,-0.16114625524580478,1.9796040831938384,1.1363149374648929
1761914351576321500,8.040321533203125,-0.0987304233431816,1.9291513685464858,1.0454735868711025
1761914351586377700,8.050377685546875,0.008375029635429382,1.8140791744723914,0.9590511486981064
1761914351596433700,8.06043359375,0.1443131938666105,1.6288094085782765,0.8534036394428461
1761914351606489600,8.070489501953125,0.3226186737060547,1.4161670671120286,0.758446158767119
1761914351616545800,8.0805458984375,0.48958618245124813,1.2155132696032522,0.6582399637829512
1761914351626601700,8.090601806640626,0.6348164911627769,1.0252902652159332,0.5779875194817781
1761914351636656600,8.10065673828125,0.7638619732707739,0.8799088575959205,0.5014289612624794
1761914351646712800,8.110712890625,0.8925152411907911,0.8188537926524877,0.465271021688357
1761914351656768500,8.1207685546875,1.0108879381150007,0.7932870974585413,0.44463557235151524
1761914351666824700,8.13082470703125,1.103682541668415,0.7371426009103655,0.39259083927236493
1761914351676880600,8.140880615234375,1.1116115811020135,0.6469722083806991,0.3504678538139909
1761914351686936600,8.1509365234375,1.0882190150767563,0.5560279088690877,0.31835838591307397
1761914351696991700,8.16099169921875,1.1610118640869855,0.45967619735598564,0.29698738884329795
1761914351707047700,8.171047607421874,1.2368418888360262,0.3588566927790642,0.2543749393675476
1761914351717103600,8.181103515625,1.2270511471837757,0.2844602079644799,0.25424787892177697
1761914351727159800,8.191159912109375,1.107584225282073,0.23366028731465338,0.2895740438468754
1761914351737215700,8.2012158203125,0.8866694377720356,0.22692659514546393,0.30868586381301283
1761914351747272400,8.2112724609375,0.6650789429575205,0.20960136633515355,0.26908070639446374
1761914351757328400,8.221328369140625,0.526871664750576,0.13497428763508795,0.20897015575952826
1761914351767383600,8.231383544921876,0.5230366166323424,0.08305033139139413,0.18472433390580117
1761914351777439200,8.241439208984374,0.503807015505433,0.020620178702473638,0.2152689636427909
1761914351787495400,8.251495361328125,0.40834056239426136,-0.046673780630528926,0.23398089757114648
1761914351797551400,8.26155126953125,0.30720073982179164,-0.073596858869493,0.24115553844086823
1761914351807607300,8.271607177734374,0.2389274140626192,-0.06324117681086062,0.227666892118752
1761914351817663500,8.28166357421875,0.17272797196805476,-0.02154080067873001,0.20338081131987273
1761914351827718400,8.291718505859375,0.11533785927295684,0.02316606379300356,0.16913886143490672
1761914351837774600,8.301774658203126,0.06273556537628174,0.07042904248833656,0.15249679258316753
1761914351847830500,8.31183056640625,0.08289864796102046,0.11148878262937069,0.1548591378003359
1761914351857886500,8.321886474609375,0.2176420494496822,0.04361293175518512,0.14676811273805795
1761914351867942700,8.331942626953126,0.4672533546119928,-0.09415390920788048,0.12228431740999221
1761914351877998300,8.341998291015624,0.6780535753428936,-0.23893004441112278,0.09444397819563746
1761914351888054300,8.35205419921875,0.7728998507291078,-0.33233021264225243,0.07200776304714382
1761914351898109400,8.362109375,0.7783569470912217,-0.36291005982309577,0.07781498802118003
1761914351908165400,8.372165283203126,0.7660106757372618,-0.3585425122633576,0.1443615630529821
1761914351918221600,8.3822216796875,0.7489338687300682,-0.3859881530717015,0.23253654398173093
1761914351928277500,8.392277587890625,0.7029770041972399,-0.47332916739434,0.3076772712923586
1761914351938333400,8.40233349609375,0.6438947006314992,-0.5865101408943534,0.37229306092467157
1761914351948389600,8.4123896484375,0.6214671802461147,-0.7027683298826217,0.3659124199768528
1761914351958444300,8.4224443359375,0.7231091071218252,-0.7883110626116394,0.3010006065400317
1761914351968500500,8.43250048828125,0.8870224889934062,-0.7812392245292663,0.28433508374746885
1761914351978556400,8.442556396484376,0.9694804074496031,-0.7740797081634402,0.3067947528367862
1761914351988612400,8.4526123046875,0.9132043934762477,-0.8808376628786325,0.3081472999569028
1761914351998668500,8.46266845703125,0.8087012319505215,-1.0194599516272544,0.32112532987575976
1761914352008724500,8.472724365234376,0.6763140381991863,-1.1517118285611272,0.3219574333183467
1761914352018780400,8.482780517578124,0.5288321511685848,-1.2745549488976597,0.3052643649317324
1761914352028835600,8.492835693359375,0.38156595271527766,-1.3702625172883272,0.28618750668112186
1761914352038891500,8.5028916015625,0.2440425651192665,-1.3725164336949587,0.3209993288759142
1761914352048947500,8.512947509765626,0.06995148810446263,-1.3319576288133859,0.38821686197184024
1761914352059003400,8.52300341796875,-0.18954057508111,-1.3359902453303336,0.4640242730302736
1761914352069059300,8.533059326171875,-0.4637064757853746,-1.3813304392695427,0.56173744562231
1761914352079115300,8.543115234375,-0.6737701989352702,-1.4164043829992412,0.6464868360165507
1761914352089170400,8.55317041015625,-0.845118114721775,-1.4308517182856797,0.7047917985342442
1761914352099226400,8.563226318359375,-1.010574049860239,-1.3954352447286247,0.7332863638736307
1761914352109282600,8.573282470703125,-1.145102347293496,-1.2376698640927672,0.8070529532868415
1761914352119338500,8.58333837890625,-1.2611977469354867,-1.0883815121620892,0.8516178520046174
1761914352129397500,8.5933974609375,-1.4124743500739336,-1.0285603729277848,0.8024462632089853
1761914352139453400,8.603453369140626,-1.5406336969971657,-1.0558715737015008,0.7370709969788789
1761914352149509400,8.61350927734375,-1.4038146582782267,-1.1735796692371367,0.7328972914908081
1761914352159564500,8.623564453125,-1.1015706640809775,-1.3914394530907273,0.7139946572959422
1761914352169620500,8.633620361328125,-0.926506942641735,-1.6559996133208275,0.6445866284184157
1761914352179676400,8.643676513671876,-0.9660685531795025,-1.85154030559957,0.5498188981611282
1761914352189732600,8.653732666015625,-1.0465104556381701,-1.9129954757764935,0.4721272077260539
1761914352199788500,8.66378857421875,-1.0472112973839045,-1.767992253819108,0.4514711174599826
1761914352209844200,8.67384423828125,-1.043912840360403,-1.4976660774081945,0.4687005577456206
1761914352219899400,8.6838994140625,-1.0495242505013942,-1.1549582631364463,0.5329364446822553
1761914352229955300,8.693955322265625,-1.1479501379400492,-0.8206538278117775,0.5778718572128564
1761914352240011500,8.704011474609375,-1.3132371462523937,-0.4826815176293254,0.6041186436254531
1761914352250067500,8.7140673828125,-1.4341671264439821,-0.15750585291683672,0.6063481927758082
1761914352260123400,8.724123291015625,-1.4116051660239695,0.17926088086813688,0.6005012203132734
1761914352270179600,8.7341796875,-1.256012453252077,0.5069689866676926,0.5633838245898485
1761914352280235500,8.744235595703126,-1.0156704962164163,0.749025638666749,0.4718584007220342
1761914352290290400,8.75429052734375,-0.7628647789269686,0.9593912673726678,0.3263871959267184
1761914352300346400,8.764346435546875,-0.6442664565533399,1.1736708546519279,0.19894366912264375
1761914352310402300,8.77440234375,-0.6126017367452383,1.3769824731931088,0.10730247338805347
1761914352320458500,8.78445849609375,-0.6420943732112646,1.493230140787363,0.013341401604842394
1761914352330514400,8.794514404296875,-0.6077864454180002,1.6066352784320712,-0.056596898224484174
1761914352340570400,8.8045703125,-0.46953883520066736,1.6636074579760431,-0.11677877879627048
1761914352350625500,8.81462548828125,-0.23565642956793306,1.7144634927272795,-0.1634015781582333
1761914352360681500,8.824681396484374,0.05542845723330974,1.7648220993503927,-0.23266093754637984
1761914352370737700,8.834737548828125,0.3117769616961479,1.8161770235344767,-0.34350261791124936
1761914352380793600,8.844793701171875,0.4593459424883127,1.8582319121927022,-0.46332339475192125
1761914352390849300,8.854849365234376,0.5240823262929916,1.8960609998494387,-0.5527941876448691
1761914352400905500,8.864905517578125,0.5811486138612032,1.8748966312676667,-0.5907992163904011
1761914352410961400,8.87496142578125,0.6654565440982579,1.7868483454585073,-0.6100931879904121
1761914352421016600,8.8850166015625,0.7895213151842355,1.6723808392792938,-0.6009238296395167
1761914352431072500,8.895072509765624,0.8416524844378233,1.5728385150313375,-0.557975426207669
1761914352441128400,8.90512841796875,0.7951262955844401,1.426891582483053,-0.5483525519356132
1761914352451184400,8.915184326171875,0.730517337551713,1.3129787875771521,-0.5657284149546176
1761914352461240600,8.925240478515626,0.7362368842422962,1.2435334954291581,-0.6229020353548228
1761914352471296500,8.935296630859375,0.7912655285030603,1.2227525732070208,-0.6577076835371554
1761914352481351400,8.945351318359375,0.7938742496967315,1.3059037346243858,-0.5928854846125469
1761914352491407400,8.955407470703125,0.6794651957064867,1.4237661439388989,-0.47427379130069164
1761914352501463300,8.96546337890625,0.4871943188786506,1.4929548309773206,-0.3845156328337267
1761914352511519500,8.97551953125,0.28849779291749,1.5022943217307327,-0.30996329987030474
1761914352521575400,8.985575439453125,0.2426385435402393,1.468570915827155,-0.25377350287567824
1761914352531631400,8.99563134765625,0.2659849323362112,1.4146587083756923,-0.1611511506166309
1761914352541687600,9.0056875,0.3930237507969141,1.3478811741322279,-0.04440946156089194
1761914352551742500,9.015742431640625,0.3851233529359102,1.1932488308250904,-0.014891827650927007
1761914352561798700,9.025798583984376,0.23840075984001158,0.984133786702156,-0.041481614248338156
1761914352571854300,9.035854248046874,0.08476035017967223,0.7734779428780079,-0.0822858224254567
1761914352581910300,9.04591015625,-0.06397358273863792,0.6144774674892425,-0.05601161371639464
1761914352591966500,9.055966552734375,-0.06470540414452552,0.5350877044320106,-0.016806018108641727
1761914352602022400,9.0660224609375,-0.06557809532582759,0.3758078275799751,-0.05070906859517563
1761914352612078300,9.076078369140625,-0.06064414605498313,0.19244038817584513,-0.12676869628243148
1761914352622133500,9.086133544921875,-0.0029968437284231186,0.08151274656057357,-0.2166616601102054
1761914352632189400,9.096189453125,0.09447042781114577,-0.0019406126737594603,-0.2945805468972772
1761914352642245600,9.10624560546875,0.25887889972329137,-0.023082184901833534,-0.35078115754686295
1761914352652301600,9.116301513671875,0.45506490416824813,0.0020727146208286283,-0.42484223639462143
1761914352662357500,9.126357421875,0.5844079079180956,-0.016596330013871192,-0.46107652914058417
1761914352672413400,9.136413330078126,0.5457727645754814,-0.10524258171617984,-0.4936737805584445
1761914352682468400,9.14646826171875,0.5395639730632305,-0.15037585490643976,-0.48232225586287675
1761914352692524500,9.156524658203125,0.5909323412507772,-0.18963760571479796,-0.43287831639926877
1761914352702580500,9.16658056640625,0.5820493620932102,-0.2749573433429003,-0.3832276753824204
1761914352712636400,9.176636474609374,0.5232336005091667,-0.38231238716840743,-0.35044772434141486
1761914352722692600,9.186692626953125,0.5226736285388469,-0.45957799767851826,-0.3698663452344015
1761914352732748500,9.19674853515625,0.5684709185957908,-0.5043956290483474,-0.41675775067098436
1761914352742806800,9.206806884765625,0.6974310605078935,-0.4804875147163868,-0.47616011650394646
1761914352752863000,9.216863037109375,0.772944274392724,-0.43797699124515055,-0.5675482507929206
1761914352762919000,9.2269189453125,0.7179466097921132,-0.38509529588520525,-0.6160404790222644
1761914352772974800,9.236974853515624,0.5683902545750141,-0.36634266462028026,-0.6547630083873868
1761914352783030800,9.24703076171875,0.454796608620882,-0.36902620461583135,-0.6441045439898967
1761914352793086700,9.257086669921875,0.5008516728311777,-0.3045353200048208,-0.5232265497138724
1761914352803143000,9.267142822265624,0.5517752198606729,-0.31356969033181664,-0.4990755665367469
1761914352813197800,9.27719775390625,0.5422492666244506,-0.4168219750136137,-0.5309961242694408
1761914352823253800,9.287253662109375,0.4762561607569456,-0.48965398699045176,-0.5500474827526137
1761914352833310000,9.29731005859375,0.444093428298831,-0.528387914532423,-0.5353280525265262
1761914352843366000,9.307365966796874,0.44915947951674456,-0.49035833586752414,-0.49205162271670994
1761914352853421800,9.317421875,0.5097124401569366,-0.40879824303388596,-0.46251427032612263
1761914352863478000,9.32747802734375,0.585977349191904,-0.30564415802955625,-0.4751769506854936
1761914352873533700,9.33753369140625,0.6168728381931782,-0.20549393101632593,-0.48375418836213646
1761914352883588900,9.3475888671875,0.6111684890717267,-0.15401976436674594,-0.5136893809638917
1761914352893644800,9.357644775390625,0.5476631083667278,-0.17020517549216746,-0.5332034615879878
1761914352903700700,9.36770068359375,0.45090895353257654,-0.19803835431337355,-0.5056232711471617
1761914352913757000,9.3777568359375,0.3421621630877256,-0.2006114196717739,-0.45374863393791015
1761914352923812900,9.387812744140625,0.3047019087433815,-0.18460545676648615,-0.39748968069721013
1761914352933868800,9.397868896484376,0.3351356254518032,-0.210318574693799,-0.42279359676912426
1761914352943924000,9.407924072265626,0.3673901278465986,-0.2857353424668312,-0.5090989113684743
1761914352953979600,9.417979736328125,0.3834685714662075,-0.33995617747604845,-0.5720541473774239
1761914352964035800,9.428035888671875,0.38367023151814933,-0.40719373044669627,-0.6214606043748557
1761914352974091800,9.438091796875,0.36378888848423957,-0.46913843770623204,-0.6430953669473528
1761914352984147700,9.448147705078124,0.36463469165861606,-0.5068909529954194,-0.64139893829301
1761914352994204000,9.458203857421875,0.32939503597319125,-0.5026724585175514,-0.6272045548543334
1761914353004259800,9.468259765625,0.26058395007550716,-0.4400397689938545,-0.5882885122111067
1761914353014315000,9.47831494140625,0.1383925716459751,-0.38964755236208437,-0.5896659380441531
1761914353024371000,9.488370849609375,0.0007189619243144989,-0.35916590485870836,-0.5874148711817339
1761914353034427000,9.498427001953125,-0.16853753454089163,-0.4525818551808595,-0.5984605813311412
1761914353044483000,9.508483154296876,-0.38061084394752975,-0.7002683297604322,-0.7336141345232725
1761914353054538800,9.518538818359374,-0.6134989778459071,-1.048676109239459,-0.9481729040700941
1761914353064594700,9.5285947265625,-0.7537532517105341,-1.298389121210575,-1.1120628320008517
1761914353074649900,9.53864990234375,-0.8514543320059775,-1.508125512102246,-1.3113925412990153
1761914353084705800,9.548705810546876,-0.8925929826021194,-1.6144617342740297,-1.4710593716420233
1761914353094761700,9.55876171875,-0.8362702068775891,-1.5409470007300377,-1.5206839649021624
1761914353104818000,9.56881787109375,-0.8152484616369009,-1.346390643313527,-1.5390456971533595
1761914353114873900,9.578873779296876,-0.8739894044190645,-1.077559673896432,-1.5128437727957964
1761914353124929800,9.5889296875,-0.9455717085957527,-0.7488648951470851,-1.414866213646531
1761914353134986000,9.598986083984375,-0.9739888247847557,-0.44468730253875255,-1.2374117976784706
1761914353145040600,9.60904052734375,-0.965722516220808,-0.2193593747615814,-1.0075705571953206
1761914353155096800,9.619096923828126,-0.9728799867600202,-0.10342647220492363,-0.7460615281641483
1761914353165152800,9.62915283203125,-1.0584387938410043,-0.06423135689198971,-0.47588586613982914
1761914353175208700,9.639208740234375,-1.0766524959236383,0.000042670097947120666,-0.2787253175742924
1761914353185265000,9.649264892578126,-0.9556599718898534,0.12122341018021106,-0.11675919731296598
1761914353195320800,9.65932080078125,-0.8798936600267887,0.27906302509605885,0.003393514895811677
1761914353205376000,9.6693759765625,-0.8903396507173776,0.5221387910097837,0.08831343955136835
1761914353215432000,9.679431884765625,-1.0629928038835526,0.77149699819386,0.11988259003050625
1761914353225488000,9.68948779296875,-1.3458102130770682,1.0535223802268505,0.13267163671590387
1761914353235543800,9.699543701171875,-1.5007728112518786,1.3717612314134835,0.1769075957402587
1761914353245599700,9.709599853515625,-1.5388643492370844,1.6447960822612047,0.23343261603862045
1761914353255655700,9.71965576171875,-1.4512848499834536,1.8661556909292936,0.27092567667402323
1761914353265711900,9.7297119140625,-1.3089479246258735,1.9572551810026169,0.22256825380548834
1761914353275766800,9.739766845703125,-1.1869874323427676,1.893106241697073,0.08027114900164306
1761914353285823000,9.749822998046875,-1.0889204413443803,1.7416355772912502,-0.10294526455923915
1761914353295879000,9.75987890625,-0.8932605066001414,1.5627730480909348,-0.26835575312077997
1761914353305934800,9.769934814453125,-0.6122603759616613,1.3895277742505072,-0.3626346769478172
1761914353315991000,9.779990966796875,-0.40166882954537864,1.31965928825438,-0.3110674982525408
1761914353326047000,9.790046875,-0.3376455624461174,1.3091437394589185,-0.21500048543233424
1761914353336102000,9.800101806640624,-0.347113063493371,1.435982066911459,-0.0751035736380145
1761914353346157800,9.81015771484375,-0.44462183608710765,1.5679729548215866,0.07321553140170872
1761914353356213800,9.8202138671875,-0.525219221368432,1.5676467916071415,0.13424728853479026
1761914353366270000,9.83027001953125,-0.38722529365122316,1.5638865622907876,0.2191250910816714
1761914353376326000,9.840325927734375,-0.12524550530314446,1.575197060856223,0.35657753233332184
1761914353386381800,9.8503818359375,0.11848434060513972,1.523677886021137,0.48561114134043454
1761914353396437000,9.86043701171875,0.21368717434406279,1.412967686548829,0.5424838790979236
1761914353406493000,9.870492919921874,0.24593524699807165,1.2632494187682866,0.5262468108505011
1761914353416548600,9.880548583984375,0.25339082370102406,1.1127981605380772,0.4597394718505442
1761914353426604800,9.890604736328125,0.2703893047749996,0.9933242243736982,0.4235246509900316
1761914353436660700,9.90066064453125,0.2575099494576454,0.914328429070115,0.4810738267043605
1761914353446716700,9.910716552734375,0.12865677505135537,0.8081471051990985,0.5625292170545086
1761914353456772900,9.92077294921875,-0.0740349580258131,0.6410562623351812,0.5451537193616852
1761914353466827800,9.930827880859376,-0.23794015659093856,0.5770423475861549,0.49021333790626376
1761914353476884000,9.940884033203124,-0.267251591271162,0.5849427454471587,0.42211398047450926
1761914353486940000,9.95093994140625,-0.15108780256807802,0.6363724884331226,0.32307087445296345
1761914353496995800,9.960995849609375,0.027140520381927487,0.7187935820102691,0.1566000814498402
1761914353507052000,9.971052001953124,0.2756985170990228,0.8163409330487251,0.02261359927570447
1761914353517107700,9.981107666015625,0.5139969856083393,0.8308914364486932,-0.07402883881228044
1761914353527163000,9.991162841796875,0.6388882706463337,0.7250707625836134,-0.16318221805281935
1761914353537218800,10.00121875,0.7598913160741328,0.5614379512190818,-0.20491397570390252
1761914353547274800,10.011274658203124,0.8969383183300494,0.32530747439861296,-0.2679291982717812
1761914353557331000,10.0213310546875,0.9600169980555773,0.11768003848493098,-0.3912320816071704
1761914353567387000,10.031386962890625,0.925870982825756,0.0939466961979866,-0.38553496594410386
1761914353577442800,10.04144287109375,0.8589087396651506,0.13923545221090317,-0.32717155123744157
1761914353587499000,10.0514990234375,0.7982254306435584,0.1169517242103815,-0.3199212513156235
1761914353597553700,10.0615537109375,0.8452367726653813,0.07082534832954407,-0.29956310281651094
1761914353607609900,10.07160986328125,0.938705914479494,-0.0029360534518957137,-0.2197447573499754
1761914353617665800,10.081665771484374,0.9313637350231408,-0.12890811946392058,-0.1339218651058618
1761914353627721700,10.0917216796875,0.825643598923087,-0.2527379127502441,-0.04886860552737489
1761914353637778000,10.10177783203125,0.6886912892132997,-0.2617676069021225,0.004059933782136068
1761914353647833900,10.111833740234376,0.6267033273339271,-0.17151333548128603,0.0335076990599744
1761914353657888800,10.121888671875,0.6368471202075481,-0.052181438136100766,-0.010105214428901672
1761914353667945000,10.131945068359375,0.6213531984776258,0.04425473679006099,-0.061476468693278725
1761914353678001000,10.1420009765625,0.6273901405543089,0.07464110722541809,-0.10959953481666743
1761914353688056800,10.152056884765624,0.5933113453418016,0.053204935964941975,-0.1452077589530032
1761914353698112800,10.16211279296875,0.5038818343073129,0.023875965628027913,-0.16384961418667807
1761914353708168700,10.172168701171875,0.4692267005115747,0.02803191626369953,-0.19469945568162947
1761914353718224600,10.182224609375,0.5553945794016123,0.005300444495677948,-0.2797720866808668
1761914353728279800,10.19227978515625,0.6355488970905542,-0.020838789889216423,-0.40169418318234384
1761914353738335700,10.202335693359375,0.7026373969793319,-0.04030921403467655,-0.4608583563452586
1761914353748392400,10.212392333984376,0.8098416341572999,-0.1539391003459692,-0.5520877198759466
1761914353758448400,10.222448486328124,0.9140870215296745,-0.22666940551400183,-0.636341801033914
1761914353768504300,10.23250439453125,0.9585860884696245,-0.276005975612998,-0.6411212173301726
1761914353778560500,10.242560546875,0.8938894521534443,-0.3131137632578611,-0.6476643553633242
1761914353788615200,10.252615234375,0.7883154465258121,-0.35070085885226726,-0.6338806716173887
1761914353798671400,10.26267138671875,0.6767313868284225,-0.37216333359777926,-0.6158172647256404
1761914353808727300,10.272727294921875,0.641921939253807,-0.439652815502882,-0.6384969332411885
1761914353818783200,10.282783203125,0.6816296802639961,-0.515211622095108,-0.6642142158869654
1761914353828839400,10.29283935546875,0.668703563195467,-0.5514408733397722,-0.6984221173718571
1761914353838895400,10.302895263671875,0.6575964782476424,-0.47300388096272944,-0.7119448851592838
1761914353848951300,10.312951416015625,0.5795598833650351,-0.3699731300771236,-0.6812031254149973
1761914353859006500,10.32300634765625,0.5318395162910222,-0.3612818740993738,-0.7070083055399358
1761914353869062100,10.333062255859375,0.5460311232507229,-0.4768967967480421,-0.7310981331143528
1761914353879118000,10.3431181640625,0.4529676396280527,-0.6142436587333678,-0.6378875691711903
1761914353889174300,10.35317431640625,0.34013387213051316,-0.7138344982981681,-0.549973102342151
1761914353899230200,10.363230224609374,0.3186117761522531,-0.8484089729607105,-0.543506390546076
1761914353909286100,10.3732861328125,0.3972831618070602,-0.9013333384186029,-0.5552068017445504
1761914353919341300,10.38334130859375,0.4753542434811592,-0.8959925619125366,-0.5736378729049116
1761914353929397200,10.393397216796876,0.3979764047682285,-0.9068184918314218,-0.5815366633307189
1761914353939453400,10.403453369140625,0.04206804040074348,-0.9865104527056217,-0.6139927527122199
1761914353949509400,10.41350927734375,-0.4814356092214584,-1.1167664796471595,-0.6695070615980774
1761914353959565300,10.4235654296875,-0.7873620913237332,-1.129995963576436,-0.608266410954669
1761914353969621200,10.433621337890624,-0.9727952310860156,-1.0599918685019016,-0.4472288037151098
1761914353979676200,10.44367626953125,-1.0305284581303595,-1.0540934581130743,-0.3451723777543753
1761914353989732400,10.453732421875,-0.8859510603696107,-1.1713199076116085,-0.4105081156916916
1761914353999788300,10.463788330078126,-0.4557996481835842,-1.3535668185532093,-0.5272727928973734
1761914354009844200,10.47384423828125,0.6344236924529075,-1.9216794252306222,-0.9477350241094827
1761914354019900400,10.483900390625,1.7914900337845086,-2.5059873799055814,-1.410684836308658
1761914354029956400,10.493956298828126,1.460167244619131,-1.874474606463313,-0.7663037403997034
1761914354040012300,10.50401220703125,0.8467232118308544,-1.108893554314971,-0.12443258148506282
1761914354050067200,10.514067138671875,-0.17351707651913165,-0.8311690843462943,0.15470686984807253
1761914354060123100,10.524123046875,-0.9385194519966841,-0.6342705477178097,0.27564854047745463
1761914354070179300,10.534179443359376,-1.2402519895404576,-0.3881283799707889,0.2985965045403689
