time,seconds_elapsed,z,y,x
1761915130526051800,0.1240517578125,0.9074941991358995,1.2983242392808199,-0.27897534681260583
1761915130536106800,0.134106689453125,1.0237246233344077,1.4989976182729006,-0.4060125578381121
1761915130546160600,0.14416064453125,1.1967051087588072,1.649812449118495,-0.5205952148295938
1761915130556214500,0.154214599609375,1.251761810070276,1.747592439869046,-0.6196563314318656
1761915130566268700,0.1642685546875,1.1772995665431023,1.8933681075036524,-0.7018934467442334
1761915130576322800,0.17432275390625,1.1614794815987348,2.1101988405704497,-0.8280329782776534
1761915130586377700,0.184377685546875,1.338870769202709,2.373801846206188,-0.9192679312989115
1761915130596431600,0.194431640625,1.418202664592862,2.5103601881623265,-0.9362649510681629
1761915130606485500,0.204485595703125,1.31302028863132,2.4463100330561396,-0.8461829674743115
1761915130616539600,0.21453955078125,1.362058752566576,2.271526882123947,-0.7861663056679069
1761915130626594800,0.2245947265625,1.4730144512325525,2.0555156487464905,-0.744857413071394
1761915130636648700,0.234648681640625,1.5308867944866418,1.7846604800254104,-0.7358757958449423
1761915130646702800,0.244702880859375,1.594192268705368,1.3392805190473793,-0.6392443906076252
1761915130656756700,0.2547568359375,1.016307040554285,0.6244833131968974,-0.2638220552138984
1761915130666810600,0.264810546875,-0.9173205966234207,-0.345108153411746,0.2663274621635675
1761915130676865500,0.274865478515625,-3.128160078072548,-1.413758544665575,0.966943144056946
1761915130686919700,0.284919677734375,-3.8111037635445593,-2.3602234027087685,1.3339290750168262
1761915130696973600,0.2949736328125,-3.833783212864399,-3.130382430297136,1.3150823357276618
1761915130707027700,0.30502783203125,-3.933994814676046,-4.036872420826554,1.144024488928914
1761915130717082600,0.31508251953125,-4.896063484564423,-5.005139360833168,1.092987690783292
1761915130727136500,0.325136474609375,-6.130076287454366,-5.669938317805529,1.1642900089748203
1761915130737190700,0.335190673828125,-7.150085689657926,-5.967713057634234,1.3422998668685555
1761915130747244500,0.34524462890625,-7.893464262348413,-6.043117550447583,1.8418787432849406
1761915130757298700,0.355298583984375,-8.456398589605092,-6.395315369859337,2.74533535746783
1761915130767353900,0.365353759765625,-8.80838539661467,-6.765745596054196,3.7608936254814265
1761915130777407700,0.37540771484375,-9.072943511018156,-7.166339489844441,4.512468071848154
1761915130787461600,0.385461669921875,-9.532354919958115,-7.626491488018631,4.736943766710162
1761915130797515500,0.395515625,-8.700102132028341,-7.869834964957833,3.4412259105354543
1761915130807570700,0.40557080078125,-7.173583469623327,-5.762077672320604,3.176943982724845
1761915130817624600,0.41562451171875,-5.466759093472361,-5.869890981307625,3.5466108233317732
1761915130827678700,0.4256787109375,-4.480252147898078,-6.019979251444339,2.2633704636752605
1761915130837732900,0.43573291015625,-3.511032437211275,-4.752964927184581,0.8335095099925994
1761915130847786800,0.445786865234375,-1.5476011979222297,-3.653681497257948,-0.37134354164749384
1761915130857841700,0.455841552734375,0.0995885014772415,-2.218680258077383,-0.8578297122567892
1761915130867895600,0.4658955078125,1.119288691601157,-0.3610200082927942,-0.7205044775813818
1761915130877949700,0.47594970703125,1.8585463849693535,0.7001543479919433,-0.35499387987107034
1761915130888003600,0.486003662109375,2.1081647043943406,1.7020160990864037,-0.07272855160236358
1761915130898058800,0.496058837890625,1.6282903531402348,2.5983453456073997,-0.528663808864355
1761915130908112600,0.506112548828125,1.593153573307395,3.3344209018081425,-1.6822297408595681
1761915130918166500,0.51616650390625,2.2149714666873215,4.390433345285058,-2.6155577616930006
1761915130928220700,0.526220703125,2.5805542528510093,5.4402609626472,-3.2770182218924164
1761915130938274600,0.536274658203125,2.9805542724013327,6.078474110510945,-3.6460032177150246
1761915130948329700,0.546329833984375,3.67264455640316,6.511447009858489,-3.7315541337504983
1761915130958383600,0.556383544921875,4.260737874835729,7.058980938887596,-3.6483486117973922
1761915130968437800,0.566437744140625,4.864225161755085,7.178598667436837,-3.4907603412941097
1761915130978492000,0.576491943359375,5.4137026260673995,6.784892779594659,-3.2835119678258895
1761915130988546600,0.586546630859375,5.49645222094655,6.226465116107463,-3.1031589078068733
1761915130998600700,0.5966005859375,5.348938185212016,5.982278758603334,-3.106949240000546
1761915131008654600,0.606654541015625,5.208958636635542,5.746289736080169,-3.321963863556087
1761915131018708700,0.616708740234375,5.025429284667968,5.371175151461363,-3.484619938842952
1761915131028762600,0.6267626953125,5.005108381173014,5.00326947530806,-3.6403812861800193
1761915131038817500,0.636817626953125,4.74522819545269,4.732847437307238,-3.8127190897867083
1761915131048871700,0.64687158203125,4.516965967789292,4.481996945738792,-3.692247082495689
1761915131058925600,0.656925537109375,4.657679675859213,4.498553528264165,-3.445925466528535
1761915131068979700,0.666979736328125,4.922428344398736,4.4609220090061426,-3.211542125636339
1761915131079034600,0.67703466796875,5.203240258988738,4.2914597608357665,-3.008554916743934
1761915131089088800,0.6870888671875,5.265902759128808,4.089719629395008,-2.9548572288259862
1761915131099143000,0.697142822265625,5.242728804290294,4.051048245695233,-2.9808938796192406
1761915131109196500,0.707196533203125,4.714372453939914,4.170204201951623,-3.1418209391564127
1761915131119250700,0.717250732421875,4.170860620033741,4.191085661938787,-3.4506671080976723
1761915131129305600,0.7273056640625,3.48151817343533,4.164586362069845,-3.4911648304417726
1761915131139359700,0.73735986328125,3.0535189708471298,3.945148076853156,-3.3818379020214078
1761915131149413600,0.74741357421875,2.6409037998735903,3.3507214637458325,-3.180380971436202
1761915131159467800,0.7574677734375,2.693128492629528,2.302399574771523,-2.5964380506813525
1761915131169521700,0.767521728515625,2.935692801889777,1.0399790080428122,-1.7325442160800097
1761915131179576600,0.77757666015625,2.4736346778333185,0.010918868899345397,-0.8421504970878362
1761915131189630700,0.787630615234375,1.2005255438297986,-0.7110171027898788,-0.08945815260708331
1761915131199684600,0.7976845703125,-0.5747001683741808,-1.062383732074499,0.3604109364837408
1761915131209738800,0.80773876953125,-2.6431302437514064,-1.3327765439808368,0.5291378561168909
1761915131219794000,0.8177939453125,-3.9709447814106937,-2.3943688334167,0.9280746303498745
1761915131229847600,0.82784765625,-4.522104499721527,-4.1549435044556855,1.811879618601501
1761915131239901700,0.837901611328125,-4.59140307687521,-5.847719481509923,2.922432922822237
1761915131249955600,0.84795556640625,-5.04657436402738,-6.701331868332624,3.82882909758836
1761915131260009700,0.858009765625,-6.059399407684802,-6.779929604229331,4.469129573120177
1761915131270064600,0.868064697265625,-6.733949358820915,-7.101763265037536,5.0595478273689745
1761915131280118800,0.878118896484375,-7.2693924525618545,-7.770989390802383,5.508229167979955
1761915131290172700,0.888172607421875,-7.557410937529802,-8.446447688955068,5.4491509560674425
1761915131300226800,0.898226806640625,-7.968978645277023,-8.616861538761853,4.974542562517524
1761915131310281700,0.90828173828125,-7.919564918288588,-8.89087780186236,4.52904482037872
1761915131320335600,0.918335693359375,-7.561706004375219,-9.330202700585126,4.15445016798079
1761915131330389800,0.9283896484375,-7.113436751696467,-9.50778337328136,3.870096343000233
1761915131340443600,0.938443603515625,-6.594049305221438,-9.515048395848273,3.4062887449279424
1761915131350497800,0.948497802734375,-5.8503217729628085,-9.543762449157237,2.912835073393583
1761915131360552700,0.958552734375,-4.96485118958652,-9.136668671953677,2.2840029173374177
1761915131370606600,0.968606689453125,-3.989350206673145,-8.15192230631113,1.3590066715195774
1761915131380660700,0.97866064453125,-2.7057664404064417,-6.807832925677299,0.5396572043046355
1761915131390714600,0.988714599609375,-1.6353624834835527,-4.908169517421722,-0.23251082501858472
1761915131400769800,0.998769775390625,-0.8734989905536175,-2.786702848383784,-0.9859612943902611
1761915131410823700,1.00882373046875,-0.22001579284369943,-0.72662500628829,-1.6548399218916892
1761915131420877600,1.018877685546875,0.2551666012018919,1.10460550173223,-2.3455367057085037
1761915131430931500,1.028931396484375,0.5549596951156854,2.3574825795680283,-2.9277003418311476
1761915131440985600,1.038985595703125,0.9897533801496028,2.962772531995177,-3.2440970722824334
1761915131451040800,1.049040771484375,1.5500824933439492,3.609892039892077,-3.4730805999577044
1761915131461094700,1.0590947265625,2.0986586249023675,4.323814800995588,-3.5938995209902522
1761915131471148800,1.069148681640625,2.4241133988171812,4.780749006167054,-3.319682182359695
1761915131481202700,1.07920263671875,3.2915082272768017,5.032324304878712,-2.998345657418668
1761915131491256800,1.0892568359375,4.514215792298317,5.4640691237360235,-2.710625570875406
1761915131501311700,1.099311767578125,4.907486211332679,5.479432112562656,-2.294884084574878
1761915131511365600,1.10936572265625,5.1738645269006485,5.1718666310817,-1.8356342959374188
1761915131521419800,1.119419677734375,5.4998611526072025,5.105112477713823,-1.66597272580266
1761915131531473700,1.1294736328125,5.374703325587511,4.996799987033009,-1.5468281677231193
1761915131541528600,1.139528564453125,5.079506911814213,4.840186114519835,-1.2777654353767633
1761915131551585500,1.14958544921875,5.136148251968622,4.7845606734097,-0.965360697171092
1761915131561639400,1.159639404296875,5.414712095370889,4.79895803207457,-0.9500169975668191
1761915131571693600,1.169693603515625,5.543953392311931,5.152260597857833,-1.178346445247531
1761915131581747500,1.17974755859375,5.845251630091667,5.140713952448964,-1.0142904400348662
1761915131591802600,1.189802734375,6.247085879331827,5.085751359161734,-0.9642761168047785
1761915131601856500,1.1998564453125,6.3892416029036045,5.39408256431818,-1.0593813353881238
1761915131611910700,1.20991064453125,6.459903869625926,5.632662772378325,-1.1419193333432078
1761915131621964500,1.219964599609375,6.641431234121322,5.839294767513871,-1.2330869202166794
1761915131632019500,1.23001953125,6.546398496252298,5.925777703702449,-1.3484642347171902
1761915131642073600,1.240073486328125,5.922341884034871,5.820317095321417,-1.4472028413668274
1761915131652127500,1.25012744140625,5.089144508731365,5.521065853199363,-1.4678241891130803
1761915131662181600,1.260181640625,4.226117227831483,5.274969862681627,-1.5118866182014346
1761915131672235500,1.270235595703125,3.730207103055715,4.707011569783091,-1.2952113679572939
1761915131682290400,1.28029052734375,3.5132980440557002,3.6434891890674828,-0.6830712573744356
1761915131692344600,1.290344482421875,3.5198248154759404,2.089862739506364,0.17450813338309526
1761915131702398500,1.3003984375,3.5070699633210896,0.20990531771779058,0.9231425807751714
1761915131712452600,1.31045263671875,2.4465157847613095,-1.1842746662527321,0.8770395857699215
1761915131722507500,1.320507568359375,0.6509352667927741,-2.030717892098427,0.34737492929995056
1761915131732561700,1.330561767578125,-1.2035054364234208,-3.3926357748895883,0.48318829810768366
1761915131742615600,1.340615478515625,-2.6950948242664334,-5.080934314268827,0.9982764399535954
1761915131752669700,1.350669677734375,-4.25644631512165,-5.231610613426565,1.0895381348513067
1761915131762723300,1.360723388671875,-4.963970315098762,-6.015034196257591,1.743917404618114
1761915131772778500,1.370778564453125,-5.907180555260181,-8.493267307797074,3.2898212971031664
1761915131782832600,1.38083251953125,-7.875907562869787,-10.257126991856097,4.568354794242977
1761915131792886500,1.390886474609375,-9.231938725709915,-10.742581773591041,5.1620864108234645
1761915131802940700,1.400940673828125,-9.489124265518784,-10.744191546875237,4.857523910550773
1761915131812994600,1.41099462890625,-9.877982713329791,-10.09566801739931,4.299607995977998
1761915131823049500,1.421049560546875,-10.340665691286326,-10.158936666738986,4.4324534548908465
1761915131833103600,1.431103515625,-10.724484975886345,-10.392098941403626,4.626911028108
1761915131843157500,1.441157470703125,-10.086252538800238,-9.78894833909273,4.141944906672835
1761915131853211600,1.451211669921875,-8.708024157199263,-8.726733533844351,3.0218963366150855
1761915131863266600,1.4612666015625,-7.244402972733974,-7.833617404150963,2.070513019131124
1761915131873320700,1.47132080078125,-5.441909314376115,-6.895037746399641,1.522065920779854
1761915131883374300,1.481374267578125,-3.521170384865999,-5.881228952401876,1.0319593677163124
1761915131893428500,1.491428466796875,-1.7321891190320253,-4.442243027499318,0.5359527968287467
1761915131903482400,1.501482421875,-0.991215269395709,-2.1226783829152582,-0.4709751516140997
1761915131913537500,1.51153759765625,-0.6692039139330387,0.1731874061733484,-1.565678121882677
1761915131923591700,1.521591796875,-0.36736616244912146,1.4777163453131914,-2.2330101044639945
1761915131933645600,1.5316455078125,0.010369418323040008,2.4304975468963383,-2.7184485195860266
1761915131943699700,1.54169970703125,0.6412579223871231,3.179548320004344,-2.903094600623846
1761915131953754600,1.551754638671875,1.3994617237657307,3.7755765230894087,-2.7933041463449597
1761915131963808500,1.56180859375,1.9709914454102515,4.399528505888581,-2.5455028132140636
1761915131973862700,1.571862548828125,2.507112584543228,4.897947983136773,-2.0451444768577813
1761915131983916500,1.58191650390625,3.189042709058523,5.475539781299233,-1.652874467037618
1761915131993970700,1.591970703125,3.81390011626482,5.854215857791901,-1.3654888731457293
1761915132004025300,1.602025390625,4.1996114982217545,5.746034884536266,-0.9287783947050571
1761915132014079500,1.61207958984375,4.455167391002178,5.529305273756385,-0.5084717193808407
1761915132024133400,1.62213330078125,4.566418273222446,5.502639385148883,-0.23271964546367524
1761915132034187500,1.6321875,4.892683778998255,5.450632719057798,-0.05625336375012994
1761915132044241700,1.64224169921875,5.236867803302407,5.2359273075819015,0.03754632519260049
1761915132054296600,1.652296630859375,5.5193853527665135,5.046783622863888,0.054595367410033936
1761915132064350700,1.662350830078125,5.781566801166534,4.874738956984877,0.057079000919312235
1761915132074404400,1.672404296875,5.851196802231669,4.7862657237619155,0.013988485603034496
1761915132084458500,1.68245849609375,5.866859066265821,4.748321485292911,0.012226152105629443
1761915132094513700,1.692513671875,5.919893906360865,4.757507246789336,-0.03615720892176032
1761915132104567600,1.702567626953125,5.945180323308706,4.894041623347998,-0.12124766783863306
1761915132114621700,1.71262158203125,5.965670153629779,5.087355287227035,-0.22936712016537783
1761915132124675600,1.722675537109375,5.869307043939829,5.213300465232134,-0.3835847451917827
1761915132134729700,1.732729736328125,5.602210935491323,5.246696538877487,-0.5231349624402821
1761915132144784400,1.742784423828125,5.382702507647871,5.351553336146473,-0.6581774930059909
1761915132154838500,1.752838623046875,5.103866277045011,5.4502188775599,-0.8102538682200014
1761915132164892400,1.762892333984375,4.739927750957012,5.492933983692526,-0.9458407347954809
1761915132174946600,1.772946533203125,4.376147045779228,5.370111906144023,-1.0618785590313375
1761915132185001700,1.783001708984375,3.9428082357287404,5.000860660600662,-1.1354200344517826
1761915132195055400,1.793055419921875,3.419313353934884,4.464893250724673,-1.0303379039943217
1761915132205109500,1.803109619140625,2.6156010163128376,3.0903660617291924,-0.509194115371257
1761915132215163400,1.813163330078125,2.068379221972823,0.8380804711699485,0.25252412386909123
1761915132225217500,1.823217529296875,1.535375338077545,-1.252802843555808,0.711632312078774
1761915132235272700,1.833272705078125,0.2498725864470005,-1.9392063140928744,0.4408411485046148
1761915132245326600,1.84332666015625,-1.5032465078890322,-1.4669588044553994,-0.43761034988984465
1761915132255380700,1.853380615234375,-3.380812066105008,-1.6504554231971502,-1.0670612223662435
1761915132265434600,1.8634345703125,-4.160008386629819,-3.363859177738428,-0.9232786282449961
1761915132275488500,1.873488525390625,-4.594510979762673,-5.174319869452715,0.001890782182663679
1761915132285543400,1.88354345703125,-5.684190130519867,-6.739150434595346,1.6201744128324091
1761915132295597600,1.89359765625,-7.467233822998404,-7.535178647455573,3.084382603405416
1761915132305651700,1.903651611328125,-8.967811403939127,-7.652759317219257,3.553578616517782
1761915132315705600,1.91370556640625,-9.543397122976183,-8.11764302009046,3.5619098070114847
1761915132325760500,1.923760498046875,-9.870784910780191,-8.66914643727243,3.502826334401965
1761915132335814400,1.933814453125,-9.585681436476111,-8.604227682638168,3.3590947398155926
1761915132345868500,1.94386865234375,-8.89434284762442,-8.58585323703587,3.324927097275853
1761915132355922400,1.95392236328125,-8.406222061550617,-8.721672158801555,3.2001603154003617
1761915132365976600,1.9639765625,-7.771340688458085,-8.370691313964128,2.875630255115032
1761915132376031700,1.97403173828125,-6.6584589412897826,-7.848955258536338,2.593294784219563
1761915132386085600,1.984085693359375,-5.242193382239342,-7.364760705995559,2.5569080043256283
1761915132396139500,1.994139404296875,-4.386618170911073,-6.428606229564547,2.5262963007017967
1761915132406193400,2.004193359375,-3.963687942150235,-5.554539668256044,2.6357909869045018
1761915132416248600,2.01424853515625,-3.2800983599901197,-4.536375601658225,2.859746165023744
1761915132426302700,2.024302734375,-2.215837728127837,-2.921656677752733,2.530955524684489
1761915132436356600,2.034356689453125,-1.2592647330462932,-1.3581266738146542,1.788513794452697
1761915132446410800,2.04441064453125,-0.5290893408000469,-0.03783259478807449,0.8381758213032037
1761915132456464600,2.054464599609375,0.3409574634730816,1.2163415371209383,-0.04348061061240732
1761915132466519600,2.06451953125,1.4062246420294044,2.4447142882972956,-0.7037920469071716
1761915132476573400,2.074573486328125,2.2437258520066736,3.3530601358264684,-1.1573191470488906
1761915132486627600,2.084627685546875,2.625456055372953,3.922079335954785,-1.228133535593003
1761915132496681500,2.094681396484375,2.6285499297350645,4.474305222192406,-1.1468795860990881
1761915132506735600,2.104735595703125,2.8057266978055235,4.8496314037352795,-0.8899836038213222
1761915132516790500,2.11479052734375,3.122297908040881,5.0026498821049925,-0.4980077546421438
1761915132526844400,2.124844482421875,3.1201082890421152,4.887245387336612,-0.1038100464287214
1761915132536898600,2.134898681640625,3.1805297322571278,4.511565570050478,0.21836389745082704
1761915132546952400,2.144952392578125,3.4299066441416737,4.299814332205057,0.2680374261529185
1761915132557004500,2.155004638671875,3.979077818983793,4.44389780896902,-0.030581317618722095
1761915132567058400,2.165058349609375,4.588987832427025,4.563817150813341,-0.42076972625870257
1761915132577112300,2.1751123046875,4.988243755611777,4.623543012979626,-0.7022354651149362
1761915132587166200,2.185166259765625,5.314022939175367,4.57661291950047,-0.7714412494186311
1761915132597220400,2.195220458984375,5.612883136153221,4.572972517171502,-0.7110065813958645
1761915132607275500,2.205275634765625,5.747685574352741,4.8307069230347865,-0.5983488280523568
1761915132617329400,2.215329345703125,5.891824580696225,5.282617747086286,-0.4470301028052345
1761915132627383600,2.225383544921875,5.9921063251346345,5.745222983631491,-0.2655145018128678
1761915132637437400,2.2354375,5.861866664806008,6.021018531364202,-0.03109599827574566
1761915132647492400,2.245492431640625,5.645034762695431,6.2048880750715725,0.3070439418248832
1761915132657546500,2.25554638671875,5.391422405198216,6.298271292167902,0.5419137875923886
1761915132667600400,2.265600341796875,5.270231728243828,6.403052101591229,0.5691585355337709
1761915132677654500,2.275654541015625,5.2386704688102,6.298145035439729,0.4560812781365588
1761915132687708400,2.28570849609375,5.053322669243812,5.936469778108597,0.35651794763319195
1761915132697763300,2.295763427734375,4.36269719709754,5.542058956867456,0.1520841566616669
1761915132707817200,2.305817138671875,3.69722545543015,4.892971363767981,-0.008701813904382289
1761915132717871400,2.315871337890625,3.1195746205568313,3.955647259035706,-0.09152925979271531
1761915132727925500,2.325925537109375,2.6202187392413614,2.5175445467084643,-0.12634473524931816
1761915132737979400,2.3359794921875,2.1700193952828646,0.6229793383747338,0.022065847466140983
1761915132748034600,2.34603466796875,1.2675760497957467,-0.9347200597137212,0.05825100384075194
1761915132758088400,2.35608837890625,-0.278245863494277,-2.152740928223729,-0.004731923892721534
1761915132768142300,2.366142333984375,-1.8854718012958764,-3.4658459725290536,-0.2793903573542833
1761915132778196200,2.3761962890625,-3.725762983128428,-4.361850224879384,-0.9221338421240448
1761915132788251400,2.38625146484375,-4.977037301942706,-4.969214645493031,-1.4864485178232192
1761915132798305500,2.396305419921875,-5.746704162099957,-5.957518411356211,-1.1378709347352385
1761915132808359400,2.406359375,-6.394132297554612,-8.15934456526637,0.47736368360742926
1761915132818413600,2.41641357421875,-7.286853290450573,-10.887599316334724,2.3306489331781863
1761915132828467500,2.426467529296875,-8.643770003953575,-11.931536706614494,2.8241254010662433
1761915132838522400,2.4365224609375,-9.200923994243144,-11.656837137424946,2.202678679086268
1761915132848576500,2.446576416015625,-9.557123450511693,-11.51341066326499,1.5546205751650035
1761915132858630400,2.45663037109375,-9.89221465229988,-11.569466312485932,1.3782174218155443
1761915132868684500,2.4666845703125,-9.607232174026965,-11.401929479420184,1.3599132649704813
1761915132878738400,2.476738525390625,-8.982413929787278,-10.623926168072224,1.2283707053497432
1761915132888793300,2.48679345703125,-8.577994340229035,-9.591861001893877,1.058384944761917
1761915132898847200,2.49684716796875,-7.795946137404441,-8.921493304878473,1.1367010141730307
1761915132908901400,2.5069013671875,-6.478208757123351,-8.17058901285827,1.372666655820608
1761915132918955300,2.516955322265625,-4.790331073504686,-6.883343801474571,1.5801868319675325
1761915132929010400,2.527010498046875,-3.2956653469562527,-5.346868393200635,1.4441481299713252
1761915132939064600,2.537064697265625,-2.6881384292572736,-3.961410644868016,0.36351149631496515
1761915132949118500,2.547118408203125,-2.295835393950343,-2.9759476553887128,-0.88712288062796
1761915132959172600,2.557172607421875,-1.7085773572981358,-1.5776766027122735,-2.164380220352113
1761915132969226200,2.567226318359375,-0.7809615766316652,0.03572247076630592,-3.1537516154468057
1761915132979281400,2.577281494140625,0.32006314400434493,1.3876292471528053,-3.60365811393857
1761915132989335600,2.58733544921875,1.1859878999114035,2.6823843957751987,-3.593059270773828
1761915132999389400,2.597389404296875,1.943886580863595,3.968411463540792,-3.1879040604174134
1761915133009443600,2.607443603515625,2.7424118712365626,4.967329562398791,-2.527165777012706
1761915133019497500,2.61749755859375,3.479792080295086,5.622662187367677,-1.698486025264114
1761915133029552400,2.627552490234375,4.245322863560915,5.99222615212202,-0.8319427721325308
1761915133039606300,2.637606201171875,4.850235214847326,6.173788587930798,-0.09402516826167702
1761915133049660400,2.647660400390625,5.010809807685018,6.190152862754464,0.591699233970046
1761915133059714300,2.65771435546875,5.033838216573,6.297419643774628,1.0225001961059867
1761915133069769500,2.66776953125,5.383149666893482,6.429169708666205,1.0482583222188055
1761915133079823600,2.67782373046875,5.729440892609953,6.3121320597380395,0.8157550959847867
1761915133089877200,2.687877197265625,6.046764382517337,5.985387830534577,0.655594198514521
1761915133099931400,2.697931396484375,6.2923302116811275,5.848519107455015,0.4905858610130846
1761915133109985300,2.7079853515625,6.614844840490818,5.762715385702252,0.3374617303118109
1761915133120040400,2.71804052734375,6.873163768243789,5.653966841691732,0.13158259937018155
1761915133130094600,2.728094482421875,6.966998236238956,5.800405941671133,-0.1570452496677637
1761915133140148500,2.7381484375,7.009768871951103,5.944104218509793,-0.43856370509192344
1761915133150202600,2.74820263671875,6.917643545961379,6.0683513604253525,-0.6837057558856904
1761915133160257300,2.75825732421875,6.593055033487081,6.200076875397563,-0.8142164882406592
1761915133170311400,2.7683115234375,6.327383989405631,6.346851490941643,-0.8056022430218756
1761915133180365300,2.778365234375,6.207071848851442,6.528612664192915,-0.7907002958357333
1761915133190419500,2.78841943359375,6.205100841039418,6.8610355235546825,-0.8854637152440845
1761915133200473600,2.7984736328125,6.043806701755523,7.049369645455479,-0.9414058210879563
1761915133210528300,2.8085283203125,5.599403476855159,6.88817545941472,-0.9026230859681963
1761915133220582400,2.81858251953125,4.96555904559493,6.489473662981391,-0.7787412702336907
1761915133230636300,2.82863623046875,4.389945854029059,5.867862105828523,-0.37077845511063934
1761915133240690400,2.8386904296875,4.14547892601788,4.660234621039033,0.515257360932976
1761915133250744300,2.848744384765625,4.199887977075576,2.721875279164314,1.6430569835089146
1761915133260799500,2.858799560546875,4.355419899570942,0.76925886387825,2.4972554996564984
1761915133270853600,2.868853515625,3.6931770568221807,-0.3253355314493179,2.282324608861655
1761915133280907500,2.878907470703125,1.850796793755889,-0.9013999739140272,1.5115386815465985
1761915133290961400,2.88896142578125,-0.6553145047903061,-1.7685282603919505,1.0293990157090127
1761915133301016300,2.899016357421875,-2.8222674982398748,-3.3775726457923647,1.0612370462574063
1761915133311070500,2.909070556640625,-3.9808348917841907,-4.967955000820756,1.6121140021041034
1761915133321124400,2.919124267578125,-4.4253035831362,-6.412391592344641,2.565909056904912
1761915133331178500,2.929178466796875,-5.225103131228685,-8.294168046253919,3.1653084899887443
1761915133341232600,2.939232666015625,-6.4904088980048895,-9.611762218672036,2.7022937958598137
1761915133351287300,2.949287353515625,-6.963050375396013,-10.01789737997651,1.3786257103554904
1761915133361341400,2.959341552734375,-6.704199532723426,-10.173175619971751,-0.06384802013020963
1761915133371395300,2.969395263671875,-6.729473090189695,-10.608499466359614,-0.6553287525113671
1761915133381449500,2.979449462890625,-7.325453362479806,-11.48274664493203,-0.44498635855056345
1761915133391503400,2.98950341796875,-7.583650125157833,-11.989619477748871,-0.10933412534613161
1761915133401558300,2.999558349609375,-7.627406264775991,-11.627924346673488,-0.39338144166078415
1761915133411612400,3.0096123046875,-8.064274417996407,-10.96408751273155,-0.864651228839904
1761915133421666300,3.019666259765625,-8.798831386327743,-10.346315679872035,-0.9622567398063838
1761915133431720400,3.029720458984375,-8.826927599999308,-9.638756608581543,-0.7506284707535058
1761915133441775400,3.039775390625,-7.832817778205871,-8.174542134398221,-0.4240426104495302
1761915133451829500,3.04982958984375,-6.181959034904837,-6.090342827481031,-0.010027934241876937
1761915133461883600,3.059883544921875,-4.320678841057419,-4.387888921499252,0.3498248797353357
1761915133471937500,3.0699375,-2.487006200581789,-3.3225948549360034,0.5158044734217226
1761915133481991400,3.079991455078125,-0.6030991643846034,-2.3674632908344266,0.2930086214054376
1761915133492046300,3.09004638671875,1.0369406632602214,-1.0709896478563548,-0.31672782556917517
1761915133502100500,3.1001005859375,2.0517460670799017,0.3512929795265198,-1.067334121023491
1761915133512154400,3.110154296875,2.7416432249516247,1.8236726399868726,-1.8004554305285214
1761915133522208500,3.12020849609375,3.1099604045152662,3.253803642782569,-2.3656477658450603
1761915133532263400,3.130263427734375,3.060193041783571,4.433141437155008,-2.633394154895842
1761915133542317300,3.1403173828125,2.918337177941203,5.228719568160176,-2.496706049080193
1761915133552372200,3.150372314453125,2.6188223164469,5.742765653607249,-1.8994354447185993
1761915133562426400,3.16042626953125,2.7337469187438486,6.01969868093729,-0.9592777970608323
1761915133572480300,3.170480224609375,3.211680072802305,6.05075023728311,-0.18155469089373946
1761915133582535200,3.18053515625,3.518714223885536,5.928420327165722,0.43480084542706604
1761915133592589000,3.190589111328125,3.9346109007477756,5.753528455162048,0.8690727716092019
1761915133602643200,3.200643310546875,4.403250741282105,5.745160439789295,0.9891385361868887
1761915133612697000,3.210697021484375,4.682149515727162,5.781034886246919,0.85158964882344
1761915133622751200,3.220751220703125,4.789108253711461,5.954475390398502,0.47418870683312414
1761915133632806400,3.230806396484375,4.81216413512826,6.0380666967988015,0.09420432422086596
1761915133642860300,3.2408603515625,4.525494726681709,5.794123500400781,-0.16846797643601893
1761915133652914200,3.2509140625,4.182203851824998,5.619024123126268,-0.26540276680039243
1761915133662968000,3.260968017578125,4.088323791122436,5.610084445345401,-0.20944708908889442
1761915133673023200,3.271023193359375,4.14435898207724,5.6848529783427715,-0.12983217550627887
1761915133683077400,3.281077392578125,4.212084610825777,5.646617647972703,-0.02061700036469847
1761915133693131300,3.29113134765625,4.517032018762826,5.479520375367999,-0.009875351195782422
1761915133703185400,3.301185302734375,4.823216859540343,5.530315327581763,-0.09190218475833535
1761915133713239300,3.3112392578125,4.934606273448467,5.674423354265094,-0.07760368335805833
1761915133723294200,3.321294189453125,4.794083704036474,5.675463218706846,-0.0489250666886568
1761915133733348000,3.33134814453125,4.320277859041094,5.539112382021546,-0.00866246827468276
1761915133743402200,3.34140234375,3.617600130051374,5.37587821458578,0.05460355071648955
1761915133753456000,3.3514560546875,2.9168647673010826,5.07943852275312,-0.14556743171140551
1761915133763511300,3.36151123046875,2.8909266084462404,4.251830930280685,-0.17222835188284516
1761915133773565200,3.371565185546875,3.16857099891603,2.4506390021711586,0.2509014180380851
1761915133783619000,3.381619140625,2.8340952986776826,0.695451284867525,0.571938448575884
1761915133793673200,3.391673095703125,1.7553151430755853,-0.45506490416824813,0.621350129737705
1761915133803727000,3.40172705078125,-0.2917623476713896,-1.6396195564061402,0.44215793019160626
1761915133813782300,3.4117822265625,-2.830922513860464,-2.807479094430804,-0.19467406551204622
1761915133823836400,3.42183642578125,-5.437104544442891,-3.3529981765061616,-1.136928466253355
1761915133833890300,3.431890380859375,-6.9519988200277085,-4.291707013595104,-1.4955419248610735
1761915133843944200,3.441944091796875,-7.456901229554414,-5.732379284149408,-1.2863511851534246
1761915133853999000,3.4519990234375,-7.0785098152220245,-7.1851324531197545,-0.7234718029543757
1761915133864053200,3.46205322265625,-6.925618762624263,-7.909357997050881,-0.4626223338104784
1761915133874107100,3.472107177734375,-6.045180328196286,-7.976244252365827,-0.4562548080725595
1761915133884161300,3.482161376953125,-5.224022934776544,-7.995734550255537,-0.52766391110681
1761915133894215200,3.492215087890625,-5.262248328274488,-8.068282484593986,-0.4256957479514181
1761915133904270000,3.50227001953125,-5.539612148237228,-7.985181592059135,-0.24938896764852106
1761915133914324200,3.51232421875,-5.503342564982176,-8.042197610744834,0.18408274806663394
1761915133924378000,3.522378173828125,-5.468689769273996,-8.357397532626987,0.7240767831102013
1761915133934432300,3.532432373046875,-5.1417660918504,-8.459416476121545,1.0170672112718224
1761915133944486100,3.542486083984375,-4.83620259784162,-8.527504508441686,1.2444786673247814
1761915133954541300,3.552541259765625,-4.951846162062883,-8.74505011177957,1.497647226577252
1761915133964595200,3.56259521484375,-4.812762101021408,-8.730468628719448,1.5428646709196268
1761915133974649000,3.572649169921875,-4.317439420744776,-8.046247178396582,1.4325952009521423
1761915133984703200,3.582703125,-3.763545893555879,-6.983187154495716,1.2748691294133663
1761915133994758100,3.592758056640625,-3.1357267139345404,-5.679770560511947,1.1688038331374526
1761915134004812300,3.602812255859375,-2.6132845560640097,-4.345443864479661,1.180537525551021
1761915134014866200,3.6128662109375,-1.8019325173437595,-3.1232705524653195,1.1001808171577752
1761915134024920300,3.62292041015625,-0.4258779726505279,-1.7808634258300065,0.6466448030572384
1761915134034974500,3.632974365234375,1.0156178892463446,-0.5087357040792704,0.026561989841610192
1761915134045029000,3.643029052734375,2.3436194739103318,0.8637281226456165,-0.6093091980058699
1761915134055083300,3.653083251953125,3.358560486808419,2.390148585373163,-1.1656998757727444
1761915134065137200,3.66313720703125,3.5331864013522862,3.713191086325049,-1.6177289193764328
1761915134075191300,3.67319140625,3.357024363282323,4.666897001537681,-1.8035440441936252
1761915134085246200,3.68324609375,3.554389932900667,5.400803397005796,-1.763051582546532
1761915134095300000,3.693300048828125,3.9229689782708883,5.960275016587972,-1.5166152541585265
1761915134105354200,3.703354248046875,4.515640272143483,6.268320390540361,-1.0273400373525916
1761915134115408100,3.713408203125,5.3451452226698395,6.241088100221753,-0.39576588911190624
1761915134125462300,3.723462158203125,5.9159834549188615,6.197616622763872,0.27228593217656016
1761915134135517200,3.73351708984375,6.08277385353148,6.431318411132693,0.7203403730608523
1761915134145571300,3.7435712890625,6.1072518767058845,6.571468640100956,0.9883408830031752
1761915134155625200,3.753625244140625,6.174715055125952,6.412720093646645,1.1531203801847993
1761915134165679000,3.76367919921875,6.221601893985271,6.320250484263896,1.1220080335624516
1761915134175734300,3.773734375,6.3283490350455045,6.300397782802581,1.0428911691624672
1761915134185788200,3.7837880859375,6.300011413833499,6.2118129058986895,0.9028178778879344
1761915134195842300,3.79384228515625,6.179986858049035,6.0642649678945535,0.8000988963652401
1761915134205896200,3.803896240234375,6.05231850951314,6.034337447142601,0.6627974809568375
1761915134215950300,3.813950439453125,5.911563884910941,6.27856179856956,0.4064109825711697
1761915134226005200,3.824005126953125,5.78282469227314,6.407983128252625,0.22001126279905436
1761915134236059100,3.83405908203125,5.514535574647784,6.392979035866261,0.0539990089520812
1761915134246113300,3.84411328125,5.192241895112395,6.549524519318342,-0.19121449964269996
1761915134256167200,3.854167236328125,4.762666821509599,6.67470748077929,-0.3709276543229818
1761915134266222300,3.864222412109375,4.078592670702934,6.578596884545683,-0.5036571587059646
1761915134276276200,3.874276123046875,3.4038884057879444,6.273131005692481,-0.5086040405236184
1761915134286330000,3.884330078125,2.7321026586681603,5.716685455933213,-0.489099202651903
1761915134296384300,3.89438427734375,2.405311083191633,4.337697195875644,-0.4054429412566125
1761915134306438100,3.904438232421875,2.185266064253449,2.4185791455656287,-0.22907281339392066
1761915134316493300,3.914493408203125,1.81871647888422,0.46124271602034567,-0.2115573227085173
1761915134326547200,3.924547119140625,0.7174041734784841,-1.3906255063593387,0.03724887661598623
1761915134336601300,3.934601318359375,-1.0600181719869375,-3.467420674499869,0.39990729976557193
1761915134346655200,3.9446552734375,-3.5585891381561754,-4.625806866258382,-0.24463548951111733
1761915134356710100,3.954710205078125,-5.843844685903191,-3.9600557231277227,-1.7478883540757
1761915134366764300,3.964764404296875,-6.226403156787157,-4.637950308516621,-2.400557897315174
1761915134376818200,3.974818115234375,-6.580518792518973,-6.754413470178842,-1.8530017564542591
1761915134386872300,3.984872314453125,-8.468358491989969,-8.962751782462,-0.05072327521704137
1761915134396926200,3.99492626953125,-10.86461123945713,-10.742496433395146,2.1637289168365297
1761915134406978000,4.00497802734375,-12.268365107458829,-10.849693071788549,2.7948329633474347
1761915134417033200,4.015033203125,-12.483533460271358,-9.817423907470703,1.944429017177224
1761915134427087400,4.02508740234375,-12.566498159205914,-9.709604168742894,1.0044631657645107
1761915134437141200,4.035141357421875,-12.328911053836345,-9.879860197639465,0.8035635768011212
1761915134447195400,4.0451953125,-10.884029056632517,-10.5786888499856,1.492232361921668
1761915134457249300,4.055249267578125,-9.59118587911129,-10.91669915409088,1.9521169413313268
1761915134467304200,4.06530419921875,-8.804026032361387,-10.073147558033465,1.6539226609162985
1761915134477358000,4.075358154296875,-7.581059524142741,-8.986770955953002,0.8863746926091611
1761915134487412200,4.085412109375,-5.576846777132153,-7.771755698999762,0.3678606679677963
1761915134497466400,4.09546630859375,-3.3247207610487934,-6.077061905625462,0.2968479803726077
1761915134507520300,4.105520263671875,-1.4616957693606614,-4.253934040039778,0.4394125770062208
1761915134517575200,4.1155751953125,-0.17493395757973193,-2.6417957802772523,0.36640550072342154
1761915134527629000,4.125629150390625,0.3611000877916813,-1.234290450787544,-0.08155541665852069
1761915134537683200,4.13568310546875,0.7760439939737319,0.1990817258864641,-0.8550316059708595
1761915134547737000,4.145737060546875,1.4560796830445528,1.5687328332781791,-1.7197412869997322
1761915134557792300,4.155792236328125,2.2452929551929235,2.660266671991348,-2.3733077790789303
1761915134567846100,4.16584619140625,2.7853222076803443,3.421567854863405,-2.629799637535214
1761915134577900300,4.175900390625,3.3993870027154682,4.147594895258545,-2.699885565674305
1761915134587954000,4.185953857421875,3.975566011470556,4.747860297521949,-2.5607103192180394
1761915134598008000,4.196008056640625,4.364343210738897,5.075895151057839,-2.043696616137028
1761915134608063000,4.20606298828125,4.771436403420568,5.18993770982325,-1.3741786678187549
1761915134618117000,4.2161171875,5.203885571154951,5.431854368829727,-0.8225783661335706
1761915134628171300,4.226171142578125,5.646328894159198,5.651028450152277,-0.37580490497052665
1761915134638225200,4.23622509765625,5.962489185506105,5.913870408287644,-0.08983429244309664
1761915134648280000,4.246280029296875,6.137477503621578,6.234114754077792,0.03593289864659309
1761915134658334000,4.256333984375,6.4176534583956,6.430106697255373,0.05284487048089504
1761915134668388000,4.26638818359375,6.7673255587220185,6.4156017865628,0.06414309408664703
1761915134678442000,4.27644189453125,7.135897005307674,6.348679875412583,-0.031593846528977156
1761915134688497200,4.2864970703125,7.498390593284368,6.107264151665568,-0.11601079009845852
1761915134698551300,4.29655126953125,7.497774507212639,5.980937280866503,-0.13874226186648012
1761915134708605000,4.30660498046875,7.271618896439671,6.047601417863369,-0.209423379419744
1761915134718659000,4.3166591796875,7.1406924228906625,6.156600137242674,-0.26037527576088904
1761915134728713000,4.326712890625,6.845219530263543,6.204309982922672,-0.3897166720755398
1761915134738768100,4.33676806640625,6.594096066972613,6.161409583351015,-0.565995760653913
1761915134748822300,4.346822265625,6.3893625989347695,6.041141866460443,-0.6935154944993556
1761915134758876200,4.356876220703125,6.057039692816138,5.881126661071181,-0.7349791392661631
1761915134768930300,4.366930419921875,5.5926201003253455,5.735423474150895,-0.897139539990574
1761915134778985000,4.37698486328125,5.170693495649099,5.4645823339551685,-0.9870473360612988
1761915134789039000,4.3870390625,4.870466686493158,4.9099891340643165,-0.9568056347936391
1761915134799093000,4.397093017578125,4.530276115739345,4.097125521737337,-0.8314433712430298
1761915134809147100,4.407147216796875,3.758614282372594,3.0798066737920045,-0.505348545859009
1761915134819201000,4.417200927734375,2.85970670979619,1.7680583047926426,-0.025192747315019366
1761915134829256000,4.427255859375,1.834384588137269,0.5245891067713498,0.2799365930601954
1761915134839310000,4.43731005859375,0.789906515109539,-0.36542905690670013,0.36683074039816854
1761915134849364000,4.447364013671875,0.26736791112720965,-1.5233838715106247,0.548500143712759
1761915134859418000,4.457418212890625,-0.5290075077354908,-3.1650019082576035,0.4855146952286362
1761915134869473000,4.46747314453125,-3.1021921086013315,-3.719875094133615,-0.3097882720969617
1761915134879527200,4.477527099609375,-5.411739217039942,-3.6166046892732377,-0.5741635772794484
1761915134889581300,4.487581298828125,-6.517597349181771,-4.527020328813791,0.5136624929569661
1761915134899635200,4.49763525390625,-7.006059496039152,-7.508128143444657,2.697684840759635
1761915134909689000,4.507689208984375,-7.383786893504857,-10.19287166956663,4.501267755658924
1761915134919744000,4.517743896484375,-7.704477814018726,-10.376378809702397,4.368620741927623
1761915134929798100,4.527798095703125,-7.865627576395869,-10.15921022298336,3.307054171454906
1761915134939852000,4.53785205078125,-8.498653677010536,-10.740893674373627,2.507391693745553
1761915134949906200,4.54790625,-8.949863074794411,-11.224266389137506,1.8563659721903503
1761915134959961000,4.557961181640625,-8.653561330127715,-11.846581126123667,1.5207231278687714
1761915134970015000,4.568014892578125,-8.057013487082719,-12.217758371293543,1.2453832149490713
1761915134980069000,4.578069091796875,-7.754260958841442,-11.85379178815484,0.5814170555390418
1761915134990123000,4.588123046875,-7.955211401209235,-11.484322515946626,0.25541750722303985
1761915135000177200,4.59817724609375,-8.273069144123792,-11.062132876420021,0.4729632566913962
1761915135010232300,4.608232421875,-8.488159171003103,-10.38386770415306,0.7720106468044221
1761915135020286200,4.6182861328125,-8.37527455010116,-9.40351109790206,0.9896420287296175
1761915135030340000,4.628340087890625,-7.608924267145991,-8.060606543138622,1.0478251914985477
1761915135040394000,4.63839404296875,-6.114200672930479,-6.092672147211432,0.8818104534335434
1761915135050449200,4.64844921875,-4.469643660122156,-3.8808617749035355,0.4768779459170997
1761915135060503000,4.6585029296875,-3.1439795784950255,-2.2688497718691822,-0.011770809553563594
1761915135070557200,4.66855712890625,-2.2662948266893626,-1.6596213109493254,-0.6141137487433851
1761915135080611000,4.678611083984375,-1.0334066439151763,-1.179330780109763,-1.3066294185504317
1761915135090665200,4.688665283203125,0.6257067175120115,0.010543021324276923,-2.172194401234388
1761915135100720000,4.69872021484375,2.0002496885985135,1.632344596967101,-2.967590745931864
1761915135110774000,4.70877392578125,3.1485265742748973,3.417729884135723,-3.4941268951177595
1761915135120828200,4.718828125,4.240820291444659,5.009960497379303,-3.5566327433913942
1761915135130882000,4.728882080078125,4.928943425381183,6.290405965620279,-3.169628399014473
1761915135140937200,4.738937255859375,5.098475816178322,7.168872223192453,-2.487905195248127
1761915135150991000,4.7489912109375,5.115132351946831,7.688635517242551,-1.9186596390180288
1761915135161045000,4.759044921875,5.17738744032979,7.827361850887536,-1.4505049516521393
1761915135171099100,4.76909912109375,5.4266813501060005,7.624150477850437,-1.134497951170802
1761915135181154000,4.779154052734375,5.754329250150919,7.293871644780039,-0.8146674468785524
1761915135191208200,4.789208251953125,6.012333705127239,7.007887880510092,-0.4732604860723018
1761915135201262000,4.799261962890625,6.143350779569149,6.806305569979548,-0.44938539722710846
1761915135211316200,4.809316162109375,6.379288364166021,6.72058660390079,-0.5407596125885844
1761915135221369900,4.819369873046875,6.654703388148546,6.63309887458384,-0.6276949687197804
1761915135231425000,4.829425048828125,6.875637464880943,6.41481911175251,-0.6405157257176936
1761915135241479200,4.839479248046875,6.798768160212039,6.212139069113135,-0.5743893488593399
1761915135251533000,4.849532958984375,6.5837967912763355,6.023195875403284,-0.45757337985783814
1761915135261587200,4.859587158203125,6.4043228521794076,5.9074476817637676,-0.36814167686626315
1761915135271642000,4.86964208984375,6.396308472549915,5.802381625658273,-0.41622707786038515
1761915135281696000,4.879696044921875,6.443996690919995,5.811511857575177,-0.6993693350940943
1761915135291750100,4.889750244140625,6.422525448346137,5.713220410171151,-0.99077965445742
1761915135301804000,4.899803955078125,6.189495275628566,5.581706492123008,-1.1779112687006592
1761915135311858200,4.909858154296875,5.730238764989376,5.341196192783117,-1.318557172231376
1761915135321913000,4.9199130859375,5.363237928721309,5.1161044118493795,-1.5541826221391557
1761915135331967200,4.92996728515625,4.842257075574993,5.02311340894103,-1.7577523070946335
1761915135342020900,4.940020751953125,3.996476697552204,4.803742928263545,-1.8085794080123305
1761915135352075000,4.950074951171875,3.173696671366691,4.355906221783161,-1.518769655713439
1761915135362130200,4.960130126953125,2.2850299222975967,3.81237042247951,-1.2289511355862022
1761915135372184000,4.97018408203125,1.6726596562206744,2.460179568454623,-0.6731959061786532
1761915135382238200,4.98023828125,0.9657517423152923,0.9750485629707575,-0.3401619291812181
1761915135392292000,4.9902919921875,0.21675766783058642,0.03870177883803844,-0.3321247531980276
1761915135402346200,5.00034619140625,0.11170856285989283,-1.9888316380053757,0.08815408427119255
1761915135412401200,5.010401123046875,-1.1299509553909302,-4.784658288565278,1.0396224496901034
1761915135422455000,5.020455078125,-3.4851726042896507,-4.886155254012346,1.1349033171012997
1761915135432509200,5.03050927734375,-4.58681458004117,-3.3247511561870575,0.5537867058135568
1761915135442563000,5.04056298828125,-4.9706893942207095,-4.9770069068044425,2.1282699193120003
1761915135452618200,5.0506181640625,-6.062946286511421,-7.415725754079222,4.652480061389506
1761915135462672000,5.060671875,-6.890215440809726,-9.363312358504533,6.813184223577379
1761915135472726000,5.07072607421875,-8.181003439366817,-9.50468365370035,6.7238570038735865
1761915135482780000,5.08077978515625,-9.146199885886906,-8.818720912668109,5.023644154816866
1761915135492834000,5.090833984375,-10.766219838809967,-9.43211993727088,3.4163960051834583
1761915135502889200,5.10088916015625,-12.118395495265721,-9.860222600233554,1.8889136123128234
1761915135512943000,5.110943115234375,-12.602079175674914,-9.448564876115322,0.40774654202386734
1761915135522997200,5.120997314453125,-11.730075392115115,-8.959946077391505,-1.1041717864900826
1761915135533051100,5.131051025390625,-10.564840357375145,-8.60937147526741,-2.54474468832314
1761915135543106000,5.14110595703125,-8.755673797124624,-8.91023249067366,-3.101845779381692
1761915135553160200,5.15116015625,-5.637547621810436,-8.239898111405969,-3.0214094298809764
1761915135563213600,5.161213623046875,-1.5947697763323783,-6.404400593590736,-2.557645086428523
1761915135573267700,5.171267822265625,1.6225129387825727,-4.307658031442761,-2.12043674146831
1761915135583322600,5.181322509765625,2.9905858370721337,-2.1601450670003888,-1.874319708162546
1761915135593376500,5.19137646484375,3.7608115001559255,-0.21821137377023694,-1.5183295107305048
1761915135603430400,5.201430419921875,4.41299647474885,1.8115964177459478,-1.4789374115407465
1761915135613484500,5.211484619140625,3.923497386059165,3.1424872941106554,-1.4999221857719123
1761915135623538400,5.221538330078125,3.1936908271253106,3.6152579508394003,-1.2510961857683955
1761915135633593600,5.231593505859375,2.8489544296354055,4.026010250550509,-1.0082923686638474
1761915135643647700,5.241647705078125,2.64633225466311,4.258780895549059,-0.826184573931992
1761915135653701600,5.25170166015625,2.8480554349690674,4.5273032374083995,-0.5952785537615418
1761915135663755800,5.261755859375,3.308022724226117,4.75196013405621,-0.41040801631808277
1761915135673810400,5.271810546875,3.8898224954724308,5.02949171180129,-0.3473703992553055
1761915135683864600,5.281864501953125,4.544247942468524,5.048567583671212,-0.2925456070035696
1761915135693918700,5.291918701171875,5.162375164636969,5.098550050458312,-0.4567125252448022
1761915135703972600,5.30197265625,5.703482860010862,5.330451511406898,-0.5971424479372799
1761915135714027500,5.312027587890625,6.239324597680568,5.333890253683925,-0.6273790346384048
1761915135724081400,5.322081298828125,6.593212854397296,5.154961088988185,-0.7399564892873167
1761915135734135600,5.332135498046875,6.882514949434995,4.897088735958934,-0.8303802720561623
1761915135744189400,5.342189453125,6.916397929814457,4.650350940406322,-0.842845639745146
1761915135754243600,5.35224365234375,6.475493652945756,4.326526982563734,-0.7312734166160225
1761915135764298800,5.362298828125,6.0672600580573075,4.037696012169122,-0.48857569023445246
1761915135774352600,5.3723525390625,5.791536406517029,3.813403857180476,-0.2860898549929261
1761915135784406800,5.38240673828125,5.288868624174595,3.6114246562868355,-0.19232202249318361
1761915135794460400,5.39246044921875,4.610687623059749,3.474140338143706,-0.255122615929693
1761915135804515600,5.402515625,4.248244303965568,3.312133082154393,-0.48455900193899865
1761915135814569700,5.41256982421875,3.6250785031080244,3.393747535523772,-0.7933569478243588
1761915135824623600,5.42262353515625,2.7678338972628116,3.3074563225150104,-1.062082557170838
1761915135834677800,5.432677734375,1.8635154055535792,3.1813539081215856,-1.346869220610708
1761915135844731600,5.442731689453125,0.8636959739416837,2.927234770146012,-1.4311189909197388
1761915135854786600,5.45278662109375,-0.2205927159488201,2.5152345162004233,-1.453477391591668
1761915135864840400,5.46284033203125,-1.2056605686306954,1.7925854278057813,-1.3064043776229024
1761915135874894600,5.47289453125,-2.0152274774998427,1.1170832905113697,-1.146755813588947
1761915135884948500,5.482948486328125,-2.373707153660059,0.38859775104820726,-1.260172349410504
1761915135895003600,5.493003662109375,-2.1121645876854656,-0.7978969293415545,-1.5416772147007285
1761915135905057800,5.503057861328125,-2.215054468795657,-1.9443939458638428,-1.7535554399266837
1761915135915111400,5.513111328125,-3.655096040230989,-2.117369170591235,-2.2805548227101564
1761915135925165600,5.52316552734375,-5.167758026719093,-2.791147552832961,-2.244746281095594
1761915135935220500,5.533220458984375,-6.0255357165277,-5.222749846100807,-0.8114049379512667
1761915135945274600,5.543274658203125,-7.326960844433307,-6.22906390042901,0.41086686600148675
1761915135955328800,5.553328857421875,-7.122184121775627,-6.650172174459695,1.7822012503050266
1761915135965382700,5.563382568359375,-5.975834989291429,-7.975183929657936,2.989582505248487
1761915135975436800,5.573436767578125,-5.708064342582225,-8.587838857895136,2.8645868830531835
1761915135985491500,5.583491455078125,-6.18682284154892,-8.524167472973465,1.7444227237917482
1761915135995545600,5.593545654296875,-7.00835608254373,-8.993537381348013,1.0344356947019695
1761915136005599500,5.603599609375,-7.134755434057116,-10.104456888532638,1.3541397961355746
1761915136015653600,5.613653564453125,-6.372490959110856,-11.408967122972012,2.1945165615491566
1761915136025708800,5.623708740234375,-5.817179381817579,-12.275593305146694,3.0285584248527884
1761915136035762400,5.633762451171875,-5.458259560674429,-12.599762130904198,3.586434591937065
1761915136045816600,5.643816650390625,-5.79500203680098,-12.34430502232313,3.699640115356445
1761915136055870500,5.653870361328125,-6.8763710398525,-11.491669956099987,3.6990921260848637
1761915136065925600,5.663925537109375,-7.583902638614178,-9.999275681614876,3.6950142091214655
1761915136075979800,5.673979736328125,-7.354090258899331,-7.670287959647178,3.473096089787781
1761915136086033700,5.68403369140625,-6.072564009684324,-4.668189963957667,3.0971891857475042
1761915136096087800,5.694087890625,-3.875242181456089,-1.7308546555578708,2.472463295966387
1761915136106141400,5.704141357421875,-1.5727274558722972,0.12748539318442345,1.7787378119781612
1761915136116196600,5.714196533203125,0.1662304266422987,1.243780163666606,1.2318896732561289
1761915136126250500,5.72425048828125,1.7263497453540562,2.431326398935914,0.41079774628803134
1761915136136304600,5.7343046875,2.0277835922122,3.9817958457708356,-0.7686861785568296
1761915136146358500,5.744358642578125,1.9724574263095855,5.735130628684162,-1.8455396038800478
1761915136156413400,5.754413330078125,2.6199235556870697,6.728171944463253,-2.373642417860776
1761915136166467600,5.764467529296875,3.1890859636783597,7.065262211114168,-2.4688231858983634
1761915136176521500,5.774521484375,4.060831388562917,7.1579065925419325,-2.0941580986127257
1761915136186575600,5.78457568359375,4.7804129060804845,7.218786885440349,-1.386739166445285
1761915136196629500,5.79462939453125,5.155891647836565,7.5683111017286775,-0.700542032135278
1761915136206684700,5.8046845703125,5.3155228223443025,8.09541189906001,-0.1652704955689609
1761915136216738800,5.81473876953125,5.191261067381501,8.653316999977827,0.16816227148771284
1761915136226792400,5.82479248046875,5.18587294460237,9.162031076747178,0.4030982778266072
1761915136236846600,5.8348466796875,5.26013703520894,9.381174178409577,0.6239294787064195
1761915136246901500,5.844901611328125,5.643354846784472,9.215768512153625,0.7491245689965784
1761915136256955600,5.85495556640625,6.22082097274065,8.751275854426622,0.8480988840982318
1761915136267009500,5.865009521484375,6.662126231625676,8.187501569214463,0.990384225399047
1761915136277063700,5.875063720703125,6.953192998248339,7.7361039553821085,0.9335188672304153
1761915136287118600,5.88511865234375,7.20220575299561,7.2964271744817495,0.6922199017308652
1761915136297172500,5.89517236328125,7.437125684982537,7.0005988925457,0.28268764533400537
1761915136307226600,5.9052265625,7.690909891915321,6.806553407260775,-0.18793664701581
1761915136317280500,5.915280517578125,7.766566313663125,6.388405736601352,-0.618714812798053
1761915136327334700,5.925334716796875,7.685327707868814,6.1049763329893345,-0.9020318420767783
1761915136337389800,5.935389892578125,7.103256133943796,5.801963107985258,-0.914024477687478
1761915136347443500,5.945443359375,6.004743103867769,5.109333894801139,-0.9359671371653675
1761915136357497600,5.95549755859375,4.856815177759528,4.686877713292837,-0.9701944009378551
1761915136367551500,5.965551513671875,3.8917251142233606,4.32623472161889,-0.8056237242013216
1761915136377606700,5.975606689453125,3.3716537771373987,3.378809494110942,-0.4840820320770144
1761915136387660500,5.98566064453125,3.305366656759381,1.775188887324929,-0.06621931583881378
1761915136397714700,5.995714599609375,2.83299990465641,0.15535188975334166,0.19010668453127144
1761915136407768600,6.0057685546875,1.6717793662548064,-1.120872161400318,0.35620822409689423
1761915136417823500,6.015823486328125,0.3235451409012079,-2.364237899047136,0.39486441022753715
1761915136427877600,6.025877685546875,-1.0359189189970492,-3.759968035069108,0.3948709860987961
1761915136437931500,6.035931640625,-2.754568757498264,-4.758737080845236,-0.04805836685672402
1761915136447985700,6.045985595703125,-4.756581364116072,-5.559858817452192,-0.5233773928940296
1761915136458039600,6.05603955078125,-6.622894291433692,-7.43605776349008,0.14782529364079236
1761915136468094500,6.066094482421875,-8.075003901803493,-9.30533830844164,1.4642602130211888
1761915136478148600,6.076148681640625,-8.455429452311993,-10.737831948715447,2.7728111011534926
1761915136488202500,6.086202392578125,-8.931154282671212,-11.255649369394778,3.203871444877982
1761915136498256600,6.096256591796875,-10.091391655254363,-9.849942029237747,2.1277698608353734
1761915136508311600,6.1063115234375,-10.923711078679561,-8.176528339779377,0.7938165281601249
1761915136518365700,6.11636572265625,-10.95163485839367,-7.363163792192935,-0.022707798631489275
1761915136528419600,6.126419677734375,-10.923575469601154,-7.007074226039648,-0.38391456166803833
1761915136538473700,6.1364736328125,-10.312225194221734,-7.035262209647893,-0.4892484749294817
1761915136548527400,6.14652734375,-8.48605430767834,-6.907788506901264,-0.7186081424407661
1761915136558582500,6.15658251953125,-6.141843882137537,-6.096719376775622,-0.8638592016793787
1761915136568637200,6.16663720703125,-3.5852000817060468,-4.495227598711848,-0.9811536018475889
1761915136578691000,6.176691162109375,-1.2611159138709307,-2.4754309136003254,-1.1576324507817626
1761915136588745200,6.1867451171875,-0.004607786056399345,-0.7529425198495387,-1.2497932864762842
1761915136598800000,6.1967998046875,0.3059557081967592,-0.009503741404414177,-1.0393738817565144
1761915136608854000,6.20685400390625,0.8584294317156076,0.0620312164992094,-0.8221839599885046
1761915136618908200,6.216908203125,2.180973335495591,0.6477110440492629,-1.310369043470174
1761915136628962000,6.226962158203125,3.479219248843193,1.8322107512295245,-2.378563361519575
1761915136639017200,6.237017333984375,4.011122478020191,2.6983050184845925,-3.1439556130975483
1761915136649071000,6.247071044921875,4.265149261537194,3.560081422540545,-3.6660742381021376
1761915136659125000,6.257125,4.321315385395288,4.443852216261625,-3.784346689522266
1761915136669179000,6.267178955078125,4.021950161504745,5.0549762816697354,-3.3426106380045413
1761915136679234000,6.277234130859375,3.85567589572072,5.3960249305576085,-2.601047005781531
1761915136689288200,6.2872880859375,3.8535400527358052,5.751040729999542,-1.7186201740153133
1761915136699342000,6.297342041015625,4.195660714769363,5.778062592437863,-0.684899568780139
1761915136709396200,6.307396240234375,4.747904721185565,5.610531020069122,0.19610749584864823
1761915136719450000,6.3174501953125,5.229825483575463,5.646988819372654,0.6818595434971153
1761915136729505000,6.327505126953125,5.500199006259441,5.748269511720538,1.1096924496077
1761915136739559000,6.337558837890625,5.7066872090101235,5.67933509170413,1.4821324081897735
1761915136749613000,6.347613037109375,5.801937389022112,5.619466021674871,1.7114314315550028
1761915136759667200,6.357667236328125,5.94284223574996,5.514235130396485,1.7471908733308315
1761915136769722000,6.36772216796875,6.1959331997215745,5.358327360326052,1.6258344844207167
1761915136779776000,6.37777587890625,5.998505086261034,5.203942269778251,1.4123212053388357
1761915136789830000,6.387829833984375,5.552188136693835,4.827404374358058,1.2699512544944882
1761915136799884000,6.397884033203125,4.925823832055926,4.5808442734599115,1.0477255305163562
1761915136809939200,6.407939208984375,4.087200924572349,4.319496937796473,0.7679769343089312
1761915136819993000,6.4179931640625,3.385121745997667,3.8173254145383835,0.7273405341465026
1761915136830047200,6.428047119140625,2.7220634952127933,3.3209792364329096,0.6797977155964822
1761915136840101000,6.43810107421875,1.9917975020736454,2.590254393610358,0.43121834729779507
1761915136850155000,6.448155029296875,1.4434464114427565,1.5664397539049386,0.1369106990577653
1761915136860210000,6.4582099609375,0.7698813796907663,0.09092588707208633,-0.17681977132633328
1761915136870264000,6.46826416015625,-0.2576233467042446,-1.4401181438028812,-0.46534503677263855
1761915136880318200,6.478318115234375,-1.8454478339433669,-2.3898247602462765,-0.9859449277773499
1761915136890372000,6.4883720703125,-3.5519998228937384,-3.7426392991274593,-1.3094175879642367
1761915136900427000,6.498427001953125,-5.524672937780618,-5.064435599410533,-1.70105339153409
1761915136910481000,6.50848095703125,-8.008806213274598,-5.563748810628057,-2.320408694192767
1761915136920535000,6.51853515625,-8.795845063993335,-6.358679291379452,-2.627163443812728
1761915136930589000,6.5285888671875,-8.339065757122635,-7.609759548926353,-2.122600933764875
1761915136940644000,6.53864404296875,-8.385258768498897,-9.243681185951829,-0.510541584457457
1761915136950698200,6.5486982421875,-9.157428551387786,-10.554157635319232,1.4511641462132334
1761915136960752000,6.558752197265625,-9.41986485133171,-11.160713662159441,2.8450372561916706
1761915136970806000,6.568805908203125,-9.7569112788409,-11.103133579850196,3.2416239601671695
1761915136980860000,6.57885986328125,-11.167005455780028,-10.396702635806799,2.9558447785586117
1761915136990915000,6.5889150390625,-12.46105625552535,-10.234700055992603,3.0784242795228955
1761915137000969200,6.59896923828125,-12.177952430605888,-10.193020138126611,3.1059988074079152
1761915137011023000,6.609023193359375,-10.599871923267841,-9.344676631617546,2.63708102671504
1761915137021077200,6.6190771484375,-8.115450478482247,-8.692802622669936,2.0245051550634203
1761915137031132000,6.6291318359375,-6.003873335295915,-8.06170953594446,1.5378753381997345
1761915137041186000,6.63918603515625,-4.529674642714858,-6.546653347796202,1.4522897892422972
1761915137051240000,6.649239990234375,-3.6362510545074938,-4.147707707983255,1.657225647984445
1761915137061294000,6.659294189453125,-2.5451275501608848,-2.0298551377892493,1.9963865834295749
1761915137071349200,6.669349365234375,-0.7354325821220874,-0.6165016667932272,2.2017792460285124
1761915137081403100,6.679403076171875,1.3039753969103096,0.3368915292084217,2.004875887094438
1761915137091457000,6.68945703125,2.3798767822057005,1.2541758854746818,1.323761609006673
1761915137101511000,6.699510986328125,1.664920586401224,2.7167069366157053,0.13437007466424256
1761915137111565000,6.70956494140625,1.4815619148254393,4.248447717583179,-1.0307752724982797
1761915137121620000,6.719619873046875,2.8736960721820592,4.933420278534293,-1.6547801545284688
1761915137131674000,6.729674072265625,4.498675693339109,5.024010650041699,-1.7730153426781297
1761915137141728300,6.739728271484375,5.343981439587473,5.535373780015111,-1.7988713762074708
1761915137151782100,6.7497822265625,6.1313043679445975,6.121581430831551,-1.6588319141373038
1761915137161837000,6.759837158203125,6.299550226062536,6.432793744382262,-1.227153730775416
1761915137171891000,6.769890869140625,6.1978293887317175,6.306801220104098,-0.40998588191587476
1761915137181945000,6.779945068359375,6.27386282709837,6.243429694911837,0.2849038966113701
1761915137191999000,6.7899990234375,6.368955186200141,6.065603523021936,0.6328185953438281
1761915137202054100,6.80005419921875,6.46668432354629,5.523567606887221,0.8205486869368702
1761915137212108000,6.81010791015625,6.7399009607017035,5.088270648506284,0.7646431137111037
1761915137222162000,6.820161865234375,6.954165642672777,4.784204699578881,0.5171197938039899
1761915137232216000,6.830216064453125,6.912039150083064,4.695816222029924,0.2552819712098688
1761915137242270000,6.84027001953125,7.003237424355745,4.654887999314069,-0.14716858329772947
1761915137252325000,6.8503251953125,7.060887649291753,4.814239772358537,-0.6507984886705875
1761915137262379300,6.860379150390625,7.009370228022337,5.069543151682615,-1.1594159731976688
1761915137272433200,6.87043310546875,7.204881109684705,5.150719798156619,-1.5186197258487344
1761915137282487000,6.880487060546875,7.204772973135113,4.974095987793803,-1.6785452071279285
1761915137292542000,6.8905419921875,6.90934333512783,4.764609187749028,-1.646629289037734
1761915137302596000,6.90059619140625,6.58227761888504,4.671840887680649,-1.5732793906666338
1761915137312650000,6.91064990234375,6.289698694133758,4.485198956650495,-1.4077050898455084
1761915137322704100,6.9207041015625,5.745725087934732,4.397058900904655,-1.1670691182993351
1761915137332759000,6.930759033203125,5.169632588419318,4.514083105829358,-0.9782336227476596
1761915137342813000,6.94081298828125,4.616953697717189,4.872193364155292,-0.8058968420542776
1761915137352867000,6.9508671875,4.405037624698877,5.024075531971454,-0.8207298156574367
1761915137362921000,6.9609208984375,3.7912721048712728,4.442539380097389,-0.8349277062274515
1761915137372975000,6.97097509765625,2.7348545877248047,2.240883322057128,-0.10295695499703288
1761915137383030000,6.981030029296875,2.203628819417953,-1.0837228727012873,1.442329243981093
1761915137393084200,6.991084228515625,1.3625608568698167,-4.668316805207729,2.8813641225919127
1761915137403138000,7.001137939453125,-0.6851438258647918,-5.495682405617833,2.6273484449908135
1761915137413192000,7.01119189453125,-3.4515941598147153,-2.8142332448661325,-0.1403806767232716
1761915137423247000,7.0212470703125,-4.382354668247699,-2.9454683459728956,-1.836940556230396
1761915137433301000,7.031301025390625,-6.474796318331361,-7.177163666197657,-0.03937500192448497
1761915137443355100,7.041355224609375,-10.436992560619116,-8.611288707065581,2.4365016096167267
1761915137453409000,7.051408935546875,-11.469645171296596,-8.90924640224576,4.331313632318377
1761915137463464000,7.0614638671875,-10.77621048694849,-9.861129778206347,4.993939336904883
1761915137473518000,7.07151806640625,-10.165644639945029,-10.069619383907318,4.16920291595459
1761915137483572000,7.081572021484375,-9.62645417636931,-9.793860661053657,2.8011189117491244
1761915137493626000,7.091626220703125,-8.996450053924322,-9.689669049695134,1.6335362909696995
1761915137503680000,7.101679931640625,-7.969515820893645,-9.357205858322978,0.845735369837284
1761915137513735200,7.111735107421875,-7.233532034629583,-9.168502903109788,0.2029021609574556
1761915137523789000,7.1217890625,-7.068712643828988,-8.299151679885387,-0.43864553815647955
1761915137533843000,7.131843017578125,-7.01863256188631,-5.688322700279951,-1.2039936583317816
1761915137543897000,7.14189697265625,-6.823835965973139,-2.309121576502919,-1.468955969621986
1761915137553952000,7.151951904296875,-6.483292343997955,0.3234288210451603,-0.8666321735240519
1761915137564005400,7.16200537109375,-5.57584607565701,1.5973369964718818,-0.11141820161119102
1761915137574059500,7.1720595703125,-3.7670606236785646,1.311009533330798,0.25872612031437453
1761915137584113400,7.182113525390625,-1.867184449455142,0.062205404022336,-0.031108145371265706
1761915137594168300,7.192168212890625,-0.20325345861315727,-0.154970781481266,-1.1784550932537763
1761915137604222500,7.202222412109375,1.2805273013055323,1.2236930689275265,-2.9186554501101374
1761915137614276400,7.2122763671875,2.001042884802818,2.6117735669791697,-4.043506744274497
1761915137624330500,7.22233056640625,2.5529145507752893,3.6424124997466802,-4.358953626655042
1761915137634384400,7.23238427734375,3.2458149821162223,4.552957903146743,-4.039606521965563
1761915137644439600,7.242439453125,3.570753623202443,5.183800814503431,-3.122238579069078
1761915137654493400,7.252493408203125,3.9796640944391486,5.035118904033303,-1.6833794954165815
1761915137664547300,7.26254736328125,4.270217650842667,4.640604037895798,-0.029984840429760514
1761915137674601200,7.272601318359375,4.849342065399885,4.605304176455736,1.281946666584164
1761915137684656400,7.282656494140625,5.320002598106861,5.119336817899346,2.0147337026335297
1761915137694710500,7.29271044921875,5.839864676356315,5.493795568957925,2.47657891459167
1761915137704764400,7.302764404296875,6.4461600064337246,5.840526355135441,2.654022809165716
1761915137714818600,7.312818603515625,7.016882503348588,6.176909934821724,2.4956118241026997
1761915137724873500,7.32287353515625,7.431496154662966,6.21582389510572,2.3175705481573936
1761915137734927400,7.33292724609375,7.5890335717618465,5.935093813580274,2.269039887613803
1761915137744981500,7.3429814453125,7.556235464009642,5.758910148200393,2.1401919739045203
1761915137755035400,7.353035400390625,7.687322096556425,5.446249389407038,1.967314802724123
1761915137765090600,7.363090576171875,7.9035250531136985,5.229088985994458,1.7412402943633496
1761915137775144400,7.37314453125,7.666600795567035,5.3924388887643815,1.4451786420628427
1761915137785198300,7.3831982421875,6.845629280108213,5.509367816621065,1.409883164536953
1761915137795252200,7.393252197265625,5.82987811987102,5.271266331988572,1.6738158405184744
1761915137805306400,7.403306396484375,4.882141342195868,5.105123583629727,1.8232117444768547
1761915137815361500,7.413361572265625,4.137676143312454,5.099391177457571,1.917322252934426
1761915137825415400,7.42341552734375,3.7950697435885665,4.9599365295380355,1.6331275640383363
1761915137835469600,7.433469482421875,3.8645150357365607,4.465653713703155,1.3179995383486152
1761915137845523500,7.4435234375,4.111164568483829,3.0448896741896867,1.5411726261794567
1761915137855578400,7.453578369140625,4.081159890842438,0.6946610112726688,2.475240943986177
1761915137865632500,7.463632568359375,3.4454870751112696,-1.7266829228311775,3.6087507609024643
1761915137875686400,7.473686279296875,1.9152344868749378,-3.728080027899146,4.316647978106141
1761915137885740500,7.483740478515625,-0.7507400413691997,-4.390437436938286,3.524615264622867
1761915137895795500,7.49379541015625,-4.048949227589368,-2.9109166725516316,1.03961017473042
1761915137905849300,7.503849365234375,-5.461717592173814,-2.890513351470232,-0.4620432918135077
1761915137915903200,7.5139033203125,-5.852293949818611,-5.5312423792988055,0.6641155778180807
1761915137925957400,7.523957275390625,-7.771624766096473,-7.387726571041346,2.9431103846699
1761915137936012500,7.534012451171875,-8.862163164031506,-8.587964530101418,5.512676210516691
1761915137946066400,7.54406640625,-10.061171873557567,-8.80955970109105,6.624675914153456
1761915137956120600,7.55412060546875,-10.901805536341666,-7.936820004472136,6.032725920292735
1761915137966174500,7.564174560546875,-10.810517245697975,-7.136524781817197,4.702938036733865
1761915137976228400,7.574228271484375,-10.579031379812955,-7.059784656485915,3.7597730970188974
1761915137986283500,7.584283447265625,-10.181450111842155,-6.909087314540147,3.354021674335003
1761915137996337400,7.59433740234375,-9.208981043970585,-6.472917664977908,3.1165023735046384
1761915138006391600,7.6043916015625,-7.888786918187141,-6.053793842762708,2.9684304116263984
1761915138016445400,7.614445556640625,-6.170934952065348,-5.83336537746489,3.1774493018984793
1761915138026500400,7.624500244140625,-4.251553282383084,-5.397054858127236,3.5720857485890387
1761915138036554200,7.63455419921875,-2.0182295819252727,-4.209487580069899,3.829524970898032
1761915138046608400,7.6446083984375,-0.42781566271483895,-2.2604642208397387,3.666719550268352
1761915138056662300,7.654662353515625,-0.06855038913488387,-0.2489519644707441,3.3263544997304675
1761915138066717400,7.664717529296875,0.3252186270713806,0.7167483399182558,3.2842426201879977
1761915138076771600,7.674771484375,0.6675766049921512,1.6978811912387608,3.165184279087186
1761915138086825500,7.684825439453125,1.06243809261024,2.8542005135953423,2.9433658207356928
1761915138096879400,7.69487939453125,1.4854875638365745,3.52116863130033,2.737979734008014
1761915138106933200,7.704933349609375,2.332425295200944,4.144608572924137,2.3853368011772633
1761915138116988400,7.714988525390625,3.4195167675524947,4.799596914499998,1.8987002623118459
1761915138127042600,7.72504248046875,4.200020079022646,5.241810520401597,1.5686112527251244
1761915138137096400,7.735096435546875,4.428422007417678,5.382853314295411,1.5804817232608794
1761915138147150600,7.745150634765625,4.401944919380545,5.777896588221192,1.3610463606536387
1761915138157205200,7.755205322265625,4.378954504415392,6.211504862862825,0.9852297652453184
1761915138167259400,7.76525927734375,4.42250781493783,6.469849509578943,0.7612521560985595
1761915138177313300,7.775313232421875,4.718436050117016,6.798250858339667,0.659043608316034
1761915138187367400,7.785367431640625,5.463284110838175,6.967648224580287,0.6513347875043749
1761915138197422600,7.795422607421875,6.00772533454895,6.978625545668602,0.6283382350593805
1761915138207476500,7.8054765625,6.284886909937859,6.938981517544389,0.5519576637554914
1761915138217530400,7.8155302734375,6.577077127632498,6.675297263365984,0.2980230885665864
1761915138227584300,7.825584228515625,6.7703434452384705,6.261827521389723,0.09326718950122594
1761915138237639400,7.835639404296875,6.474882243049144,6.011215514752268,0.05107669176459312
1761915138247693600,7.845693603515625,5.803383496177196,5.765879987213015,-0.22378727420642971
1761915138257747500,7.85574755859375,4.841337622642516,5.207333081260323,-0.6997429907120764
1761915138267801600,7.865801513671875,3.521145834946632,4.057117920997738,-0.8681634747445582
1761915138277855500,7.87585546875,2.0429419983774424,2.858580920636654,-0.8522108494617044
1761915138287910400,7.885910400390625,1.1049205590307711,1.4541338096737861,-0.9154207543514669
1761915138297964300,7.89596435546875,1.0044523521095514,0.2702081029891968,-1.415027687818557
1761915138308018400,7.906018310546875,1.2716846541583537,-0.8878449112921952,-2.053903975766152
1761915138318072300,7.916072265625,0.3973521353900432,-3.058576838758588,-1.8125224465496836
1761915138328127500,7.92612744140625,-2.3686294120043514,-4.594343806502223,-1.4258967262268065
1761915138338181400,7.936181396484375,-5.191140071350336,-4.576242917144298,-1.6870130296133459
1761915138348235300,7.9462353515625,-6.947834101563692,-5.709951763764024,-1.531927974102646
1761915138358289400,7.956289306640625,-10.43140803848505,-6.674888098043203,-1.4697303149953485
1761915138368344600,7.966344482421875,-12.58716685322523,-5.457423694372177,-2.1105869631052014
1761915138378398500,7.9763984375,-11.57103867636919,-4.822070027592778,-2.5015248475387692
1761915138388452600,7.98645263671875,-9.714789462426305,-5.631697142216563,-2.0573295663006603
1761915138398506500,7.996506591796875,-8.87217076330483,-6.584502309197187,-1.3002913015700877
1761915138408560600,8.006560546875,-9.073972854065895,-7.242047349518537,-0.8392189736805856
1761915138418615300,8.016615234375,-8.421673313182591,-7.732278844135999,-0.8947355475887656
1761915138428669400,8.02666943359375,-7.649495346987247,-8.032606775578856,-0.9049325319543481
1761915138438723300,8.036723388671875,-6.615416502898931,-8.289165123400092,-0.4496794117376208
1761915138448777500,8.046777587890626,-5.825391914367676,-7.90665516783297,0.09283595847710967
1761915138458832400,8.056832275390626,-5.290827357026934,-6.807116886362433,0.39072029616013165
1761915138468886300,8.06688623046875,-4.4052275943130255,-5.599013600754738,0.7450599499061703
1761915138478940400,8.0769404296875,-3.4648493627071377,-4.347109167343378,1.057380224698782
1761915138488994300,8.086994384765624,-2.5024480998635292,-2.732881241825223,0.6550754353374243
1761915138499049500,8.097049560546875,-2.197429964777827,-0.6975070483535528,-0.223678553134948
1761915138509103600,8.107103515625,-2.0634423500925303,0.7027654072731733,-0.7550045669458806
1761915138519157500,8.117157470703125,-1.2977484852194785,0.9830676187753676,-0.9818160112790763
1761915138529211600,8.127211669921875,-0.30941373969614505,0.8786030356943607,-1.321949006626755
1761915138539266300,8.137266357421876,0.9510966094970703,0.738949065810442,-1.6497198023989796
1761915138549320400,8.147320556640626,2.08103002923131,1.0647697504281997,-1.9377982008606194
1761915138559374300,8.157374267578126,2.8033143759667873,1.4977566783010958,-1.9012424941405652
1761915138569429800,8.1674296875,3.180467188414931,1.9657289948374033,-1.614329486196488
1761915138579483400,8.1774833984375,3.6937867131531235,2.5924305686056615,-1.5194161369234322
1761915138589538600,8.18753857421875,4.176952507168054,3.3920278721243142,-1.5910744289457797
1761915138599592400,8.197592529296875,4.46141066930592,4.124709109711647,-1.5109626352243124
1761915138609646600,8.207646484375,4.666597141808271,4.871774261960387,-1.2963007706291974
1761915138619700700,8.21770068359375,4.599890334713459,5.447745765444636,-0.9408382503330707
1761915138629755400,8.22775537109375,4.766832124495506,5.591945562064647,-0.4292166155539453
1761915138639809500,8.2378095703125,5.314477697205543,5.687097542399168,-0.12564502601474523
1761915138649863400,8.247863525390626,5.902836388576031,5.60635753377676,0.1416397368736565
1761915138659917600,8.25791748046875,6.327495048564672,5.542554046908021,0.2788812387883663
1761915138669972700,8.26797265625,6.6550564393699165,5.754370751205086,0.14940905570089816
1761915138680026600,8.278026611328125,6.9408040567964315,5.963513267856836,-0.059694444114714855
1761915138690080800,8.288080810546875,7.057727723956107,5.931889464581013,-0.19114640284255147
1761915138700134400,8.298134521484375,6.912875016385317,5.719561303630471,-0.20731354765892027
1761915138710189600,8.308189453125,6.5012406731426715,5.161490198495984,-0.15081877636834978
1761915138720243500,8.318243408203125,5.928727201157808,4.513474034020304,-0.0842874719709158
1761915138730297600,8.328297607421876,5.068544203773141,4.068363537633418,-0.2371026828534901
1761915138740351500,8.3383515625,4.4692911934226744,3.4305940418839453,-0.45807299994304773
1761915138750405600,8.348405517578126,4.103787317714095,2.013266406559944,-0.18641352910175918
1761915138760460500,8.35846044921875,4.325374305397272,-0.026539047357439994,0.7634060461968183
1761915138770514400,8.368514404296874,4.72116927447319,-2.17103470980525,1.986351657757908
1761915138780568600,8.378568603515625,3.62184142088294,-3.0808459537118673,2.330643672481179
1761915138790622500,8.38862255859375,-0.6439303564667701,-2.1093781718373297,1.1516380326725542
1761915138800677600,8.398677734375,-5.2858150818228715,-1.1091700331687926,-0.626600013089925
1761915138810731800,8.408731689453125,-6.473146797558665,-3.9005619161516427,-0.09267638400122523
1761915138820785400,8.418785400390625,-8.203401149135827,-6.807706668949127,1.543368967179954
1761915138830839600,8.428839599609375,-10.100304445028305,-7.158681084045767,3.1978426861077547
1761915138840894500,8.43889453125,-10.230166504216193,-7.377861010587215,4.516197906026244
1761915138850948600,8.448948486328124,-9.614787703973054,-7.833032882261276,4.7679818790525195
1761915138861002500,8.45900244140625,-8.962741845589875,-6.979241631740331,4.278166564020514
1761915138871056600,8.469056640625,-8.14041657743454,-6.345564958262443,3.6147196061789986
1761915138881111600,8.479111572265625,-6.905707608973979,-5.7976516745269295,2.801718631207943
1761915138891165400,8.48916552734375,-4.816190906426311,-4.956967158338427,2.360610648460686
1761915138901219600,8.499219482421875,-3.3849557417809963,-5.019536719498038,2.777232716988027
1761915138911273500,8.5092734375,-3.1558874584317205,-5.288274165412783,3.5648961293458936
1761915138921327600,8.51932763671875,-2.6161305931448937,-5.197760950794816,3.966173913747072
1761915138931382800,8.5293828125,-1.7489754186600446,-4.207537030524016,3.530523319622874
1761915138941436400,8.5394365234375,-0.9136965609073638,-2.3660914179593324,2.6351494741305705
1761915138951490600,8.549490478515626,-0.09479366841614245,-0.7014058093577623,2.1873586526185274
1761915138961544400,8.55954443359375,-0.048636897397041315,0.4502753318041563,2.079398190245777
1761915138971599600,8.569599609375,0.23662732042670248,1.503957286506891,1.938596219370514
1761915138981653500,8.579653564453125,0.6745891141027212,2.6326106033027172,1.43831138664186
1761915138991708400,8.58970849609375,1.2453320692837238,3.5729853277772663,0.7689883763737976
1761915139001762600,8.599762451171875,2.2600661614328623,4.391206083223223,-0.026623583835735917
1761915139011816400,8.60981640625,3.0877941654145715,5.2845606978476045,-0.8168208255201578
1761915139021871600,8.61987158203125,3.21027137504816,5.649190713331103,-1.2741639037534593
1761915139031925500,8.629925537109376,3.284377644744515,5.661604204702377,-1.568733856191486
1761915139041979600,8.639979736328126,3.3550568626016375,6.1775920718669886,-2.036223357646912
1761915139052033500,8.650033447265624,3.404066684964299,6.803192990916967,-2.3579057734161615
1761915139062088400,8.66008837890625,3.563121520888805,7.057408575004339,-2.316038662414998
1761915139072142600,8.670142578125,3.544036881190538,7.283059743386507,-1.9444544438794253
1761915139082196500,8.680196533203125,3.449145597618818,7.222963878864049,-1.4070559782870113
1761915139092250600,8.690250732421875,3.3707436765551564,6.854238703021407,-0.8433278703041375
1761915139102304500,8.700304443359375,3.3525054245531556,6.565730973231792,-0.5197054263830184
1761915139112359400,8.710359375,3.496207793045044,6.219121183085441,-0.45109187235143033
1761915139122413600,8.72041357421875,3.645995618930459,5.886743916431069,-0.5375326864313333
1761915139132467500,8.730467529296876,3.6958664420366283,5.562032654359936,-0.7784857611026614
1761915139142521600,8.740521484375,3.4744659168362615,5.2962417832911015,-1.1580995568368584
1761915139152576500,8.750576416015624,3.0886691946834324,4.95918074273467,-1.5227121097289025
1761915139162630700,8.760630615234374,2.88257145255506,4.650793423476815,-1.7838529630348086
1761915139172684500,8.7706845703125,2.3112223481744527,4.353839352381229,-1.8030612291127441
1761915139182738400,8.780738525390625,1.6884359020233153,3.7887171596914526,-1.3760295563824474
1761915139192793600,8.790793701171875,1.2671493488162755,3.367777812486887,-0.9369542485065757
1761915139202847500,8.800847412109375,0.4607657461583614,2.8199405165970326,-0.7904826344970614
1761915139212901600,8.810901611328125,0.002235211706161499,2.0031845730066298,-0.8041082050718367
1761915139222955500,8.82095556640625,0.050073067680001256,1.0969973648160696,-1.3072697622805833
1761915139233010400,8.831010498046876,-0.09283668912947177,-0.25450024624764916,-2.0218854740843177
1761915139243064600,8.841064697265624,-1.1519845080226658,-1.9017478133141994,-2.50439543453902
1761915139253118500,8.851118408203124,-4.342416625612974,-3.1780811700612306,-2.6337290859386324
1761915139263172600,8.861172607421874,-7.735982374829053,-4.288644118893147,-2.1580710372053087
1761915139273226500,8.8712265625,-9.69264251254797,-5.625533943411708,-1.613533367382735
1761915139283281700,8.88128173828125,-10.006418539106845,-6.822308025753498,-1.3690226002298296
1761915139293335600,8.89133544921875,-9.309827436554432,-7.475998144212364,-1.5211197259709237
1761915139303389400,8.901389404296875,-8.231779686880111,-7.953338593074679,-1.546506096161902
1761915139313443600,8.911443603515625,-8.54676275114119,-7.880743312463164,-1.457984201491624
1761915139323498500,8.92149853515625,-9.918646732151508,-6.497557016193866,-1.250673868703097
1761915139333552600,8.931552734375,-10.404714092826843,-5.8461208141416305,-0.634406887448579
1761915139343606500,8.9416064453125,-9.986585711389779,-6.075075115722417,-0.07668574652923271
1761915139353660700,8.95166064453125,-9.335991220858693,-5.848279453480243,0.35524851221926507
1761915139363715600,8.961715576171875,-8.191766240921616,-5.34464078027904,0.39951676607802505
1761915139373769500,8.97176953125,-6.92890669825375,-4.966824535486102,0.224572013109643
1761915139383823600,8.98182373046875,-5.763405121532082,-4.785801028859615,0.08390009835483506
1761915139393877500,8.99187744140625,-4.538968540760875,-4.190357932186126,-0.07478577639311551
1761915139403932700,9.0019326171875,-3.1219945411801335,-3.172837424188852,-0.0352673108773306
1761915139413986600,9.011986572265625,-1.6762696634113787,-1.8013199384033678,0.1427071103768423
1761915139424040400,9.02204052734375,-0.27001696433126926,-0.4923591542959213,0.5275177075691521
1761915139434094600,9.032094482421876,0.9023001376241445,0.5618418558448552,0.673953446547687
1761915139444148500,9.0421484375,1.953977766767144,1.6521692413777112,0.3885508431665599
1761915139454203600,9.05220361328125,2.920509845805168,2.590912565258145,-0.01778305558040738
1761915139464257500,9.062257568359374,3.7314147252798078,3.6968946160405873,-0.3606905571427196
1761915139474311700,9.072311767578125,4.186951923134923,4.748086507493257,-0.3203996094170958
1761915139484365600,9.082365478515625,4.217137218040228,5.693094152465462,-0.01681910591907799
1761915139494420500,9.09242041015625,3.9091181475728747,6.391073494505882,0.39317258468307553
1761915139504474600,9.102474609375,3.866355110645294,6.770663763234019,0.7742178745251148
1761915139514528500,9.112528564453125,4.213330811494589,7.12663525596559,0.9340434025611728
1761915139524582700,9.122582763671875,4.738369415599108,7.277009357306361,0.9329786959391086
1761915139534637600,9.132637451171876,5.109529125112295,7.095698265910149,0.7911015701130032
1761915139544691500,9.14269140625,5.536477941864729,6.913195334380864,0.6032159226320684
1761915139554745300,9.152745361328124,5.84612315222919,6.848274241659045,0.35050285206213594
1761915139564802000,9.162802001953125,6.042941609358787,6.515974131894112,0.10798311259597539
1761915139574857200,9.172857177734375,6.070268592223525,6.275817468297481,-0.24665172470435498
1761915139584911000,9.1829111328125,6.162918818870186,6.1141118256032465,-0.7940652422241866
1761915139594965200,9.19296533203125,6.162821788236498,5.778650621458888,-1.5413655184030532
1761915139605019100,9.20301904296875,6.0724658100068565,5.384128156536817,-2.3563852858506142
1761915139615074000,9.213073974609374,5.802080596885085,4.760215921226144,-3.0539176147758957
1761915139625128200,9.223128173828124,4.815996845158934,3.996989323249459,-3.4352059195935722
1761915139635182000,9.23318212890625,3.2170132505238054,3.2856010490596295,-3.385345033359527
1761915139645236200,9.243236328125,2.1036288145303725,2.7181203105449674,-3.2389807521820067
1761915139655290000,9.2532900390625,2.025045691680908,1.6916390819787979,-2.803687885454297
1761915139665345300,9.26334521484375,2.4271640185594556,-0.2309802544504404,-2.107697671404481
1761915139675399200,9.273399169921875,2.1155191588103768,-2.102777750658989,-1.6918708449080586
1761915139685453000,9.283453125,0.3799181855082512,-2.8396868350744247,-1.7613704975917934
1761915139695507200,9.293507080078125,-1.6464789207816124,-3.1610686604619023,-1.7748519104555247
1761915139705562000,9.30356201171875,-2.8978543618828057,-4.44559526053667,-1.1729890098676086
1761915139715616300,9.3136162109375,-4.427032598885893,-5.37727989807725,-0.5573898448720574
1761915139725670100,9.323670166015624,-5.748200538137555,-5.4351890662103886,-0.10160159486532211
1761915139735724300,9.333724365234374,-6.300528131183982,-5.924824348500371,0.6861354672506451
1761915139745779200,9.343779296875,-6.517962675362825,-7.089982226350903,2.0332608545795083
1761915139755833000,9.3538330078125,-7.130422957810759,-7.660593079584837,2.9036586642473936
1761915139765887200,9.36388720703125,-8.052315100133418,-7.612751716479659,3.117406044346094
1761915139775941000,9.373941162109375,-8.929230621132254,-7.473547828450799,3.0782135593816635
1761915139785995300,9.383995361328125,-9.278719766107201,-7.121710074523091,2.7738135561943054
1761915139796050200,9.39405029296875,-9.165593737664818,-6.560479044052958,2.1794126620501277
1761915139806104000,9.40410400390625,-8.93056040843129,-6.10645926502347,1.4054779153153298
1761915139816158200,9.414158203125,-8.117986134439706,-5.228421461996436,0.6176219029948115
1761915139826212000,9.424212158203124,-6.6119993879318235,-4.453945155730843,0.08928805673718451
1761915139836267300,9.434267333984375,-4.8113165783882135,-3.563907118308544,-0.15187164642214773
1761915139846321200,9.444321044921875,-3.037934448224306,-2.3868115499049423,-0.09422112922519445
1761915139856375300,9.454375244140625,-1.2708236534148454,-1.0850953300982713,0.19816841043382882
1761915139866429200,9.46442919921875,0.3125789257287979,0.2662894682407379,0.42965982927680013
1761915139876484000,9.474484130859375,1.1369342384070158,1.8777356540858745,0.367009019574523
1761915139886538200,9.484538330078125,1.2674533001989126,2.948348869845271,0.28731092122048135
1761915139896592100,9.494592041015625,0.8463982176601886,3.3305040206253524,0.4027826360061765
1761915139906646300,9.504646240234376,0.8304775949507951,3.403881976047158,0.5275576011881232
1761915139916701200,9.514701171875,1.1453075144767761,3.6805975612342356,0.24557050533890723
1761915139926755000,9.524755126953124,1.914691466039419,3.983925259014964,-0.41631081062108277
1761915139936809000,9.53480908203125,2.781104297724366,4.387569188025593,-1.0078946015179158
1761915139946863000,9.544863037109375,3.6978678449869156,4.960087336185574,-1.3904238463073968
1761915139956917200,9.554917236328125,4.238086482566595,5.586263424775004,-1.5715063896447419
1761915139966972200,9.56497216796875,4.316825088238716,6.117060738536715,-1.508746128218621
1761915139977026300,9.5750263671875,4.020110086596012,6.3693485694319,-1.289323478962481
1761915139987080200,9.585080078125,3.723436001485586,6.303765213409066,-0.9940237509451806
1761915139997134300,9.59513427734375,4.0610067451298235,6.314829628258943,-1.051049121981114
1761915140007189200,9.605189208984376,5.033008780011534,6.231634627699852,-1.3399959738403557
1761915140017243100,9.6152431640625,5.245283749470114,5.933742983493208,-1.6362731685876846
1761915140027297300,9.62529736328125,3.3316181193470955,5.506329471838474,-1.549573667038977
1761915140037351200,9.63535107421875,3.089831808722019,4.827362288782,-1.4593383925795553
1761915140047406000,9.645406005859375,3.590651332849264,4.055667137667537,-1.131683770532906
1761915140057460000,9.6554599609375,3.2123055112242698,3.274946968576312,-0.7758215833947062
1761915140067514000,9.66551416015625,2.583109782552719,2.6208395014882084,-0.4240001960799098
1761915140077568300,9.675568359375,1.6492776115894316,2.0654916838377715,-0.10723170970678329
1761915140087623200,9.685623046875,0.5085854819536209,1.4617530525058506,0.16691314820945263
1761915140097677300,9.69567724609375,-0.16858429629206656,0.8504051152139902,0.4327703625127673
1761915140107731200,9.705731201171876,-0.5256792400956154,-0.5101502470523118,0.5262161234512925
1761915140117785000,9.71578515625,-0.8619108440905809,-2.8502848014563322,0.5575542416535317
1761915140127839000,9.7258388671875,-0.648466246330738,-5.212124991711974,0.42359351497516035
1761915140137894100,9.73589404296875,-0.41104163804650307,-6.21522651373446,0.03262786575183272
1761915140147948300,9.7459482421875,-1.9366396784752606,-5.306005636936426,-0.4055899485118687
1761915140158002200,9.756002197265625,-4.656283837586641,-3.4289597186803817,-0.6639331339232624
1761915140168056300,9.766056396484375,-6.479308242797851,-2.501387192633748,-0.192407070428133
1761915140178111000,9.776111083984375,-6.718565327206254,-3.905816767939925,1.1476175449848174
1761915140188165000,9.7861650390625,-6.7366919355273245,-5.9967275551944965,2.494785017889738
1761915140198219000,9.796218994140625,-5.976357551860809,-6.1423050699085,2.8150521600335834
1761915140208273200,9.806273193359376,-5.0807431756109,-4.879170801952481,2.4508467997029424
1761915140218328300,9.816328369140624,-3.871058758291602,-4.103360616734624,2.1787287714391947
1761915140228382200,9.82638232421875,-3.4502246250271793,-4.166570229363441,2.099821531201899
1761915140238436000,9.83643603515625,-3.671809274622798,-4.617361693996191,2.2952467804074286
1761915140248490000,9.846489990234375,-2.6495664142787456,-4.8668256996423,2.561783793668449
1761915140258545200,9.856545166015625,-1.2479121489048004,-4.255014236491919,2.467015551954508
1761915140268599300,9.866599365234375,-0.24139643452465534,-2.677964241245389,2.2995400936871766
1761915140278653200,9.876653076171875,0.2620014156579971,-1.025089481946826,2.136408509843051
1761915140288707300,9.886707275390625,0.5866255839675665,0.26996903353631496,1.9983532073274253
1761915140298761200,9.89676123046875,0.6465262181788682,1.4453934538573026,1.9110921263732015
1761915140308816100,9.906816162109376,0.5188011710196733,2.372161093261838,1.865679305589199
1761915140318870000,9.9168701171875,0.550014639928937,3.17112535957396,1.6317372787237165
1761915140328924200,9.926924072265624,1.0625737016886472,4.203827070090174,1.0912507839880883
1761915140338978300,9.936978271484374,1.5836311272025108,5.050864170175791,0.5471556703012437
1761915140349033200,9.947033203125,1.6854928343087434,5.202503176885843,0.0817992353517562
1761915140359087000,9.957087158203125,1.8843670549243687,5.114804435166716,0.13741766219921409
1761915140369141000,9.96714111328125,2.2488363268882035,4.611984677132964,0.28665355329029263
1761915140379195100,9.977195068359375,2.5322762518942357,4.121111377480626,0.27560875645633787
1761915140389250300,9.987250244140625,2.3662819720953703,4.203417904767393,0.35650804729368535
1761915140399304200,9.99730419921875,2.0426614278703927,4.627092814415693,0.3128886492650956
1761915140409358300,10.0073583984375,2.3544237765192984,5.1878632416367525,0.3085186905525625
1761915140419412200,10.017412109375,2.8342788385510445,5.618138572463393,0.3352517261121422
1761915140429467100,10.027467041015624,3.2602813143640756,5.679649564480782,0.4317480337277054
1761915140439521000,10.03752099609375,2.9975615213036537,5.523251380544901,0.5660419744158164
1761915140449575200,10.0475751953125,2.4556255584120747,5.200492421585321,0.6596761340659112
1761915140459629300,10.05762939453125,2.2837679395377632,4.8067689980864525,0.6971024861406534
1761915140469683200,10.06768310546875,2.4426544331580398,4.423277630266547,0.6729004303634166
1761915140479738000,10.077738037109375,2.4953560957759615,3.8625288303554055,0.41273887041844426
1761915140489792000,10.0877919921875,1.880934742388129,2.9615713395118712,0.03804769884347915
1761915140499846100,10.09784619140625,0.6784621561437845,1.8696657448768614,-0.1026418976984918
1761915140509900000,10.107900146484376,0.09560030862390995,1.1449521251678465,0.16013262122385202
1761915140519955200,10.117955078125,0.21230945625007153,0.7081336563080549,0.5183463399242609
1761915140530009300,10.12800927734375,0.34715807167887686,-0.015786182674765586,0.5993110241480172
1761915140540063200,10.138063232421874,-0.4693015193134546,-1.1739900036036968,0.18915975906997917
1761915140550117400,10.148117431640625,-2.431719782167673,-2.4574744011491534,-0.28321013483814894
1761915140560172000,10.158172119140625,-3.724530810984969,-4.181104366150498,-0.43139162150546906
1761915140570222800,10.168222900390624,-4.330055156689882,-5.1338955046057695,-0.4778283785097301
1761915140580276700,10.17827685546875,-5.335768322515487,-4.427489110481739,-0.5209314610466361
1761915140590331000,10.188330810546875,-5.982761573684215,-3.139870389610529,-0.297309022013098
1761915140600384800,10.198384765625,-5.8750236680209635,-3.082746234375238,0.4500980755411088
1761915140610439700,10.208439697265625,-6.034809740829467,-4.018799003997445,1.2796443809911608
1761915140620493800,10.218493896484375,-5.6261289866954085,-4.469873377224802,1.7874939498856663
1761915140630547700,10.228547607421875,-4.226929128736257,-3.8404508540600535,1.5220657746493815
1761915140640601900,10.238601806640625,-2.7318074751138686,-2.9616414821386337,0.7429444190569221
1761915140650656800,10.24865673828125,-1.1631705034255981,-2.6424334936589,0.5020220317848026
1761915140660711000,10.2587109375,-0.46441783892512317,-2.958408491566777,0.6578893237143755
1761915140670764800,10.268764892578124,-1.7687877881109713,-3.672573244732618,1.1465833796314895
1761915140680818700,10.278818603515624,-3.564107024794817,-4.285338647606968,1.886745328363031
1761915140690873900,10.288873779296875,-3.0096845052957533,-3.89566128462851,2.175018518744409
1761915140700927700,10.298927734375,-1.5775222889333962,-2.482642160153389,1.8074027654483913
1761915140710982000,10.30898193359375,-0.7403828980058431,-1.211522738662362,1.4944447772741316
1761915140721035800,10.319035888671875,-0.5620049374520778,-0.9638473699986934,1.2387690575063228
1761915140731090700,10.329090576171875,-0.22059096238315104,-0.691223438039422,1.0025523637071252
1761915140741144800,10.339144775390626,0.6496627626389264,0.4165332212001085,0.2609288910556584
1761915140751198700,10.34919873046875,0.20936229688227176,1.9767805502057074,-0.48007842245884236
1761915140761252900,10.3592529296875,-0.1632236460417509,3.273598476576805,-0.7641551840636879
1761915140771306800,10.369306640625,-0.2966670708477497,4.076867746606469,-0.9307306978166103
1761915140781362000,10.37936181640625,-0.1928688427209854,4.515729119470715,-0.881230169327557
1761915140791415800,10.389415771484375,-0.15735329270362852,4.575043478226662,-0.6694619803473353
1761915140801469700,10.3994697265625,0.118511813133955,4.469768747806548,-0.4159821631886065
1761915140811523800,10.40952392578125,0.6500643291771412,4.460062177306414,-0.18904475438818336
1761915140821578800,10.419578857421875,1.2623083385258913,4.668069552448392,-0.1581261037070304
1761915140831633000,10.4296328125,1.6727344750225543,4.8136558349907395,-0.10159721095114946
1761915140841686800,10.439686767578126,1.9697955136239527,4.610561366331577,0.06299114757254719
1761915140851741000,10.449740966796876,1.8033149116128682,4.068881424027681,0.33464988776147364
1761915140861795800,10.4597958984375,1.517978797596693,3.4686341419428586,0.5692272899210453
1761915140871849700,10.469849609375,0.9946049118340015,2.8785522800415753,0.5759216729931533
1761915140881903900,10.47990380859375,0.2651175018519163,2.332572010195255,0.5129879546962678
1761915140891957800,10.489957763671875,0.023729250633716583,2.087543356648087,0.4241678077317774
1761915140902013000,10.500012939453125,0.294318461894989,1.9685762009620664,0.2921507624670863
1761915140912066800,10.51006689453125,1.161359654611349,1.645951682037115,0.2398557809539139
1761915140922120700,10.52012060546875,1.917465022405982,1.0017647204607725,0.23255144928991794
1761915140932174800,10.5301748046875,1.6992875509053467,0.06971066508591174,0.16414134540855885
1761915140942228700,10.540228759765625,0.8988818536132573,-1.0592816744059323,0.2814839686326682
1761915140952284000,10.550283935546876,-0.37043665593564506,-1.8707032712310552,0.9021113370537758
1761915140962337800,10.560337890625,-1.574910060608387,-1.8088626088678836,1.2720005882397294
1761915140972392000,10.570391845703124,-1.9981939251124858,-0.7974304808735847,1.2154641697645188
1761915140982445800,10.58044580078125,-1.9551570396795868,0.09748597624003887,1.0127020017996429
1761915140992500700,10.590500732421875,-1.6810966451764107,0.1956616883099079,1.121801989596337
1761915141002555000,10.600554931640625,-1.0745838729560375,-0.024465748214721677,1.4630235108330845
1761915141012608800,10.61060888671875,-0.5880623387724161,-0.1696855355322361,1.7626137756511568
1761915141022663000,10.620662841796875,-0.16429653597027064,-0.09874737447798251,1.8085013743400573
1761915141032717800,10.6307177734375,0.7817959816291928,0.13761457301080227,1.459318811096251
1761915141042771700,10.640771728515626,1.7413365943446755,-0.10052373650074005,1.040686279529333
1761915141052825600,10.65082568359375,2.8844974521815776,-0.7950403708666562,0.8608788706943392
1761915141062879700,10.660879638671876,1.5416627477839588,-1.4243091647744177,1.7015825299747287
1761915141072935000,10.670934814453124,-0.8267898463487625,-2.665126971504092,2.096740516321361
1761915141082988800,10.68098876953125,0.02093611278384924,-3.6689059543967244,2.111213424440473
1761915141093043000,10.69104296875,1.413288589066267,-3.3557267246872184,2.2138092910401523
1761915141103096800,10.701096923828125,1.7419833678156136,-2.480297058331966,2.1899143284507097
