time,seconds_elapsed,z,y,x
1761915130480807700,0.0788076171875,-0.5052490234375,-0.6744537353515625,0.2285614013671875
1761915130490862600,0.088862548828125,-0.4952850341796875,-0.662750244140625,0.217071533203125
1761915130500916700,0.098916748046875,-0.5081329345703125,-0.658966064453125,0.2138671875
1761915130510971000,0.108970947265625,-0.5234832763671875,-0.6520538330078125,0.2066192626953125
1761915130521024800,0.119024658203125,-0.5236663818359375,-0.6316986083984375,0.1993255615234375
1761915130531079700,0.12907958984375,-0.5190887451171875,-0.6082763671875,0.1892547607421875
1761915130541133600,0.139133544921875,-0.503570556640625,-0.5875244140625,0.179595947265625
1761915130551187700,0.149187744140625,-0.4947967529296875,-0.573333740234375,0.171051025390625
1761915130561241600,0.15924169921875,-0.5009918212890625,-0.558502197265625,0.16558837890625
1761915130571295700,0.169295654296875,-0.51092529296875,-0.5359649658203125,0.15667724609375
1761915130581350700,0.1793505859375,-0.50115966796875,-0.5071258544921875,0.1470947265625
1761915130591404800,0.18940478515625,-0.4875335693359375,-0.4835052490234375,0.1432647705078125
1761915130601458700,0.199458740234375,-0.495513916015625,-0.4815521240234375,0.1504669189453125
1761915130611512600,0.2095126953125,-0.4999237060546875,-0.495208740234375,0.1592559814453125
1761915130621567700,0.219567626953125,-0.4867706298828125,-0.516021728515625,0.1650848388671875
1761915130631621600,0.22962158203125,-0.4798431396484375,-0.541778564453125,0.168304443359375
1761915130641675800,0.23967578125,-0.466522216796875,-0.5803985595703125,0.172393798828125
1761915130651729700,0.249729736328125,-0.48779296875,-0.6454620361328125,0.201568603515625
1761915130661783800,0.25978369140625,-0.6275634765625,-0.736785888671875,0.2494354248046875
1761915130671838700,0.269838623046875,-0.8749237060546875,-0.8464508056640625,0.3134002685546875
1761915130681892600,0.279892578125,-1.0048980712890625,-0.94769287109375,0.3659515380859375
1761915130691946800,0.28994677734375,-1.022979736328125,-1.0316925048828125,0.369964599609375
1761915130702000600,0.300000732421875,-1.0220947265625,-1.112579345703125,0.3561553955078125
1761915130712054800,0.3100546875,-1.085906982421875,-1.2137908935546875,0.3455963134765625
1761915130722109700,0.320109619140625,-1.212738037109375,-1.2919921875,0.357513427734375
1761915130732163600,0.33016357421875,-1.327362060546875,-1.33355712890625,0.379791259765625
1761915130742217700,0.3402177734375,-1.4123992919921875,-1.337371826171875,0.4298858642578125
1761915130752271600,0.350271728515625,-1.47723388671875,-1.356719970703125,0.5254974365234375
1761915130762326800,0.360326904296875,-1.5164794921875,-1.392059326171875,0.6462860107421875
1761915130772380700,0.370380615234375,-1.538421630859375,-1.4294586181640625,0.75152587890625
1761915130782434800,0.380434814453125,-1.5771331787109375,-1.471282958984375,0.8052520751953125
1761915130792488400,0.390488525390625,-1.5603179931640625,-1.535186767578125,0.747314453125
1761915130802542600,0.40054248046875,-1.39849853515625,-1.395294189453125,0.604583740234375
1761915130812597800,0.41059765625,-1.23553466796875,-1.292388916015625,0.6829833984375
1761915130822651600,0.420651611328125,-1.09722900390625,-1.36541748046875,0.582366943359375
1761915130832705800,0.430705810546875,-1.016693115234375,-1.2731781005859375,0.42730712890625
1761915130842759700,0.440759765625,-0.852813720703125,-1.150482177734375,0.2796783447265625
1761915130852814600,0.450814697265625,-0.658782958984375,-1.033447265625,0.19287109375
1761915130862868700,0.46086865234375,-0.531219482421875,-0.8449249267578125,0.1842498779296875
1761915130872922600,0.470922607421875,-0.4473419189453125,-0.70733642578125,0.21722412109375
1761915130882976800,0.480976806640625,-0.3919677734375,-0.613616943359375,0.257843017578125
1761915130893030700,0.49103076171875,-0.4178314208984375,-0.5117340087890625,0.2499237060546875
1761915130903085800,0.5010859375,-0.4532012939453125,-0.4384918212890625,0.148681640625
1761915130913139500,0.511139404296875,-0.403594970703125,-0.3426361083984375,0.039215087890625
1761915130923193600,0.521193603515625,-0.3565216064453125,-0.22723388671875,-0.038970947265625
1761915130933247500,0.53124755859375,-0.330108642578125,-0.138580322265625,-0.0882415771484375
1761915130943301600,0.541301513671875,-0.2750244140625,-0.088623046875,-0.107025146484375
1761915130953356800,0.551356689453125,-0.2143707275390625,-0.025482177734375,-0.0990447998046875
1761915130963410700,0.56141064453125,-0.1645660400390625,0.0150299072265625,-0.0806884765625
1761915130973464800,0.57146484375,-0.1003265380859375,-0.00018310546875,-0.0499725341796875
1761915130983518700,0.581518798828125,-0.0772247314453125,-0.054656982421875,-0.020294189453125
1761915130993573600,0.59157373046875,-0.0856170654296875,-0.0869140625,0.0016937255859375
1761915131003627800,0.601627685546875,-0.09393310546875,-0.106536865234375,-0.0036468505859375
1761915131013681700,0.611681640625,-0.1082611083984375,-0.1400909423828125,-0.0140838623046875
1761915131023735800,0.62173583984375,-0.1082305908203125,-0.1831512451171875,-0.0183258056640625
1761915131033790500,0.63179052734375,-0.1127777099609375,-0.2149810791015625,-0.0327606201171875
1761915131043844600,0.6418447265625,-0.1417694091796875,-0.2481842041015625,-0.028656005859375
1761915131053898500,0.6518984375,-0.133056640625,-0.25921630859375,-0.0035858154296875
1761915131063952600,0.66195263671875,-0.1073760986328125,-0.2597198486328125,0.0204925537109375
1761915131074006800,0.6720068359375,-0.0730133056640625,-0.274810791015625,0.0417022705078125
1761915131084061700,0.682061767578125,-0.0615081787109375,-0.2975311279296875,0.05072021484375
1761915131094115800,0.69211572265625,-0.0590667724609375,-0.3090362548828125,0.0474090576171875
1761915131104169700,0.702169677734375,-0.0941925048828125,-0.301513671875,0.0337677001953125
1761915131114223600,0.7122236328125,-0.156463623046875,-0.2921600341796875,0.001129150390625
1761915131124278800,0.72227880859375,-0.2274932861328125,-0.29241943359375,-0.020599365234375
1761915131134332700,0.732332763671875,-0.28387451171875,-0.304962158203125,-0.0159454345703125
1761915131144386800,0.74238671875,-0.329925537109375,-0.3488922119140625,-0.0079803466796875
1761915131154440700,0.752440673828125,-0.344757080078125,-0.444305419921875,0.0298309326171875
1761915131164494800,0.762494873046875,-0.315216064453125,-0.574371337890625,0.10406494140625
1761915131174549500,0.772549560546875,-0.316314697265625,-0.7004547119140625,0.192901611328125
1761915131184603600,0.782603759765625,-0.4170684814453125,-0.79339599609375,0.2711181640625
1761915131194657500,0.792657470703125,-0.5670318603515625,-0.8519744873046875,0.3270111083984375
1761915131204711700,0.802711669921875,-0.77520751953125,-0.8786773681640625,0.344696044921875
1761915131214765800,0.812765869140625,-0.9504547119140625,-0.9492645263671875,0.3642730712890625
1761915131224820700,0.82282080078125,-1.0381317138671875,-1.108642578125,0.428924560546875
1761915131234874600,0.83287451171875,-1.0625457763671875,-1.2914276123046875,0.53155517578125
1761915131244928500,0.842928466796875,-1.0936279296875,-1.4109039306640625,0.6324920654296875
1761915131254982700,0.852982666015625,-1.190338134765625,-1.4358367919921875,0.702484130859375
1761915131265037800,0.863037841796875,-1.272064208984375,-1.450592041015625,0.76751708984375
1761915131275091700,0.873091796875,-1.334136962890625,-1.508270263671875,0.8243865966796875
1761915131285145900,0.883145751953125,-1.355621337890625,-1.5898284912109375,0.847442626953125
1761915131295199700,0.89319970703125,-1.3961029052734375,-1.6277618408203125,0.8081817626953125
1761915131305253600,0.903253662109375,-1.40570068359375,-1.6481781005859375,0.759674072265625
1761915131315308500,0.91330859375,-1.3751983642578125,-1.696075439453125,0.7117919921875
1761915131325362700,0.92336279296875,-1.3331146240234375,-1.7286376953125,0.673248291015625
1761915131335416800,0.933416748046875,-1.2883148193359375,-1.732177734375,0.622528076171875
1761915131345470700,0.943470703125,-1.2287750244140625,-1.7355804443359375,0.55743408203125
1761915131355525600,0.953525634765625,-1.1499786376953125,-1.7141876220703125,0.491912841796875
1761915131365579500,0.96357958984375,-1.0668182373046875,-1.6266326904296875,0.39483642578125
1761915131375633700,0.973633544921875,-0.9562225341796875,-1.4992523193359375,0.296722412109375
1761915131385687600,0.9836875,-0.8387603759765625,-1.31982421875,0.2154998779296875
1761915131395741700,0.99374169921875,-0.7638092041015625,-1.0999755859375,0.1357879638671875
1761915131405796900,1.003796875,-0.6970977783203125,-0.8785247802734375,0.06884765625
1761915131415850800,1.013850830078125,-0.6483154296875,-0.6742095947265625,0.0043182373046875
1761915131425904600,1.023904541015625,-0.6203765869140625,-0.509613037109375,-0.0556182861328125
1761915131435958500,1.03395849609375,-0.591278076171875,-0.4208984375,-0.0914764404296875
1761915131446012700,1.0440126953125,-0.546295166015625,-0.3510894775390625,-0.1092071533203125
1761915131456067600,1.054067626953125,-0.495025634765625,-0.2658843994140625,-0.1234283447265625
1761915131466121700,1.064121826171875,-0.4683074951171875,-0.193328857421875,-0.102752685546875
1761915131476176000,1.07417578125,-0.4138031005859375,-0.157318115234375,-0.0596923828125
1761915131486229800,1.084229736328125,-0.29150390625,-0.1090545654296875,-0.0207672119140625
1761915131496284700,1.09428466796875,-0.2149505615234375,-0.082000732421875,0.0264434814453125
1761915131506338600,1.104338623046875,-0.19189453125,-0.10858154296875,0.088531494140625
1761915131516392700,1.114392822265625,-0.146240234375,-0.127777099609375,0.1291656494140625
1761915131526446600,1.124446533203125,-0.1325225830078125,-0.1367034912109375,0.14697265625
1761915131536500700,1.134500732421875,-0.156707763671875,-0.1591796875,0.1739654541015625
1761915131546555600,1.1445556640625,-0.1621246337890625,-0.17425537109375,0.206085205078125
1761915131556612600,1.154612548828125,-0.1329193115234375,-0.181121826171875,0.223541259765625
1761915131566666500,1.16466650390625,-0.112274169921875,-0.1631622314453125,0.189178466796875
1761915131576720400,1.174720458984375,-0.0932464599609375,-0.1448974609375,0.1864776611328125
1761915131586775600,1.184775634765625,-0.0486297607421875,-0.166961669921875,0.1894378662109375
1761915131596829700,1.19482958984375,-0.0245819091796875,-0.147674560546875,0.173583984375
1761915131606883600,1.204883544921875,-0.0167236328125,-0.1244964599609375,0.15606689453125
1761915131616937700,1.214937744140625,0.003631591796875,-0.1077117919921875,0.1421661376953125
1761915131626991600,1.22499169921875,0.015777587890625,-0.1006927490234375,0.12774658203125
1761915131637046500,1.235046630859375,-0.0229034423828125,-0.109405517578125,0.1129150390625
1761915131647100400,1.245100341796875,-0.0938262939453125,-0.1446990966796875,0.1060028076171875
1761915131657154600,1.255154541015625,-0.1805419921875,-0.1772308349609375,0.0970611572265625
1761915131667208700,1.265208740234375,-0.2403564453125,-0.224700927734375,0.098663330078125
1761915131677263600,1.275263671875,-0.266448974609375,-0.321136474609375,0.140716552734375
1761915131687317500,1.2853173828125,-0.27203369140625,-0.4649505615234375,0.2127227783203125
1761915131697371400,1.295371337890625,-0.257568359375,-0.6578521728515625,0.295684814453125
1761915131707425500,1.305425537109375,-0.313690185546875,-0.832000732421875,0.317047119140625
1761915131717479400,1.3154794921875,-0.482147216796875,-0.9326171875,0.2608489990234375
1761915131727534600,1.32553466796875,-0.6712493896484375,-1.04254150390625,0.2303314208984375
1761915131737588700,1.335588623046875,-0.8451080322265625,-1.2227935791015625,0.275177001953125
1761915131747642600,1.345642578125,-1.006988525390625,-1.296112060546875,0.291351318359375
1761915131757696500,1.355696533203125,-1.1248779296875,-1.3080596923828125,0.3161163330078125
1761915131767751400,1.36575146484375,-1.1925201416015625,-1.51239013671875,0.450164794921875
1761915131777805600,1.3758056640625,-1.367828369140625,-1.7408905029296875,0.6049346923828125
1761915131787859500,1.385859375,-1.5624847412109375,-1.81884765625,0.695343017578125
1761915131797913600,1.39591357421875,-1.615509033203125,-1.83544921875,0.7039337158203125
1761915131807967700,1.4059677734375,-1.650115966796875,-1.782196044921875,0.6443023681640625
1761915131818022400,1.4160224609375,-1.6971282958984375,-1.7453155517578125,0.6329803466796875
1761915131828076500,1.42607666015625,-1.7520599365234375,-1.78179931640625,0.65771484375
1761915131838130400,1.43613037109375,-1.7352294921875,-1.7520294189453125,0.63177490234375
1761915131848184600,1.4461845703125,-1.61456298828125,-1.6525421142578125,0.52264404296875
1761915131858238500,1.456238525390625,-1.470306396484375,-1.553253173828125,0.3969573974609375
1761915131868293600,1.466293701171875,-1.3005218505859375,-1.4665374755859375,0.3180084228515625
1761915131878347500,1.476347412109375,-1.1060638427734375,-1.367523193359375,0.2541656494140625
1761915131888401400,1.4864013671875,-0.9075775146484375,-1.2503204345703125,0.1972198486328125
1761915131898455600,1.49645556640625,-0.7853851318359375,-1.0487823486328125,0.10601806640625
1761915131908510500,1.506510498046875,-0.7520599365234375,-0.7954254150390625,-0.0225372314453125
1761915131918564600,1.516564697265625,-0.721221923828125,-0.62347412109375,-0.1144256591796875
1761915131928618800,1.52661865234375,-0.6972808837890625,-0.515350341796875,-0.1764068603515625
1761915131938672600,1.536672607421875,-0.6529083251953125,-0.4190216064453125,-0.2142333984375
1761915131948726500,1.5467265625,-0.5874786376953125,-0.3460845947265625,-0.2127838134765625
1761915131958781400,1.556781494140625,-0.5328369140625,-0.268707275390625,-0.194366455078125
1761915131968835600,1.566835693359375,-0.4891204833984375,-0.2067718505859375,-0.146759033203125
1761915131978889500,1.576889404296875,-0.4325103759765625,-0.1414031982421875,-0.0928192138671875
1761915131988943600,1.586943603515625,-0.3649139404296875,-0.0851287841796875,-0.0561676025390625
1761915131998997500,1.59699755859375,-0.318695068359375,-0.076873779296875,-0.0077362060546875
1761915132009052400,1.607052490234375,-0.284759521484375,-0.101776123046875,0.046356201171875
1761915132019106600,1.6171064453125,-0.2689971923828125,-0.1134185791015625,0.086669921875
1761915132029160400,1.627160400390625,-0.2421875,-0.1160888671875,0.112396240234375
1761915132039214600,1.637214599609375,-0.2012786865234375,-0.1351318359375,0.12921142578125
1761915132049269500,1.64726953125,-0.1694488525390625,-0.1588897705078125,0.134796142578125
1761915132059323600,1.65732373046875,-0.139801025390625,-0.1777801513671875,0.1383514404296875
1761915132069377500,1.66737744140625,-0.122467041015625,-0.1918792724609375,0.137237548828125
1761915132079431400,1.677431396484375,-0.1220245361328125,-0.1956024169921875,0.1381378173828125
1761915132089485600,1.687485595703125,-0.115386962890625,-0.1990203857421875,0.140869140625
1761915132099540500,1.69754052734375,-0.1108551025390625,-0.189178466796875,0.1373291015625
1761915132109594600,1.7075947265625,-0.1064910888671875,-0.172210693359375,0.1352386474609375
1761915132119648500,1.7176484375,-0.10504150390625,-0.1563262939453125,0.128265380859375
1761915132129702700,1.72770263671875,-0.1249847412109375,-0.153900146484375,0.1206817626953125
1761915132139757600,1.737757568359375,-0.14532470703125,-0.1486358642578125,0.1144256591796875
1761915132149811500,1.7478115234375,-0.165069580078125,-0.1399383544921875,0.10595703125
1761915132159865600,1.757865478515625,-0.1973419189453125,-0.1352996826171875,0.09588623046875
1761915132169919500,1.76791943359375,-0.2303314208984375,-0.141143798828125,0.0883331298828125
1761915132179973600,1.7779736328125,-0.2679290771484375,-0.1744232177734375,0.0806427001953125
1761915132190028500,1.788028564453125,-0.3138580322265625,-0.2203521728515625,0.082794189453125
1761915132200082400,1.79808251953125,-0.3809356689453125,-0.3266143798828125,0.11724853515625
1761915132210136600,1.808136474609375,-0.451812744140625,-0.5323486328125,0.1861724853515625
1761915132220190500,1.8181904296875,-0.488616943359375,-0.776824951171875,0.2458038330078125
1761915132230245600,1.82824560546875,-0.587921142578125,-0.9125823974609375,0.23992919921875
1761915132240299500,1.838299560546875,-0.7458343505859375,-0.8979034423828125,0.160858154296875
1761915132250353700,1.848353759765625,-0.94677734375,-0.8691253662109375,0.0704345703125
1761915132260407600,1.858407470703125,-1.0734100341796875,-0.996307373046875,0.0525360107421875
1761915132270461400,1.86846142578125,-1.115203857421875,-1.1868896484375,0.1218719482421875
1761915132280516600,1.8785166015625,-1.19134521484375,-1.359466552734375,0.2708587646484375
1761915132290570500,1.888570556640625,-1.3531646728515625,-1.476409912109375,0.451446533203125
1761915132300624600,1.898624755859375,-1.5230255126953125,-1.507110595703125,0.5493621826171875
1761915132310678500,1.908678466796875,-1.6120147705078125,-1.532318115234375,0.563812255859375
1761915132320732700,1.918732666015625,-1.6468658447265625,-1.601470947265625,0.56463623046875
1761915132330787600,1.92878759765625,-1.6505126953125,-1.6163330078125,0.547119140625
1761915132340841500,1.938841552734375,-1.582855224609375,-1.604339599609375,0.533782958984375
1761915132350895600,1.9488955078125,-1.5296783447265625,-1.62152099609375,0.5184173583984375
1761915132360949500,1.958949462890625,-1.474212646484375,-1.609527587890625,0.4802398681640625
1761915132371004700,1.969004638671875,-1.3815155029296875,-1.5580902099609375,0.4334869384765625
1761915132381058600,1.97905859375,-1.2391357421875,-1.5161590576171875,0.407257080078125
1761915132391112400,1.989112548828125,-1.121673583984375,-1.443634033203125,0.39306640625
1761915132401166300,1.999166259765625,-1.0723419189453125,-1.345611572265625,0.375732421875
1761915132411220500,2.009220458984375,-1.0188446044921875,-1.2606658935546875,0.3847198486328125
1761915132421275600,2.019275634765625,-0.9265289306640625,-1.112213134765625,0.3528594970703125
1761915132431329500,2.02932958984375,-0.824127197265625,-0.941070556640625,0.2679595947265625
1761915132441383700,2.0393837890625,-0.7528839111328125,-0.793487548828125,0.1554107666015625
1761915132451437600,2.0494375,-0.682037353515625,-0.65643310546875,0.04132080078125
1761915132461491700,2.05949169921875,-0.5864410400390625,-0.5208740234375,-0.0469970703125
1761915132471546600,2.069546630859375,-0.497955322265625,-0.4016571044921875,-0.1106414794921875
1761915132481600500,2.0796005859375,-0.446929931640625,-0.32861328125,-0.133331298828125
1761915132491654700,2.089654541015625,-0.4445953369140625,-0.26409912109375,-0.126800537109375
1761915132501708500,2.09970849609375,-0.44451904296875,-0.212646484375,-0.1051788330078125
1761915132511763500,2.109763427734375,-0.41259765625,-0.1839752197265625,-0.0635528564453125
1761915132521817300,2.1198173828125,-0.40692138671875,-0.18084716796875,-0.0203857421875
1761915132531871500,2.12987158203125,-0.4070281982421875,-0.21002197265625,0.017608642578125
1761915132541925600,2.139925537109375,-0.3928985595703125,-0.2423095703125,0.03240966796875
1761915132551979500,2.1499794921875,-0.347320556640625,-0.237945556640625,0.0079803466796875
1761915132562031600,2.160031494140625,-0.2807769775390625,-0.2248687744140625,-0.0367279052734375
1761915132572085500,2.17008544921875,-0.2273406982421875,-0.21990966796875,-0.076080322265625
1761915132582139400,2.180139404296875,-0.189453125,-0.2266387939453125,-0.091888427734375
1761915132592193300,2.190193359375,-0.149810791015625,-0.236968994140625,-0.0885772705078125
1761915132602248400,2.20024853515625,-0.1236114501953125,-0.2286834716796875,-0.07366943359375
1761915132612302600,2.210302490234375,-0.1062774658203125,-0.1938323974609375,-0.052947998046875
1761915132622356500,2.2203564453125,-0.0842437744140625,-0.1502685546875,-0.0269012451171875
1761915132632410600,2.23041064453125,-0.083038330078125,-0.120086669921875,0.00390625
1761915132642464500,2.240464599609375,-0.0978240966796875,-0.1043853759765625,0.0443572998046875
1761915132652519400,2.25051953125,-0.1170501708984375,-0.096649169921875,0.083343505859375
1761915132662573300,2.2605732421875,-0.1308441162109375,-0.0916290283203125,0.099395751953125
1761915132672627500,2.27062744140625,-0.1294403076171875,-0.0952301025390625,0.096466064453125
1761915132682681300,2.280681396484375,-0.1313018798828125,-0.130218505859375,0.0894012451171875
1761915132692735500,2.290735595703125,-0.17767333984375,-0.174468994140625,0.0753936767578125
1761915132702790400,2.300790283203125,-0.2481536865234375,-0.231719970703125,0.056396484375
1761915132712844300,2.31084423828125,-0.3016815185546875,-0.3226318359375,0.047119140625
1761915132722898400,2.3208984375,-0.3523712158203125,-0.44866943359375,0.0401763916015625
1761915132732952300,2.330952392578125,-0.3902435302734375,-0.6378631591796875,0.0502777099609375
1761915132743007500,2.341007568359375,-0.454193115234375,-0.8200836181640625,0.061676025390625
1761915132753061600,2.3510615234375,-0.59014892578125,-0.9508819580078125,0.0589141845703125
1761915132763115500,2.361115478515625,-0.7523193359375,-1.0854644775390625,0.0452117919921875
1761915132773169400,2.37116943359375,-0.9337615966796875,-1.1947021484375,-0.0057830810546875
1761915132783223300,2.381223388671875,-1.0984344482421875,-1.26019287109375,-0.069366455078125
1761915132793278500,2.391278564453125,-1.1890869140625,-1.329620361328125,-0.0723724365234375
1761915132803332400,2.401332275390625,-1.263916015625,-1.50091552734375,0.0610809326171875
1761915132813386500,2.411386474609375,-1.3402099609375,-1.7757415771484375,0.273101806640625
1761915132823440400,2.4214404296875,-1.4750518798828125,-1.96282958984375,0.3983306884765625
1761915132833494500,2.43149462890625,-1.5728759765625,-1.9555511474609375,0.372314453125
1761915132843549400,2.441549560546875,-1.6056365966796875,-1.92718505859375,0.302032470703125
1761915132853603300,2.451603271484375,-1.65533447265625,-1.9232635498046875,0.2677764892578125
1761915132863657500,2.461657470703125,-1.65692138671875,-1.918182373046875,0.26251220703125
1761915132873711400,2.47171142578125,-1.6018218994140625,-1.858184814453125,0.24932861328125
1761915132883766500,2.4817666015625,-1.559417724609375,-1.7512664794921875,0.22271728515625
1761915132893820400,2.4918203125,-1.50390625,-1.6644439697265625,0.20989990234375
1761915132903874300,2.501874267578125,-1.390594482421875,-1.60211181640625,0.21868896484375
1761915132913928400,2.511928466796875,-1.22930908203125,-1.4908599853515625,0.2285308837890625
1761915132923982300,2.521982421875,-1.05816650390625,-1.3416595458984375,0.2257843017578125
1761915132934037500,2.53203759765625,-0.9633331298828125,-1.186920166015625,0.1375274658203125
1761915132944091400,2.54209130859375,-0.9312744140625,-1.073944091796875,-0.0018463134765625
1761915132954145500,2.5521455078125,-0.8868408203125,-0.9468536376953125,-0.1385650634765625
1761915132964199400,2.562199462890625,-0.818634033203125,-0.7695159912109375,-0.261505126953125
1761915132974254300,2.57225439453125,-0.7166900634765625,-0.6129608154296875,-0.3253326416015625
1761915132984308500,2.58230859375,-0.6289215087890625,-0.470794677734375,-0.3342437744140625
1761915132994362400,2.5923623046875,-0.554779052734375,-0.330474853515625,-0.293853759765625
1761915133004416500,2.60241650390625,-0.477203369140625,-0.2124481201171875,-0.2167816162109375
1761915133014470400,2.612470458984375,-0.3966217041015625,-0.1298980712890625,-0.1189727783203125
1761915133024525300,2.622525390625,-0.318084716796875,-0.087005615234375,-0.0078582763671875
1761915133034579500,2.632579345703125,-0.23870849609375,-0.0607757568359375,0.08978271484375
1761915133044633300,2.64263330078125,-0.1990814208984375,-0.060211181640625,0.177978515625
1761915133054687500,2.6526875,-0.1959075927734375,-0.0567169189453125,0.242950439453125
1761915133064741400,2.662741455078125,-0.165679931640625,-0.04534912109375,0.26568603515625
1761915133074796500,2.672796630859375,-0.124542236328125,-0.0494384765625,0.24462890625
1761915133084850400,2.682850341796875,-0.0857696533203125,-0.0850067138671875,0.219970703125
1761915133094904300,2.692904296875,-0.05352783203125,-0.1154022216796875,0.1964569091796875
1761915133104958500,2.70295849609375,-0.018096923828125,-0.129058837890625,0.173919677734375
1761915133115013400,2.713013427734375,0.0213165283203125,-0.1514892578125,0.150787353515625
1761915133125067500,2.723067626953125,0.045318603515625,-0.1537322998046875,0.1221771240234375
1761915133135121400,2.733121337890625,0.0587005615234375,-0.143707275390625,0.0931396484375
1761915133145175600,2.743175537109375,0.0668792724609375,-0.138214111328125,0.0709991455078125
1761915133155229400,2.7532294921875,0.047607421875,-0.13079833984375,0.0597686767578125
1761915133165284400,2.763284423828125,0.0245513916015625,-0.1205291748046875,0.063812255859375
1761915133175338500,2.77333837890625,0.01123046875,-0.1084136962890625,0.07843017578125
1761915133185392400,2.783392333984375,0.0174713134765625,-0.08367919921875,0.082794189453125
1761915133195446500,2.793446533203125,0.016387939453125,-0.0560760498046875,0.085205078125
1761915133205500400,2.80350048828125,-0.010467529296875,-0.0634307861328125,0.095703125
1761915133215555300,2.813555419921875,-0.065765380859375,-0.0988311767578125,0.11041259765625
1761915133225609500,2.823609375,-0.1247711181640625,-0.1543121337890625,0.140228271484375
1761915133235663400,2.833663330078125,-0.1604156494140625,-0.2532958984375,0.213043212890625
1761915133245717500,2.843717529296875,-0.160064697265625,-0.4309844970703125,0.317626953125
1761915133255772400,2.8537724609375,-0.1350555419921875,-0.64892578125,0.42010498046875
1761915133265826600,2.86382666015625,-0.1534271240234375,-0.8034210205078125,0.43353271484375
1761915133275880400,2.87388037109375,-0.29681396484375,-0.8768310546875,0.35107421875
1761915133285934300,2.883934326171875,-0.533050537109375,-0.949615478515625,0.2715301513671875
1761915133295988200,2.89398828125,-0.77972412109375,-1.09100341796875,0.2399749755859375
1761915133306043400,2.90404345703125,-0.9431304931640625,-1.263885498046875,0.256744384765625
1761915133316097500,2.91409765625,-1.0006561279296875,-1.413665771484375,0.3288726806640625
1761915133326151400,2.9241513671875,-1.0581512451171875,-1.5922393798828125,0.39862060546875
1761915133336205600,2.93420556640625,-1.173828125,-1.769683837890625,0.3801422119140625
1761915133346260200,2.94426025390625,-1.263427734375,-1.840301513671875,0.2607421875
1761915133356314400,2.954314453125,-1.251617431640625,-1.85986328125,0.0915985107421875
1761915133366368500,2.964368408203125,-1.2317962646484375,-1.8898773193359375,-0.0124664306640625
1761915133376422400,2.97442236328125,-1.2828521728515625,-1.963470458984375,-0.0239410400390625
1761915133386476500,2.9844765625,-1.330078125,-2.041473388671875,0.0154266357421875
1761915133396531500,2.994531494140625,-1.3398590087890625,-2.031707763671875,0.00823974609375
1761915133406585300,3.00458544921875,-1.366851806640625,-1.9650421142578125,-0.042938232421875
1761915133416639200,3.01463916015625,-1.4472503662109375,-1.8955535888671875,-0.07415771484375
1761915133426693400,3.024693359375,-1.4908447265625,-1.8304901123046875,-0.064361572265625
1761915133436747300,3.034747314453125,-1.43231201171875,-1.711761474609375,-0.0432281494140625
1761915133446802400,3.044802490234375,-1.2850341796875,-1.5113372802734375,-0.0074005126953125
1761915133456856600,3.054856689453125,-1.098846435546875,-1.3137054443359375,0.0285491943359375
1761915133466910500,3.064910400390625,-0.905792236328125,-1.18719482421875,0.0536041259765625
1761915133476964400,3.07496435546875,-0.7115478515625,-1.09783935546875,0.044830322265625
1761915133487019500,3.08501953125,-0.52191162109375,-0.98162841796875,-0.0055389404296875
1761915133497073400,3.095073486328125,-0.3922576904296875,-0.8423004150390625,-0.0826568603515625
1761915133507127600,3.10512744140625,-0.3114166259765625,-0.693878173828125,-0.160003662109375
1761915133517181400,3.115181396484375,-0.26116943359375,-0.5426483154296875,-0.227294921875
1761915133527235600,3.125235595703125,-0.2571868896484375,-0.40838623046875,-0.266021728515625
1761915133537290200,3.135290283203125,-0.2759552001953125,-0.306671142578125,-0.2652587890625
1761915133547344400,3.145344482421875,-0.3082733154296875,-0.2418975830078125,-0.2211761474609375
1761915133557399300,3.1553994140625,-0.3265838623046875,-0.1982574462890625,-0.1276397705078125
1761915133567453200,3.165453125,-0.288360595703125,-0.1840057373046875,-0.036407470703125
1761915133577508000,3.175508056640625,-0.2523956298828125,-0.187255859375,0.035552978515625
1761915133587562200,3.185562255859375,-0.2194366455078125,-0.2073211669921875,0.092376708984375
1761915133597616000,3.1956162109375,-0.168609619140625,-0.2129669189453125,0.1200103759765625
1761915133607670300,3.205670166015625,-0.1298065185546875,-0.2132415771484375,0.11834716796875
1761915133617724200,3.21572412109375,-0.112396240234375,-0.2022857666015625,0.0897216796875
1761915133627779300,3.225779296875,-0.1023406982421875,-0.1865386962890625,0.0496368408203125
1761915133637833200,3.235833251953125,-0.1195068359375,-0.201446533203125,0.0196075439453125
1761915133647887000,3.24588720703125,-0.1558837890625,-0.2270355224609375,0.00347900390625
1761915133657941000,3.25594091796875,-0.17669677734375,-0.2327117919921875,0.0065155029296875
1761915133667995100,3.2659951171875,-0.171539306640625,-0.228607177734375,0.01666259765625
1761915133678050300,3.27605029296875,-0.165069580078125,-0.22607421875,0.031402587890625
1761915133688104200,3.286104248046875,-0.13983154296875,-0.2447967529296875,0.044403076171875
1761915133698158300,3.296158447265625,-0.099212646484375,-0.25286865234375,0.0445709228515625
1761915133708212200,3.306212158203125,-0.07659912109375,-0.23992919921875,0.050201416015625
1761915133718267100,3.31626708984375,-0.0736846923828125,-0.2360992431640625,0.063568115234375
1761915133728321300,3.3263212890625,-0.1087799072265625,-0.2474822998046875,0.07232666015625
1761915133738375200,3.336375244140625,-0.167999267578125,-0.264312744140625,0.088104248046875
1761915133748429300,3.34642919921875,-0.2476043701171875,-0.287017822265625,0.0813140869140625
1761915133758483200,3.356483154296875,-0.2786865234375,-0.3440704345703125,0.0669403076171875
1761915133768538000,3.3665380859375,-0.2447052001953125,-0.494384765625,0.10125732421875
1761915133778592000,3.376592041015625,-0.2537078857421875,-0.6924896240234375,0.1447906494140625
1761915133788646100,3.386646240234375,-0.3246612548828125,-0.8296966552734375,0.16455078125
1761915133798700300,3.3967001953125,-0.506744384765625,-0.9392242431640625,0.15399169921875
1761915133808755200,3.406755126953125,-0.747528076171875,-1.0694580078125,0.112701416015625
1761915133818809300,3.416809326171875,-1.0350341796875,-1.1392059326171875,0.00927734375
1761915133828863200,3.42686328125,-1.237396240234375,-1.20660400390625,-0.060546875
1761915133838917400,3.43691748046875,-1.34051513671875,-1.335662841796875,-0.072418212890625
1761915133848971000,3.446970947265625,-1.31768798828125,-1.4915771484375,-0.031463623046875
1761915133859026200,3.457026123046875,-1.3038330078125,-1.59771728515625,0.00103759765625
1761915133869080300,3.467080322265625,-1.2414703369140625,-1.6234283447265625,0.005340576171875
1761915133879134200,3.47713427734375,-1.138702392578125,-1.62445068359375,-0.0009918212890625
1761915133889188400,3.487188232421875,-1.10516357421875,-1.6329803466796875,0.010345458984375
1761915133899243000,3.497242919921875,-1.13323974609375,-1.635040283203125,0.0306549072265625
1761915133909297200,3.507297119140625,-1.1371307373046875,-1.62860107421875,0.0703125
1761915133919351000,3.51735107421875,-1.1317901611328125,-1.65765380859375,0.132080078125
1761915133929405200,3.5274052734375,-1.114959716796875,-1.6768341064453125,0.171844482421875
1761915133939459300,3.537459228515625,-1.0728912353515625,-1.680877685546875,0.19287109375
1761915133949514200,3.54751416015625,-1.0774383544921875,-1.6955108642578125,0.2117919921875
1761915133959568400,3.557568359375,-1.0829010009765625,-1.710052490234375,0.2172698974609375
1761915133969622000,3.5676220703125,-1.0485076904296875,-1.6619110107421875,0.1984710693359375
1761915133979676200,3.57767626953125,-0.9964447021484375,-1.5601043701171875,0.1751556396484375
1761915133989730000,3.58772998046875,-0.9411468505859375,-1.4340057373046875,0.153900146484375
1761915133999785200,3.59778515625,-0.88958740234375,-1.28790283203125,0.148284912109375
1761915134009839400,3.60783935546875,-0.831573486328125,-1.1593475341796875,0.1468658447265625
1761915134019893200,3.617893310546875,-0.7154083251953125,-1.020416259765625,0.1161346435546875
1761915134029947400,3.627947509765625,-0.569915771484375,-0.88458251953125,0.057891845703125
1761915134040002000,3.638001953125,-0.433837890625,-0.7484283447265625,-0.002593994140625
1761915134050056200,3.64805615234375,-0.31195068359375,-0.5950164794921875,-0.05633544921875
1761915134060110300,3.6581103515625,-0.261932373046875,-0.4466094970703125,-0.09954833984375
1761915134070164200,3.668164306640625,-0.277984619140625,-0.3359222412109375,-0.12286376953125
1761915134080218400,3.67821826171875,-0.27362060546875,-0.2539825439453125,-0.11865234375
1761915134090273000,3.68827294921875,-0.2390289306640625,-0.1893768310546875,-0.098175048828125
1761915134100327200,3.6983271484375,-0.1919708251953125,-0.1463165283203125,-0.0523529052734375
1761915134110381000,3.708381103515625,-0.1098785400390625,-0.13677978515625,0.01031494140625
1761915134120435200,3.718435302734375,-0.03753662109375,-0.1473388671875,0.082183837890625
1761915134130490400,3.728490478515625,-0.0030059814453125,-0.135101318359375,0.1403961181640625
1761915134140544300,3.738544189453125,0.002471923828125,-0.112060546875,0.172760009765625
1761915134150598400,3.748598388671875,0.012115478515625,-0.1236419677734375,0.1936492919921875
1761915134160652300,3.75865234375,0.0200042724609375,-0.140380859375,0.1943359375
1761915134170706200,3.7687060546875,0.03131103515625,-0.1454010009765625,0.1839599609375
1761915134180761300,3.77876123046875,0.0377655029296875,-0.1532135009765625,0.168914794921875
1761915134190815200,3.788815185546875,0.027740478515625,-0.1675262451171875,0.1539306640625
1761915134200869400,3.798869384765625,0.018341064453125,-0.1806793212890625,0.1442108154296875
1761915134210923300,3.80892333984375,0.004425048828125,-0.1647796630859375,0.122467041015625
1761915134220978200,3.818978271484375,-0.00628662109375,-0.14306640625,0.10400390625
1761915134231032000,3.829031982421875,-0.0267486572265625,-0.1440277099609375,0.0941314697265625
1761915134241086200,3.839086181640625,-0.05718994140625,-0.1357574462890625,0.07745361328125
1761915134251140000,3.84914013671875,-0.0937652587890625,-0.117034912109375,0.061676025390625
1761915134261194200,3.8591943359375,-0.154296875,-0.1181793212890625,0.0514373779296875
1761915134271249400,3.86924951171875,-0.224700927734375,-0.142120361328125,0.0498504638671875
1761915134281303000,3.879302978515625,-0.29620361328125,-0.183624267578125,0.0529022216796875
1761915134291357200,3.889357177734375,-0.344024658203125,-0.2896728515625,0.0570526123046875
1761915134301411000,3.8994111328125,-0.3682098388671875,-0.471221923828125,0.07147216796875
1761915134311466200,3.90946630859375,-0.3966064453125,-0.67266845703125,0.07537841796875
1761915134321520400,3.919520263671875,-0.4799957275390625,-0.860565185546875,0.083953857421875
1761915134331574300,3.92957421875,-0.6461181640625,-1.057769775390625,0.12139892578125
1761915134341628400,3.93962841796875,-0.877410888671875,-1.2347564697265625,0.1046905517578125
1761915134351682300,3.949682373046875,-1.1607513427734375,-1.20269775390625,-0.0409698486328125
1761915134361737200,3.9597373046875,-1.2823333740234375,-1.178985595703125,-0.152587890625
1761915134371791000,3.969791015625,-1.298309326171875,-1.3521575927734375,-0.1361541748046875
1761915134381845200,3.97984521484375,-1.44091796875,-1.5701141357421875,0.0094146728515625
1761915134391899100,3.989899169921875,-1.6967620849609375,-1.7704925537109375,0.25885009765625
1761915134401954000,3.9999541015625,-1.886505126953125,-1.8556976318359375,0.4135284423828125
1761915134412005000,4.010005126953125,-1.9500579833984375,-1.759918212890625,0.37835693359375
1761915134422060300,4.020060302734375,-1.9427947998046875,-1.711578369140625,0.28558349609375
1761915134432114200,4.0301142578125,-1.95654296875,-1.7204132080078125,0.2320098876953125
1761915134442168300,4.040168212890625,-1.84783935546875,-1.76611328125,0.2800140380859375
1761915134452222200,4.05022216796875,-1.6950836181640625,-1.8346099853515625,0.350494384765625
1761915134462277000,4.060277099609375,-1.6061859130859375,-1.7847747802734375,0.347320556640625
1761915134472331300,4.070331298828125,-1.50750732421875,-1.675048828125,0.2787322998046875
1761915134482385200,4.08038525390625,-1.327606201171875,-1.565277099609375,0.20623779296875
1761915134492439300,4.090439208984375,-1.0954437255859375,-1.412994384765625,0.18121337890625
1761915134502493200,4.1004931640625,-0.8809661865234375,-1.232086181640625,0.1940460205078125
1761915134512548000,4.110548095703125,-0.719451904296875,-1.059967041015625,0.200775146484375
1761915134522602200,4.120602294921875,-0.6372528076171875,-0.914398193359375,0.1717529296875
1761915134532656000,4.13065625,-0.6001129150390625,-0.7678680419921875,0.102264404296875
1761915134542710300,4.140710205078125,-0.5504302978515625,-0.618011474609375,0.01220703125
1761915134552765200,4.15076513671875,-0.47467041015625,-0.48565673828125,-0.0691680908203125
1761915134562819000,4.160819091796875,-0.4248199462890625,-0.3877105712890625,-0.1099090576171875
1761915134572873200,4.170873291015625,-0.3741607666015625,-0.30517578125,-0.1186065673828125
1761915134582927000,4.180927001953125,-0.3178863525390625,-0.2282867431640625,-0.1088714599609375
1761915134592981000,4.19098095703125,-0.274658203125,-0.178009033203125,-0.0606231689453125
1761915134603036200,4.2010361328125,-0.2353363037109375,-0.1599273681640625,0.0180206298828125
1761915134613090000,4.211090087890625,-0.188232421875,-0.1414794921875,0.0913238525390625
1761915134623144200,4.221144287109375,-0.136322021484375,-0.120147705078125,0.15118408203125
1761915134633198000,4.231197998046875,-0.08935546875,-0.102691650390625,0.19537353515625
1761915134643253000,4.2412529296875,-0.0598907470703125,-0.0772552490234375,0.2185821533203125
1761915134653307100,4.25130712890625,-0.0292205810546875,-0.0570220947265625,0.2245635986328125
1761915134663361000,4.261361083984375,0.012664794921875,-0.0595703125,0.2248077392578125
1761915134673415200,4.271415283203125,0.0553131103515625,-0.071136474609375,0.215484619140625
1761915134683469000,4.281468994140625,0.1016082763671875,-0.09600830078125,0.20013427734375
1761915134693524200,4.291524169921875,0.1246795654296875,-0.1243133544921875,0.1927947998046875
1761915134703578000,4.301578125,0.10858154296875,-0.12786865234375,0.184844970703125
1761915134713632000,4.311632080078125,0.1000518798828125,-0.1222076416015625,0.1775970458984375
1761915134723686000,4.321685791015625,0.0819244384765625,-0.11871337890625,0.1689300537109375
1761915134733740000,4.331739990234375,0.054840087890625,-0.1222381591796875,0.1529998779296875
1761915134743795200,4.341795166015625,0.038665771484375,-0.13421630859375,0.1406402587890625
1761915134753849000,4.35184912109375,0.013397216796875,-0.149871826171875,0.14013671875
1761915134763903200,4.3619033203125,-0.027862548828125,-0.166229248046875,0.13397216796875
1761915134773957000,4.37195703125,-0.071441650390625,-0.1865692138671875,0.1247406005859375
1761915134784012000,4.382011962890625,-0.10552978515625,-0.2319488525390625,0.1277923583984375
1761915134794066200,4.392066162109375,-0.129791259765625,-0.3080291748046875,0.1397857666015625
1761915134804120000,4.4021201171875,-0.1909637451171875,-0.402374267578125,0.1643524169921875
1761915134814174200,4.41217431640625,-0.28271484375,-0.527740478515625,0.209716796875
1761915134824229000,4.42222900390625,-0.3797454833984375,-0.6622772216796875,0.2464141845703125
1761915134834283000,4.432282958984375,-0.48956298828125,-0.7702484130859375,0.258697509765625
1761915134844337000,4.4423369140625,-0.5692596435546875,-0.861419677734375,0.2634735107421875
1761915134854391000,4.45239111328125,-0.604705810546875,-1.03790283203125,0.283294677734375
1761915134864445200,4.462445068359375,-0.8115234375,-1.136077880859375,0.2134246826171875
1761915134874500000,4.4725,-1.0785980224609375,-1.1451416015625,0.1579132080078125
1761915134884554200,4.48255419921875,-1.230743408203125,-1.1693572998046875,0.212249755859375
1761915134894608100,4.492608154296875,-1.29547119140625,-1.4087677001953125,0.4104461669921875
1761915134904662000,4.502662109375,-1.3223724365234375,-1.7412567138671875,0.6347808837890625
1761915134914717200,4.51271728515625,-1.3579559326171875,-1.855743408203125,0.6995849609375
1761915134924771000,4.52277099609375,-1.36669921875,-1.8204193115234375,0.6012420654296875
1761915134934825200,4.5328251953125,-1.408721923828125,-1.8605499267578125,0.50518798828125
1761915134944879000,4.542879150390625,-1.4783477783203125,-1.9175567626953125,0.4277801513671875
1761915134954933200,4.552933349609375,-1.4770050048828125,-1.9722137451171875,0.3722991943359375
1761915134964988000,4.56298779296875,-1.4237823486328125,-2.0298309326171875,0.346832275390625
1761915134975042000,4.5730419921875,-1.3765716552734375,-2.0161895751953125,0.28558349609375
1761915134985096000,4.583095947265625,-1.385589599609375,-1.9691619873046875,0.22869873046875
1761915134995150000,4.593150146484375,-1.42108154296875,-1.9322662353515625,0.2313995361328125
1761915135005205200,4.603205322265625,-1.4533538818359375,-1.86822509765625,0.2609405517578125
1761915135015259100,4.613259033203125,-1.4627838134765625,-1.779388427734375,0.28314208984375
1761915135025313000,4.62331298828125,-1.4167327880859375,-1.6555328369140625,0.2909088134765625
1761915135035367000,4.633366943359375,-1.28729248046875,-1.4835052490234375,0.2806243896484375
1761915135045421000,4.643421142578125,-1.1149139404296875,-1.2581787109375,0.2430419921875
1761915135055476200,4.653476318359375,-0.957550048828125,-1.067230224609375,0.197906494140625
1761915135065530000,4.663530029296875,-0.8508758544921875,-0.9727783203125,0.137847900390625
1761915135075584300,4.673584228515625,-0.746368408203125,-0.93682861328125,0.0724639892578125
1761915135085638100,4.68363818359375,-0.5850067138671875,-0.8438262939453125,-0.0139923095703125
1761915135095693000,4.693693115234375,-0.432281494140625,-0.688568115234375,-0.1004638671875
1761915135105747000,4.703746826171875,-0.3150482177734375,-0.5047760009765625,-0.1644744873046875
1761915135115801000,4.713801025390625,-0.204254150390625,-0.32708740234375,-0.1807708740234375
1761915135125855200,4.723855224609375,-0.1190643310546875,-0.1760406494140625,-0.1456146240234375
1761915135135909000,4.7339091796875,-0.0908203125,-0.062103271484375,-0.0667266845703125
1761915135145964000,4.743964111328125,-0.0902252197265625,0.0109405517578125,0.013580322265625
1761915135156018000,4.754017822265625,-0.09393310546875,0.0492706298828125,0.077728271484375
1761915135166072000,4.764072021484375,-0.0748291015625,0.042572021484375,0.1268768310546875
1761915135176126000,4.7741259765625,-0.04827880859375,0.0174560546875,0.1598358154296875
1761915135186181000,4.78418115234375,-0.01507568359375,-0.0162200927734375,0.2012176513671875
1761915135196235300,4.7942353515625,-0.0028839111328125,-0.036407470703125,0.2139434814453125
1761915135206289200,4.8042890625,0.016448974609375,-0.051544189453125,0.203765869140625
1761915135216343000,4.814343017578125,0.0401153564453125,-0.0548858642578125,0.1906585693359375
1761915135226398000,4.82439794921875,0.0668182373046875,-0.0738372802734375,0.183837890625
1761915135236452000,4.8344521484375,0.0674896240234375,-0.0931396484375,0.1861572265625
1761915135246506200,4.84450634765625,0.0465545654296875,-0.11260986328125,0.196075439453125
1761915135256560000,4.85456005859375,0.0218963623046875,-0.1248626708984375,0.2061614990234375
1761915135266614300,4.8646142578125,0.0140533447265625,-0.1357879638671875,0.208099365234375
1761915135276669000,4.8746689453125,0.0174713134765625,-0.13787841796875,0.1868896484375
1761915135286723000,4.88472314453125,0.019989013671875,-0.1420745849609375,0.1561737060546875
1761915135296777000,4.89477685546875,0.007049560546875,-0.1551666259765625,0.134979248046875
1761915135306831000,4.9048310546875,-0.0322418212890625,-0.174835205078125,0.124267578125
1761915135316886300,4.91488623046875,-0.073822021484375,-0.202423095703125,0.1076202392578125
1761915135326940200,4.924940185546875,-0.111602783203125,-0.214874267578125,0.088104248046875
1761915135336994000,4.934994140625,-0.1888580322265625,-0.229095458984375,0.0783843994140625
1761915135347048000,4.9450478515625,-0.275604248046875,-0.2668914794921875,0.0989227294921875
1761915135357102000,4.95510205078125,-0.363922119140625,-0.3143463134765625,0.1310882568359375
1761915135367157000,4.965156982421875,-0.4417572021484375,-0.41363525390625,0.17486572265625
1761915135377211100,4.975211181640625,-0.5014801025390625,-0.5808258056640625,0.2243499755859375
1761915135387265300,4.985265380859375,-0.5894622802734375,-0.6864471435546875,0.2251434326171875
1761915135397319200,4.995319091796875,-0.6201171875,-0.8338623046875,0.2420501708984375
1761915135407374000,5.0053740234375,-0.6776275634765625,-1.1231689453125,0.319366455078125
1761915135417428000,5.015427978515625,-0.9012908935546875,-1.275177001953125,0.3813323974609375
1761915135427482000,5.025482177734375,-1.0848541259765625,-1.1070556640625,0.3046417236328125
1761915135437536000,5.035535888671875,-1.1106719970703125,-1.1502838134765625,0.3756866455078125
1761915135447590100,5.045590087890625,-1.21148681640625,-1.4063720703125,0.614654541015625
1761915135457645000,5.05564501953125,-1.293060302734375,-1.63311767578125,0.8678131103515625
1761915135467699000,5.065698974609375,-1.4207763671875,-1.7290802001953125,0.94964599609375
1761915135477753000,5.075753173828125,-1.534576416015625,-1.6471405029296875,0.8043670654296875
1761915135487807000,5.085806884765625,-1.6837921142578125,-1.6569061279296875,0.6127471923828125
1761915135497862100,5.095862060546875,-1.8680877685546875,-1.7155609130859375,0.4397735595703125
1761915135507916300,5.105916259765625,-1.972412109375,-1.68658447265625,0.2621917724609375
1761915135517970200,5.11597021484375,-1.9502410888671875,-1.6248016357421875,0.0935516357421875
1761915135528024300,5.1260244140625,-1.834991455078125,-1.5685272216796875,-0.0809478759765625
1761915135538079000,5.136078857421875,-1.700042724609375,-1.5805511474609375,-0.189910888671875
1761915135548133000,5.146133056640625,-1.4256744384765625,-1.5737762451171875,-0.2064361572265625
1761915135558187000,5.15618701171875,-1.03497314453125,-1.42059326171875,-0.1766357421875
1761915135568240600,5.16624072265625,-0.637115478515625,-1.22491455078125,-0.1160888671875
1761915135578294500,5.17629443359375,-0.4221649169921875,-1.010711669921875,-0.0805816650390625
1761915135588349700,5.186349609375,-0.3370361328125,-0.8099212646484375,-0.0328369140625
1761915135598403600,5.196403564453125,-0.2598419189453125,-0.5972137451171875,-0.0047607421875
1761915135608457500,5.20645751953125,-0.2714385986328125,-0.4091796875,-0.0036773681640625
1761915135618511600,5.21651171875,-0.379547119140625,-0.31744384765625,0.0152130126953125
1761915135628566500,5.22656640625,-0.4401702880859375,-0.2543487548828125,0.0450286865234375
1761915135638620700,5.23662060546875,-0.485260009765625,-0.207000732421875,0.0625
1761915135648674600,5.246674560546875,-0.4904327392578125,-0.16943359375,0.0828399658203125
1761915135658728700,5.256728759765625,-0.4547882080078125,-0.14105224609375,0.1048431396484375
1761915135668782600,5.266782470703125,-0.3992462158203125,-0.113372802734375,0.113037109375
1761915135678837500,5.27683740234375,-0.3299713134765625,-0.1058197021484375,0.11846923828125
1761915135688891600,5.2868916015625,-0.256103515625,-0.1175689697265625,0.1089935302734375
1761915135698945500,5.296945556640625,-0.19354248046875,-0.1067352294921875,0.08447265625
1761915135708999700,5.306999755859375,-0.12799072265625,-0.104339599609375,0.0769195556640625
1761915135719054600,5.3170546875,-0.0792388916015625,-0.12579345703125,0.0638885498046875
1761915135729108500,5.3271083984375,-0.0444793701171875,-0.154449462890625,0.0494842529296875
1761915135739162600,5.33716259765625,-0.022735595703125,-0.1840057373046875,0.0439300537109375
1761915135749216500,5.347216552734375,-0.051971435546875,-0.2138824462890625,0.0493621826171875
1761915135759271700,5.357271728515625,-0.0982208251953125,-0.2496490478515625,0.072906494140625
1761915135769325600,5.36732568359375,-0.126129150390625,-0.2743682861328125,0.09942626953125
1761915135779379700,5.377379638671875,-0.1619873046875,-0.30072021484375,0.116302490234375
1761915135789433600,5.38743359375,-0.224639892578125,-0.319580078125,0.120574951171875
1761915135799487500,5.397487548828125,-0.2682952880859375,-0.3436126708984375,0.106414794921875
1761915135809542700,5.407542724609375,-0.307464599609375,-0.3494110107421875,0.080596923828125
1761915135819596500,5.417596435546875,-0.38385009765625,-0.3549346923828125,0.0561981201171875
1761915135829650700,5.427650634765625,-0.4660186767578125,-0.37603759765625,0.0290985107421875
1761915135839704600,5.43770458984375,-0.5569610595703125,-0.4019012451171875,0.0147552490234375
1761915135849759500,5.447759521484375,-0.6530609130859375,-0.4461822509765625,0.0120697021484375
1761915135859813600,5.457813720703125,-0.75091552734375,-0.5186767578125,0.018341064453125
1761915135869867500,5.467867431640625,-0.8296966552734375,-0.6043243408203125,0.03704833984375
1761915135879921700,5.477921630859375,-0.87188720703125,-0.6832275390625,0.0377197265625
1761915135889976600,5.4879765625,-0.8548736572265625,-0.7967529296875,0.0106048583984375
1761915135900030700,5.49803076171875,-0.8122406005859375,-0.9402923583984375,-0.00653076171875
1761915135910084600,5.508084716796875,-0.9024200439453125,-1.0056610107421875,-0.0407257080078125
1761915135920138500,5.518138427734375,-1.06536865234375,-1.0234222412109375,-0.076629638671875
1761915135930192600,5.528192626953125,-1.1637115478515625,-1.23016357421875,0.0375213623046875
1761915135940247600,5.53824755859375,-1.2805938720703125,-1.414398193359375,0.1843719482421875
1761915135950301700,5.5483017578125,-1.3415985107421875,-1.4398651123046875,0.3144378662109375
1761915135960355600,5.55835546875,-1.2224578857421875,-1.5538482666015625,0.4712066650390625
1761915135970409700,5.56840966796875,-1.1551666259765625,-1.6590118408203125,0.523193359375
1761915135980464600,5.578464599609375,-1.1736907958984375,-1.6636962890625,0.443817138671875
1761915135990518500,5.5885185546875,-1.2553863525390625,-1.6792449951171875,0.344879150390625
1761915136000572700,5.59857275390625,-1.3096160888671875,-1.7704010009765625,0.3439483642578125
1761915136010626600,5.60862646484375,-1.2597198486328125,-1.898345947265625,0.4183197021484375
1761915136020680700,5.6186806640625,-1.1935272216796875,-2.0068359375,0.5044708251953125
1761915136030735600,5.628735595703125,-1.150238037109375,-2.0592498779296875,0.572601318359375
1761915136040789500,5.63878955078125,-1.1514129638671875,-2.0576934814453125,0.59307861328125
1761915136050843400,5.648843505859375,-1.2446441650390625,-1.9933319091796875,0.5804901123046875
1761915136060897500,5.6588974609375,-1.3504486083984375,-1.8701019287109375,0.5676727294921875
1761915136070952700,5.66895263671875,-1.3672637939453125,-1.6639862060546875,0.533966064453125
1761915136081006600,5.679006591796875,-1.2813262939453125,-1.3824920654296875,0.48431396484375
1761915136091060700,5.689060791015625,-1.084014892578125,-1.0690460205078125,0.4174652099609375
1761915136101114600,5.699114501953125,-0.834197998046875,-0.8394775390625,0.3377838134765625
1761915136111169500,5.70916943359375,-0.62872314453125,-0.7161407470703125,0.276123046875
1761915136121223700,5.7192236328125,-0.4472808837890625,-0.6108551025390625,0.2099761962890625
1761915136131277600,5.729277587890625,-0.3438262939453125,-0.4791412353515625,0.102203369140625
1761915136141331700,5.739331787109375,-0.3578338623046875,-0.3014373779296875,-0.019012451171875
1761915136151385600,5.749385498046875,-0.3029022216796875,-0.170013427734375,-0.0934600830078125
1761915136161440500,5.7594404296875,-0.241119384765625,-0.115753173828125,-0.1182403564453125
1761915136171494400,5.769494384765625,-0.1687469482421875,-0.098419189453125,-0.094268798828125
1761915136181548500,5.779548583984375,-0.0858612060546875,-0.088470458984375,-0.024261474609375
1761915136191602700,5.789602783203125,-0.04296875,-0.062774658203125,0.059600830078125
1761915136201657600,5.79965771484375,-0.020172119140625,-0.005615234375,0.13116455078125
1761915136211711700,5.809711669921875,-0.0270843505859375,0.05206298828125,0.184967041015625
1761915136221765600,5.819765625,-0.034881591796875,0.111602783203125,0.2194366455078125
1761915136231819500,5.829819580078125,-0.0310516357421875,0.14947509765625,0.25054931640625
1761915136241874700,5.839874755859375,-0.005584716796875,0.147003173828125,0.271697998046875
1761915136251928600,5.849928466796875,0.0517578125,0.110504150390625,0.283294677734375
1761915136261982700,5.859982666015625,0.1060028076171875,0.0508575439453125,0.298980712890625
1761915136272036600,5.87003662109375,0.142852783203125,0.000030517578125,0.304718017578125
1761915136282090800,5.8800908203125,0.1722412109375,-0.046539306640625,0.2868804931640625
1761915136292145400,5.8901455078125,0.1972198486328125,-0.085968017578125,0.2541046142578125
1761915136302199600,5.900199462890625,0.22760009765625,-0.10498046875,0.210906982421875
1761915136312253700,5.910253662109375,0.2422943115234375,-0.139068603515625,0.1712646484375
1761915136322307600,5.9203076171875,0.2452392578125,-0.1759490966796875,0.144744873046875
1761915136332362800,5.93036279296875,0.205474853515625,-0.1931304931640625,0.145263671875
1761915136342416600,5.940416748046875,0.1122283935546875,-0.2498779296875,0.1601715087890625
1761915136352470500,5.950470458984375,-0.0155487060546875,-0.302337646484375,0.1641082763671875
1761915136362524400,5.9605244140625,-0.1214599609375,-0.32781982421875,0.1806182861328125
1761915136372579600,5.97057958984375,-0.2022705078125,-0.3938751220703125,0.2110443115234375
1761915136382633700,5.9806337890625,-0.2202606201171875,-0.534759521484375,0.25213623046875
1761915136392687600,5.9906875,-0.245697021484375,-0.709014892578125,0.28143310546875
1761915136402741800,6.00074169921875,-0.3424835205078125,-0.85125732421875,0.2941436767578125
1761915136412795600,6.010795654296875,-0.4837493896484375,-0.974822998046875,0.2951202392578125
1761915136422850600,6.0208505859375,-0.623809814453125,-1.111083984375,0.289794921875
1761915136432904400,6.030904541015625,-0.7893524169921875,-1.2344818115234375,0.26165771484375
1761915136442958600,6.04095849609375,-1.0008544921875,-1.297027587890625,0.191162109375
1761915136453012700,6.0510126953125,-1.210906982421875,-1.437713623046875,0.2099761962890625
1761915136463067600,6.061067626953125,-1.4000396728515625,-1.6342926025390625,0.32708740234375
1761915136473121500,6.07112158203125,-1.4919586181640625,-1.7820587158203125,0.4649810791015625
1761915136483175400,6.081175537109375,-1.5256195068359375,-1.879425048828125,0.5557098388671875
1761915136493229600,6.0912294921875,-1.636199951171875,-1.7980804443359375,0.4974365234375
1761915136503283500,6.101283447265625,-1.75177001953125,-1.6039581298828125,0.35198974609375
1761915136513338600,6.111338623046875,-1.789794921875,-1.4836578369140625,0.2471771240234375
1761915136523392800,6.121392822265625,-1.7908935546875,-1.4255828857421875,0.1899871826171875
1761915136533446700,6.13144677734375,-1.7759552001953125,-1.4094085693359375,0.1700439453125
1761915136543500500,6.14150048828125,-1.6381378173828125,-1.4058990478515625,0.1464691162109375
1761915136553555500,6.151555419921875,-1.4136505126953125,-1.351593017578125,0.120635986328125
1761915136563610000,6.161610107421875,-1.1580047607421875,-1.21917724609375,0.1089935302734375
1761915136573664000,6.1716640625,-0.89520263671875,-1.0290985107421875,0.0920562744140625
1761915136583718100,6.18171826171875,-0.7095489501953125,-0.84014892578125,0.0776824951171875
1761915136593773000,6.19177294921875,-0.6476593017578125,-0.73223876953125,0.07989501953125
1761915136603827000,6.201826904296875,-0.6103057861328125,-0.7167510986328125,0.0947113037109375
1761915136613881000,6.211881103515625,-0.5094451904296875,-0.6912078857421875,0.05511474609375
1761915136623935000,6.22193505859375,-0.36785888671875,-0.5753631591796875,-0.0708160400390625
1761915136633989000,6.231989013671875,-0.29901123046875,-0.46783447265625,-0.189300537109375
1761915136644044300,6.242044189453125,-0.2801666259765625,-0.37371826171875,-0.27081298828125
1761915136654098000,6.252097900390625,-0.2740020751953125,-0.2723388671875,-0.3168182373046875
1761915136664152000,6.262152099609375,-0.303131103515625,-0.187408447265625,-0.3017730712890625
1761915136674206000,6.2722060546875,-0.3332061767578125,-0.14385986328125,-0.2393798828125
1761915136684261000,6.28226123046875,-0.3431243896484375,-0.103057861328125,-0.1589813232421875
1761915136694315000,6.29231494140625,-0.318817138671875,-0.08880615234375,-0.0593719482421875
1761915136704369200,6.302369140625,-0.2646026611328125,-0.1086273193359375,0.04058837890625
1761915136714423000,6.312423095703125,-0.199005126953125,-0.123382568359375,0.103515625
1761915136724478000,6.32247802734375,-0.1583099365234375,-0.118133544921875,0.14617919921875
1761915136734532000,6.332531982421875,-0.1266937255859375,-0.1283416748046875,0.18719482421875
1761915136744586000,6.3425859375,-0.106964111328125,-0.1411285400390625,0.2155914306640625
1761915136754640100,6.35264013671875,-0.0937957763671875,-0.1533966064453125,0.223907470703125
1761915136764694000,6.362694091796875,-0.064697265625,-0.171234130859375,0.2162322998046875
1761915136774749000,6.3727490234375,-0.0633697509765625,-0.185211181640625,0.19451904296875
1761915136784803000,6.382802978515625,-0.1060333251953125,-0.2150421142578125,0.1775970458984375
1761915136794857000,6.39285693359375,-0.1616363525390625,-0.24658203125,0.162445068359375
1761915136804911000,6.4029111328125,-0.2458953857421875,-0.263916015625,0.133697509765625
1761915136814966000,6.412966064453125,-0.3274993896484375,-0.305694580078125,0.1231842041015625
1761915136825020200,6.423020263671875,-0.3935546875,-0.3555145263671875,0.1265411376953125
1761915136835074000,6.433073974609375,-0.4682159423828125,-0.418121337890625,0.109588623046875
1761915136845128000,6.4431279296875,-0.529876708984375,-0.5121917724609375,0.084625244140625
1761915136855183000,6.45318310546875,-0.585052490234375,-0.6458740234375,0.0553436279296875
1761915136865237000,6.463237060546875,-0.6759185791015625,-0.811767578125,0.0326385498046875
1761915136875291100,6.473291015625,-0.8143768310546875,-0.9273834228515625,-0.008087158203125
1761915136885345000,6.483344970703125,-0.9921875,-1.0376434326171875,-0.0469207763671875
1761915136895399200,6.493399169921875,-1.172332763671875,-1.19256591796875,-0.075286865234375
1761915136905454000,6.5034541015625,-1.422607421875,-1.2651214599609375,-0.1306915283203125
1761915136915508000,6.513508056640625,-1.591522216796875,-1.323516845703125,-0.18072509765625
1761915136925562000,6.52356201171875,-1.564727783203125,-1.434173583984375,-0.157135009765625
1761915136935616000,6.533615966796875,-1.53466796875,-1.5918731689453125,-0.022735595703125
1761915136945671200,6.543671142578125,-1.5897369384765625,-1.753173828125,0.195556640625
1761915136955725000,6.55372509765625,-1.635467529296875,-1.84600830078125,0.3785858154296875
1761915136965779000,6.563779052734375,-1.6313323974609375,-1.8803253173828125,0.47412109375
1761915136975832800,6.573832763671875,-1.72906494140625,-1.8314971923828125,0.458587646484375
1761915136985888000,6.583887939453125,-1.883392333984375,-1.7880401611328125,0.444366455078125
1761915136995942100,6.593942138671875,-1.915618896484375,-1.8038177490234375,0.4478759765625
1761915137005996000,6.60399609375,-1.8094329833984375,-1.740081787109375,0.3935089111328125
1761915137016050200,6.61405029296875,-1.57928466796875,-1.6564788818359375,0.3132171630859375
1761915137026104000,6.62410400390625,-1.3466339111328125,-1.600250244140625,0.235137939453125
1761915137036159000,6.634158935546875,-1.1714324951171875,-1.4874420166015625,0.1965789794921875
1761915137046213000,6.644213134765625,-1.064849853515625,-1.265594482421875,0.2010955810546875
1761915137056267000,6.65426708984375,-0.968231201171875,-1.02960205078125,0.228424072265625
1761915137066321200,6.664321044921875,-0.8056640625,-0.865325927734375,0.2591705322265625
1761915137076376000,6.6743759765625,-0.5881195068359375,-0.7602691650390625,0.2574005126953125
1761915137086430000,6.684429931640625,-0.413116455078125,-0.681396484375,0.2103118896484375
1761915137096483800,6.69448388671875,-0.42120361328125,-0.5611114501953125,0.1037445068359375
1761915137106538000,6.7045380859375,-0.4860992431640625,-0.4002227783203125,-0.0287322998046875
1761915137116593200,6.71459326171875,-0.394805908203125,-0.2939453125,-0.12518310546875
1761915137126647000,6.72464697265625,-0.2147674560546875,-0.275726318359375,-0.15771484375
1761915137136701200,6.734701171875,-0.1080474853515625,-0.2422943115234375,-0.165679931640625
1761915137146755000,6.744755126953125,-0.0284423828125,-0.1744384765625,-0.158447265625
1761915137156809200,6.754809326171875,0.0142822265625,-0.1261749267578125,-0.1217193603515625
1761915137166864100,6.764864013671875,-0.0037384033203125,-0.120025634765625,-0.04180908203125
1761915137176918000,6.77491796875,-0.00665283203125,-0.12744140625,0.0522003173828125
1761915137186972200,6.78497216796875,-0.0063018798828125,-0.1253204345703125,0.111297607421875
1761915137197026000,6.795026123046875,-0.007598876953125,-0.1612396240234375,0.148345947265625
1761915137207081000,6.8050810546875,0.001708984375,-0.2009429931640625,0.1677398681640625
1761915137217134800,6.815134765625,0.01904296875,-0.224639892578125,0.1605682373046875
1761915137227189000,6.82518896484375,0.011566162109375,-0.2283477783203125,0.1513214111328125
1761915137237243000,6.835242919921875,0.0032806396484375,-0.222412109375,0.13232421875
1761915137247298000,6.845298095703125,0.00958251953125,-0.20550537109375,0.101837158203125
1761915137257352200,6.855352294921875,-0.0001220703125,-0.1712799072265625,0.065216064453125
1761915137267406000,6.865406005859375,0.0114288330078125,-0.150146484375,0.0409088134765625
1761915137277460200,6.875460205078125,0.0272369384765625,-0.1559295654296875,0.0322113037109375
1761915137287515100,6.88551513671875,0.011932373046875,-0.1823883056640625,0.0459136962890625
1761915137297569000,6.895569091796875,-0.017608642578125,-0.1967315673828125,0.0641021728515625
1761915137307623200,6.905623046875,-0.037750244140625,-0.2159423828125,0.08599853515625
1761915137317677000,6.915677001953125,-0.076812744140625,-0.2377471923828125,0.1132049560546875
1761915137327731200,6.925731201171875,-0.1301727294921875,-0.2404327392578125,0.134674072265625
1761915137337785900,6.935785888671875,-0.181976318359375,-0.2198333740234375,0.148834228515625
1761915137347840000,6.945840087890625,-0.2114715576171875,-0.198150634765625,0.1491851806640625
1761915137357894000,6.955893798828125,-0.2370147705078125,-0.2288970947265625,0.1289825439453125
1761915137367948000,6.965947998046875,-0.3369903564453125,-0.3976593017578125,0.1585235595703125
1761915137378003200,6.976003173828125,-0.4057769775390625,-0.7105255126953125,0.2801055908203125
1761915137388057000,6.98605712890625,-0.455108642578125,-1.0965423583984375,0.438385009765625
1761915137398111200,6.996111328125,-0.606414794921875,-1.3350982666015625,0.494049072265625
1761915137408164900,7.006164794921875,-0.881561279296875,-1.1593017578125,0.289703369140625
1761915137418220000,7.016219970703125,-1.0578460693359375,-0.9780731201171875,0.0147705078125
1761915137428274200,7.026274169921875,-1.165374755859375,-1.32781982421875,0.0876007080078125
1761915137438328000,7.036328125,-1.5656585693359375,-1.612030029296875,0.34674072265625
1761915137448382200,7.04638232421875,-1.809814453125,-1.630889892578125,0.5684051513671875
1761915137458436000,7.05643603515625,-1.767333984375,-1.7133331298828125,0.6922760009765625
1761915137468491000,7.066490966796875,-1.6961669921875,-1.7819366455078125,0.6541595458984375
1761915137478545000,7.076544921875,-1.6332244873046875,-1.7588348388671875,0.51812744140625
1761915137488599000,7.08659912109375,-1.5811004638671875,-1.748443603515625,0.3749847412109375
1761915137498653000,7.09665283203125,-1.4942626953125,-1.718902587890625,0.2719879150390625
1761915137508708000,7.1067080078125,-1.4076385498046875,-1.686279296875,0.191375732421875
1761915137518762000,7.116761962890625,-1.383026123046875,-1.63763427734375,0.1200103759765625
1761915137528815900,7.12681591796875,-1.3904266357421875,-1.4279937744140625,0.0338592529296875
1761915137538870000,7.1368701171875,-1.3809051513671875,-1.0888824462890625,-0.030029296875
1761915137548925200,7.14692529296875,-1.3601531982421875,-0.77569580078125,-0.0069580078125
1761915137558979000,7.15697900390625,-1.300201416015625,-0.5882110595703125,0.0629730224609375
1761915137569032400,7.167032470703125,-1.14984130859375,-0.5572662353515625,0.103363037109375
1761915137579086600,7.177086669921875,-0.9506988525390625,-0.6636810302734375,0.0844573974609375
1761915137589140500,7.187140380859375,-0.7829437255859375,-0.746185302734375,-0.019195556640625
1761915137599195400,7.1971953125,-0.620880126953125,-0.6474151611328125,-0.2049560546875
1761915137609249300,7.207249267578125,-0.5228729248046875,-0.4868011474609375,-0.3674163818359375
1761915137619303400,7.217303466796875,-0.48284912109375,-0.3639068603515625,-0.4361419677734375
1761915137629357300,7.227357421875,-0.409637451171875,-0.2641754150390625,-0.4243621826171875
1761915137639412500,7.23741259765625,-0.373931884765625,-0.175506591796875,-0.34893798828125
1761915137649466600,7.247466552734375,-0.3349761962890625,-0.1597747802734375,-0.207611083984375
1761915137659520500,7.2575205078125,-0.30511474609375,-0.198822021484375,-0.029754638671875
1761915137669574400,7.267574462890625,-0.2525177001953125,-0.225982666015625,0.136077880859375
1761915137679629300,7.27762939453125,-0.1885223388671875,-0.195526123046875,0.2410430908203125
1761915137689683500,7.287683349609375,-0.1333160400390625,-0.1567230224609375,0.3034820556640625
1761915137699737300,7.2977373046875,-0.0583343505859375,-0.1358184814453125,0.3410797119140625
1761915137709791500,7.30779150390625,0.0120391845703125,-0.1084747314453125,0.3397369384765625
1761915137719846400,7.317846435546875,0.0758056640625,-0.1003875732421875,0.3221282958984375
1761915137729900300,7.327900390625,0.11053466796875,-0.129913330078125,0.316741943359375
1761915137739954400,7.337954345703125,0.1194000244140625,-0.1589202880859375,0.313995361328125
1761915137750008300,7.34800830078125,0.127655029296875,-0.1871795654296875,0.3002471923828125
1761915137760062500,7.3580625,0.1576385498046875,-0.222198486328125,0.28863525390625
1761915137770117600,7.36811767578125,0.15655517578125,-0.2191619873046875,0.264556884765625
1761915137780171500,7.378171630859375,0.099151611328125,-0.2008819580078125,0.2549591064453125
1761915137790225400,7.388225341796875,-0.005767822265625,-0.2122955322265625,0.27838134765625
1761915137800279300,7.398279296875,-0.0972442626953125,-0.243072509765625,0.302734375
1761915137810334500,7.40833447265625,-0.18463134765625,-0.245452880859375,0.3118133544921875
1761915137820388400,7.418388427734375,-0.227691650390625,-0.26226806640625,0.2947998046875
1761915137830442500,7.4284423828125,-0.227813720703125,-0.29736328125,0.2480316162109375
1761915137840496600,7.43849658203125,-0.196075439453125,-0.4117279052734375,0.2385406494140625
1761915137850551300,7.44855126953125,-0.1735382080078125,-0.629486083984375,0.30364990234375
1761915137860605400,7.45860546875,-0.20098876953125,-0.8939361572265625,0.414306640625
1761915137870659300,7.468659423828125,-0.3118896484375,-1.1210174560546875,0.509246826171875
1761915137880713500,7.47871337890625,-0.5389556884765625,-1.264312744140625,0.4915771484375
1761915137890767400,7.488767333984375,-0.8719329833984375,-1.175079345703125,0.2857208251953125
1761915137900822500,7.498822509765625,-1.125396728515625,-1.0557098388671875,0.04766845703125
1761915137910876400,7.50887646484375,-1.162933349609375,-1.255767822265625,0.076263427734375
1761915137920930300,7.518930419921875,-1.3212890625,-1.488739013671875,0.277984619140625
1761915137930984400,7.528984375,-1.4822540283203125,-1.6251983642578125,0.5515289306640625
1761915137941039400,7.539039306640625,-1.576751708984375,-1.6989898681640625,0.7391815185546875
1761915137951093500,7.549093505859375,-1.6950225830078125,-1.6450347900390625,0.7366485595703125
1761915137961147600,7.559147705078125,-1.7062835693359375,-1.5488128662109375,0.6111297607421875
1761915137971201500,7.569201416015625,-1.68121337890625,-1.51861572265625,0.4874267578125
1761915137981256400,7.57925634765625,-1.658599853515625,-1.5127410888671875,0.4237213134765625
1761915137991310300,7.589310302734375,-1.584930419921875,-1.473419189453125,0.3937835693359375
1761915138001364500,7.599364501953125,-1.465576171875,-1.4232177734375,0.3717803955078125
1761915138011418400,7.60941845703125,-1.304168701171875,-1.3953094482421875,0.378143310546875
1761915138021472500,7.619472412109375,-1.1133880615234375,-1.36920166015625,0.4166259765625
1761915138031527400,7.62952734375,-0.8904266357421875,-1.2823944091796875,0.4532318115234375
1761915138041581300,7.639581298828125,-0.6764678955078125,-1.1176605224609375,0.45709228515625
1761915138051635500,7.649635498046875,-0.6062469482421875,-0.894622802734375,0.419921875
1761915138061689300,7.659689453125,-0.5729522705078125,-0.760711669921875,0.4054412841796875
1761915138071744500,7.66974462890625,-0.545318603515625,-0.6680450439453125,0.3925628662109375
1761915138081798400,7.67979833984375,-0.5165252685546875,-0.5388336181640625,0.36248779296875
1761915138091852500,7.6898525390625,-0.4916229248046875,-0.4432525634765625,0.3314361572265625
1761915138101906400,7.699906494140625,-0.4356842041015625,-0.3736572265625,0.2934417724609375
1761915138111961300,7.70996142578125,-0.3359832763671875,-0.2991943359375,0.2398834228515625
1761915138122015500,7.720015380859375,-0.244476318359375,-0.2374114990234375,0.1944732666015625
1761915138132069400,7.7300693359375,-0.2062530517578125,-0.21209716796875,0.1876220703125
1761915138142123500,7.74012353515625,-0.202972412109375,-0.186004638671875,0.186981201171875
1761915138152178400,7.750178466796875,-0.21185302734375,-0.1312408447265625,0.1528778076171875
1761915138162232300,7.760232421875,-0.209686279296875,-0.102783203125,0.1316070556640625
1761915138172286500,7.770286376953125,-0.1955718994140625,-0.0686798095703125,0.119964599609375
1761915138182340400,7.78034033203125,-0.1357421875,-0.0401611328125,0.1226654052734375
1761915138192394500,7.79039453125,-0.06658935546875,-0.0345306396484375,0.1276702880859375
1761915138202449400,7.800449462890625,-0.034515380859375,-0.030914306640625,0.1308441162109375
1761915138212503600,7.810503662109375,-0.0094146728515625,-0.0460662841796875,0.12176513671875
1761915138222557400,7.820557373046875,0.0152130126953125,-0.0812835693359375,0.1070404052734375
1761915138232611300,7.830611328125,0.0059661865234375,-0.1114044189453125,0.1130828857421875
1761915138242666500,7.84066650390625,-0.057769775390625,-0.1274261474609375,0.1114044189453125
1761915138252720400,7.850720458984375,-0.1455841064453125,-0.1609954833984375,0.0787200927734375
1761915138262774500,7.8607744140625,-0.271331787109375,-0.2531280517578125,0.055389404296875
1761915138272828400,7.870828369140625,-0.4261322021484375,-0.3722381591796875,0.061920166015625
1761915138282883300,7.88088330078125,-0.5543670654296875,-0.4999237060546875,0.066864013671875
1761915138292937500,7.8909375,-0.5914306640625,-0.6404266357421875,0.0419464111328125
1761915138302991400,7.900991455078125,-0.5697021484375,-0.7391510009765625,-0.022796630859375
1761915138313045500,7.91104541015625,-0.58355712890625,-0.92803955078125,-0.0224761962890625
1761915138323100400,7.921100341796875,-0.804412841796875,-1.1368408203125,0.0438232421875
1761915138333154600,7.931154541015625,-1.12701416015625,-1.166229248046875,0.044403076171875
1761915138343208200,7.941208251953125,-1.3209686279296875,-1.2123260498046875,0.0422821044921875
1761915138353262300,7.951262451171875,-1.6164703369140625,-1.3544158935546875,0.0682525634765625
1761915138363316500,7.96131640625,-1.9531402587890625,-1.2909088134765625,0.016204833984375
1761915138373371400,7.971371337890625,-1.9577178955078125,-1.1637115478515625,-0.0532073974609375
1761915138383425500,7.981425537109375,-1.7772369384765625,-1.20404052734375,-0.0424041748046875
1761915138393479400,7.9914794921875,-1.6255035400390625,-1.314239501953125,0.03240966796875
1761915138403533600,8.001533447265626,-1.627227783203125,-1.4001007080078125,0.0981292724609375
1761915138413588500,8.01158837890625,-1.58172607421875,-1.465545654296875,0.114990234375
1761915138423642400,8.021642333984374,-1.49749755859375,-1.5068511962890625,0.102569580078125
1761915138433696500,8.031696533203124,-1.4002838134765625,-1.5390167236328125,0.135528564453125
1761915138443750400,8.04175048828125,-1.3062744140625,-1.5283966064453125,0.192352294921875
1761915138453805600,8.0518056640625,-1.256866455078125,-1.4317474365234375,0.23089599609375
1761915138463859200,8.061859130859375,-1.1909637451171875,-1.2987518310546875,0.25445556640625
1761915138473913300,8.071913330078125,-1.0975799560546875,-1.1728668212890625,0.2914276123046875
1761915138483967500,8.081967529296875,-1.00665283203125,-1.0203094482421875,0.2689361572265625
1761915138494021400,8.092021484375,-0.9435882568359375,-0.826019287109375,0.18121337890625
1761915138504076500,8.10207666015625,-0.9448699951171875,-0.639068603515625,0.0908660888671875
1761915138514130400,8.11213037109375,-0.88726806640625,-0.580810546875,0.0546875
1761915138524184600,8.1221845703125,-0.7992401123046875,-0.577667236328125,0.009063720703125
1761915138534238500,8.132238525390624,-0.6807403564453125,-0.5975189208984375,-0.0323638916015625
1761915138544293400,8.14229345703125,-0.560943603515625,-0.5773773193359375,-0.0713348388671875
1761915138554347500,8.152347412109375,-0.4721221923828125,-0.52923583984375,-0.081695556640625
1761915138564402700,8.162402587890625,-0.4286651611328125,-0.4812164306640625,-0.05316162109375
1761915138574456600,8.17245654296875,-0.3856353759765625,-0.4217681884765625,-0.024993896484375
1761915138584511500,8.182511474609376,-0.3304443359375,-0.342376708984375,-0.021331787109375
1761915138594565600,8.192565673828126,-0.29473876953125,-0.2627105712890625,-0.0118560791015625
1761915138604619500,8.20261962890625,-0.269012451171875,-0.187652587890625,0.015625
1761915138614673700,8.212673583984374,-0.2630157470703125,-0.1169891357421875,0.0503692626953125
1761915138624728300,8.222728271484375,-0.2614898681640625,-0.090484619140625,0.1060638427734375
1761915138634782500,8.232782470703125,-0.210052490234375,-0.0858001708984375,0.1471099853515625
1761915138644836600,8.242836669921875,-0.1420135498046875,-0.093475341796875,0.1732940673828125
1761915138654890500,8.252890380859375,-0.0821533203125,-0.1159820556640625,0.193145751953125
1761915138664944600,8.262944580078125,-0.037841796875,-0.11590576171875,0.18505859375
1761915138674999600,8.27299951171875,0.006378173828125,-0.100860595703125,0.1585845947265625
1761915138685053700,8.2830537109375,0.03448486328125,-0.106658935546875,0.1369171142578125
1761915138695107600,8.293107666015626,0.04132080078125,-0.129302978515625,0.1253204345703125
1761915138705161500,8.303161376953126,0.0139312744140625,-0.181396484375,0.1257476806640625
1761915138715216600,8.313216552734374,-0.02789306640625,-0.25537109375,0.1297760009765625
1761915138725270500,8.3232705078125,-0.1026153564453125,-0.317230224609375,0.121978759765625
1761915138735324700,8.33332470703125,-0.1703643798828125,-0.368988037109375,0.09222412109375
1761915138745378600,8.343378662109375,-0.20782470703125,-0.4930267333984375,0.0929412841796875
1761915138755433500,8.35343359375,-0.202117919921875,-0.6856689453125,0.1644134521484375
1761915138765487600,8.363487548828125,-0.1378326416015625,-0.9277496337890625,0.2919158935546875
1761915138775541500,8.37354150390625,-0.1539154052734375,-1.0915374755859375,0.3774871826171875
1761915138785595600,8.383595703125,-0.4490509033203125,-1.0731048583984375,0.3210296630859375
1761915138795650600,8.393650634765624,-0.980499267578125,-0.9220733642578125,0.12506103515625
1761915138805704700,8.40370458984375,-1.21673583984375,-1.054351806640625,0.071807861328125
1761915138815758600,8.413758544921874,-1.344573974609375,-1.4140472412109375,0.2120361328125
1761915138825812500,8.4238125,-1.581787109375,-1.520904541015625,0.3695068359375
1761915138835866400,8.433866455078125,-1.6793365478515625,-1.510711669921875,0.515411376953125
1761915138845921500,8.443921630859375,-1.6202239990234375,-1.5740814208984375,0.5896759033203125
1761915138855975700,8.4539755859375,-1.5751953125,-1.5206451416015625,0.5571136474609375
1761915138866029600,8.464029541015625,-1.4734344482421875,-1.445465087890625,0.5096588134765625
1761915138876083700,8.474083740234375,-1.3759613037109375,-1.399078369140625,0.4502105712890625
1761915138886138400,8.484138427734376,-1.1751556396484375,-1.315826416015625,0.3996429443359375
1761915138896192500,8.494192626953126,-0.9727935791015625,-1.286956787109375,0.4349212646484375
1761915138906246700,8.50424658203125,-0.914764404296875,-1.3157806396484375,0.5310821533203125
1761915138916300500,8.514300537109374,-0.887481689453125,-1.3186798095703125,0.608551025390625
1761915138926355700,8.524355712890625,-0.81207275390625,-1.24884033203125,0.6043701171875
1761915138936409600,8.53440966796875,-0.7430572509765625,-1.07330322265625,0.516876220703125
1761915138946463500,8.54446337890625,-0.66790771484375,-0.8736572265625,0.4421539306640625
1761915138956517400,8.554517333984375,-0.65118408203125,-0.7287445068359375,0.4096832275390625
1761915138966572500,8.564572509765625,-0.6573638916015625,-0.6145172119140625,0.3853912353515625
1761915138976626700,8.574626708984376,-0.6244659423828125,-0.4920196533203125,0.3265380859375
1761915138986680600,8.5846806640625,-0.5853271484375,-0.3833465576171875,0.24310302734375
1761915138996735500,8.594735595703124,-0.504425048828125,-0.29632568359375,0.147705078125
1761915139006789400,8.604789306640624,-0.400634765625,-0.206634521484375,0.0483551025390625
1761915139016843500,8.614843505859374,-0.3679962158203125,-0.1418914794921875,-0.02490234375
1761915139026898700,8.624898681640625,-0.3616790771484375,-0.143280029296875,-0.0650482177734375
1761915139036952600,8.63495263671875,-0.3509063720703125,-0.1136474609375,-0.114959716796875
1761915139047006700,8.6450068359375,-0.3472442626953125,-0.0464630126953125,-0.166229248046875
1761915139057060600,8.655060546875,-0.33062744140625,-0.0097808837890625,-0.1825408935546875
1761915139067115500,8.665115478515625,-0.3227081298828125,0.008758544921875,-0.1636962890625
1761915139077169700,8.675169677734376,-0.331695556640625,0.0193023681640625,-0.1225738525390625
1761915139087223600,8.6852236328125,-0.3361053466796875,-0.015960693359375,-0.0712738037109375
1761915139097277700,8.695277587890626,-0.34539794921875,-0.0477142333984375,-0.0365753173828125
1761915139107332400,8.705332275390624,-0.33349609375,-0.0810089111328125,-0.028289794921875
1761915139117386500,8.715386474609375,-0.3194122314453125,-0.114990234375,-0.036468505859375
1761915139127440400,8.7254404296875,-0.3064117431640625,-0.1501007080078125,-0.0556182861328125
1761915139137494500,8.73549462890625,-0.3179168701171875,-0.1790618896484375,-0.089691162109375
1761915139147549700,8.7455498046875,-0.353668212890625,-0.2119903564453125,-0.126556396484375
1761915139157603600,8.755603515625,-0.377471923828125,-0.2486572265625,-0.154632568359375
1761915139167657700,8.76565771484375,-0.4138336181640625,-0.2772674560546875,-0.1673431396484375
1761915139177711400,8.77571142578125,-0.4857025146484375,-0.327484130859375,-0.13818359375
1761915139187765500,8.785765625,-0.5236663818359375,-0.3828582763671875,-0.087738037109375
1761915139197820700,8.795820556640624,-0.59112548828125,-0.4276275634765625,-0.06585693359375
1761915139207874600,8.80587451171875,-0.6563873291015625,-0.5102691650390625,-0.063629150390625
1761915139217928700,8.8159287109375,-0.661285400390625,-0.599029541015625,-0.0956878662109375
1761915139227982600,8.825982666015625,-0.656524658203125,-0.7207183837890625,-0.171478271484375
1761915139238037500,8.83603759765625,-0.7133636474609375,-0.885040283203125,-0.228363037109375
1761915139248091400,8.84609130859375,-0.960723876953125,-1.0334014892578125,-0.2621307373046875
1761915139258145500,8.8561455078125,-1.3348388671875,-1.14056396484375,-0.2383270263671875
1761915139268199400,8.866199462890625,-1.6039581298828125,-1.264495849609375,-0.1888885498046875
1761915139278254600,8.876254638671876,-1.6970062255859375,-1.393280029296875,-0.1580047607421875
1761915139288308700,8.886308837890626,-1.670013427734375,-1.4726409912109375,-0.171905517578125
1761915139298362400,8.8963623046875,-1.555267333984375,-1.5222930908203125,-0.1818389892578125
1761915139308416500,8.90641650390625,-1.53436279296875,-1.541412353515625,-0.170501708984375
1761915139318471700,8.9164716796875,-1.6506805419921875,-1.444244384765625,-0.14630126953125
1761915139328525600,8.926525634765625,-1.757049560546875,-1.3182830810546875,-0.086181640625
1761915139338579700,8.936579833984375,-1.732818603515625,-1.3309478759765625,-0.0141143798828125
1761915139348633600,8.946633544921875,-1.678466796875,-1.3282928466796875,0.0391693115234375
1761915139358687700,8.956687744140625,-1.5796356201171875,-1.2833251953125,0.059356689453125
1761915139368742400,8.966742431640625,-1.4496307373046875,-1.234283447265625,0.037506103515625
1761915139378796500,8.976796630859376,-1.327545166015625,-1.215728759765625,0.0129547119140625
1761915139388850400,8.986850341796876,-1.2061004638671875,-1.17596435546875,-0.019775390625
1761915139398904600,8.996904541015626,-1.06573486328125,-1.088165283203125,-0.038818359375
1761915139408959700,9.006959716796874,-0.9129638671875,-0.9639892578125,-0.0412139892578125
1761915139419013400,9.017013427734375,-0.762054443359375,-0.82391357421875,-0.021087646484375
1761915139429067500,9.027067626953125,-0.625518798828125,-0.7186279296875,0.0063934326171875
1761915139439121400,9.037121337890625,-0.514129638671875,-0.6072998046875,-0.0117340087890625
1761915139449176600,9.047176513671875,-0.4106292724609375,-0.5100250244140625,-0.0427398681640625
1761915139459230700,9.057230712890625,-0.3225555419921875,-0.403167724609375,-0.0716705322265625
1761915139469284600,9.06728466796875,-0.265777587890625,-0.2872467041015625,-0.063568115234375
1761915139479338800,9.0773388671875,-0.250152587890625,-0.1829376220703125,-0.0158538818359375
1761915139489393400,9.087393310546876,-0.27740478515625,-0.095611572265625,0.0498046875
1761915139499447600,9.097447509765624,-0.2989959716796875,-0.0447998046875,0.12060546875
1761915139509501400,9.10750146484375,-0.2744598388671875,-0.00836181640625,0.173065185546875
1761915139519555600,9.1175556640625,-0.217926025390625,0.016815185546875,0.203765869140625
1761915139529609500,9.127609375,-0.166778564453125,0.0067291259765625,0.21685791015625
1761915139539664400,9.137664306640625,-0.1185455322265625,-0.021514892578125,0.2178497314453125
1761915139549718500,9.147718505859375,-0.0713653564453125,-0.03277587890625,0.2107086181640625
1761915139559772400,9.1577724609375,-0.0408172607421875,-0.05859375,0.19586181640625
1761915139569829000,9.1678291015625,-0.02587890625,-0.096588134765625,0.1760101318359375
1761915139579884300,9.17788427734375,-0.016204833984375,-0.111175537109375,0.133209228515625
1761915139589938200,9.187938232421875,-0.0062408447265625,-0.1429290771484375,0.07171630859375
1761915139599992300,9.197992431640625,-0.011993408203125,-0.1786651611328125,-0.004669189453125
1761915139610046200,9.208046142578125,-0.0255126953125,-0.23211669921875,-0.0732421875
1761915139620101000,9.21810107421875,-0.0923614501953125,-0.30462646484375,-0.1187744140625
1761915139630155000,9.228155029296875,-0.2414093017578125,-0.380035400390625,-0.1181793212890625
1761915139640209200,9.238209228515625,-0.3851776123046875,-0.43865966796875,-0.0977630615234375
1761915139650263000,9.248262939453125,-0.4287567138671875,-0.5167694091796875,-0.06170654296875
1761915139660318200,9.258318115234376,-0.3881683349609375,-0.6832275390625,0.0103912353515625
1761915139670372400,9.268372314453124,-0.3712615966796875,-0.898529052734375,0.0765380859375
1761915139680426200,9.27842626953125,-0.4904327392578125,-1.023529052734375,0.08843994140625
1761915139690480000,9.288480224609375,-0.706695556640625,-1.0516815185546875,0.0780181884765625
1761915139700534000,9.298533935546875,-0.859771728515625,-1.143768310546875,0.1178131103515625
1761915139710589200,9.308589111328125,-1.00018310546875,-1.27239990234375,0.1868438720703125
1761915139720643300,9.318643310546875,-1.1654052734375,-1.292999267578125,0.238067626953125
1761915139730697200,9.328697265625,-1.2528228759765625,-1.307464599609375,0.2993927001953125
1761915139740751400,9.33875146484375,-1.2845458984375,-1.4046783447265625,0.43096923828125
1761915139750806000,9.348805908203126,-1.3288726806640625,-1.4915008544921875,0.5597076416015625
1761915139760860200,9.358860107421876,-1.41827392578125,-1.4932861328125,0.61224365234375
1761915139770914000,9.3689140625,-1.521514892578125,-1.4735260009765625,0.6255035400390625
1761915139780968200,9.37896826171875,-1.581329345703125,-1.442413330078125,0.6142425537109375
1761915139791023400,9.3890234375,-1.596221923828125,-1.3731689453125,0.5626373291015625
1761915139801077200,9.3990771484375,-1.5822296142578125,-1.32781982421875,0.4912872314453125
1761915139811131100,9.409131103515625,-1.53802490234375,-1.241302490234375,0.402069091796875
1761915139821185000,9.41918505859375,-1.4131622314453125,-1.1540679931640625,0.3328399658203125
1761915139831240200,9.429240234375,-1.23822021484375,-1.069580078125,0.2920074462890625
1761915139841294300,9.43929443359375,-1.0563507080078125,-0.9626007080078125,0.2840118408203125
1761915139851348200,9.44934814453125,-0.8729705810546875,-0.83331298828125,0.305816650390625
1761915139861402400,9.45940234375,-0.6929779052734375,-0.7061920166015625,0.3383941650390625
1761915139871456300,9.469456298828124,-0.5700531005859375,-0.551666259765625,0.347015380859375
1761915139881511200,9.47951123046875,-0.5255126953125,-0.416046142578125,0.340240478515625
1761915139891565000,9.48956494140625,-0.55511474609375,-0.3552703857421875,0.3450164794921875
1761915139901619200,9.499619140625,-0.5784912109375,-0.3433074951171875,0.3600616455078125
1761915139911673000,9.509673095703125,-0.5635833740234375,-0.3235015869140625,0.3400726318359375
1761915139921728300,9.519728271484375,-0.5070037841796875,-0.2904510498046875,0.270721435546875
1761915139931782100,9.5297822265625,-0.4248504638671875,-0.2570648193359375,0.18927001953125
1761915139941836000,9.5398359375,-0.333404541015625,-0.2048797607421875,0.12939453125
1761915139951890200,9.54989013671875,-0.2623291015625,-0.1456146240234375,0.093048095703125
1761915139961945300,9.5599453125,-0.233978271484375,-0.087738037109375,0.083709716796875
1761915139971999200,9.569999267578124,-0.253082275390625,-0.0532073974609375,0.0995330810546875
1761915139982053400,9.580053466796874,-0.2858123779296875,-0.053863525390625,0.1294403076171875
1761915139992107300,9.590107177734374,-0.278228759765625,-0.05633544921875,0.1426239013671875
1761915140002162200,9.600162109375,-0.2002105712890625,-0.0610809326171875,0.1265869140625
1761915140012216000,9.610216064453125,-0.09881591796875,-0.084991455078125,0.0952911376953125
1761915140022270200,9.620270263671875,-0.2495574951171875,-0.1238555908203125,0.1037445068359375
1761915140032324000,9.630323974609375,-0.35479736328125,-0.1849212646484375,0.1178131103515625
1761915140042379300,9.640379150390626,-0.294464111328125,-0.263336181640625,0.1480865478515625
1761915140052433200,9.65043310546875,-0.29644775390625,-0.3456573486328125,0.1906280517578125
1761915140062487000,9.660487060546876,-0.3537139892578125,-0.421905517578125,0.229583740234375
1761915140072541200,9.670541259765624,-0.4251861572265625,-0.4832611083984375,0.2650146484375
1761915140082595000,9.680594970703124,-0.54144287109375,-0.5499267578125,0.28985595703125
1761915140092650200,9.690650146484375,-0.6237640380859375,-0.612884521484375,0.3120880126953125
1761915140102704400,9.700704345703125,-0.6685791015625,-0.7202301025390625,0.3179931640625
1761915140112758300,9.71075830078125,-0.6986846923828125,-0.9322052001953125,0.310333251953125
1761915140122812200,9.720812255859375,-0.7096710205078125,-1.1944427490234375,0.29443359375
1761915140132867000,9.7308671875,-0.6534881591796875,-1.365570068359375,0.25604248046875
1761915140142921200,9.740921142578125,-0.7392730712890625,-1.34515380859375,0.209747314453125
1761915140152975000,9.75097509765625,-0.9858245849609375,-1.1688232421875,0.1739349365234375
1761915140163029200,9.761029296875,-1.2411956787109375,-1.0113525390625,0.19049072265625
1761915140173084200,9.771084228515624,-1.3076019287109375,-1.0573883056640625,0.304962158203125
1761915140183138000,9.781137939453124,-1.3218231201171875,-1.28350830078125,0.4590301513671875
1761915140193192200,9.791192138671875,-1.27020263671875,-1.3863067626953125,0.538116455078125
1761915140203246000,9.80124609375,-1.1698455810546875,-1.2941436767578125,0.51934814453125
1761915140213300200,9.81130029296875,-1.0458526611328125,-1.190185546875,0.487274169921875
1761915140223355400,9.82135546875,-0.939544677734375,-1.1807098388671875,0.47467041015625
1761915140233409300,9.8314091796875,-0.9473419189453125,-1.22833251953125,0.484130859375
1761915140243463200,9.841463134765625,-0.8895416259765625,-1.277313232421875,0.512542724609375
1761915140253517000,9.85151708984375,-0.7344818115234375,-1.262298583984375,0.5081939697265625
1761915140263572200,9.861572265625,-0.6145477294921875,-1.134521484375,0.4805908203125
1761915140273626000,9.871626220703124,-0.5434722900390625,-0.963348388671875,0.451812744140625
1761915140283680300,9.88168017578125,-0.515289306640625,-0.81787109375,0.421234130859375
1761915140293734100,9.891734130859374,-0.498626708984375,-0.695770263671875,0.3939361572265625
1761915140303789000,9.9017890625,-0.5233612060546875,-0.5845184326171875,0.3697357177734375
1761915140313843200,9.91184326171875,-0.5417022705078125,-0.4984130859375,0.34014892578125
1761915140323897000,9.92189697265625,-0.5238494873046875,-0.3958587646484375,0.2711181640625
1761915140333951200,9.931951171875,-0.473876953125,-0.2826690673828125,0.19903564453125
1761915140344006100,9.942006103515626,-0.462005615234375,-0.238677978515625,0.1228485107421875
1761915140354060300,9.952060302734376,-0.461212158203125,-0.2336273193359375,0.0906524658203125
1761915140364114200,9.9621142578125,-0.4335784912109375,-0.2642822265625,0.0923309326171875
1761915140374168000,9.97216796875,-0.402374267578125,-0.321868896484375,0.079559326171875
1761915140384222200,9.98222216796875,-0.399810791015625,-0.3355712890625,0.072296142578125
1761915140394277000,9.992277099609375,-0.443603515625,-0.2994384765625,0.0661468505859375
1761915140404331300,10.002331298828125,-0.43292236328125,-0.2468414306640625,0.05767822265625
1761915140414385200,10.01238525390625,-0.3867645263671875,-0.193572998046875,0.063079833984375
1761915140424439300,10.022439208984375,-0.332122802734375,-0.175018310546875,0.075714111328125
1761915140434494200,10.032494140625,-0.32684326171875,-0.1870574951171875,0.1005706787109375
1761915140444548000,10.042548095703125,-0.377227783203125,-0.2161407470703125,0.1244049072265625
1761915140454602200,10.052602294921876,-0.407501220703125,-0.259429931640625,0.1431427001953125
1761915140464656100,10.06265625,-0.3936614990234375,-0.3006134033203125,0.1555938720703125
1761915140474711300,10.072711181640624,-0.3722686767578125,-0.3528594970703125,0.1522369384765625
1761915140484765200,10.08276513671875,-0.396514892578125,-0.4330596923828125,0.12408447265625
1761915140494819000,10.092819091796875,-0.5057830810546875,-0.5463104248046875,0.105682373046875
1761915140504873200,10.102873291015625,-0.5930328369140625,-0.640777587890625,0.1221771240234375
1761915140514928000,10.11292822265625,-0.5988311767578125,-0.6931610107421875,0.164520263671875
1761915140524982300,10.122982177734375,-0.5695953369140625,-0.7523193359375,0.189544677734375
1761915140535036200,10.1330361328125,-0.6007080078125,-0.8627471923828125,0.1681976318359375
1761915140545090300,10.14309033203125,-0.7688140869140625,-0.9864349365234375,0.11114501953125
1761915140555144200,10.153144287109376,-0.9464874267578125,-1.1512298583984375,0.0800323486328125
1761915140565195800,10.16319580078125,-1.01678466796875,-1.2965545654296875,0.0649566650390625
1761915140575250000,10.17325,-1.1092681884765625,-1.2845001220703125,0.0523834228515625
1761915140585303800,10.1833037109375,-1.204437255859375,-1.150543212890625,0.05194091796875
1761915140595358000,10.19335791015625,-1.215423583984375,-1.0852508544921875,0.105987548828125
1761915140605412600,10.20341259765625,-1.2153167724609375,-1.159210205078125,0.1943511962890625
1761915140615466800,10.213466796875,-1.210845947265625,-1.2420501708984375,0.262115478515625
1761915140625520600,10.223520751953124,-1.08428955078125,-1.2222137451171875,0.2798309326171875
1761915140635574800,10.23357470703125,-0.9253387451171875,-1.1316070556640625,0.2087249755859375
1761915140645630000,10.2436298828125,-0.748077392578125,-1.085845947265625,0.1751708984375
1761915140655683800,10.253683837890625,-0.6144256591796875,-1.0986328125,0.192230224609375
1761915140665738000,10.263738037109375,-0.6507415771484375,-1.172393798828125,0.23968505859375
1761915140675791600,10.27379150390625,-0.849853515625,-1.2503662109375,0.3179168701171875
1761915140685845800,10.283845703125,-0.88067626953125,-1.2651519775390625,0.37115478515625
1761915140695901000,10.29390087890625,-0.7397308349609375,-1.1504058837890625,0.3465576171875
1761915140705954800,10.303954833984376,-0.625274658203125,-0.997650146484375,0.298583984375
1761915140716009000,10.314009033203124,-0.6039276123046875,-0.9325714111328125,0.2617034912109375
1761915140726062800,10.324062744140624,-0.5955657958984375,-0.914031982421875,0.2278289794921875
1761915140736117800,10.33411767578125,-0.5278167724609375,-0.8250274658203125,0.16632080078125
1761915140746171600,10.344171630859375,-0.5395355224609375,-0.6617889404296875,0.06903076171875
1761915140756225800,10.354225830078125,-0.61114501953125,-0.5018310546875,0.021392822265625
1761915140766279700,10.36427978515625,-0.645538330078125,-0.3920745849609375,-0.0001068115234375
1761915140776334800,10.3743349609375,-0.652740478515625,-0.3236541748046875,-0.0046234130859375
1761915140786389000,10.384388916015626,-0.653594970703125,-0.2990570068359375,0.018524169921875
1761915140796442600,10.394442626953126,-0.63873291015625,-0.303802490234375,0.0482940673828125
1761915140806496800,10.404496826171876,-0.5925445556640625,-0.3126068115234375,0.082794189453125
1761915140816551700,10.4145517578125,-0.51898193359375,-0.30316162109375,0.1004638671875
1761915140826605800,10.424605712890624,-0.4606170654296875,-0.289520263671875,0.11175537109375
1761915140836660000,10.434659912109375,-0.4075469970703125,-0.304443359375,0.1324005126953125
1761915140846713900,10.4447138671875,-0.3914337158203125,-0.36041259765625,0.164337158203125
1761915140856768000,10.45476806640625,-0.4037017822265625,-0.432220458984375,0.1976318359375
1761915140866822700,10.46482275390625,-0.4275665283203125,-0.50274658203125,0.20806884765625
1761915140876876800,10.474876708984375,-0.4908905029296875,-0.570831298828125,0.1995086669921875
1761915140886930700,10.4849306640625,-0.52569580078125,-0.6173095703125,0.1853179931640625
1761915140896984800,10.49498486328125,-0.5106201171875,-0.6360626220703125,0.1670684814453125
1761915140907040000,10.5050400390625,-0.4319305419921875,-0.66455078125,0.152008056640625
1761915140917093600,10.51509375,-0.3269195556640625,-0.7253570556640625,0.1506195068359375
1761915140927147800,10.525147705078124,-0.2976531982421875,-0.8150177001953125,0.14837646484375
1761915140937201700,10.53520166015625,-0.352996826171875,-0.933807373046875,0.1493988037109375
1761915140947256800,10.5452568359375,-0.4505157470703125,-1.0406341552734375,0.2028350830078125
1761915140957311000,10.55531103515625,-0.575958251953125,-1.0806884765625,0.261199951171875
1761915140967364900,10.56536474609375,-0.63702392578125,-1.011871337890625,0.2737884521484375
1761915140977419000,10.5754189453125,-0.631378173828125,-0.9073944091796875,0.256591796875
1761915140987473700,10.5854736328125,-0.59906005859375,-0.8734130859375,0.256927490234375
1761915140997527800,10.59552783203125,-0.5360107421875,-0.8974609375,0.291412353515625
1761915141007581700,10.605581787109376,-0.4575653076171875,-0.9219207763671875,0.3302764892578125
1761915141017635800,10.6156357421875,-0.410491943359375,-0.9311676025390625,0.353118896484375
1761915141027689700,10.625689697265624,-0.31512451171875,-0.91143798828125,0.33612060546875
1761915141037744600,10.63574462890625,-0.2041778564453125,-0.913909912109375,0.29949951171875
1761915141047798800,10.645798828125,-0.0877685546875,-0.9807586669921875,0.2685546875
1761915141057852700,10.655852783203125,-0.0579833984375,-1.03717041015625,0.333251953125
1761915141067906800,10.66590673828125,-0.3587188720703125,-1.1480865478515625,0.4071197509765625
1761915141077962000,10.6759619140625,-0.3705291748046875,-1.2713470458984375,0.4200439453125
1761915141088016000,10.686015869140626,-0.2197113037109375,-1.2948760986328125,0.430145263671875
1761915141098070000,10.696070068359376,-0.1520233154296875,-1.20208740234375,0.4440765380859375
1761915141108124000,10.7061240234375,-0.1066741943359375,-1.1513824462890625,0.415130615234375
