time,seconds_elapsed,z,y,x
1761915130526051800,0.1240517578125,-0.05139375850558281,0.2182053029537201,-0.43278053402900696
1761915130536106800,0.134106689453125,-0.10315336287021637,0.2655581831932068,-0.4176708161830902
1761915130546160600,0.14416064453125,-0.1299833506345749,0.2944188714027405,-0.41653046011924744
1761915130556214500,0.154214599609375,-0.14128820598125458,0.2806551158428192,-0.42221736907958984
1761915130566268700,0.1642685546875,-0.13435271382331848,0.21884842216968536,-0.4204946756362915
1761915130576322800,0.17432275390625,-0.11556065082550049,0.16437186300754547,-0.3922629952430725
1761915130586377700,0.184377685546875,-0.0952967032790184,0.13024203479290009,-0.3400740921497345
1761915130596431600,0.194431640625,-0.06948748230934143,0.1006697565317154,-0.26267117261886597
1761915130606485500,0.204485595703125,-0.03073686733841896,0.10625895112752914,-0.1547015756368637
1761915130616539600,0.21453955078125,0.04128805547952652,0.18395188450813293,-0.04024157300591469
1761915130626594800,0.2245947265625,0.14059659838676453,0.31193870306015015,0.07898649573326111
1761915130636648700,0.234648681640625,0.2601195275783539,0.47882702946662903,0.19228029251098633
1761915130646702800,0.244702880859375,0.365169882774353,0.5919100642204285,0.24047677218914032
1761915130656756700,0.2547568359375,0.41325244307518005,0.4449523091316223,0.16058699786663055
1761915130666810600,0.264810546875,0.37902891635894775,-0.02220403589308262,-0.025533027946949005
1761915130676865500,0.274865478515625,0.2920476794242859,-0.40780526399612427,-0.1762748658657074
1761915130686919700,0.284919677734375,0.2125408798456192,-0.4123768210411072,-0.24802523851394653
1761915130696973600,0.2949736328125,0.18441976606845856,0.022699829190969467,-0.2541574239730835
1761915130707027700,0.30502783203125,0.20618028938770294,0.6219530701637268,-0.2800770103931427
1761915130717082600,0.31508251953125,0.19086125493049622,1.1805475950241089,-0.42155930399894714
1761915130727136500,0.325136474609375,0.10057593137025833,1.6779656410217285,-0.6449757218360901
1761915130737190700,0.335190673828125,-0.039983317255973816,2.1434640884399414,-0.8300302624702454
1761915130747244500,0.34524462890625,-0.12355123460292816,2.5099520683288574,-0.8640696406364441
1761915130757298700,0.355298583984375,-0.06351400166749954,2.6834051609039307,-0.7007654309272766
1761915130767353900,0.365353759765625,0.17331425845623016,2.5593841075897217,-0.4062786400318146
1761915130777407700,0.37540771484375,0.5468721389770508,2.0566742420196533,-0.1946263313293457
1761915130787461600,0.385461669921875,1.19005286693573,1.3976577520370483,-0.0487838089466095
1761915130797515500,0.395515625,1.6208218336105347,0.7721760869026184,0.03860542178153992
1761915130807570700,0.40557080078125,1.6147782802581787,0.5068596601486206,-0.015570186078548431
1761915130817624600,0.41562451171875,1.5322405099868774,0.40919700264930725,-0.13317644596099854
1761915130827678700,0.4256787109375,1.477006435394287,0.23826399445533752,-0.20444655418395996
1761915130837732900,0.43573291015625,1.4332385063171387,0.14913704991340637,-0.18338388204574585
1761915130847786800,0.445786865234375,1.268797755241394,0.2747718393802643,-0.13895802199840546
1761915130857841700,0.455841552734375,0.9121649265289307,0.48030927777290344,-0.06829237192869186
1761915130867895600,0.4658955078125,0.48316699266433716,0.6387479901313782,0.03215881809592247
1761915130877949700,0.47594970703125,0.1211208775639534,0.6498104929924011,0.1552456021308899
1761915130888003600,0.486003662109375,-0.11394032835960388,0.3619186282157898,0.24717973172664642
1761915130898058800,0.496058837890625,-0.22758887708187103,-0.11964933574199677,0.2258017510175705
1761915130908112600,0.506112548828125,-0.33505892753601074,-0.5052509903907776,0.07955139130353928
1761915130918166500,0.51616650390625,-0.4741739332675934,-0.7522975206375122,-0.16398003697395325
1761915130928220700,0.526220703125,-0.6210352182388306,-0.8854382634162903,-0.4269791841506958
1761915130938274600,0.536274658203125,-0.7521490454673767,-0.8264122009277344,-0.632507860660553
1761915130948329700,0.546329833984375,-0.8787073493003845,-0.5821828246116638,-0.748261570930481
1761915130958383600,0.556383544921875,-0.9762418866157532,-0.2068970948457718,-0.7553868889808655
1761915130968437800,0.566437744140625,-1.0100600719451904,0.2550453543663025,-0.6341397166252136
1761915130978492000,0.576491943359375,-0.9578711986541748,0.6391496062278748,-0.40457576513290405
1761915130988546600,0.586546630859375,-0.8758071064949036,0.8520314693450928,-0.11515793949365616
1761915130998600700,0.5966005859375,-0.7971996068954468,0.9274652600288391,0.18085241317749023
1761915131008654600,0.606654541015625,-0.7152485847473145,0.8714603185653687,0.43716228008270264
1761915131018708700,0.616708740234375,-0.6176650524139404,0.746587336063385,0.6373472809791565
1761915131028762600,0.6267626953125,-0.5056914687156677,0.5465078353881836,0.762725293636322
1761915131038817500,0.636817626953125,-0.37712687253952026,0.23958703875541687,0.7913564443588257
1761915131048871700,0.64687158203125,-0.28514012694358826,-0.06921296566724777,0.742743194103241
1761915131058925600,0.656925537109375,-0.23155784606933594,-0.3225642740726471,0.6133138537406921
1761915131068979700,0.666979736328125,-0.20560283958911896,-0.5016757249832153,0.449423611164093
1761915131079034600,0.67703466796875,-0.20029489696025848,-0.6569691896438599,0.29845115542411804
1761915131089088800,0.6870888671875,-0.22513432800769806,-0.7760034203529358,0.18904249370098114
1761915131099143000,0.697142822265625,-0.29570436477661133,-0.9348322153091431,0.1234365925192833
1761915131109196500,0.707196533203125,-0.42350465059280396,-1.1388611793518066,0.10485567152500153
1761915131119250700,0.717250732421875,-0.5846253037452698,-1.3930519819259644,0.15325036644935608
1761915131129305600,0.7273056640625,-0.7406997084617615,-1.6326897144317627,0.31189656257629395
1761915131139359700,0.73735986328125,-0.8135539293289185,-1.8300938606262207,0.5651605129241943
1761915131149413600,0.74741357421875,-0.7603312134742737,-1.8528538942337036,0.8698296546936035
1761915131159467800,0.7574677734375,-0.5777033567428589,-1.613143801689148,1.1867843866348267
1761915131169521700,0.767521728515625,-0.34007179737091064,-1.2125120162963867,1.4473540782928467
1761915131179576600,0.77757666015625,-0.17179837822914124,-0.9409891366958618,1.548040747642517
1761915131189630700,0.787630615234375,-0.1612500697374344,-0.9342562556266785,1.4180049896240234
1761915131199684600,0.7976845703125,-0.3001403212547302,-1.282025694847107,1.0350285768508911
1761915131209738800,0.80773876953125,-0.4892069697380066,-1.765038251876831,0.5054009556770325
1761915131219794000,0.8177939453125,-0.5869331955909729,-2.0415592193603516,-0.02861502580344677
1761915131229847600,0.82784765625,-0.5477562546730042,-1.880124568939209,-0.4090811610221863
1761915131239901700,0.837901611328125,-0.4509226679801941,-1.3424291610717773,-0.5135273933410645
1761915131249955600,0.84795556640625,-0.37478920817375183,-0.7002192139625549,-0.3654261529445648
1761915131260009700,0.858009765625,-0.28803327679634094,-0.03286328166723251,-0.07903168350458145
1761915131270064600,0.868064697265625,-0.12438763678073883,0.5046278238296509,0.21146275103092194
1761915131280118800,0.878118896484375,0.14255058765411377,0.8561371564865112,0.4270320534706116
1761915131290172700,0.888172607421875,0.41648125648498535,0.8746622204780579,0.4758158028125763
1761915131300226800,0.898226806640625,0.6415184140205383,0.625251054763794,0.3787294626235962
1761915131310281700,0.90828173828125,0.8193263411521912,0.2279617339372635,0.19195248186588287
1761915131320335600,0.918335693359375,0.9177495837211609,-0.23302586376667023,-0.021870318800210953
1761915131330389800,0.9283896484375,0.9359256029129028,-0.68699711561203,-0.25955289602279663
1761915131340443600,0.938443603515625,0.879437267780304,-1.006271243095398,-0.5263073444366455
1761915131350497800,0.948497802734375,0.7449347376823425,-1.111933708190918,-0.770634651184082
1761915131360552700,0.958552734375,0.5645803809165955,-1.039445400238037,-0.9639647006988525
1761915131370606600,0.968606689453125,0.3769221901893616,-0.7900853157043457,-1.0724807977676392
1761915131380660700,0.97866064453125,0.16920948028564453,-0.43429070711135864,-1.0737732648849487
1761915131390714600,0.988714599609375,-0.05643394589424133,-0.14193587005138397,-1.0064910650253296
1761915131400769800,0.998769775390625,-0.3020748794078827,0.068087138235569,-0.9372080564498901
1761915131410823700,1.00882373046875,-0.5402789115905762,0.17359565198421478,-0.9150819778442383
1761915131420877600,1.018877685546875,-0.7343224287033081,0.15264244377613068,-0.9692370891571045
1761915131430931500,1.028931396484375,-0.8329458832740784,0.06553246080875397,-1.098584532737732
1761915131440985600,1.038985595703125,-0.8745367527008057,0.002672006608918309,-1.254455804824829
1761915131451040800,1.049040771484375,-0.9033200740814209,0.023519786074757576,-1.3738036155700684
1761915131461094700,1.0590947265625,-0.9399204254150391,0.07398109138011932,-1.3713088035583496
1761915131471148800,1.069148681640625,-0.9428079128265381,0.19960828125476837,-1.1577045917510986
1761915131481202700,1.07920263671875,-0.931228518486023,0.5003758072853088,-0.7496164441108704
1761915131491256800,1.0892568359375,-0.8962347507476807,0.7904890775680542,-0.27443721890449524
1761915131501311700,1.099311767578125,-0.8295241594314575,0.9461101293563843,0.17854490876197815
1761915131511365600,1.10936572265625,-0.7355125546455383,0.970373272895813,0.5631515979766846
1761915131521419800,1.119419677734375,-0.6064978837966919,0.7762243151664734,0.839199423789978
1761915131531473700,1.1294736328125,-0.4830768406391144,0.32655397057533264,0.9610666632652283
1761915131541528600,1.139528564453125,-0.4059322476387024,-0.2592668831348419,0.94950932264328
1761915131551585500,1.14958544921875,-0.38781169056892395,-0.8064320683479309,0.8938335180282593
1761915131561639400,1.159639404296875,-0.3536960780620575,-1.3240280151367188,0.8807501792907715
1761915131571693600,1.169693603515625,-0.34995460510253906,-1.680112600326538,0.8197912573814392
1761915131581747500,1.17974755859375,-0.3324137032032013,-1.8085249662399292,0.76466304063797
1761915131591802600,1.189802734375,-0.33501899242401123,-1.7611993551254272,0.7767885327339172
1761915131601856500,1.1998564453125,-0.37141987681388855,-1.5991591215133667,0.8499815464019775
1761915131611910700,1.20991064453125,-0.4184432625770569,-1.3191677331924438,0.9933047890663147
1761915131621964500,1.219964599609375,-0.43759670853614807,-1.0162632465362549,1.1662092208862305
1761915131632019500,1.23001953125,-0.4326988756656647,-0.842901349067688,1.3111602067947388
1761915131642073600,1.240073486328125,-0.39802902936935425,-0.8599293231964111,1.3609099388122559
1761915131652127500,1.25012744140625,-0.374088853597641,-1.0808707475662231,1.3080475330352783
1761915131662181600,1.260181640625,-0.37917762994766235,-1.3684639930725098,1.2005589008331299
1761915131672235500,1.270235595703125,-0.3993535339832306,-1.554837703704834,1.098775863647461
1761915131682290400,1.28029052734375,-0.378368079662323,-1.5766738653182983,1.040941596031189
1761915131692344600,1.290344482421875,-0.2502157986164093,-1.4123287200927734,0.9943457245826721
1761915131702398500,1.3003984375,-0.04191291704773903,-1.2366703748703003,0.8538386821746826
1761915131712452600,1.31045263671875,0.10750865936279297,-1.2110298871994019,0.5378339886665344
1761915131722507500,1.320507568359375,0.12943661212921143,-1.2854421138763428,0.1375851035118103
1761915131732561700,1.330561767578125,0.04999105632305145,-1.404247522354126,-0.16262878477573395
1761915131742615600,1.340615478515625,-0.223419189453125,-1.5266536474227905,-0.314949095249176
1761915131752669700,1.350669677734375,-0.6563394665718079,-1.4909628629684448,-0.38502371311187744
1761915131762723300,1.360723388671875,-0.9702257513999939,-1.2098087072372437,-0.4419003129005432
1761915131772778500,1.370778564453125,-1.0650007724761963,-0.9321349263191223,-0.5247842669487
1761915131782832600,1.38083251953125,-1.0038716793060303,-0.6838864684104919,-0.595450758934021
1761915131792886500,1.390886474609375,-0.7495655417442322,-0.23572750389575958,-0.5719124674797058
1761915131802940700,1.400940673828125,-0.36710125207901,0.22266508638858795,-0.5193976163864136
1761915131812994600,1.41099462890625,0.08875700831413269,0.41835078597068787,-0.4802977442741394
1761915131823049500,1.421049560546875,0.5605581402778625,0.20547394454479218,-0.4607810378074646
1761915131833103600,1.431103515625,0.9017089605331421,-0.22499725222587585,-0.3979646861553192
1761915131843157500,1.441157470703125,1.063246488571167,-0.5535303354263306,-0.264458030462265
1761915131853211600,1.451211669921875,1.117361068725586,-0.6967977285385132,-0.10418502241373062
1761915131863266600,1.4612666015625,1.1343828439712524,-0.6571022868156433,0.06351396441459656
1761915131873320700,1.47132080078125,1.1878315210342407,-0.4980056881904602,0.21782848238945007
1761915131883374300,1.481374267578125,1.2790727615356445,-0.2813463509082794,0.31348392367362976
1761915131893428500,1.491428466796875,1.290456771850586,-0.17841321229934692,0.26434388756752014
1761915131903482400,1.501482421875,1.1011968851089478,-0.2592385411262512,0.011986742727458477
1761915131913537500,1.51153759765625,0.7777684330940247,-0.4337478280067444,-0.4073580503463745
1761915131923591700,1.521591796875,0.4053190052509308,-0.6145655512809753,-0.8897989988327026
1761915131933645600,1.5316455078125,0.07681567966938019,-0.6666918992996216,-1.2948812246322632
1761915131943699700,1.54169970703125,-0.16722920536994934,-0.5182161331176758,-1.5364067554473877
1761915131953754600,1.551754638671875,-0.3216983377933502,-0.2557866871356964,-1.5765668153762817
1761915131963808500,1.56180859375,-0.3985004425048828,0.05086270347237587,-1.4163081645965576
1761915131973862700,1.571862548828125,-0.4250698983669281,0.3844893276691437,-1.083385705947876
1761915131983916500,1.58191650390625,-0.4137221872806549,0.6961889266967773,-0.6537504196166992
1761915131993970700,1.591970703125,-0.3431338965892792,0.8872900605201721,-0.23479215800762177
1761915132004025300,1.602025390625,-0.24433089792728424,0.9218118190765381,0.08534511178731918
1761915132014079500,1.61207958984375,-0.1712871640920639,0.7762008905410767,0.27037313580513
1761915132024133400,1.62213330078125,-0.1696208268404007,0.5368252992630005,0.3430372178554535
1761915132034187500,1.6321875,-0.20144468545913696,0.2921724319458008,0.3406064510345459
1761915132044241700,1.64224169921875,-0.2605394124984741,0.07593974471092224,0.29419392347335815
1761915132054296600,1.652296630859375,-0.3502063751220703,-0.05876338109374046,0.2294214963912964
1761915132064350700,1.662350830078125,-0.45585930347442627,-0.12249841541051865,0.17007403075695038
1761915132074404400,1.672404296875,-0.569383978843689,-0.13382373750209808,0.13490056991577148
1761915132084458500,1.68245849609375,-0.6693971753120422,-0.07973812520503998,0.1346379816532135
1761915132094513700,1.692513671875,-0.7419328093528748,0.029119737446308136,0.18195751309394836
1761915132104567600,1.702567626953125,-0.7798553705215454,0.18387629091739655,0.2804558575153351
1761915132114621700,1.71262158203125,-0.7783045172691345,0.32813677191734314,0.3953700661659241
1761915132124675600,1.722675537109375,-0.7338590025901794,0.37812379002571106,0.4934346079826355
1761915132134729700,1.732729736328125,-0.693504810333252,0.3445424437522888,0.5395579934120178
1761915132144784400,1.742784423828125,-0.6809514760971069,0.2441663146018982,0.5331376791000366
1761915132154838500,1.752838623046875,-0.7002794742584229,0.08386266976594925,0.5126373171806335
1761915132164892400,1.762892333984375,-0.7277867197990417,-0.10495038330554962,0.5208742022514343
1761915132174946600,1.772946533203125,-0.71656334400177,-0.2876996695995331,0.5546843409538269
1761915132185001700,1.783001708984375,-0.643417239189148,-0.48017725348472595,0.6141649484634399
1761915132195055400,1.793055419921875,-0.4885275363922119,-0.7056758403778076,0.6735906600952148
1761915132205109500,1.803109619140625,-0.23678156733512878,-0.8676753640174866,0.7292954921722412
1761915132215163400,1.813163330078125,0.09045848250389099,-0.835217297077179,0.7724242210388184
1761915132225217500,1.823217529296875,0.3161155581474304,-0.7735369205474854,0.7552145719528198
1761915132235272700,1.833272705078125,0.2373141348361969,-0.7923901677131653,0.626207709312439
1761915132245326600,1.84332666015625,-0.13411454856395721,-0.9374061822891235,0.3603864312171936
1761915132255380700,1.853380615234375,-0.5503438711166382,-0.9567745923995972,0.10362162441015244
1761915132265434600,1.8634345703125,-0.881653368473053,-0.6344929337501526,0.029439270496368408
1761915132275488500,1.873488525390625,-1.0930832624435425,-0.10464286059141159,0.19003529846668243
1761915132285543400,1.88354345703125,-1.183971881866455,0.2823280096054077,0.44003766775131226
1761915132295597600,1.89359765625,-1.1182737350463867,0.3810421824455261,0.5675599575042725
1761915132305651700,1.903651611328125,-0.7969176173210144,0.31124526262283325,0.48666054010391235
1761915132315705600,1.91370556640625,-0.26202622056007385,0.1450248807668686,0.24885675311088562
1761915132325760500,1.923760498046875,0.2729645073413849,-0.05496972054243088,0.00925959087908268
1761915132335814400,1.933814453125,0.6620917320251465,-0.17068323493003845,-0.10221528261899948
1761915132345868500,1.94386865234375,0.9258008599281311,-0.3028348684310913,-0.08013155311346054
1761915132355922400,1.95392236328125,1.0573700666427612,-0.5101523399353027,0.041661299765110016
1761915132365976600,1.9639765625,1.0773906707763672,-0.7136591076850891,0.20372849702835083
1761915132376031700,1.97403173828125,1.0481191873550415,-0.8421701788902283,0.3356820046901703
1761915132386085600,1.984085693359375,0.9906711578369141,-1.0126386880874634,0.3739819824695587
1761915132396139500,1.994139404296875,0.9540765881538391,-1.364977240562439,0.2508302927017212
1761915132406193400,2.004193359375,0.9667196869850159,-1.8049031496047974,0.006837883964180946
1761915132416248600,2.01424853515625,0.9991611242294312,-2.102979898452759,-0.27018457651138306
1761915132426302700,2.024302734375,1.0574066638946533,-2.1213791370391846,-0.5699982047080994
1761915132436356600,2.034356689453125,1.1569311618804932,-1.8859745264053345,-0.8873698115348816
1761915132446410800,2.04441064453125,1.2359548807144165,-1.4078426361083984,-1.1543277502059937
1761915132456464600,2.054464599609375,1.2420085668563843,-0.7016952037811279,-1.2944635152816772
1761915132466519600,2.06451953125,1.1807465553283691,0.09045108407735825,-1.2804834842681885
1761915132476573400,2.074573486328125,1.0774731636047363,0.7747920751571655,-1.1531617641448975
1761915132486627600,2.084627685546875,0.9305649995803833,1.159700632095337,-0.9610021114349365
1761915132496681500,2.094681396484375,0.7637195587158203,1.2586077451705933,-0.751018226146698
1761915132506735600,2.104735595703125,0.6015745997428894,1.1806671619415283,-0.5698729753494263
1761915132516790500,2.11479052734375,0.4883490204811096,0.9165573716163635,-0.4574543535709381
1761915132526844400,2.124844482421875,0.4618702828884125,0.518284022808075,-0.36922383308410645
1761915132536898600,2.134898681640625,0.5103849172592163,0.09526599943637848,-0.23060394823551178
1761915132546952400,2.144952392578125,0.5716626048088074,-0.1925431489944458,-0.0015459991991519928
1761915132557004500,2.155004638671875,0.582430899143219,-0.24178263545036316,0.2848329246044159
1761915132567058400,2.165058349609375,0.502997100353241,-0.11924980580806732,0.5317891836166382
1761915132577112300,2.1751123046875,0.3373071849346161,0.06491289287805557,0.7128055691719055
1761915132587166200,2.185166259765625,0.10737787187099457,0.2653200328350067,0.8249925971031189
1761915132597220400,2.195220458984375,-0.16623540222644806,0.40539947152137756,0.871431827545166
1761915132607275500,2.205275634765625,-0.4508785903453827,0.49571844935417175,0.8735929727554321
1761915132617329400,2.215329345703125,-0.6871690154075623,0.5414926409721375,0.8591182231903076
1761915132627383600,2.225383544921875,-0.843349039554596,0.505439817905426,0.8251062035560608
1761915132637437400,2.2354375,-0.9081642031669617,0.38686418533325195,0.7886136770248413
1761915132647492400,2.245492431640625,-0.8889065980911255,0.21198798716068268,0.769058883190155
1761915132657546500,2.25554638671875,-0.8243513703346252,0.028685707598924637,0.7691050171852112
1761915132667600400,2.265600341796875,-0.7384034395217896,-0.09377309679985046,0.7868539690971375
1761915132677654500,2.275654541015625,-0.6405397057533264,-0.14528656005859375,0.7903767228126526
1761915132687708400,2.28570849609375,-0.5620155930519104,-0.2479972243309021,0.7743921279907227
1761915132697763300,2.295763427734375,-0.5206245183944702,-0.3816392421722412,0.7507476210594177
1761915132707817200,2.305817138671875,-0.5009117722511292,-0.4663490653038025,0.7519487142562866
1761915132717871400,2.315871337890625,-0.45793500542640686,-0.4796741306781769,0.7536317110061646
1761915132727925500,2.325925537109375,-0.34758931398391724,-0.350297749042511,0.7228621244430542
1761915132737979400,2.3359794921875,-0.20340071618556976,-0.13176755607128143,0.6086934804916382
1761915132748034600,2.34603466796875,-0.12913021445274353,0.01804005168378353,0.39431408047676086
1761915132758088400,2.35608837890625,-0.16639412939548492,0.07872945070266724,0.138017475605011
1761915132768142300,2.366142333984375,-0.33389735221862793,0.019390493631362915,-0.127454936504364
1761915132778196200,2.3761962890625,-0.5924748182296753,-0.035676658153533936,-0.36505237221717834
1761915132788251400,2.38625146484375,-0.8632429242134094,0.11670409142971039,-0.5344198346138
1761915132798305500,2.396305419921875,-0.9847080111503601,0.5040493011474609,-0.6032119989395142
1761915132808359400,2.406359375,-0.827436625957489,1.003684163093567,-0.6024373173713684
1761915132818413600,2.41641357421875,-0.4501357674598694,1.3439528942108154,-0.5986558198928833
1761915132828467500,2.426467529296875,-0.0022048666141927242,1.4833714962005615,-0.6136616468429565
1761915132838522400,2.4365224609375,0.45095840096473694,1.4419631958007812,-0.6648769378662109
1761915132848576500,2.446576416015625,0.8022967576980591,1.1652237176895142,-0.7676877379417419
1761915132858630400,2.45663037109375,0.9950515627861023,0.7827306985855103,-0.8420349359512329
1761915132868684500,2.4666845703125,1.000632405281067,0.3946918547153473,-0.7898167371749878
1761915132878738400,2.476738525390625,0.8737488389015198,-0.07571523636579514,-0.6297464370727539
1761915132888793300,2.48679345703125,0.7571870684623718,-0.5841169357299805,-0.4102447032928467
1761915132898847200,2.49684716796875,0.7440065741539001,-0.9758007526397705,-0.15321800112724304
1761915132908901400,2.5069013671875,0.7674551606178284,-1.1077550649642944,0.0821327418088913
1761915132918955300,2.516955322265625,0.7553762197494507,-0.9894440174102783,0.18393465876579285
1761915132929010400,2.527010498046875,0.7415392398834229,-0.8216544389724731,-0.01390119455754757
1761915132939064600,2.537064697265625,0.7686634659767151,-0.6623163223266602,-0.5138640999794006
1761915132949118500,2.547118408203125,0.7830621600151062,-0.42988356947898865,-1.0797346830368042
1761915132959172600,2.557172607421875,0.6906574964523315,-0.02959640510380268,-1.4767979383468628
1761915132969226200,2.567226318359375,0.4845815598964691,0.5530633330345154,-1.5813640356063843
1761915132979281400,2.577281494140625,0.2242833524942398,1.1631321907043457,-1.385562539100647
1761915132989335600,2.58733544921875,-0.075316421687603,1.6496500968933105,-0.9951351881027222
1761915132999389400,2.597389404296875,-0.36515113711357117,1.973188042640686,-0.518578290939331
1761915133009443600,2.607443603515625,-0.598770260810852,2.1341536045074463,-0.07199916243553162
1761915133019497500,2.61749755859375,-0.7256854772567749,2.1410481929779053,0.2629203796386719
1761915133029552400,2.627552490234375,-0.7252767086029053,1.9785513877868652,0.458442747592926
1761915133039606300,2.637606201171875,-0.603020191192627,1.5910059213638306,0.5266770720481873
1761915133049660400,2.647660400390625,-0.41530436277389526,0.9933129549026489,0.5338018536567688
1761915133059714300,2.65771435546875,-0.19599649310112,0.3816991448402405,0.554114043712616
1761915133069769500,2.66776953125,0.05286472290754318,-0.11849471926689148,0.6171587705612183
1761915133079823600,2.67782373046875,0.3086489737033844,-0.4268900454044342,0.7156718969345093
1761915133089877200,2.687877197265625,0.499657541513443,-0.5313879251480103,0.8449406623840332
1761915133099931400,2.697931396484375,0.5611643195152283,-0.4469979405403137,0.97221839427948
1761915133109985300,2.7079853515625,0.5249711871147156,-0.21323764324188232,1.070244312286377
1761915133120040400,2.71804052734375,0.39689651131629944,0.08149909228086472,1.1278221607208252
1761915133130094600,2.728094482421875,0.1949641853570938,0.35772109031677246,1.1245464086532593
1761915133140148500,2.7381484375,-0.033999476581811905,0.5901039838790894,1.0639430284500122
1761915133150202600,2.74820263671875,-0.26653021574020386,0.7204686403274536,0.9560887813568115
1761915133160257300,2.75825732421875,-0.48835569620132446,0.7593470811843872,0.8310572504997253
1761915133170311400,2.7683115234375,-0.6750938296318054,0.7720657587051392,0.7522242069244385
1761915133180365300,2.778365234375,-0.792544960975647,0.79036945104599,0.7393327951431274
1761915133190419500,2.78841943359375,-0.8233803510665894,0.7847480773925781,0.743110716342926
1761915133200473600,2.7984736328125,-0.7425789833068848,0.6912180781364441,0.7095741033554077
1761915133210528300,2.8085283203125,-0.562491238117218,0.4600876271724701,0.6355999708175659
1761915133220582400,2.81858251953125,-0.32325443625450134,0.13855311274528503,0.5687905550003052
1761915133230636300,2.82863623046875,-0.07069035619497299,-0.14837132394313812,0.5772147178649902
1761915133240690400,2.8386904296875,0.23579248785972595,-0.301157683134079,0.6628684401512146
1761915133250744300,2.848744384765625,0.6116923689842224,-0.2441399097442627,0.7813881635665894
1761915133260799500,2.858799560546875,0.9710031151771545,-0.11836112290620804,0.8144616484642029
1761915133270853600,2.868853515625,1.1822619438171387,-0.22031518816947937,0.6868506669998169
1761915133280907500,2.878907470703125,1.158557653427124,-0.703576385974884,0.4097399413585663
1761915133290961400,2.88896142578125,0.9585949778556824,-1.4362308979034424,0.15140987932682037
1761915133301016300,2.899016357421875,0.6848254203796387,-2.0976333618164062,0.12175621092319489
1761915133311070500,2.909070556640625,0.42810970544815063,-2.3860318660736084,0.359618604183197
1761915133321124400,2.919124267578125,0.2825273275375366,-2.32623553276062,0.6354526877403259
1761915133331178500,2.929178466796875,0.301629900932312,-2.1052768230438232,0.6998767256736755
1761915133341232600,2.939232666015625,0.4570506811141968,-1.6907511949539185,0.5037495493888855
1761915133351287300,2.949287353515625,0.7253425717353821,-0.9277222752571106,0.21744903922080994
1761915133361341400,2.959341552734375,1.0290825366973877,0.05534738302230835,-0.048293810337781906
1761915133371395300,2.969395263671875,1.2587453126907349,0.8628974556922913,-0.27622073888778687
1761915133381449500,2.979449462890625,1.3569917678833008,1.327762246131897,-0.4239576756954193
1761915133391503400,2.98950341796875,1.265525460243225,1.4451919794082642,-0.4725337326526642
1761915133401558300,2.999558349609375,1.0199410915374756,1.1863059997558594,-0.5224757194519043
1761915133411612400,3.0096123046875,0.6947866082191467,0.5182722806930542,-0.6323095560073853
1761915133421666300,3.019666259765625,0.39157184958457947,-0.3103722333908081,-0.7054992318153381
1761915133431720400,3.029720458984375,0.14436018466949463,-0.9144375920295715,-0.6092896461486816
1761915133441775400,3.039775390625,-0.07317475229501724,-1.0923547744750977,-0.31902965903282166
1761915133451829500,3.04982958984375,-0.19271685183048248,-0.9118952751159668,0.062199726700782776
1761915133461883600,3.059883544921875,-0.10938957333564758,-0.5339417457580566,0.4055478572845459
1761915133471937500,3.0699375,0.15342873334884644,-0.08273805677890778,0.627442479133606
1761915133481991400,3.079991455078125,0.4626397490501404,0.35632064938545227,0.6681987047195435
1761915133492046300,3.09004638671875,0.6999984979629517,0.6560900211334229,0.499252051115036
1761915133502100500,3.1001005859375,0.7525274753570557,0.7693384289741516,0.16392552852630615
1761915133512154400,3.110154296875,0.5769793391227722,0.7143023610115051,-0.2075233906507492
1761915133522208500,3.12020849609375,0.2087668478488922,0.4847174286842346,-0.5072511434555054
1761915133532263400,3.130263427734375,-0.20777657628059387,0.12712547183036804,-0.7164314985275269
1761915133542317300,3.1403173828125,-0.577098548412323,-0.29728415608406067,-0.8123952150344849
1761915133552372200,3.150372314453125,-0.8690478801727295,-0.634708821773529,-0.7920622229576111
1761915133562426400,3.16042626953125,-1.0223867893218994,-0.7539361119270325,-0.6486215591430664
1761915133572480300,3.170480224609375,-1.0052464008331299,-0.7028647065162659,-0.4149686098098755
1761915133582535200,3.18053515625,-0.8316019177436829,-0.5087172389030457,-0.15446287393569946
1761915133592589000,3.190589111328125,-0.5472775101661682,-0.1801747828722,0.07873041927814484
1761915133602643200,3.200643310546875,-0.21390311419963837,0.19760267436504364,0.23188333213329315
1761915133612697000,3.210697021484375,0.10376272350549698,0.5182912349700928,0.27208054065704346
1761915133622751200,3.220751220703125,0.32402077317237854,0.7418638467788696,0.21575680375099182
1761915133632806400,3.230806396484375,0.4261905550956726,0.802293598651886,0.10697626322507858
1761915133642860300,3.2408603515625,0.40430575609207153,0.7020804286003113,0.011473476886749268
1761915133652914200,3.2509140625,0.2450801432132721,0.5293089151382446,0.01629326492547989
1761915133662968000,3.260968017578125,-0.01785309426486492,0.37583357095718384,0.11740511655807495
1761915133673023200,3.271023193359375,-0.3117417097091675,0.26539602875709534,0.2758285701274872
1761915133683077400,3.281077392578125,-0.525810182094574,0.26696205139160156,0.4257041811943054
1761915133693131300,3.29113134765625,-0.6372365951538086,0.38617071509361267,0.5220128893852234
1761915133703185400,3.301185302734375,-0.6708756685256958,0.5382040739059448,0.5450334548950195
1761915133713239300,3.3112392578125,-0.6214545965194702,0.6445973515510559,0.48476454615592957
1761915133723294200,3.321294189453125,-0.5093185901641846,0.6395992040634155,0.34895700216293335
1761915133733348000,3.33134814453125,-0.4144679605960846,0.5081985592842102,0.2131594866514206
1761915133743402200,3.34140234375,-0.34574779868125916,0.2915332317352295,0.13278985023498535
1761915133753456000,3.3514560546875,-0.2787993848323822,0.19116589426994324,0.1320284605026245
1761915133763511300,3.36151123046875,-0.1265476793050766,0.3738853633403778,0.177620068192482
1761915133773565200,3.371565185546875,0.09859675168991089,0.6852717399597168,0.184419646859169
1761915133783619000,3.381619140625,0.2807694673538208,0.931533694267273,0.07989323884248734
1761915133793673200,3.391673095703125,0.3501826226711273,0.8168950080871582,-0.15643887221813202
1761915133803727000,3.40172705078125,0.307071328163147,0.2835070788860321,-0.4162735939025879
1761915133813782300,3.4117822265625,0.12682965397834778,-0.6466823220252991,-0.5840694904327393
1761915133823836400,3.42183642578125,-0.13415402173995972,-1.6249988079071045,-0.5949823260307312
1761915133833890300,3.431890380859375,-0.3350461423397064,-2.3862032890319824,-0.4726249873638153
1761915133843944200,3.441944091796875,-0.46419376134872437,-2.602910041809082,-0.2531287968158722
1761915133853999000,3.4519990234375,-0.5673723816871643,-2.402641534805298,-0.018142929300665855
1761915133864053200,3.46205322265625,-0.6681577563285828,-1.7510119676589966,0.19589239358901978
1761915133874107100,3.472107177734375,-0.6947869658470154,-0.7705375552177429,0.36199188232421875
1761915133884161300,3.482161376953125,-0.5938774347305298,0.17248250544071198,0.43711113929748535
1761915133894215200,3.492215087890625,-0.38168585300445557,0.770122766494751,0.3845086693763733
1761915133904270000,3.50227001953125,-0.14053238928318024,1.02497398853302,0.23381079733371735
1761915133914324200,3.51232421875,0.08699823915958405,0.9641942977905273,0.04357614368200302
1761915133924378000,3.522378173828125,0.27601826190948486,0.6719431281089783,-0.12279422581195831
1761915133934432300,3.532432373046875,0.4356768727302551,0.2455984205007553,-0.2265523076057434
1761915133944486100,3.542486083984375,0.5292626619338989,-0.33507800102233887,-0.30939772725105286
1761915133954541300,3.552541259765625,0.5163367390632629,-0.939908504486084,-0.4030073285102844
1761915133964595200,3.56259521484375,0.3305870294570923,-1.3723279237747192,-0.49223652482032776
1761915133974649000,3.572649169921875,0.012814938090741634,-1.5614832639694214,-0.5536032319068909
1761915133984703200,3.582703125,-0.3064625859260559,-1.5205817222595215,-0.6205330491065979
1761915133994758100,3.592758056640625,-0.5521402955055237,-1.3443022966384888,-0.6999183893203735
1761915134004812300,3.602812255859375,-0.6353483200073242,-1.072103500366211,-0.7523584365844727
1761915134014866200,3.6128662109375,-0.5479878187179565,-0.6253901720046997,-0.717965304851532
1761915134024920300,3.62292041015625,-0.3234153389930725,-0.034154847264289856,-0.5969935059547424
1761915134034974500,3.632974365234375,-0.061953093856573105,0.5957671403884888,-0.4349716007709503
1761915134045029000,3.643029052734375,0.1080198734998703,1.1499606370925903,-0.26266202330589294
1761915134055083300,3.653083251953125,0.14013174176216125,1.426061749458313,-0.12981745600700378
1761915134065137200,3.66313720703125,0.05960895121097565,1.321943759918213,-0.06417321413755417
1761915134075191300,3.67319140625,-0.09033553302288055,0.9515528678894043,-0.04773032292723656
1761915134085246200,3.68324609375,-0.27239856123924255,0.4853033423423767,-0.05573364347219467
1761915134095300000,3.693300048828125,-0.44917628169059753,0.06167139858007431,-0.046845342963933945
1761915134105354200,3.703354248046875,-0.5576518774032593,-0.18630588054656982,0.028054717928171158
1761915134115408100,3.713408203125,-0.5616098642349243,-0.2644989490509033,0.14820322394371033
1761915134125462300,3.723462158203125,-0.49305224418640137,-0.2902091145515442,0.29222872853279114
1761915134135517200,3.73351708984375,-0.3667563498020172,-0.338939368724823,0.3985535502433777
1761915134145571300,3.7435712890625,-0.18211838603019714,-0.3846518397331238,0.4350988566875458
1761915134155625200,3.753625244140625,0.01189237181097269,-0.41353142261505127,0.4029896557331085
1761915134165679000,3.76367919921875,0.13545846939086914,-0.39030879735946655,0.33882004022598267
1761915134175734300,3.773734375,0.15112876892089844,-0.309844046831131,0.28720343112945557
1761915134185788200,3.7837880859375,0.08213336765766144,-0.2152053564786911,0.2406855672597885
1761915134195842300,3.79384228515625,-0.055138736963272095,-0.1202857717871666,0.21154259145259857
1761915134205896200,3.803896240234375,-0.24640145897865295,-0.030561869964003563,0.1903172880411148
1761915134215950300,3.813950439453125,-0.44701871275901794,0.07158394157886505,0.1779588907957077
1761915134226005200,3.824005126953125,-0.5878046154975891,0.14069902896881104,0.1538889855146408
1761915134236059100,3.83405908203125,-0.6557700634002686,0.17195867002010345,0.1162811666727066
1761915134246113300,3.84411328125,-0.6755800247192383,0.1500314623117447,0.08946666121482849
1761915134256167200,3.854167236328125,-0.663567066192627,0.022776558995246887,0.07280725985765457
1761915134266222300,3.864222412109375,-0.6276658177375793,-0.1920556277036667,0.06668544560670853
1761915134276276200,3.874276123046875,-0.5680365562438965,-0.4729789197444916,0.055718548595905304
1761915134286330000,3.884330078125,-0.4407978951931,-0.6722879409790039,0.02828475646674633
1761915134296384300,3.89438427734375,-0.22190122306346893,-0.68415766954422,-0.046779632568359375
1761915134306438100,3.904438232421875,0.05773985758423805,-0.4734552800655365,-0.19276893138885498
1761915134316493300,3.914493408203125,0.28586065769195557,-0.18155498802661896,-0.43174314498901367
1761915134326547200,3.924547119140625,0.4267118573188782,-0.017296619713306427,-0.7406177520751953
1761915134336601300,3.934601318359375,0.42632487416267395,-0.11567112803459167,-1.0657880306243896
1761915134346655200,3.9446552734375,0.1257348358631134,-0.5010579824447632,-1.3710205554962158
1761915134356710100,3.954710205078125,-0.36260876059532166,-0.6089953780174255,-1.5874810218811035
1761915134366764300,3.964764404296875,-0.7151123881340027,-0.11445525288581848,-1.6211251020431519
1761915134376818200,3.974818115234375,-0.8577067852020264,0.6439123749732971,-1.4441052675247192
1761915134386872300,3.984872314453125,-0.8242975473403931,1.2076876163482666,-1.0594367980957031
1761915134396926200,3.99492626953125,-0.6387943029403687,1.501913070678711,-0.5502065420150757
1761915134406978000,4.00497802734375,-0.36346274614334106,1.617047905921936,-0.162974551320076
1761915134417033200,4.015033203125,0.038076408207416534,1.569982886314392,-0.11871759593486786
1761915134427087400,4.02508740234375,0.43346622586250305,1.3098618984222412,-0.35936421155929565
1761915134437141200,4.035141357421875,0.6820502281188965,1.125564694404602,-0.5583145618438721
1761915134447195400,4.0451953125,0.8160263299942017,1.0613040924072266,-0.5307480692863464
1761915134457249300,4.055249267578125,0.8376895189285278,0.8880598545074463,-0.33938559889793396
1761915134467304200,4.06530419921875,0.805388867855072,0.5849915742874146,-0.09113799780607224
1761915134477358000,4.075358154296875,0.7360222935676575,0.35224947333335876,0.17386704683303833
1761915134487412200,4.085412109375,0.557309091091156,0.30826008319854736,0.43715614080429077
1761915134497466400,4.09546630859375,0.27719220519065857,0.38515380024909973,0.6185445785522461
1761915134507520300,4.105520263671875,0.03696420416235924,0.42415130138397217,0.6111390590667725
1761915134517575200,4.1155751953125,-0.05209163576364517,0.2624228596687317,0.33384275436401367
1761915134527629000,4.125629150390625,-0.025285059586167336,-0.0849788710474968,-0.17463190853595734
1761915134537683200,4.13568310546875,0.005177241750061512,-0.39157822728157043,-0.7489716410636902
1761915134547737000,4.145737060546875,-0.04114977642893791,-0.44299161434173584,-1.1905313730239868
1761915134557792300,4.155792236328125,-0.15705187618732452,-0.27794912457466125,-1.3859342336654663
1761915134567846100,4.16584619140625,-0.3169279098510742,0.030702589079737663,-1.3301918506622314
1761915134577900300,4.175900390625,-0.49551868438720703,0.3935425877571106,-1.0616387128829956
1761915134587954000,4.185953857421875,-0.6669238209724426,0.6875682473182678,-0.6571840047836304
1761915134598008000,4.196008056640625,-0.7926732301712036,0.8345369100570679,-0.19269783794879913
1761915134608063000,4.20606298828125,-0.8533948063850403,0.8354350924491882,0.269355446100235
1761915134618117000,4.2161171875,-0.8501636385917664,0.7024781107902527,0.6853561401367188
1761915134628171300,4.226171142578125,-0.7869699001312256,0.4433324933052063,1.0039079189300537
1761915134638225200,4.23622509765625,-0.6832016706466675,0.0761377140879631,1.1913443803787231
1761915134648280000,4.246280029296875,-0.5467942953109741,-0.30758431553840637,1.2433713674545288
1761915134658334000,4.256333984375,-0.37716206908226013,-0.6110835075378418,1.2019771337509155
1761915134668388000,4.26638818359375,-0.18842892348766327,-0.7345284819602966,1.1225533485412598
1761915134678442000,4.27644189453125,0.025452539324760437,-0.6313375234603882,1.0212817192077637
1761915134688497200,4.2864970703125,0.20606423914432526,-0.3820315897464752,0.9151384234428406
1761915134698551300,4.29655126953125,0.29019829630851746,-0.1327730268239975,0.8099198341369629
1761915134708605000,4.30660498046875,0.2746543288230896,0.08736515790224075,0.7192404270172119
1761915134718659000,4.3166591796875,0.1755562275648117,0.23259586095809937,0.6146924495697021
1761915134728713000,4.326712890625,0.02120479755103588,0.3032940924167633,0.4881137013435364
1761915134738768100,4.33676806640625,-0.16082492470741272,0.35014522075653076,0.35510796308517456
1761915134748822300,4.346822265625,-0.33808401226997375,0.36918386816978455,0.26685386896133423
1761915134758876200,4.356876220703125,-0.45720189809799194,0.3316490054130554,0.24349583685398102
1761915134768930300,4.366930419921875,-0.49484679102897644,0.25555914640426636,0.2688142955303192
1761915134778985000,4.37698486328125,-0.4419928789138794,0.1888786405324936,0.2790656089782715
1761915134789039000,4.3870390625,-0.2843548357486725,0.15422846376895905,0.2339751422405243
1761915134799093000,4.397093017578125,-0.061227213591337204,0.09810394048690796,0.13074463605880737
1761915134809147100,4.407147216796875,0.16423393785953522,0.005031623411923647,0.02785254269838333
1761915134819201000,4.417200927734375,0.34881600737571716,-0.08138289302587509,-0.011496728286147118
1761915134829256000,4.427255859375,0.44181346893310547,-0.13182422518730164,0.039978574961423874
1761915134839310000,4.43731005859375,0.4444548189640045,-0.06507235765457153,0.16879968345165253
1761915134849364000,4.447364013671875,0.4207400679588318,0.19493483006954193,0.2811009883880615
1761915134859418000,4.457418212890625,0.2765008509159088,0.2056111842393875,0.2330237627029419
1761915134869473000,4.46747314453125,-0.0733598917722702,-0.005562745966017246,0.15565943717956543
1761915134879527200,4.477527099609375,-0.45426544547080994,-0.09815046936273575,0.27131760120391846
1761915134889581300,4.487581298828125,-0.4608066976070404,0.06597930192947388,0.5376379489898682
1761915134899635200,4.49763525390625,-0.03719443827867508,0.3944610357284546,0.7652410268783569
1761915134909689000,4.507689208984375,0.4362401068210602,0.6559557914733887,0.7871938347816467
1761915134919744000,4.517743896484375,0.7555224895477295,0.7934463024139404,0.5498936772346497
1761915134929798100,4.527798095703125,0.9703349471092224,0.7119495272636414,0.12155138701200485
1761915134939852000,4.53785205078125,1.050620675086975,0.47332763671875,-0.2827545702457428
1761915134949906200,4.54790625,1.0296145677566528,0.3276402950286865,-0.4851132929325104
1761915134959961000,4.557961181640625,0.9578756093978882,0.3600810468196869,-0.49449771642684937
1761915134970015000,4.568014892578125,0.832729697227478,0.47710520029067993,-0.44116371870040894
1761915134980069000,4.578069091796875,0.6999133825302124,0.5015913844108582,-0.47847887873649597
1761915134990123000,4.588123046875,0.5789315104484558,0.37987205386161804,-0.6016324758529663
1761915135000177200,4.59817724609375,0.48948630690574646,0.19980697333812714,-0.6889444589614868
1761915135010232300,4.608232421875,0.4913192689418793,0.038724906742572784,-0.6363130807876587
1761915135020286200,4.6182861328125,0.5805774927139282,-0.008377623744308949,-0.4169871211051941
1761915135030340000,4.628340087890625,0.6747079491615295,0.15984636545181274,-0.061518676578998566
1761915135040394000,4.63839404296875,0.6746456027030945,0.4815461039543152,0.3071286082267761
1761915135050449200,4.64844921875,0.5840732455253601,0.7366831302642822,0.523361086845398
1761915135060503000,4.6585029296875,0.5481014251708984,0.7307195067405701,0.46896764636039734
1761915135070557200,4.66855712890625,0.5973774790763855,0.533175528049469,0.20784325897693634
1761915135080611000,4.678611083984375,0.5772095918655396,0.3827343285083771,-0.10026342421770096
1761915135090665200,4.688665283203125,0.3747621774673462,0.3597356975078583,-0.3829749524593353
1761915135100720000,4.69872021484375,0.007404126226902008,0.4606727063655853,-0.6081955432891846
1761915135110774000,4.70877392578125,-0.42384397983551025,0.7003877758979797,-0.7799785137176514
1761915135120828200,4.718828125,-0.8063756227493286,1.0023388862609863,-0.9122859239578247
1761915135130882000,4.728882080078125,-1.046004295349121,1.2121886014938354,-0.9938366413116455
1761915135140937200,4.738937255859375,-1.106533408164978,1.2347774505615234,-0.965645432472229
1761915135150991000,4.7489912109375,-0.985741376876831,1.0603982210159302,-0.8360875844955444
1761915135161045000,4.759044921875,-0.7131497859954834,0.7832621932029724,-0.6313344240188599
1761915135171099100,4.76909912109375,-0.389058381319046,0.4686797559261322,-0.4114791750907898
1761915135181154000,4.779154052734375,-0.11424573510885239,0.18141736090183258,-0.22496788203716278
1761915135191208200,4.789208251953125,0.04840214177966118,-0.09926069527864456,-0.1288992464542389
1761915135201262000,4.799261962890625,0.11363867670297623,-0.3182638883590698,-0.12202563881874084
1761915135211316200,4.809316162109375,0.09261448681354523,-0.40856948494911194,-0.1539999544620514
1761915135221369900,4.819369873046875,0.0364268459379673,-0.3538902699947357,-0.18681436777114868
1761915135231425000,4.829425048828125,-0.013115222565829754,-0.24939091503620148,-0.21808218955993652
1761915135241479200,4.839479248046875,-0.026517048478126526,-0.18561965227127075,-0.23718556761741638
1761915135251533000,4.849532958984375,-0.022051502019166946,-0.15613777935504913,-0.2294570356607437
1761915135261587200,4.859587158203125,0.002037590369582176,-0.10488151758909225,-0.18179498612880707
1761915135271642000,4.86964208984375,0.0317128449678421,0.015831705182790756,-0.11769047379493713
1761915135281696000,4.879696044921875,0.059770312160253525,0.22426000237464905,-0.06028018146753311
1761915135291750100,4.889750244140625,0.07449528574943542,0.43947261571884155,-0.004021531902253628
1761915135301804000,4.899803955078125,0.060737136751413345,0.5688236951828003,0.032786548137664795
1761915135311858200,4.909858154296875,0.024723980575799942,0.6193070411682129,0.05208863690495491
1761915135321913000,4.9199130859375,-0.047774456441402435,0.5942128896713257,0.04858791455626488
1761915135331967200,4.92996728515625,-0.14193692803382874,0.43744584918022156,0.0023053884506225586
1761915135342020900,4.940020751953125,-0.2382541447877884,0.1842561960220337,-0.04985954612493515
1761915135352075000,4.950074951171875,-0.29187408089637756,-0.10248284786939621,-0.05348452925682068
1761915135362130200,4.960130126953125,-0.218623548746109,-0.31387367844581604,-0.01810869574546814
1761915135372184000,4.97018408203125,0.025980500504374504,-0.36592528223991394,0.009632481262087822
1761915135382238200,4.98023828125,0.318106085062027,-0.29361698031425476,-0.01962926611304283
1761915135392292000,4.9902919921875,0.5966251492500305,0.010639042593538761,-0.08241838216781616
1761915135402346200,5.00034619140625,0.8783329725265503,0.34140071272850037,-0.1566244214773178
1761915135412401200,5.010401123046875,0.9370925426483154,0.2783385217189789,-0.14205045998096466
1761915135422455000,5.020455078125,0.5181557536125183,-0.061996955424547195,0.06782900542020798
1761915135432509200,5.03050927734375,0.007382022216916084,-0.26853516697883606,0.3404708802700043
1761915135442563000,5.04056298828125,-0.255947083234787,-0.49630334973335266,0.4704382121562958
1761915135452618200,5.0506181640625,-0.2243986576795578,-0.6245154142379761,0.3625667989253998
1761915135462672000,5.060671875,0.07685546576976776,-0.7861586809158325,-0.10422703623771667
1761915135472726000,5.07072607421875,0.5458003282546997,-0.7950463891029358,-0.8250994682312012
1761915135482780000,5.08077978515625,1.2500524520874023,-0.7522507309913635,-1.626914381980896
1761915135492834000,5.090833984375,1.9525306224822998,-0.7464360594749451,-2.2681925296783447
1761915135502889200,5.10088916015625,2.315737247467041,-0.7255526185035706,-2.4453656673431396
1761915135512943000,5.110943115234375,2.3046789169311523,-0.5857953429222107,-2.087862014770508
1761915135522997200,5.120997314453125,2.1075057983398438,-0.2977752387523651,-1.4162178039550781
1761915135533051100,5.131051025390625,2.0071301460266113,0.05970387905836105,-0.7083732485771179
1761915135543106000,5.14110595703125,1.964324951171875,0.5627667307853699,-0.015140713192522526
1761915135553160200,5.15116015625,1.7516281604766846,1.258221983909607,0.6447157263755798
1761915135563213600,5.161213623046875,1.3435144424438477,1.9895793199539185,1.114357829093933
1761915135573267700,5.171267822265625,0.8309868574142456,2.303029775619507,1.1007883548736572
1761915135583322600,5.181322509765625,0.31358256936073303,1.9952466487884521,0.4474584460258484
1761915135593376500,5.19137646484375,-0.1935078501701355,1.3228074312210083,-0.6874558925628662
1761915135603430400,5.201430419921875,-0.605304479598999,0.5079221725463867,-1.8864144086837769
1761915135613484500,5.211484619140625,-0.8193950057029724,-0.2540636360645294,-2.6330807209014893
1761915135623538400,5.221538330078125,-0.8754037022590637,-0.675613284111023,-2.7387096881866455
1761915135633593600,5.231593505859375,-0.7853913903236389,-0.7954949140548706,-2.2942328453063965
1761915135643647700,5.241647705078125,-0.6173802614212036,-0.6979305744171143,-1.528803825378418
1761915135653701600,5.25170166015625,-0.42173632979393005,-0.4909326136112213,-0.6767072081565857
1761915135663755800,5.261755859375,-0.22003036737442017,-0.2943063974380493,0.0917937159538269
1761915135673810400,5.271810546875,-0.028645453974604607,-0.19321931898593903,0.708222508430481
1761915135683864600,5.281864501953125,0.11330422759056091,-0.21497973799705505,1.115363359451294
1761915135693918700,5.291918701171875,0.14049719274044037,-0.36129364371299744,1.315731167793274
1761915135703972600,5.30197265625,0.05474792420864105,-0.5168771147727966,1.2934235334396362
1761915135714027500,5.312027587890625,-0.062158212065696716,-0.6174866557121277,1.0688992738723755
1761915135724081400,5.322081298828125,-0.16242383420467377,-0.5875705480575562,0.7579666972160339
1761915135734135600,5.332135498046875,-0.23282597959041595,-0.41085171699523926,0.480678528547287
1761915135744189400,5.342189453125,-0.26052311062812805,-0.21020594239234924,0.28124770522117615
1761915135754243600,5.35224365234375,-0.23603306710720062,-0.026093848049640656,0.205595925450325
1761915135764298800,5.362298828125,-0.2042229324579239,0.16695363819599152,0.2732143700122833
1761915135774352600,5.3723525390625,-0.16665254533290863,0.2989877760410309,0.43607667088508606
1761915135784406800,5.38240673828125,-0.16655215620994568,0.31711190938949585,0.6310584545135498
1761915135794460400,5.39246044921875,-0.21978826820850372,0.31539586186408997,0.7989076972007751
1761915135804515600,5.402515625,-0.3163667321205139,0.2827977240085602,0.9211076498031616
1761915135814569700,5.41256982421875,-0.41157111525535583,0.18775230646133423,1.0027819871902466
1761915135824623600,5.42262353515625,-0.4445008337497711,0.06024041771888733,1.073494553565979
1761915135834677800,5.432677734375,-0.40041816234588623,-0.07977491617202759,1.1721829175949097
1761915135844731600,5.442731689453125,-0.29168954491615295,-0.19553294777870178,1.316494345664978
1761915135854786600,5.45278662109375,-0.15907907485961914,-0.2682749330997467,1.4890578985214233
1761915135864840400,5.46284033203125,-0.046095531433820724,-0.2558789849281311,1.6645506620407104
1761915135874894600,5.47289453125,0.03319590166211128,-0.08754810690879822,1.8195997476577759
1761915135884948500,5.482948486328125,0.11202680319547653,0.2890399098396301,1.8938792943954468
1761915135895003600,5.493003662109375,0.15163131058216095,0.766294538974762,1.8165308237075806
1761915135905057800,5.503057861328125,0.01531288679689169,0.9187772870063782,1.4995590448379517
1761915135915111400,5.513111328125,-0.32068291306495667,0.6041337847709656,0.9663893580436707
1761915135925165600,5.52316552734375,-0.6194307208061218,0.16984066367149353,0.4666450619697571
1761915135935220500,5.533220458984375,-0.845341682434082,-0.3073138892650604,0.22191821038722992
1761915135945274600,5.543274658203125,-1.0985215902328491,-0.5342586040496826,0.2558154761791229
1761915135955328800,5.553328857421875,-1.2025398015975952,-0.22022634744644165,0.438836932182312
1761915135965382700,5.563382568359375,-1.0574486255645752,0.3086872696876526,0.5073443651199341
1761915135975436800,5.573436767578125,-0.7588944435119629,0.6485918164253235,0.3128302991390228
1761915135985491500,5.583491455078125,-0.4177078306674957,0.6109597682952881,-0.1266602724790573
1761915135995545600,5.593545654296875,-0.12017422914505005,0.3589041829109192,-0.569589376449585
1761915136005599500,5.603599609375,0.11364865303039551,0.2165350466966629,-0.7303750514984131
1761915136015653600,5.613653564453125,0.31038880348205566,0.15895310044288635,-0.5655128359794617
1761915136025708800,5.623708740234375,0.46776989102363586,0.06844025105237961,-0.26736369729042053
1761915136035762400,5.633762451171875,0.6044455170631409,-0.23407988250255585,-0.05845179408788681
1761915136045816600,5.643816650390625,0.7104380130767822,-0.8889517784118652,-0.06291045248508453
1761915136055870500,5.653870361328125,0.7422893643379211,-1.6928356885910034,-0.16243626177310944
1761915136065925600,5.663925537109375,0.675130307674408,-2.2681403160095215,-0.12965621054172516
1761915136075979800,5.673979736328125,0.5065082311630249,-2.389606237411499,0.12450770288705826
1761915136086033700,5.68403369140625,0.295838326215744,-1.9365845918655396,0.5092518925666809
1761915136096087800,5.694087890625,0.21320949494838715,-0.9973608255386353,0.8902729749679565
1761915136106141400,5.704141357421875,0.335992693901062,0.08594249933958054,1.1561241149902344
1761915136116196600,5.714196533203125,0.5944987535476685,1.0521265268325806,1.2776418924331665
1761915136126250500,5.72425048828125,0.8651111125946045,1.619419813156128,1.2259448766708374
1761915136136304600,5.7343046875,0.9856544137001038,1.6339261531829834,0.937256932258606
1761915136146358500,5.744358642578125,0.896717369556427,1.3935636281967163,0.4729017913341522
1761915136156413400,5.754413330078125,0.6078077554702759,1.0809966325759888,-0.06015654653310776
1761915136166467600,5.764467529296875,0.20191168785095215,0.8738716840744019,-0.5053835511207581
1761915136176521500,5.774521484375,-0.21419566869735718,0.8498935699462891,-0.7484841346740723
1761915136186575600,5.78457568359375,-0.5330197215080261,0.9098227024078369,-0.7757797241210938
1761915136196629500,5.79462939453125,-0.713960587978363,0.96882563829422,-0.6435539126396179
1761915136206684700,5.8046845703125,-0.7523252964019775,0.9211038947105408,-0.449868381023407
1761915136216738800,5.81473876953125,-0.6682261228561401,0.7789539694786072,-0.27195003628730774
1761915136226792400,5.82479248046875,-0.49024465680122375,0.6099780201911926,-0.14983877539634705
1761915136236846600,5.8348466796875,-0.2288198322057724,0.5162648558616638,-0.06837897002696991
1761915136246901500,5.844901611328125,0.09029877185821533,0.5978721380233765,-0.012277879752218723
1761915136256955600,5.85495556640625,0.40757817029953003,0.8350611925125122,0.025248493999242783
1761915136267009500,5.865009521484375,0.669016420841217,1.1555914878845215,0.017512278631329536
1761915136277063700,5.875063720703125,0.8722128868103027,1.5137872695922852,-0.04603227600455284
1761915136287118600,5.88511865234375,1.0175268650054932,1.8874061107635498,-0.1687997430562973
1761915136297172500,5.89517236328125,1.0817404985427856,2.3046700954437256,-0.33502405881881714
1761915136307226600,5.9052265625,1.0585328340530396,2.715245485305786,-0.5290582180023193
1761915136317280500,5.915280517578125,0.9256466031074524,3.0529723167419434,-0.7126348614692688
1761915136327334700,5.925334716796875,0.7173392176628113,3.2143895626068115,-0.9003046751022339
1761915136337389800,5.935389892578125,0.534730076789856,3.07936954498291,-1.0823235511779785
1761915136347443500,5.945443359375,0.4250592589378357,2.6237564086914062,-1.1789119243621826
1761915136357497600,5.95549755859375,0.37607067823410034,1.992330551147461,-1.1178767681121826
1761915136367551500,5.965551513671875,0.43383172154426575,1.3368048667907715,-0.8939357995986938
1761915136377606700,5.975606689453125,0.6361162662506104,0.873993992805481,-0.617189884185791
1761915136387660500,5.98566064453125,0.9379538893699646,0.633037269115448,-0.43459954857826233
1761915136397714700,5.995714599609375,1.1690666675567627,0.45785021781921387,-0.40134140849113464
1761915136407768600,6.0057685546875,1.1949406862258911,0.2683010697364807,-0.5011103749275208
1761915136417823500,6.015823486328125,1.0187565088272095,0.06037530675530434,-0.6756296157836914
1761915136427877600,6.025877685546875,0.6681497097015381,-0.21830931305885315,-0.9066388607025146
1761915136437931500,6.035931640625,0.16103355586528778,-0.6131920218467712,-1.198283314704895
1761915136447985700,6.045985595703125,-0.3280900716781616,-0.9990590214729309,-1.4847584962844849
1761915136458039600,6.05603955078125,-0.6076505780220032,-1.249828577041626,-1.6273425817489624
1761915136468094500,6.066094482421875,-0.627909243106842,-1.1213829517364502,-1.5361689329147339
1761915136478148600,6.076148681640625,-0.41143953800201416,-0.6555605530738831,-1.2635953426361084
1761915136488202500,6.086202392578125,-0.1679786592721939,-0.2673076093196869,-1.0093899965286255
1761915136498256600,6.096256591796875,-0.016995921730995178,-0.13586567342281342,-0.9549863338470459
1761915136508311600,6.1063115234375,0.07989360392093658,-0.17662028968334198,-1.0332130193710327
1761915136518365700,6.11636572265625,0.10883401334285736,-0.3395370841026306,-1.1272077560424805
1761915136528419600,6.126419677734375,0.12731796503067017,-0.5654889941215515,-1.0933573246002197
1761915136538473700,6.1364736328125,0.20840196311473846,-0.6241157650947571,-0.829858660697937
1761915136548527400,6.14652734375,0.2787565588951111,-0.44834205508232117,-0.35705652832984924
1761915136558582500,6.15658251953125,0.2286975383758545,-0.13521882891654968,0.23726043105125427
1761915136568637200,6.16663720703125,0.07764437049627304,0.15174050629138947,0.8454960584640503
1761915136578691000,6.176691162109375,-0.04116087034344673,0.06999309360980988,1.279516339302063
1761915136588745200,6.1867451171875,0.013349243439733982,-0.6795674562454224,1.3251738548278809
1761915136598800000,6.1967998046875,0.23172327876091003,-1.8905622959136963,0.872519314289093
1761915136608854000,6.20685400390625,0.46478450298309326,-2.971418619155884,0.13582396507263184
1761915136618908200,6.216908203125,0.5124764442443848,-3.443375587463379,-0.5508638620376587
1761915136628962000,6.226962158203125,0.3512100577354431,-3.3678226470947266,-1.0440350770950317
1761915136639017200,6.237017333984375,0.04824041947722435,-2.9666686058044434,-1.3079042434692383
1761915136649071000,6.247071044921875,-0.30779969692230225,-2.426896095275879,-1.3263200521469116
1761915136659125000,6.257125,-0.6285229325294495,-1.972002625465393,-1.1055595874786377
1761915136669179000,6.267178955078125,-0.8340547680854797,-1.6387650966644287,-0.6953311562538147
1761915136679234000,6.277234130859375,-0.9356316328048706,-1.3975415229797363,-0.18789857625961304
1761915136689288200,6.2872880859375,-0.9443529844284058,-1.1592479944229126,0.33492788672447205
1761915136699342000,6.297342041015625,-0.8519635200500488,-0.9006543755531311,0.788486659526825
1761915136709396200,6.307396240234375,-0.6877855062484741,-0.6486809849739075,1.099202275276184
1761915136719450000,6.3174501953125,-0.5175297856330872,-0.4891420602798462,1.2146855592727661
1761915136729505000,6.327505126953125,-0.35787516832351685,-0.4355020225048065,1.1375572681427002
1761915136739559000,6.337558837890625,-0.2522795796394348,-0.45874741673469543,0.9234951138496399
1761915136749613000,6.347613037109375,-0.21088048815727234,-0.517688512802124,0.6468235850334167
1761915136759667200,6.357667236328125,-0.21346549689769745,-0.4783634543418884,0.38098272681236267
1761915136769722000,6.36772216796875,-0.24518214166164398,-0.3895861804485321,0.12961120903491974
1761915136779776000,6.37777587890625,-0.28954458236694336,-0.29616811871528625,-0.10544441640377045
1761915136789830000,6.387829833984375,-0.35553663969039917,-0.1826506108045578,-0.2846969962120056
1761915136799884000,6.397884033203125,-0.42110031843185425,-0.11802209168672562,-0.37910112738609314
1761915136809939200,6.407939208984375,-0.4553932845592499,-0.0697440430521965,-0.3422270119190216
1761915136819993000,6.4179931640625,-0.43737727403640747,-0.02152351848781109,-0.17930413782596588
1761915136830047200,6.428047119140625,-0.3569205105304718,0.02984779328107834,0.03192181885242462
1761915136840101000,6.43810107421875,-0.25637248158454895,0.1539783626794815,0.18690750002861023
1761915136850155000,6.448155029296875,-0.14669311046600342,0.38308024406433105,0.21249061822891235
1761915136860210000,6.4582099609375,-0.04775535687804222,0.6227657794952393,0.12547264993190765
1761915136870264000,6.46826416015625,-0.028643714264035225,0.7162445783615112,0.0009219394996762276
1761915136880318200,6.478318115234375,-0.06146447733044624,0.6030318140983582,-0.09659984707832336
1761915136890372000,6.4883720703125,-0.10488146543502808,0.37900030612945557,-0.14005757868289948
1761915136900427000,6.498427001953125,-0.23251858353614807,-0.002456607995554805,-0.1726146638393402
1761915136910481000,6.50848095703125,-0.4454028904438019,-0.18861982226371765,-0.18386678397655487
1761915136920535000,6.51853515625,-0.6539983153343201,0.1722393035888672,-0.06305289268493652
1761915136930589000,6.5285888671875,-0.7619026899337769,0.8829762935638428,0.24045078456401825
1761915136940644000,6.53864404296875,-0.7213557958602905,1.4619791507720947,0.692048966884613
1761915136950698200,6.5486982421875,-0.5302284955978394,1.709954023361206,1.1677837371826172
1761915136960752000,6.558752197265625,-0.2151641696691513,1.5567950010299683,1.4738363027572632
1761915136970806000,6.568805908203125,0.0687975138425827,0.771327555179596,1.3873845338821411
1761915136980860000,6.57885986328125,0.2551443874835968,-0.5823200941085815,0.9203087687492371
1761915136990915000,6.5889150390625,0.40610647201538086,-1.8570524454116821,0.3388400077819824
1761915137000969200,6.59896923828125,0.5182815790176392,-2.5819897651672363,-0.1192600280046463
1761915137011023000,6.609023193359375,0.6576101779937744,-2.542832136154175,-0.34708017110824585
1761915137021077200,6.6190771484375,0.8466570973396301,-1.9478187561035156,-0.3751421868801117
1761915137031132000,6.6291318359375,0.954782247543335,-1.1091324090957642,-0.2414267361164093
1761915137041186000,6.63918603515625,0.8854882121086121,-0.32796695828437805,-0.000369977205991745
1761915137051240000,6.649239990234375,0.7535962462425232,0.2745330035686493,0.3063497543334961
1761915137061294000,6.659294189453125,0.7127750515937805,0.7697068452835083,0.63788241147995
1761915137071349200,6.669349365234375,0.8140550851821899,1.242073893547058,0.9410662055015564
1761915137081403100,6.679403076171875,1.0061343908309937,1.576812505722046,1.108658790588379
1761915137091457000,6.68945703125,1.1858158111572266,1.3864459991455078,1.0325459241867065
1761915137101511000,6.699510986328125,1.2250059843063354,0.7218472957611084,0.7261823415756226
1761915137111565000,6.70956494140625,1.1079580783843994,0.11752811819314957,0.3358423113822937
1761915137121620000,6.719619873046875,0.85382479429245,-0.11555120348930359,0.005425099283456802
1761915137131674000,6.729674072265625,0.47023025155067444,-0.07432813942432404,-0.24595440924167633
1761915137141728300,6.739728271484375,0.0331864133477211,0.16790275275707245,-0.40978893637657166
1761915137151782100,6.7497822265625,-0.3513370156288147,0.4322478473186493,-0.543467104434967
1761915137161837000,6.759837158203125,-0.6442463397979736,0.5910884737968445,-0.7075616121292114
1761915137171891000,6.769890869140625,-0.8472719192504883,0.6825686097145081,-0.8998503088951111
1761915137181945000,6.779945068359375,-0.9757975339889526,0.7431972622871399,-1.1293779611587524
1761915137191999000,6.7899990234375,-0.9952735304832458,0.816100537776947,-1.3939189910888672
1761915137202054100,6.80005419921875,-0.9301762580871582,0.9799211025238037,-1.6159051656723022
1761915137212108000,6.81010791015625,-0.8123121857643127,1.2362573146820068,-1.7465797662734985
1761915137222162000,6.820161865234375,-0.7041003108024597,1.4953491687774658,-1.7506868839263916
1761915137232216000,6.830216064453125,-0.615172803401947,1.7165625095367432,-1.6085097789764404
1761915137242270000,6.84027001953125,-0.5425885915756226,1.9034208059310913,-1.3395159244537354
1761915137252325000,6.8503251953125,-0.4983924627304077,2.0089359283447266,-1.0016653537750244
1761915137262379300,6.860379150390625,-0.44904518127441406,2.073593854904175,-0.6160776615142822
1761915137272433200,6.87043310546875,-0.36142876744270325,2.072089672088623,-0.20745985209941864
1761915137282487000,6.880487060546875,-0.24736110866069794,1.940064549446106,0.16803394258022308
1761915137292542000,6.8905419921875,-0.14405947923660278,1.6601111888885498,0.44564104080200195
1761915137302596000,6.90059619140625,-0.03415769711136818,1.2965036630630493,0.6138885617256165
1761915137312650000,6.91064990234375,0.09432411193847656,0.82731032371521,0.7352110147476196
1761915137322704100,6.9207041015625,0.20942817628383636,0.27165713906288147,0.8770802021026611
1761915137332759000,6.930759033203125,0.2791720926761627,-0.31568944454193115,1.052742838859558
1761915137342813000,6.94081298828125,0.30312126874923706,-0.8181139826774597,1.2247899770736694
1761915137352867000,6.9508671875,0.26723355054855347,-1.1490261554718018,1.306414008140564
1761915137362921000,6.9609208984375,0.26234331727027893,-1.3704761266708374,1.272591233253479
1761915137372975000,6.97097509765625,0.3662564158439636,-1.2088276147842407,1.1877623796463013
1761915137383030000,6.981030029296875,0.6153626441955566,-0.6064677238464355,1.1329560279846191
1761915137393084200,6.991084228515625,0.8186126947402954,0.02891324646770954,1.0110493898391724
1761915137403138000,7.001137939453125,0.6229880452156067,0.23005123436450958,0.6452762484550476
1761915137413192000,7.01119189453125,0.15219837427139282,0.29662972688674927,0.06001069024205208
1761915137423247000,7.0212470703125,-0.1384679228067398,0.37909185886383057,-0.5357409715652466
1761915137433301000,7.031301025390625,-0.4480532109737396,-0.13773930072784424,-0.8267310261726379
1761915137443355100,7.041355224609375,-0.8347013592720032,-0.7922748327255249,-0.5075485110282898
1761915137453409000,7.051408935546875,-0.9135271906852722,-1.0730884075164795,0.24646644294261932
1761915137463464000,7.0614638671875,-0.5686559081077576,-1.0709649324417114,0.8078761100769043
1761915137473518000,7.07151806640625,-0.050389330834150314,-0.9972159266471863,0.7725886702537537
1761915137483572000,7.081572021484375,0.4543208181858063,-0.9631350040435791,0.1904737800359726
1761915137493626000,7.091626220703125,0.7417213916778564,-0.8841794729232788,-0.5710970759391785
1761915137503680000,7.101679931640625,0.766450822353363,-0.757070779800415,-1.1238982677459717
1761915137513735200,7.111735107421875,0.6378694176673889,-0.7624684572219849,-1.306787133216858
1761915137523789000,7.1217890625,0.3213619589805603,-1.0010007619857788,-1.1357141733169556
1761915137533843000,7.131843017578125,-0.1738264560699463,-1.4366518259048462,-0.7622441649436951
1761915137543897000,7.14189697265625,-0.6869990229606628,-2.015127658843994,-0.3807121813297272
1761915137553952000,7.151951904296875,-0.9627277851104736,-2.607962131500244,-0.12013038247823715
1761915137564005400,7.16200537109375,-0.8195802569389343,-2.925938844680786,-0.05007541924715042
1761915137574059500,7.1720595703125,-0.2509380877017975,-2.871560573577881,-0.17480482161045074
1761915137584113400,7.182113525390625,0.4373159408569336,-2.5280370712280273,-0.41806140542030334
1761915137594168300,7.192168212890625,0.837255597114563,-1.962480068206787,-0.6289923191070557
1761915137604222500,7.202222412109375,0.7570050954818726,-1.3686579465866089,-0.7969427704811096
1761915137614276400,7.2122763671875,0.2735278904438019,-0.8955497145652771,-0.8878872990608215
1761915137624330500,7.22233056640625,-0.4230634570121765,-0.48197418451309204,-0.8314560055732727
1761915137634384400,7.23238427734375,-1.1426492929458618,-0.2428164929151535,-0.6519219279289246
1761915137644439600,7.242439453125,-1.6736348867416382,-0.1105378270149231,-0.36736181378364563
1761915137654493400,7.252493408203125,-1.9185889959335327,-0.0940571203827858,0.009787089191377163
1761915137664547300,7.26254736328125,-1.917689323425293,-0.12418841570615768,0.48206210136413574
1761915137674601200,7.272601318359375,-1.7546433210372925,-0.19675607979297638,0.9940556287765503
1761915137684656400,7.282656494140625,-1.493388056755066,-0.29450273513793945,1.4299595355987549
1761915137694710500,7.29271044921875,-1.2006340026855469,-0.3477049469947815,1.7027904987335205
1761915137704764400,7.302764404296875,-0.94048672914505,-0.32860076427459717,1.7521799802780151
1761915137714818600,7.312818603515625,-0.733975887298584,-0.23292696475982666,1.6129863262176514
1761915137724873500,7.32287353515625,-0.5888521671295166,-0.10950769484043121,1.3433618545532227
1761915137734927400,7.33292724609375,-0.5367181301116943,0.002471036510542035,1.0259453058242798
1761915137744981500,7.3429814453125,-0.5434791445732117,0.12130970507860184,0.7240333557128906
1761915137755035400,7.353035400390625,-0.5580410361289978,0.30755680799484253,0.49295884370803833
1761915137765090600,7.363090576171875,-0.5793890953063965,0.44254598021507263,0.344243586063385
1761915137775144400,7.37314453125,-0.6091150641441345,0.39349082112312317,0.26410773396492004
1761915137785198300,7.3831982421875,-0.6253877282142639,0.0769103392958641,0.2738652229309082
1761915137795252200,7.393252197265625,-0.6087309718132019,-0.4203633666038513,0.40593937039375305
1761915137805306400,7.403306396484375,-0.57924485206604,-0.9992035627365112,0.6493303775787354
1761915137815361500,7.413361572265625,-0.4960807263851166,-1.44835364818573,0.9378069043159485
1761915137825415400,7.42341552734375,-0.3434973955154419,-1.5613011121749878,1.1655919551849365
1761915137835469600,7.433469482421875,-0.07315298169851303,-1.2354143857955933,1.3182389736175537
1761915137845523500,7.4435234375,0.3443540930747986,-0.5212717652320862,1.3678548336029053
1761915137855578400,7.453578369140625,0.8508013486862183,0.33922407031059265,1.230742335319519
1761915137865632500,7.463632568359375,1.272345781326294,1.0234946012496948,0.8535426259040833
1761915137875686400,7.473686279296875,1.4100927114486694,1.1752820014953613,0.25681400299072266
1761915137885740500,7.483740478515625,1.035617470741272,0.6278185248374939,-0.44894346594810486
1761915137895795500,7.49379541015625,0.3280901610851288,-0.10648953169584274,-0.9983392357826233
1761915137905849300,7.503849365234375,-0.22000670433044434,-0.29658690094947815,-1.1820547580718994
1761915137915903200,7.5139033203125,-0.5058480501174927,-0.24016304314136505,-0.9821656346321106
1761915137925957400,7.523957275390625,-0.5782431364059448,-0.07210955023765564,-0.3920547068119049
1761915137936012500,7.534012451171875,-0.4472872316837311,0.05142384022474289,0.3320063352584839
1761915137946066400,7.54406640625,-0.1778799146413803,-0.04691459611058235,0.723988950252533
1761915137956120600,7.55412060546875,0.15405462682247162,-0.18545542657375336,0.602939248085022
1761915137966174500,7.564174560546875,0.4472897946834564,-0.2238101065158844,0.1176384836435318
1761915137976228400,7.574228271484375,0.5713059902191162,-0.12246697396039963,-0.3982509672641754
1761915137986283500,7.584283447265625,0.5448161959648132,0.125017449259758,-0.6049656867980957
1761915137996337400,7.59433740234375,0.5083370208740234,0.4476117193698883,-0.45906761288642883
1761915138006391600,7.6043916015625,0.550970733165741,0.7744157910346985,-0.10664768517017365
1761915138016445400,7.614445556640625,0.6697487831115723,1.0198854207992554,0.26608806848526
1761915138026500400,7.624500244140625,0.7586096525192261,1.2075775861740112,0.5477043390274048
1761915138036554200,7.63455419921875,0.7167807221412659,1.305539846420288,0.6252739429473877
1761915138046608400,7.6446083984375,0.5675972104072571,0.9884181022644043,0.3569943904876709
1761915138056662300,7.654662353515625,0.4417886734008789,0.3219257891178131,-0.21025650203227997
1761915138066717400,7.664717529296875,0.3720073103904724,-0.4808063805103302,-0.8748106360435486
1761915138076771600,7.674771484375,0.2905990183353424,-1.0969569683074951,-1.3635329008102417
1761915138086825500,7.684825439453125,0.2740572392940521,-1.353363037109375,-1.5576844215393066
1761915138096879400,7.69487939453125,0.3495272397994995,-1.1579256057739258,-1.4725921154022217
1761915138106933200,7.704933349609375,0.4766308665275574,-0.523613452911377,-1.1826450824737549
1761915138116988400,7.714988525390625,0.5899584889411926,0.3348030149936676,-0.80367112159729
1761915138127042600,7.72504248046875,0.6386674642562866,1.072089672088623,-0.5152822136878967
1761915138137096400,7.735096435546875,0.5852562189102173,1.4665091037750244,-0.3432881236076355
1761915138147150600,7.745150634765625,0.4510849118232727,1.4855297803878784,-0.2687722146511078
1761915138157205200,7.755205322265625,0.29422444105148315,1.2355403900146484,-0.2512928247451782
1761915138167259400,7.76525927734375,0.12743698060512543,0.8774552941322327,-0.26261410117149353
1761915138177313300,7.775313232421875,-0.03997624292969704,0.6746755242347717,-0.28658148646354675
1761915138187367400,7.785367431640625,-0.15272754430770874,0.7187224626541138,-0.33264487981796265
1761915138197422600,7.795422607421875,-0.1982356309890747,0.9376868009567261,-0.38485321402549744
1761915138207476500,7.8054765625,-0.14394859969615936,1.2865879535675049,-0.4425097107887268
1761915138217530400,7.8155302734375,-0.024274922907352448,1.7340573072433472,-0.5274176597595215
1761915138227584300,7.825584228515625,0.08985862880945206,2.1005945205688477,-0.629956841468811
1761915138237639400,7.835639404296875,0.14858850836753845,2.21016001701355,-0.745556652545929
1761915138247693600,7.845693603515625,0.1668994426727295,2.073254346847534,-0.8813779950141907
1761915138257747500,7.85574755859375,0.1886524111032486,1.7468199729919434,-0.959274172782898
1761915138267801600,7.865801513671875,0.21564877033233643,1.3149651288986206,-0.86029452085495
1761915138277855500,7.87585546875,0.2440228909254074,0.9752757549285889,-0.5873686671257019
1761915138287910400,7.885910400390625,0.2878727316856384,1.0184297561645508,-0.24091306328773499
1761915138297964300,7.89596435546875,0.32031989097595215,1.5293004512786865,-0.006479254923760891
1761915138308018400,7.906018310546875,0.3776159882545471,2.2221908569335938,-0.040942754596471786
1761915138318072300,7.916072265625,0.3839724361896515,2.3833906650543213,-0.34052518010139465
1761915138328127500,7.92612744140625,0.19969312846660614,1.765703558921814,-0.7037177681922913
1761915138338181400,7.936181396484375,-0.0468205064535141,0.9062367677688599,-0.9407503008842468
1761915138348235300,7.9462353515625,-0.17088918387889862,-0.16633811593055725,-1.1087539196014404
1761915138358289400,7.956289306640625,-0.28731968998908997,-1.1889337301254272,-1.1111185550689697
1761915138368344600,7.966344482421875,-0.3256319463253021,-1.4193153381347656,-0.7795379161834717
1761915138378398500,7.9763984375,-0.107462078332901,-0.7520864009857178,-0.12984886765480042
1761915138388452600,7.98645263671875,0.2594258487224579,0.2884329557418823,0.6495926976203918
1761915138398506500,7.996506591796875,0.5710500478744507,0.9238397479057312,1.1389803886413574
1761915138408560600,8.006560546875,0.7396090626716614,1.1758791208267212,1.1238675117492676
1761915138418615300,8.016615234375,0.7653466463088989,1.1121374368667603,0.680331289768219
1761915138428669400,8.02666943359375,0.6723210215568542,0.8683760166168213,0.038121260702610016
1761915138438723300,8.036723388671875,0.5226622819900513,0.5341556668281555,-0.5659227967262268
1761915138448777500,8.046777587890626,0.3742489516735077,0.11135349422693253,-0.9711601138114929
1761915138458832400,8.056832275390626,0.31686899065971375,-0.2703038454055786,-1.1087359189987183
1761915138468886300,8.06688623046875,0.391071617603302,-0.5545580387115479,-0.9646880626678467
1761915138478940400,8.0769404296875,0.5214695930480957,-0.7435532808303833,-0.6238831281661987
1761915138488994300,8.086994384765624,0.5622617602348328,-0.9515145421028137,-0.2226010113954544
1761915138499049500,8.097049560546875,0.4573497772216797,-1.2579346895217896,0.019932270050048828
1761915138509103600,8.107103515625,0.35966143012046814,-1.4395443201065063,0.05685443431138992
1761915138519157500,8.117157470703125,0.35688507556915283,-1.341992974281311,-0.12103061378002167
1761915138529211600,8.127211669921875,0.4625745415687561,-0.898342490196228,-0.37863290309906006
1761915138539266300,8.137266357421876,0.5769197344779968,-0.1887115240097046,-0.562751293182373
1761915138549320400,8.147320556640626,0.6311085820198059,0.5467982292175293,-0.6208299994468689
1761915138559374300,8.157374267578126,0.5826917886734009,1.0720516443252563,-0.5851239562034607
1761915138569429800,8.1674296875,0.45592495799064636,1.3472164869308472,-0.47653448581695557
1761915138579483400,8.1774833984375,0.2686442732810974,1.4173481464385986,-0.34028610587120056
1761915138589538600,8.18753857421875,0.044519998133182526,1.2942290306091309,-0.20468129217624664
1761915138599592400,8.197592529296875,-0.18028807640075684,1.0323798656463623,-0.07066170126199722
1761915138609646600,8.207646484375,-0.356545090675354,0.6615108251571655,0.09478207677602768
1761915138619700700,8.21770068359375,-0.4336414635181427,0.24506834149360657,0.339947372674942
1761915138629755400,8.22775537109375,-0.3668989837169647,-0.05828551948070526,0.6810384392738342
1761915138639809500,8.2378095703125,-0.17387762665748596,-0.193858802318573,1.0484119653701782
1761915138649863400,8.247863525390626,0.11781510710716248,-0.21517975628376007,1.3508206605911255
1761915138659917600,8.25791748046875,0.41390374302864075,-0.169382706284523,1.5199036598205566
1761915138669972700,8.26797265625,0.6608100533485413,-0.05348016321659088,1.5293185710906982
1761915138680026600,8.278026611328125,0.8407904505729675,0.10671403259038925,1.408569574356079
1761915138690080800,8.288080810546875,0.9223057627677917,0.2852485179901123,1.22184157371521
1761915138700134400,8.298134521484375,0.9425132870674133,0.4211685359477997,1.0175994634628296
1761915138710189600,8.308189453125,0.9415530562400818,0.5163567662239075,0.8649637699127197
1761915138720243500,8.318243408203125,0.929065465927124,0.5259065628051758,0.7885677814483643
1761915138730297600,8.328297607421876,0.9142802357673645,0.5444667935371399,0.8099945187568665
1761915138740351500,8.3383515625,0.9404596090316772,0.6822659373283386,0.924349844455719
1761915138750405600,8.348405517578126,1.0278788805007935,1.0603034496307373,1.1692211627960205
1761915138760460500,8.35846044921875,1.1687194108963013,1.7176802158355713,1.4715986251831055
1761915138770514400,8.368514404296874,1.2204673290252686,2.2801923751831055,1.6187070608139038
1761915138780568600,8.378568603515625,1.0299525260925293,1.98215913772583,1.3535840511322021
1761915138790622500,8.38862255859375,0.5381208658218384,0.43320852518081665,0.6338517665863037
1761915138800677600,8.398677734375,0.05175946652889252,-1.1410707235336304,-0.19994106888771057
1761915138810731800,8.408731689453125,-0.2020295411348343,-2.1391377449035645,-0.8832188248634338
1761915138820785400,8.418785400390625,-0.4610195457935333,-2.619983196258545,-1.2625994682312012
1761915138830839600,8.428839599609375,-0.6932454109191895,-2.377619743347168,-1.2427977323532104
1761915138840894500,8.43889453125,-0.5829359889030457,-1.2224469184875488,-0.814476490020752
1761915138850948600,8.448948486328124,-0.2441885620355606,0.42591172456741333,-0.15839523077011108
1761915138861002500,8.45900244140625,0.1860206127166748,2.1391735076904297,0.4139052927494049
1761915138871056600,8.469056640625,0.5648193955421448,3.4793660640716553,0.6071215867996216
1761915138881111600,8.479111572265625,0.7676148414611816,4.460123062133789,0.4474400281906128
1761915138891165400,8.48916552734375,0.8292370438575745,4.984295845031738,0.05706470087170601
1761915138901219600,8.499219482421875,0.8097174167633057,4.667683124542236,-0.5372719168663025
1761915138911273500,8.5092734375,0.7557462453842163,3.572070360183716,-1.215841293334961
1761915138921327600,8.51932763671875,0.7038021087646484,2.130598545074463,-1.783760905265808
1761915138931382800,8.5293828125,0.6640546917915344,0.7306606769561768,-2.091248035430908
1761915138941436400,8.5394365234375,0.6553826332092285,-0.29180702567100525,-2.114738941192627
1761915138951490600,8.549490478515626,0.7599786520004272,-1.0352128744125366,-1.9644460678100586
1761915138961544400,8.55954443359375,1.0086510181427002,-1.466286301612854,-1.7195959091186523
1761915138971599600,8.569599609375,1.3726983070373535,-1.5038753747940063,-1.4082670211791992
1761915138981653500,8.579653564453125,1.7878235578536987,-1.1586822271347046,-1.0810556411743164
1761915138991708400,8.58970849609375,2.2003583908081055,-0.4728009104728699,-0.7468073964118958
1761915139001762600,8.599762451171875,2.503509759902954,0.3538235127925873,-0.4120784103870392
1761915139011816400,8.60981640625,2.6372721195220947,0.9647339582443237,-0.15480674803256989
1761915139021871600,8.61987158203125,2.6049561500549316,1.2380951642990112,-0.024186689406633377
1761915139031925500,8.629925537109376,2.3740200996398926,1.2288938760757446,0.03400767594575882
1761915139041979600,8.639979736328126,2.008188486099243,1.0152785778045654,0.06467663496732712
1761915139052033500,8.650033447265624,1.6532787084579468,0.7269899249076843,0.13345055282115936
1761915139062088400,8.66008837890625,1.391966462135315,0.40554875135421753,0.21639204025268555
1761915139072142600,8.670142578125,1.2176194190979004,0.07079097628593445,0.22773021459579468
1761915139082196500,8.680196533203125,1.0763261318206787,-0.19577521085739136,0.15216568112373352
1761915139092250600,8.690250732421875,0.9236857295036316,-0.3325749337673187,0.045676279813051224
1761915139102304500,8.700304443359375,0.7872623205184937,-0.2578623294830322,-0.021591972559690475
1761915139112359400,8.710359375,0.6861454248428345,0.012716613709926605,-0.040060561150312424
1761915139122413600,8.72041357421875,0.6066490411758423,0.37825918197631836,0.012586936354637146
1761915139132467500,8.730467529296876,0.49361148476600647,0.6600115895271301,0.12160816043615341
1761915139142521600,8.740521484375,0.33503222465515137,0.7202264666557312,0.22612790763378143
1761915139152576500,8.750576416015624,0.14556540548801422,0.6121675372123718,0.2799263894557953
1761915139162630700,8.760630615234374,-0.05239426717162132,0.3313092291355133,0.27896392345428467
1761915139172684500,8.7706845703125,-0.20988664031028748,-0.0854453518986702,0.2654688358306885
1761915139182738400,8.780738525390625,-0.2871023416519165,-0.43175455927848816,0.32646453380584717
1761915139192793600,8.790793701171875,-0.268191933631897,-0.6795451641082764,0.4248940348625183
1761915139202847500,8.800847412109375,-0.1549266129732132,-0.7411147952079773,0.5164775252342224
1761915139212901600,8.810901611328125,0.006233419291675091,-0.5017327070236206,0.5608234405517578
1761915139222955500,8.82095556640625,0.17486503720283508,-0.025515055283904076,0.47674453258514404
1761915139233010400,8.831010498046876,0.2976175546646118,0.4104432165622711,0.23002111911773682
1761915139243064600,8.841064697265624,0.27824971079826355,0.23144763708114624,-0.15256726741790771
1761915139253118500,8.851118408203124,0.023768331855535507,-0.6838458776473999,-0.5255455374717712
1761915139263172600,8.861172607421874,-0.4016578197479248,-1.8278425931930542,-0.7499711513519287
1761915139273226500,8.8712265625,-0.8443515300750732,-2.5093564987182617,-0.8563842177391052
1761915139283281700,8.88128173828125,-1.1443885564804077,-2.440159559249878,-0.9089060425758362
1761915139293335600,8.89133544921875,-1.2295366525650024,-1.5457146167755127,-0.8553902506828308
1761915139303389400,8.901389404296875,-1.1427607536315918,-0.3711518943309784,-0.6763057112693787
1761915139313443600,8.911443603515625,-1.0365320444107056,0.4414161741733551,-0.42195379734039307
1761915139323498500,8.92149853515625,-0.9498275518417358,0.6618617177009583,-0.20204833149909973
1761915139333552600,8.931552734375,-0.7332105040550232,0.5448408722877502,-0.06924904882907867
1761915139343606500,8.9416064453125,-0.40978026390075684,0.19481101632118225,-0.005802430212497711
1761915139353660700,8.95166064453125,-0.09446565061807632,-0.23164962232112885,0.021753232926130295
1761915139363715600,8.961715576171875,0.1736941635608673,-0.6479528546333313,0.03356142342090607
1761915139373769500,8.97176953125,0.3931710422039032,-1.0616726875305176,0.05864633247256279
1761915139383823600,8.98182373046875,0.5345391035079956,-1.456772804260254,0.14072895050048828
1761915139393877500,8.99187744140625,0.5094186663627625,-1.749393105506897,0.2867608964443207
1761915139403932700,9.0019326171875,0.29946574568748474,-1.8810312747955322,0.4740748703479767
1761915139413986600,9.011986572265625,-0.05772959813475609,-1.7975940704345703,0.6286009550094604
1761915139424040400,9.02204052734375,-0.42723333835601807,-1.4778099060058594,0.624823272228241
1761915139434094600,9.032094482421876,-0.727672815322876,-0.9138950109481812,0.4152683913707733
1761915139444148500,9.0421484375,-0.9055802226066589,-0.14057479798793793,0.08497172594070435
1761915139454203600,9.05220361328125,-0.9906789064407349,0.7460808157920837,-0.25667762756347656
1761915139464257500,9.062257568359374,-1.0655808448791504,1.5911442041397095,-0.5172666311264038
1761915139474311700,9.072311767578125,-1.1764163970947266,2.2156431674957275,-0.6268640756607056
1761915139484365600,9.082365478515625,-1.3365014791488647,2.5041232109069824,-0.5595399141311646
1761915139494420500,9.09242041015625,-1.4851925373077393,2.4830758571624756,-0.31801071763038635
1761915139504474600,9.102474609375,-1.5822376012802124,2.3000638484954834,0.03976365923881531
1761915139514528500,9.112528564453125,-1.5833147764205933,2.078019618988037,0.41252294182777405
1761915139524582700,9.122582763671875,-1.473563551902771,1.8230149745941162,0.7024232149124146
1761915139534637600,9.132637451171876,-1.266687035560608,1.5416926145553589,0.8550016283988953
1761915139544691500,9.14269140625,-1.0321853160858154,1.2509217262268066,0.8687345385551453
1761915139554745300,9.152745361328124,-0.7932360768318176,0.9592218399047852,0.7847380638122559
1761915139564802000,9.162802001953125,-0.5940347909927368,0.684282660484314,0.6470824480056763
1761915139574857200,9.172857177734375,-0.4927608370780945,0.49728813767433167,0.49577197432518005
1761915139584911000,9.1829111328125,-0.46566450595855713,0.44336074590682983,0.3512802720069885
1761915139594965200,9.19296533203125,-0.5099888443946838,0.4959714710712433,0.19191966950893402
1761915139605019100,9.20301904296875,-0.5913729071617126,0.6198497414588928,0.03949762508273125
1761915139615074000,9.213073974609374,-0.6879381537437439,0.6693697571754456,-0.06412818282842636
1761915139625128200,9.223128173828124,-0.808290958404541,0.47492730617523193,-0.06479610502719879
1761915139635182000,9.23318212890625,-0.9364248514175415,0.08975937962532043,0.10522131621837616
1761915139645236200,9.243236328125,-1.0233616828918457,-0.17542116343975067,0.406818687915802
1761915139655290000,9.2532900390625,-0.9621851444244385,-0.12344764173030853,0.7270591259002686
1761915139665345300,9.26334521484375,-0.7432062029838562,0.09525327384471893,0.9113757610321045
1761915139675399200,9.273399169921875,-0.5822452902793884,0.0511089526116848,0.8205547332763672
1761915139685453000,9.283453125,-0.6790488362312317,-0.45560911297798157,0.5315117239952087
1761915139695507200,9.293507080078125,-0.9583837985992432,-1.095665693283081,0.23180700838565826
1761915139705562000,9.30356201171875,-1.2916491031646729,-1.6505688428878784,0.007132361643016338
1761915139715616300,9.3136162109375,-1.6865298748016357,-2.0039265155792236,-0.08594425022602081
1761915139725670100,9.323670166015624,-2.0393190383911133,-1.9631985425949097,-0.07572384178638458
1761915139735724300,9.333724365234374,-2.2270047664642334,-1.5116382837295532,-0.04066148027777672
1761915139745779200,9.343779296875,-2.2353708744049072,-0.915658712387085,-0.039966925978660583
1761915139755833000,9.3538330078125,-2.097291946411133,-0.499767929315567,-0.1581905484199524
1761915139765887200,9.36388720703125,-1.8423012495040894,-0.4383069574832916,-0.3670065999031067
1761915139775941000,9.373941162109375,-1.5362942218780518,-0.6250066757202148,-0.5488694310188293
1761915139785995300,9.383995361328125,-1.2803144454956055,-0.9224908351898193,-0.6506224274635315
1761915139796050200,9.39405029296875,-1.0571115016937256,-1.2441027164459229,-0.6598999500274658
1761915139806104000,9.40410400390625,-0.9249089360237122,-1.509037971496582,-0.5291195511817932
1761915139816158200,9.414158203125,-0.8687865734100342,-1.6116223335266113,-0.2504309415817261
1761915139826212000,9.424212158203124,-0.8638117909431458,-1.544610619544983,0.13391564786434174
1761915139836267300,9.434267333984375,-0.9303010106086731,-1.4118925333023071,0.5637596249580383
1761915139846321200,9.444321044921875,-1.0646544694900513,-1.2260633707046509,0.9403566718101501
1761915139856375300,9.454375244140625,-1.224363088607788,-0.9698615074157715,1.198857307434082
1761915139866429200,9.46442919921875,-1.3734220266342163,-0.7600329518318176,1.2781585454940796
1761915139876484000,9.474484130859375,-1.4319682121276855,-0.739032506942749,1.1448873281478882
1761915139886538200,9.484538330078125,-1.3422963619232178,-1.0624912977218628,0.8498090505599976
1761915139896592100,9.494592041015625,-1.1346776485443115,-1.6039912700653076,0.5330957770347595
1761915139906646300,9.504646240234376,-0.8860906958580017,-2.1682066917419434,0.305094838142395
1761915139916701200,9.514701171875,-0.6740776896476746,-2.5410075187683105,0.22246085107326508
1761915139926755000,9.524755126953124,-0.5555515289306641,-2.6570920944213867,0.2853894829750061
1761915139936809000,9.53480908203125,-0.5755589604377747,-2.5432896614074707,0.46689093112945557
1761915139946863000,9.544863037109375,-0.74125736951828,-2.2962534427642822,0.6848933100700378
1761915139956917200,9.554917236328125,-1.0128693580627441,-2.005136251449585,0.8561497330665588
1761915139966972200,9.56497216796875,-1.3075755834579468,-1.7622556686401367,0.9152809977531433
1761915139977026300,9.5750263671875,-1.5386929512023926,-1.5803208351135254,0.875503659248352
1761915139987080200,9.585080078125,-1.6471078395843506,-1.3687691688537598,0.8078559041023254
1761915139997134300,9.59513427734375,-1.6227154731750488,-0.9693764448165894,0.7651479244232178
1761915140007189200,9.605189208984376,-1.479233980178833,-0.3103836178779602,0.7509780526161194
1761915140017243100,9.6152431640625,-1.2703269720077515,-0.06543140113353729,0.6884689927101135
1761915140027297300,9.62529736328125,-1.0471588373184204,-0.08413930982351303,0.6041724681854248
1761915140037351200,9.63535107421875,-0.8695816397666931,-0.03787119314074516,0.5762212872505188
1761915140047406000,9.645406005859375,-0.7421930432319641,-0.01549264695495367,0.6170850992202759
1761915140057460000,9.6554599609375,-0.6307374835014343,-0.12985354661941528,0.7171640992164612
1761915140067514000,9.66551416015625,-0.5430446267127991,-0.4150618612766266,0.8639698028564453
1761915140077568300,9.675568359375,-0.4775576591491699,-0.94990074634552,1.0110081434249878
1761915140087623200,9.685623046875,-0.44697046279907227,-1.5910881757736206,1.124919056892395
1761915140097677300,9.69567724609375,-0.4261472821235657,-2.1204895973205566,1.15592622756958
1761915140107731200,9.705731201171876,-0.36451905965805054,-2.362609386444092,1.0721900463104248
1761915140117785000,9.71578515625,-0.2368735671043396,-2.142653226852417,0.900212824344635
1761915140127839000,9.7258388671875,-0.1592799723148346,-1.4170664548873901,0.6967986822128296
1761915140137894100,9.73589404296875,-0.34294235706329346,-0.7452357411384583,0.45054909586906433
1761915140147948300,9.7459482421875,-0.834694504737854,-0.6319465041160583,0.16201716661453247
1761915140158002200,9.756002197265625,-1.404432773590088,-1.051963210105896,-0.06134722754359245
1761915140168056300,9.766056396484375,-1.7398682832717896,-1.396409034729004,-0.07840078324079514
1761915140178111000,9.776111083984375,-1.649672031402588,-1.4591482877731323,0.198662668466568
1761915140188165000,9.7861650390625,-1.3106974363327026,-1.1825281381607056,0.7178137302398682
1761915140198219000,9.796218994140625,-1.0111297369003296,-0.7774420380592346,1.3162122964859009
1761915140208273200,9.806273193359376,-0.8358601927757263,-0.3949071168899536,1.8326176404953003
1761915140218328300,9.816328369140624,-0.7220320105552673,-0.2732197940349579,2.1303493976593018
1761915140228382200,9.82638232421875,-0.6465950012207031,-0.667977511882782,2.0898239612579346
1761915140238436000,9.83643603515625,-0.5997092723846436,-1.3372660875320435,1.8017116785049438
1761915140248490000,9.846489990234375,-0.5547953248023987,-1.9894225597381592,1.4647544622421265
1761915140258545200,9.856545166015625,-0.5734480023384094,-2.578230619430542,1.1536608934402466
1761915140268599300,9.866599365234375,-0.6518770456314087,-3.1213369369506836,0.8603482842445374
1761915140278653200,9.876653076171875,-0.7156286835670471,-3.5945932865142822,0.5457729697227478
1761915140288707300,9.886707275390625,-0.7442150712013245,-3.929730176925659,0.15108314156532288
1761915140298761200,9.89676123046875,-0.7350527048110962,-4.139849662780762,-0.3278104364871979
1761915140308816100,9.906816162109376,-0.6843860745429993,-4.194068908691406,-0.7646247744560242
1761915140318870000,9.9168701171875,-0.6007887721061707,-4.0437092781066895,-1.0441570281982422
1761915140328924200,9.926924072265624,-0.5269270539283752,-3.726990222930908,-1.1205354928970337
1761915140338978300,9.936978271484374,-0.41770491003990173,-3.4815006256103516,-1.0153357982635498
1761915140349033200,9.947033203125,-0.32862135767936707,-3.2982897758483887,-0.8347888588905334
1761915140359087000,9.957087158203125,-0.29256531596183777,-3.0559964179992676,-0.6195001006126404
1761915140369141000,9.96714111328125,-0.29910123348236084,-2.7139899730682373,-0.38987651467323303
1761915140379195100,9.977195068359375,-0.4114701449871063,-2.356238603591919,-0.2016993910074234
1761915140389250300,9.987250244140625,-0.6455034017562866,-2.0640134811401367,-0.08325263857841492
1761915140399304200,9.99730419921875,-0.9682397246360779,-1.730401873588562,0.019746247678995132
1761915140409358300,10.0073583984375,-1.311946153640747,-1.3197543621063232,0.14935937523841858
1761915140419412200,10.017412109375,-1.5842382907867432,-0.8259108066558838,0.2940322458744049
1761915140429467100,10.027467041015624,-1.756028652191162,-0.4093617796897888,0.434309720993042
1761915140439521000,10.03752099609375,-1.8091260194778442,-0.20388109982013702,0.562354326248169
1761915140449575200,10.0475751953125,-1.7604423761367798,-0.12722069025039673,0.6818934679031372
1761915140459629300,10.05762939453125,-1.6506415605545044,-0.06272296607494354,0.7622911334037781
1761915140469683200,10.06768310546875,-1.5245296955108643,0.011023425497114658,0.7846145629882812
1761915140479738000,10.077738037109375,-1.3794742822647095,0.03393295779824257,0.7359995245933533
1761915140489792000,10.0877919921875,-1.1907134056091309,-0.15504415333271027,0.6367570757865906
1761915140499846100,10.09784619140625,-1.031624674797058,-0.4593381881713867,0.5812739133834839
1761915140509900000,10.107900146484376,-0.9599782228469849,-0.6707659959793091,0.6280914545059204
1761915140519955200,10.117955078125,-0.935195803642273,-0.7241237759590149,0.7007524967193604
1761915140530009300,10.12800927734375,-0.8533272743225098,-0.7760439515113831,0.6876364350318909
1761915140540063200,10.138063232421874,-0.7014502882957458,-1.094709038734436,0.5170246958732605
1761915140550117400,10.148117431640625,-0.511877179145813,-1.5592412948608398,0.24991092085838318
1761915140560172000,10.158172119140625,-0.4073289632797241,-1.86298406124115,0.0007530711591243744
1761915140570222800,10.168222900390624,-0.5276824831962585,-2.1306543350219727,-0.1175975352525711
1761915140580276700,10.17827685546875,-0.8798980712890625,-2.370877265930176,-0.10187022387981415
1761915140590331000,10.188330810546875,-1.2896521091461182,-2.3415110111236572,0.03942858427762985
1761915140600384800,10.198384765625,-1.53509521484375,-2.094609260559082,0.30945828557014465
1761915140610439700,10.208439697265625,-1.5687834024429321,-1.7609264850616455,0.6757878065109253
1761915140620493800,10.218493896484375,-1.5031572580337524,-1.2020081281661987,1.0483474731445312
1761915140630547700,10.228547607421875,-1.3597737550735474,-0.5039768218994141,1.332872986793518
1761915140640601900,10.238601806640625,-1.182908058166504,0.3286040425300598,1.5162010192871094
1761915140650656800,10.24865673828125,-1.0235663652420044,1.0577147006988525,1.6326367855072021
1761915140660711000,10.2587109375,-0.8801131248474121,1.0762799978256226,1.6344174146652222
1761915140670764800,10.268764892578124,-0.8008619546890259,0.029537098482251167,1.3979918956756592
1761915140680818700,10.278818603515624,-0.816916823387146,-1.4326266050338745,1.0405113697052002
1761915140690873900,10.288873779296875,-0.9271482229232788,-2.601290464401245,0.6792951226234436
1761915140700927700,10.298927734375,-1.0517269372940063,-3.2623353004455566,0.2113347202539444
1761915140710982000,10.30898193359375,-1.064749836921692,-3.5716943740844727,-0.4176945984363556
1761915140721035800,10.319035888671875,-0.9165351390838623,-3.4873392581939697,-1.0848795175552368
1761915140731090700,10.329090576171875,-0.682619571685791,-2.852888822555542,-1.587812900543213
1761915140741144800,10.339144775390626,-0.470781147480011,-2.104435443878174,-1.8732235431671143
1761915140751198700,10.34919873046875,-0.3982931077480316,-1.465499758720398,-1.9103517532348633
1761915140761252900,10.3592529296875,-0.4703909456729889,-0.9798077940940857,-1.7284116744995117
1761915140771306800,10.369306640625,-0.6320222020149231,-0.6062147617340088,-1.3772131204605103
1761915140781362000,10.37936181640625,-0.8189433813095093,-0.3653726577758789,-0.9010342955589294
1761915140791415800,10.389415771484375,-0.9640792608261108,-0.21639518439769745,-0.3343876302242279
1761915140801469700,10.3994697265625,-1.0477252006530762,-0.13355574011802673,0.29046162962913513
1761915140811523800,10.40952392578125,-1.078514814376831,-0.031152132898569107,0.8935956358909607
1761915140821578800,10.419578857421875,-1.072993516921997,0.05680685117840767,1.412255048751831
1761915140831633000,10.4296328125,-1.02907133102417,0.11075423657894135,1.7854424715042114
1761915140841686800,10.439686767578126,-0.9315198659896851,0.05042484775185585,1.9946775436401367
1761915140851741000,10.449740966796876,-0.7944602966308594,-0.17769379913806915,2.046879529953003
1761915140861795800,10.4597958984375,-0.6302255988121033,-0.573037326335907,1.95180082321167
1761915140871849700,10.469849609375,-0.4525935649871826,-1.1288189888000488,1.7544012069702148
1761915140881903900,10.47990380859375,-0.3183733820915222,-1.5920987129211426,1.5548067092895508
1761915140891957800,10.489957763671875,-0.27121439576148987,-1.7293024063110352,1.4032460451126099
1761915140902013000,10.500012939453125,-0.2815203368663788,-1.438151240348816,1.3156416416168213
1761915140912066800,10.51006689453125,-0.2801669239997864,-0.7808354496955872,1.3080278635025024
1761915140922120700,10.52012060546875,-0.2557738125324249,-0.07680163532495499,1.3362492322921753
1761915140932174800,10.5301748046875,-0.2052251398563385,0.38906192779541016,1.3366410732269287
1761915140942228700,10.540228759765625,-0.21355654299259186,0.4785657823085785,1.3456321954727173
1761915140952284000,10.550283935546876,-0.33862313628196716,0.18162302672863007,1.4012442827224731
1761915140962337800,10.560337890625,-0.5528959631919861,-0.28688424825668335,1.5001205205917358
1761915140972392000,10.570391845703124,-0.7762550115585327,-0.6999101638793945,1.5934754610061646
1761915140982445800,10.58044580078125,-0.8736679553985596,-0.8940275311470032,1.6512508392333984
1761915140992500700,10.590500732421875,-0.8201496005058289,-0.7716443538665771,1.6780095100402832
1761915141002555000,10.600554931640625,-0.6727581024169922,-0.38863688707351685,1.6739020347595215
1761915141012608800,10.61060888671875,-0.4917033910751343,0.09596894681453705,1.6030508279800415
1761915141022663000,10.620662841796875,-0.34915807843208313,0.6604710221290588,1.4139196872711182
1761915141032717800,10.6307177734375,-0.23596656322479248,1.1920676231384277,1.0925261974334717
1761915141042771700,10.640771728515626,-0.15577587485313416,1.6967966556549072,0.6918221116065979
1761915141052825600,10.65082568359375,-0.33351314067840576,1.6108351945877075,0.6288996338844299
1761915141062879700,10.660879638671876,-0.5820044875144958,0.5811595916748047,0.5092329382896423
1761915141072935000,10.670934814453124,-0.7178983688354492,-0.4969663619995117,0.36638733744621277
1761915141082988800,10.68098876953125,-0.7844322323799133,-1.0301647186279297,0.18984918296337128
1761915141093043000,10.69104296875,-0.8732707500457764,-1.1696083545684814,-0.06208159774541855
1761915141103096800,10.701096923828125,-0.8328434824943542,-1.0873610973358154,-0.22966930270195007
