time,seconds_elapsed,z,y,x
1761914374670393900,0.119393798828125,-0.4878624273985624,-0.07681494413316249,1.300578740209341
1761914374680449000,0.129448974609375,-0.2377373274952173,-0.11985036826133727,1.2552477524898946
1761914374690505000,0.1395048828125,0.04278875589072704,-0.18111469204127786,1.1419265668015925
1761914374700561000,0.149560791015625,0.2323340071469545,-0.2031079126626253,1.0334710874535142
1761914374710615800,0.15961572265625,0.2998994768977165,-0.21361878528296946,0.9790290109090507
1761914374720672000,0.169672119140625,0.21400340068638324,-0.2606368493065238,0.9635946373466402
1761914374730728000,0.17972802734375,0.11559855603575706,-0.2634606745555997,1.0226150546573103
1761914374740783900,0.189783935546875,0.19721242488324642,-0.31470103244930503,1.0484573519222438
1761914374750839000,0.199839111328125,0.15592822833657263,-0.5193579281195998,0.9699270552385598
1761914374760895000,0.20989501953125,0.21422961065769194,-0.5444190118789672,1.04310013573803
1761914374770950400,0.219950439453125,0.44599195539653297,-0.6552467002511024,0.9415822736334055
1761914374781006300,0.23000634765625,0.5897217964172363,-0.698135117124021,0.7961186676226556
1761914374791061500,0.2400615234375,0.6952993091762065,-0.6048518532708287,0.6767382549606263
1761914374801117400,0.250117431640625,0.8134387818664311,-0.4366629860371351,0.5846817564234137
1761914374811173400,0.26017333984375,0.9247311651408672,-0.24702625710517168,0.5008541570492089
1761914374821229600,0.2702294921875,0.9733587101876735,-0.09317834217399358,0.41379944885466247
1761914374831284200,0.2802841796875,0.9093611620515585,0.06224427472800016,0.3722886770104989
1761914374841340400,0.29034033203125,0.89419574162364,0.17818126893788575,0.32782208756804465
1761914374851396400,0.300396240234375,0.8181015129804611,0.185256614151597,0.2883424927579239
1761914374861451300,0.310451171875,0.7859095544278621,0.20925299128890038,0.3001894362876192
1761914374871507500,0.320507568359375,0.8021066559910773,0.18303806131929157,0.2687932312225923
1761914374881563400,0.3305634765625,0.7913385937392711,0.13758622369915247,0.22083558479398488
1761914374891619300,0.340619384765625,0.8278314643561839,0.16716361583918332,0.1951689363569021
1761914374901674200,0.35067431640625,0.8701485110819339,0.16333002902567387,0.15843692322187125
1761914374911730200,0.360730224609375,0.8486819446831941,0.06499883413314819,0.10812741643749177
1761914374921786400,0.370786376953125,0.7961240744501352,-0.1000508582919836,0.08825020158942788
1761914374931842300,0.38084228515625,0.6725660838425159,-0.2790188936933875,0.09851005859076976
1761914374941897500,0.3908974609375,0.5473825378596783,-0.41552492094039917,0.14832009142041205
1761914374951953400,0.400953369140625,0.48148120192885396,-0.5495666039004922,0.1647697064399719
1761914374962009300,0.41100927734375,0.3671715166598558,-0.7160565582618117,0.12548461128864435
1761914374972065500,0.4210654296875,0.24193945536017417,-0.8534332308635115,0.13361487238276748
1761914374982120200,0.4311201171875,0.10091302807927131,-0.8852373591423034,0.23875958321504293
1761914374992176400,0.44117626953125,-0.10833411799073218,-0.8869210744455456,0.38630726549085226
1761914375002232300,0.451232421875,-0.31458792746365066,-0.9017699762701987,0.5201885337248444
1761914375012288300,0.461288330078125,-0.4325198948830366,-0.8816706065714359,0.6425985233411192
1761914375022343400,0.471343505859375,-0.5173293449014424,-0.7846995941162109,0.7604781760513782
1761914375032399400,0.4813994140625,-0.522625113222003,-0.6668336776703596,0.8893479362662882
1761914375042455600,0.49145556640625,-0.506358453553915,-0.5952084111347794,0.9963820045091211
1761914375052511500,0.501511474609375,-0.5112438875079155,-0.5258595650985837,1.1268357459798455
1761914375062566400,0.51156640625,-0.46848435771167274,-0.4580544413730502,1.2350687416836619
1761914375072622300,0.521622314453125,-0.4189420359075069,-0.4224591041177511,1.2349439462602139
1761914375082678300,0.53167822265625,-0.42476796558201313,-0.544270251058042,1.0738630844008177
1761914375092733400,0.5417333984375,-0.21621289342939853,-0.6607213322699069,0.9429310578938573
1761914375102789400,0.551789306640625,0.16643734739124774,-0.6264180806517601,0.9250297827612608
1761914375112845300,0.56184521484375,0.43416941565573214,-0.6455266857475042,0.8257368301644921
1761914375122901500,0.571901611328125,0.519917023307085,-0.7491907661005854,0.6588729279242456
1761914375132956200,0.5819560546875,0.48003392572999,-0.9079059948071837,0.48773478243090207
1761914375143012400,0.592012451171875,0.4161982901573181,-1.046426869007945,0.344410161210224
1761914375153068300,0.602068359375,0.3678863869309425,-1.1237912637174128,0.20756825307235122
1761914375163124200,0.612124267578125,0.3195499337852001,-1.1263894635170697,0.1933845006255433
1761914375173179400,0.622179443359375,0.23536066149175167,-0.99317166416049,0.2973662320930511
1761914375183235300,0.6322353515625,0.0658697717487812,-0.8457458912312984,0.42160398512575775
1761914375193291500,0.64229150390625,-0.10390051945745944,-0.7019581825435162,0.5739338601768017
1761914375203347500,0.652347412109375,-0.25908932760357856,-0.5351520018398761,0.7718074523825198
1761914375213402400,0.66240234375,-0.42817631272077555,-0.36546646630764007,0.9900918183237314
1761914375223458300,0.672458251953125,-0.5984697510182857,-0.17424422174990176,1.2005929830428212
1761914375233514200,0.68251416015625,-0.7580225995928048,-0.02462766077816486,1.296880470213294
1761914375243570400,0.6925703125,-0.9366343689024448,0.09157412184774875,1.3008163483574986
1761914375253625300,0.702625244140625,-0.9549304885715245,0.15964929468631744,1.2170387256048618
1761914375263681500,0.712681640625,-0.7485165201008319,0.17506781309247016,1.040562507019192
1761914375273737500,0.722737548828125,-0.3803817113667726,0.1306599315673113,0.7685491812389343
1761914375283793400,0.73279345703125,-0.04072013292312622,0.08461012805402278,0.4333720182003453
1761914375293848300,0.742848388671875,0.14790624992251394,-0.029916999357938765,0.031876042737532403
1761914375303904300,0.752904296875,0.23793898754715917,-0.21666239076256752,-0.3868889013037085
1761914375313960200,0.762960205078125,0.361473597279191,-0.3418400915265083,-0.6982624698307365
1761914375324015400,0.773015380859375,0.46426177158057685,-0.49123336513638494,-1.0242925594154744
1761914375334071300,0.7830712890625,0.4782616553604603,-0.6956839245796204,-1.330962626426667
1761914375344127500,0.79312744140625,0.48798225438594817,-0.8633627964645624,-1.544696708652377
1761914375354183400,0.803183349609375,0.4387544053584337,-0.8456687343418597,-1.6013807189047335
1761914375364238600,0.813238525390625,0.45578445061445233,-0.6619535044133663,-1.5638161274030804
1761914375374294300,0.823294189453125,0.251130477553606,-0.5795972927659749,-1.5529958965726196
1761914375384350200,0.83335009765625,0.04387362851798534,-0.47750353046953675,-1.4361770049616693
1761914375394406400,0.843406494140625,-0.10724164657890796,-0.22718670738637445,-1.2415367686539889
1761914375404461300,0.85346142578125,-0.3661784139692783,0.126132225009799,-1.0280202747017144
1761914375414517500,0.863517578125,-0.6232406196594238,0.643397272503376,-0.7445687323231249
1761914375424573400,0.873573486328125,-0.77252283411026,1.2362304789394138,-0.4676830512661487
1761914375434629400,0.88362939453125,-0.7907160779267549,1.6845979312956332,-0.3313261501662433
1761914375444684300,0.893684326171875,-0.6387766269654035,1.9632254875838755,-0.2502704266581684
1761914375454740200,0.903740234375,-0.3540402324080467,1.993715318393707,-0.22479941039104012
1761914375464796400,0.91379638671875,-0.02644552385509014,1.8227759834080934,-0.3030447526535019
1761914375474852400,0.923852294921875,0.34779929219186306,1.5206839649021624,-0.4190054565325379
1761914375484907300,0.9339072265625,0.7162018119513988,1.1372609861433505,-0.5198145858459174
1761914375494963500,0.94396337890625,0.9739484927743672,0.7300771925687789,-0.5919111231550575
1761914375505019400,0.954019287109375,1.2202525730848313,0.34118367344439027,-0.6426053914733231
1761914375515075300,0.964075439453125,1.4572072257697581,0.011110592079162597,-0.716223366196081
1761914375525130200,0.974130126953125,1.5838777954399585,-0.30522213322520253,-0.8004711637437343
1761914375535186200,0.984186279296875,1.6101549769908188,-0.4267553400069475,-0.8432000792060047
1761914375545242400,0.994242431640625,1.6062965479969977,-0.4265975190967321,-0.8112550811517983
1761914375555298300,1.00429833984375,1.5857564487934113,-0.31762802581191063,-0.6707580115072429
1761914375565353500,1.014353515625,1.5084312170505523,-0.19160159926414488,-0.5017374426897615
1761914375575409400,1.024409423828125,1.4416063365340233,-0.07993336841464042,-0.2996883183650672
1761914375585465300,1.03446533203125,1.3481985695183276,0.0024216741889715194,-0.07710325955525041
1761914375595521500,1.044521484375,1.2231535552233457,0.05483750560283661,0.18022249244190752
1761914375605576200,1.054576171875,1.0828811611801386,0.08058627936542034,0.4235286330454051
1761914375615632400,1.06463232421875,0.9736158998191357,0.081877488219738,0.6122870447728782
1761914375625688300,1.074688232421875,0.8278209429621696,0.11771569432020186,0.7423715145397931
1761914375635743500,1.084743408203125,0.6054764149099588,0.11835574578940868,0.8465393796965479
1761914375645799400,1.09479931640625,0.38517771347165103,0.052962359380722045,0.8953126898895949
1761914375655855400,1.10485546875,0.25501111837923524,-0.07034604038000107,0.8897196921881287
1761914375665911600,1.11491162109375,0.17529051593244074,-0.2450532034665346,0.813654981900379
1761914375675966500,1.124966552734375,0.10709083993136882,-0.39136955384910105,0.7392167037706822
1761914375686022400,1.1350224609375,0.008142974445223808,-0.5460568422138691,0.6359647844150662
1761914375696078300,1.145078369140625,-0.0728103846669197,-0.7315022569358348,0.506061443368718
1761914375706134300,1.15513427734375,-0.11488193219900131,-0.9124363317131996,0.35304658172819764
1761914375716189400,1.165189453125,-0.22280454677939412,-1.085459487235546,0.2065401156010106
1761914375726245400,1.175245361328125,-0.3839186533212662,-1.2767816850364206,0.010072115876898168
1761914375736301300,1.18530126953125,-0.515797313028574,-1.4908675033092498,-0.2239257328290492
1761914375746357500,1.195357421875,-0.46409167571067805,-1.6552134313791989,-0.35474206053446977
1761914375756412200,1.205412109375,-0.2815782227873802,-1.6098200459480285,-0.30982758119404313
1761914375766468900,1.21546875,-0.23705577497184274,-1.5250591112464666,-0.13956771637257187
1761914375776524800,1.22552490234375,-0.3056622782081365,-1.4531296010673045,0.027955380428768693
1761914375786580700,1.235580810546875,-0.38057694167792794,-1.4219079488515853,0.22083858046866953
1761914375796636000,1.245635986328125,-0.4455506413698196,-1.3911772950232029,0.4272759298149496
1761914375806691600,1.255691650390625,-0.5699859993338584,-1.2965583986520766,0.6019909839469939
1761914375816747800,1.265747802734375,-0.6555699408560991,-1.063943236476183,0.7869285952772944
1761914375826803700,1.2758037109375,-0.6871399681180715,-0.7386725869566202,0.9220558084517717
1761914375836858600,1.285858642578125,-0.6660358052909374,-0.40420886941701173,1.0422815858967602
1761914375846914800,1.295914794921875,-0.6420201389312744,-0.12891074981242417,1.1358297842964529
1761914375856970800,1.305970703125,-0.5912859769940376,0.10881459498405456,1.1996497839085758
1761914375867026700,1.316026611328125,-0.5340899255663156,0.3502978310093283,1.2591143647901712
1761914375877081900,1.326081787109375,-0.5194032285660505,0.5878744149848818,1.2577642653554677
1761914375887137500,1.336137451171875,-0.5001935011833906,0.8527078391984104,1.2362073903247712
1761914375897193700,1.34619384765625,-0.4275841920465231,1.187607610067725,1.2095620330486445
1761914375907249700,1.356249755859375,-0.3568769171386957,1.4514061382755636,1.1268916408855467
1761914375917304800,1.366304931640625,-0.34365503199398517,1.5388254785314202,0.9669476741015911
1761914375927360800,1.37636083984375,-0.2947609449654817,1.4522905198946594,0.7889453419271856
1761914375937416700,1.386416748046875,-0.1326630880832672,1.254652855336666,0.6828493582520634
1761914375947473000,1.396472900390625,0.12919219710230825,0.9934729851946235,0.6616558366410434
1761914375957527800,1.40652783203125,0.3631330549240112,0.5782315573707223,0.614437427739799
1761914375967583700,1.416583740234375,0.5399076719343662,0.16827274612486362,0.5860533370375632
1761914375977639700,1.4266396484375,0.7234194882452487,-0.10892506962120532,0.6419235466890036
1761914375987695600,1.436695556640625,0.8435416591852903,-0.21665362293422222,0.840188841626048
1761914375997750800,1.446750732421875,0.8040741566717624,-0.16539777521044016,1.160077651976794
1761914376007806700,1.456806640625,0.6490069290786982,0.006314005452394485,1.4672947584114968
1761914376017863000,1.46686279296875,0.43957039791643615,0.253819862768054,1.7152302393160759
1761914376027918800,1.4769189453125,0.3048047845959663,0.4929997902870178,1.8562153116732836
1761914376037973800,1.486973876953125,0.26468554017543794,0.6601447014257311,1.9294179105281828
1761914376048029700,1.49702978515625,0.28235563690066334,0.7262745854154229,1.9577093545109032
1761914376058085600,1.507085693359375,0.3997597810536623,0.6945017290577292,1.9588227225802837
1761914376068141800,1.517141845703125,0.6075450378775596,0.5412342443630099,1.9394163035817442
1761914376078196700,1.52719677734375,0.8720476227015256,0.330204891051352,1.901583416532725
1761914376088252700,1.537252685546875,1.0712433303564786,0.07587415615171193,1.8219404093667864
1761914376098308900,1.547308837890625,1.1978987024575471,-0.16716303131729363,1.7783949898898601
1761914376108364800,1.55736474609375,1.2517512886762618,-0.4602814697727561,1.7365864772081374
1761914376118419700,1.567419677734375,1.227391923445463,-0.7409647895470262,1.636147496381402
1761914376128475600,1.5774755859375,1.1551841808468102,-0.8984940233394503,1.603071156209707
1761914376138531600,1.587531494140625,1.1285995407819747,-0.9602461306363343,1.5528807457603513
1761914376148587800,1.597587890625,1.088583756735921,-0.9787760590612887,1.466993291246891
1761914376158642700,1.607642578125,1.0453577784717083,-0.9884522344231605,1.3803745998494326
1761914376168699000,1.617698974609375,1.05921153177917,-1.0019590739890933,1.2598514468930662
1761914376178754800,1.6277548828125,1.102919740602374,-1.0407248579740525,1.1648496886841953
1761914376188810800,1.637810791015625,1.1604466314196586,-1.0638067506149411,1.1400152532875538
1761914376198865700,1.64786572265625,1.147536296442151,-1.084560492569208,1.137537026605755
1761914376208921600,1.657921630859375,1.0845920567512513,-1.0923296652659773,1.1315620438493788
1761914376218977800,1.667977783203125,0.9422802658349275,-1.073223398257792,1.1515649674363433
1761914376229033700,1.67803369140625,0.6900543942600488,-1.0624795936644076,1.1697240167222915
1761914376239089000,1.6880888671875,0.3837386205792427,-1.0192217589572072,1.1450189067937433
1761914376249144800,1.698144775390625,0.007705752071738243,-0.9524962471619248,1.0902239251583814
1761914376259200800,1.70820068359375,-0.28823358902335167,-0.8694032456725835,0.9647735449329018
1761914376269256700,1.718256591796875,-0.4324187725961208,-0.7906576257377862,0.7574297482661903
1761914376279311600,1.7283115234375,-0.4881535192996263,-0.7316618314117193,0.5201531701505184
1761914376289367600,1.738367431640625,-0.45938159832358355,-0.6392483361303806,0.3197546625770628
1761914376299423700,1.748423828125,-0.4405974028766155,-0.5007321381047368,0.1651085830055177
1761914376309479700,1.758479736328125,-0.4996311911255121,-0.3484843518465757,0.004681289684027433
1761914376319534800,1.768534912109375,-0.6207809515476227,-0.21931641240268945,-0.13265008247122168
1761914376329590800,1.7785908203125,-0.853040724414587,-0.25226357323676346,-0.3715812959261238
1761914376339646700,1.788646728515625,-1.056811484900117,-0.48799160673618314,-0.6363879782631993
1761914376349701600,1.79870166015625,-1.0343711050331592,-0.6821575035303831,-0.6619115649677813
1761914376359757600,1.808757568359375,-0.9994950219631195,-0.8959051758900284,-0.6238705881260335
1761914376369813800,1.818813720703125,-1.1284393817842007,-1.1705676279395818,-0.6366058587975799
1761914376379869700,1.82886962890625,-1.2910890273302793,-1.3870809656202792,-0.6540184736303984
1761914376389924900,1.8389248046875,-1.5371370870530605,-1.420711432543397,-0.604575082156062
1761914376399980800,1.848980712890625,-1.7232815899550913,-1.2554501431941985,-0.522189498283714
1761914376410036700,1.85903662109375,-1.7371809359699486,-0.9702315180778502,-0.4398069831512868
1761914376420093000,1.869093017578125,-1.5956383758604527,-0.551079346551001,-0.2833475705474615
1761914376430147600,1.879147705078125,-1.3738438829064368,-0.048694180542230604,-0.07961699594184755
1761914376440203800,1.889203857421875,-1.2293810514360666,0.43103900867551564,0.08499941963255404
1761914376450259700,1.899259765625,-1.1232418131411075,0.8289455630779266,0.1779210105665028
1761914376460315600,1.909315673828125,-1.0448094969391821,1.1418082741841673,0.18694880502223968
1761914376470371800,1.919371826171875,-0.9092167851448059,1.3868261140763758,0.15635346801131964
1761914376480426800,1.9294267578125,-0.5859089601308107,1.5830752468854188,0.14067995193079114
1761914376490482700,1.939482666015625,-0.2058177561432123,1.6536363913208245,0.07451105110496282
1761914376500539000,1.949538818359375,0.13744447714090346,1.5701692958220839,-0.09559723988398909
1761914376510593500,1.959593505859375,0.4192968406945467,1.3483745106071232,-0.3286776814840734
1761914376520649700,1.969649658203125,0.7302303373038769,1.0184025515288113,-0.5646498990029096
1761914376530705700,1.97970556640625,0.9876169526427984,0.596288899847865,-0.8628452023312448
1761914376540761600,1.98976171875,1.1649059489160776,0.13582885863780975,-1.116758296340704
1761914376550817800,1.99981787109375,1.2180804897427557,-0.327099618512392,-1.348257606229186
1761914376560872700,2.009872802734375,1.2285340792179107,-0.7132569906711578,-1.5217248522572218
1761914376570929000,2.019928955078125,1.2156225751966236,-0.9902917248100042,-1.6014444317907095
1761914376580984800,2.02998486328125,1.1032044027626513,-1.077386070895195,-1.5906917132385074
1761914376591040800,2.040040771484375,0.7157061373889446,-0.8737558879241347,-1.4445454587258397
1761914376601095700,2.050095703125,0.29725626891255374,-0.4406839121162891,-1.2421386800698935
1761914376611151600,2.060151611328125,-0.04708090012669563,0.0006558335602283477,-1.1081119024179875
1761914376621207800,2.070207763671875,-0.2950736641764641,0.5084957578435539,-0.9428573350705206
1761914376631263700,2.080263671875,-0.4453460587084293,1.0403203688263893,-0.7372782099887728
1761914376641319000,2.09031884765625,-0.5355144054114819,1.5192556856647133,-0.5616172533087432
1761914376651374800,2.100374755859375,-0.45802024684250353,1.9157015198647975,-0.4435873784728348
1761914376661430800,2.1104306640625,-0.18730419433116913,2.224079779033363,-0.3389417397364974
1761914376671487000,2.120487060546875,0.14076689956188201,2.38315156609267,-0.24897709891200065
1761914376681541600,2.130541748046875,0.3640145139336586,2.2981232126265763,-0.1961335436053574
1761914376691597800,2.140597900390625,0.5596674344152212,2.0375456922918556,-0.14135609762668608
1761914376701653800,2.15065380859375,0.7328115859687327,1.6331526984795928,-0.12408596000447869
1761914376711709700,2.160709716796875,0.9285732275217771,1.181777881000936,-0.1360081607274711
1761914376721764900,2.170764892578125,1.0969196234047411,0.6846621798276901,-0.1698186603926122
1761914376731820800,2.18082080078125,1.1657026522517204,0.1578147727355361,-0.2683560453817248
1761914376741876700,2.190876708984375,1.1602432178020476,-0.34428894598335025,-0.42100466752573845
1761914376751933000,2.200932861328125,1.1595967365920543,-0.70210022136271,-0.5476891195908189
1761914376761987600,2.210987548828125,1.076188385543227,-0.9720388597607612,-0.6709849521309137
1761914376772043500,2.22104345703125,0.9472978017359971,-1.0903528122350572,-0.7436212954051792
1761914376782099500,2.231099365234375,0.7754255698144435,-1.0186033347979186,-0.7725527908571064
1761914376792155400,2.2411552734375,0.5660995132893324,-0.7849898092344403,-0.7390519416630268
1761914376802210600,2.25121044921875,0.41142274631857867,-0.5260352139264345,-0.6695591571114957
1761914376812266500,2.2612666015625,0.3247802356541157,-0.3147419489815831,-0.560496724846214
1761914376822322700,2.27132275390625,0.2393886018335819,-0.16713088261336087,-0.44937706779018044
1761914376832378600,2.281378662109375,0.10825403849184513,-0.09377133963108063,-0.3328099589832127
1761914376842433500,2.29143359375,-0.06871756239533423,-0.022145780834555626,-0.1929126818627119
1761914376852489500,2.301489501953125,-0.22916005328595637,-0.015432839192450046,-0.023066695071756838
1761914376862545400,2.31154541015625,-0.3493471061557531,-0.08268442068845033,0.10225830520838498
1761914376872601600,2.3216015625,-0.3964525562018156,-0.16506985843032598,0.21540544950403273
1761914376882656500,2.331656494140625,-0.35412440356016156,-0.2754609089508653,0.284050238924101
1761914376892712700,2.341712646484375,-0.23940438392460345,-0.4137637564867735,0.3315834859281778
1761914376902768600,2.3517685546875,-0.06781915225088596,-0.5317576832264661,0.36295645624808964
1761914376912824300,2.36182421875,0.07355389651060104,-0.7324819156229495,0.3889462722249329
1761914376922879500,2.37187939453125,0.23558862502872943,-0.9613438627451658,0.40329285055063663
1761914376932935400,2.381935302734375,0.4392307906985283,-1.163036355651915,0.3940192646402865
1761914376942991600,2.39199169921875,0.6386661523282527,-1.3005679265543817,0.42322183211855585
1761914376953047600,2.402047607421875,0.8437176002740859,-1.393082836383581,0.45411761338077483
1761914376963103500,2.412103515625,1.0514712929159402,-1.4636761295229195,0.4424281254351139
1761914376973158700,2.42215869140625,1.2466694553673268,-1.4750971027255058,0.4054563852600753
1761914376983214600,2.432214599609375,1.448861422228813,-1.3562182098448277,0.43898982154950494
1761914376993270300,2.442270263671875,1.5960241603076457,-1.173877775400877,0.4687416934736073
1761914377003326500,2.452326416015625,1.5312217255294323,-1.090060551290214,0.3458304763369262
1761914377013381400,2.46238134765625,1.3537152871131897,-1.096026766218245,0.10587883379310369
1761914377023437600,2.4724375,1.2201853530675173,-1.031771736189723,0.05701689546853304
1761914377033493500,2.482493408203125,1.068691307786107,-0.9475438854515552,0.10367854726985096
1761914377043549400,2.492549560546875,0.7873691055864095,-0.9822136322945356,0.11760171255171298
1761914377053604600,2.5026044921875,0.42846448201239107,-1.12167061830163,0.07605375050231813
1761914377063660500,2.51266064453125,0.02809036845266819,-1.3332786482840775,0.05083367678895592
1761914377073716500,2.522716552734375,-0.31506781993508337,-1.524068054382503,0.12941548446416853
1761914377083772400,2.5327724609375,-0.6223655903905629,-1.6846844405353067,0.24545213965624568
1761914377093827600,2.54282763671875,-0.8829828582137823,-1.8105451551273464,0.23465850457176565
1761914377103883500,2.552883544921875,-1.0500929903000593,-1.6707871403470635,0.15453487428203225
1761914377113939500,2.562939453125,-1.015915410888195,-1.11524526142925,0.1466125568501651
1761914377123995600,2.57299560546875,-0.9179267458230257,-0.29729923127144575,0.14727452789023518
1761914377134050600,2.583050537109375,-0.7847007631599903,0.6078966277942061,0.08469809859842062
1761914377144106800,2.593106689453125,-0.675221566787362,1.4545660636112092,-0.039121027163416144
1761914377154162400,2.603162353515625,-0.5694815569430589,2.1056898387134075,-0.15454700311124323
1761914377164218400,2.61321826171875,-0.3643611354142427,2.4503517096623777,-0.23546397573575376
1761914377174273500,2.6232734375,-0.13178981238007545,2.47145937962085,-0.3010654519371688
1761914377184329500,2.63332958984375,-0.033711715465784074,2.140627881103754,-0.3593706336505711
1761914377194385400,2.643385498046875,-0.03360883961319923,1.4885592263668774,-0.4231041240230202
1761914377204441600,2.653441650390625,-0.13434826469123362,0.7471221431329846,-0.469489150840044
1761914377214497500,2.66349755859375,-0.2080699189841747,0.1293131931334734,-0.4834845045752823
1761914377224552400,2.673552490234375,-0.26670973947942256,-0.35165947475135323,-0.519610295445472
1761914377234608400,2.6836083984375,-0.44167993741631506,-0.7107467614158988,-0.5494834556616842
1761914377244664300,2.693664306640625,-0.7033283018529415,-0.8348436812058091,-0.493664245545119
1761914377254720500,2.703720458984375,-0.9011211569726466,-0.7300918056160212,-0.3508648172423243
1761914377264775400,2.713775390625,-1.065270685687661,-0.4547162368610501,-0.2221494438715279
1761914377274831600,2.72383154296875,-1.1744546985059976,-0.03846797008216381,-0.08109145240858197
1761914377284887600,2.733887451171875,-1.2027297758758067,0.40805356214642524,0.014539105223119258
1761914377294943500,2.743943603515625,-1.0897019471108913,0.763708828535676,0.1364692023679614
1761914377304998400,2.753998291015625,-0.8433066813856362,0.9840881939947604,0.3159358349412679
1761914377315054300,2.764054443359375,-0.6346563321650028,1.0637252098113297,0.46942353825792665
1761914377325110500,2.774110595703125,-0.42121465701460836,1.1347034106150269,0.6390279713779687
1761914377335166500,2.78416650390625,-0.20016835207939146,1.2159805948540567,0.7947593619681894
1761914377345221600,2.7942216796875,0.03594225099682808,1.3157844926476479,0.9258616304755211
1761914377355277600,2.804277587890625,0.349882528206706,1.3590624933600426,1.0305210054762661
1761914377365333500,2.81433349609375,0.7257324413627385,1.3777441052153705,1.133344543351978
1761914377375389700,2.8243896484375,1.0526590413957833,1.2402175027489661,1.2255341667495667
1761914377385445600,2.834445556640625,1.278569737496972,0.9050582041606307,1.292105364765972
1761914377395500500,2.84450048828125,1.4419108724385499,0.49877866594940423,1.3517983475759625
1761914377405556500,2.854556396484375,1.580512118399143,0.09475333640575409,1.4475556003272532
1761914377415612400,2.8646123046875,1.7483932348579168,-0.31774171531945467,1.4575073777601122
1761914377425668400,2.87466845703125,1.9029127654403446,-0.7252987261205911,1.3918049254022538
1761914377435723500,2.8847236328125,2.0670734000712634,-1.0375704855963588,1.2669307376295327
1761914377445779500,2.894779541015625,2.262136537966132,-1.1765472868710756,1.0977063898682593
1761914377455835600,2.904835693359375,2.4010674542725083,-1.1011173673555255,0.9412753265760838
1761914377465891600,2.9148916015625,2.482686583817005,-0.8607140355214477,0.744224960386753
1761914377475946500,2.924946533203125,2.418131401798129,-0.6230725696161389,0.556072040271759
1761914377486002400,2.93500244140625,2.235073174473643,-0.4539832464113831,0.4041540704898536
1761914377496058400,2.945058349609375,2.025010035845637,-0.33226474619060753,0.2400143325164914
1761914377506114600,2.955114501953125,1.8031261110424994,-0.22986001824885605,0.0845204039439559
1761914377516169500,2.96516943359375,1.498610664781928,-0.1857008507877588,-0.0547976119838655
1761914377526225700,2.9752255859375,1.2102408821582793,-0.20285919859856366,-0.17580979056619106
1761914377536281600,2.985281494140625,1.0221809010237455,-0.25051731409132477,-0.2535217566043138
1761914377546337500,2.995337646484375,0.8439888184309006,-0.3879930631533265,-0.33854178063347934
1761914377556393700,3.005393798828125,0.6517243713438511,-0.5747320248171687,-0.41676644543409347
1761914377566448400,3.015448486328125,0.4196352788686752,-0.7276625326424837,-0.4704782349426299
1761914377576504600,3.025504638671875,0.17273206362128257,-0.8905568005993961,-0.5239034625947475
1761914377586560500,3.035560546875,-0.09644143562316894,-1.0171373538985848,-0.5842846468646079
1761914377596616400,3.045616455078125,-0.3494575807929039,-1.0629138934284448,-0.6024904579017311
1761914377606671600,3.055671630859375,-0.5950608193576336,-0.9876149068161845,-0.5208739587057382
1761914377616727600,3.0657275390625,-0.863585499304533,-0.8835071743488311,-0.38598165026567877
1761914377626783500,3.075783447265625,-1.1917319965213538,-0.7307561147436499,-0.2502420773465186
1761914377636839700,3.085839599609375,-1.4861498271375895,-0.5572668030142783,-0.22602365495637058
1761914377646894300,3.095894287109375,-1.671041699630022,-0.40114918958544726,-0.3166503398861736
1761914377656950500,3.105950439453125,-1.5990712729185819,-0.20094664297550915,-0.27128771491944786
1761914377667006500,3.11600634765625,-1.4425345572948456,-0.03865764743536711,-0.13847601214572786
1761914377677062400,3.1260625,-1.4602835644751786,-0.1236810324653983,-0.12652714261151848
1761914377687118600,3.13611865234375,-1.5465490585207937,-0.509528900283575,-0.2617359696548432
1761914377697173500,3.146173583984375,-1.5236773014992475,-1.005993736332655,-0.4216179771184921
1761914377707229700,3.156229736328125,-1.39735569139719,-1.3250740067794917,-0.42737807501517233
1761914377717285400,3.166285400390625,-1.4260790970563888,-1.3672510605126618,-0.2690595905411988
1761914377727341300,3.17634130859375,-1.775319820228219,-1.2757158093705772,-0.17580701408721505
1761914377737396500,3.186396484375,-2.1551906594634054,-1.094896300883591,-0.1754973636161536
1761914377747452400,3.196452392578125,-2.3132903866201637,-0.698502489131689,-0.20753829632550477
1761914377757508600,3.206508544921875,-2.306989825171232,-0.17276976528316734,-0.16838709321953355
1761914377767564500,3.216564453125,-2.0665917540341616,0.40842911746054883,-0.07663578817397355
1761914377777620700,3.226620849609375,-1.7533756994456051,0.9221510855197906,-0.0036389410242438315
1761914377787676000,3.236676025390625,-1.5332862568438053,1.2738126060977577,-0.011677724442631005
1761914377797731800,3.24673193359375,-1.3231272566258907,1.4524457104563713,-0.09185374250672756
1761914377807787800,3.256787841796875,-1.0118822098493576,1.4874088872879743,-0.18916501976698635
1761914377817843700,3.26684375,-0.5840542721748352,1.4276628591164946,-0.2534641811981797
1761914377827898600,3.276898681640625,-0.19351590845286845,1.2359049002468585,-0.30226123759299517
1761914377837954800,3.286954833984375,0.11523732150793074,0.9381386359855532,-0.39154008811041713
1761914377848010800,3.2970107421875,0.41344168492555616,0.5842459953546524,-0.5373714314550161
1761914377858066700,3.307066650390625,0.7047165413409471,0.22625994793027637,-0.7118505579393357
1761914377868121900,3.317121826171875,0.9546189384043217,-0.12118424721360206,-0.8578459327392279
1761914377878177500,3.327177490234375,1.213538754659891,-0.4165858281701803,-0.969782605266571
1761914377888233700,3.337233642578125,1.3680202913194894,-0.546235998173058,-1.0191359803698956
1761914377898289700,3.34728955078125,1.3321446758180855,-0.46133507047891614,-0.99610435661152
1761914377908345600,3.357345703125,1.0547685808956622,-0.18338497506082058,-0.8809010104384273
1761914377918400800,3.36740087890625,0.6602338410139084,0.09565583820343017,-0.8012550806630402
1761914377928456700,3.377456787109375,0.281406957873702,0.36523353433459993,-0.7915647306453436
1761914377938513000,3.387512939453125,0.0009749825119972228,0.6522337821707129,-0.7277906890667974
1761914377948568800,3.39756884765625,-0.08171089948117732,0.9563187280595302,-0.6260256472680717
1761914377958623700,3.407623779296875,-0.042541503131389616,1.2560355418667197,-0.5110394509769975
1761914377968679700,3.4176796875,0.015667524731159208,1.4288216737627981,-0.3986395448520779
1761914377978735600,3.427735595703125,0.05500350981950759,1.5136191410824655,-0.32909663754850627
1761914377988791800,3.437791748046875,0.13452245221436024,1.5715905607968568,-0.2570454737510532
1761914377998847700,3.44784765625,0.29841654486358166,1.5488883151233195,-0.2576139943540096
1761914378008903000,3.45790283203125,0.48360769256353375,1.4681240488424896,-0.3169266726095229
1761914378018958800,3.467958740234375,0.662034168434143,1.346517484563589,-0.40260980018991976
1761914378029014800,3.478014892578125,0.8338397648602723,1.1560963272556661,-0.5212137485867366
1761914378039070700,3.48807080078125,0.9961410353600978,0.853357827539742,-0.6229458014313132
1761914378049125600,3.498125732421875,1.1400970863521098,0.47867520459741353,-0.6900963337056338
1761914378059181600,3.508181640625,1.1972422843754291,0.04633358889073133,-0.7115909571550786
1761914378069237800,3.51823779296875,1.1131190630555152,-0.3693906540140509,-0.7345822489030659
1761914378079293700,3.528293701171875,0.8872054443448781,-0.6973202936097979,-0.7169765957161783
1761914378089349600,3.538349609375,0.6169768830895423,-0.8535358144551515,-0.634348289129138
1761914378099404800,3.54840478515625,0.341978623214364,-0.8775348219409584,-0.5701931758111343
1761914378109460700,3.558460693359375,0.10620528926849365,-0.8145502502396702,-0.5226951462509111
1761914378119517000,3.568516845703125,-0.07367430801987647,-0.6301490838736296,-0.4745509642742574
1761914378129572900,3.57857275390625,-0.20060849706232547,-0.3987850908026099,-0.4171672082547098
1761914378139627800,3.588627685546875,-0.23357786972820757,-0.22823387835174797,-0.36885683939829467
1761914378149683700,3.59868359375,-0.24111294140815734,-0.14363631751835346,-0.3464881730606779
1761914378159739600,3.60873974609375,-0.2410749474853277,-0.10164192687571048,-0.29059980669803914
1761914378169795800,3.6187958984375,-0.2848351787567138,-0.1261538523197174,-0.22407325154095886
1761914378179851800,3.628851806640625,-0.34014322448074813,-0.20724661990255117,-0.17341781739573925
1761914378189907000,3.638906982421875,-0.4210755408048629,-0.31802666974067684,-0.13572894192729146
1761914378199963000,3.648962890625,-0.4675976380050182,-0.43570115526765585,-0.08004336812775581
1761914378210018800,3.659018798828125,-0.41713352518081664,-0.5291852023899555,-0.0332042774002999
1761914378220074800,3.66907470703125,-0.3057949646770954,-0.6319602249488234,-0.03652311962470412
1761914378230129700,3.679129638671875,-0.1222369711369276,-0.7260176880449056,-0.07149104569666087
1761914378240185900,3.689185791015625,0.15581833822131155,-0.811363436897099,-0.13376988028138875
1761914378250241800,3.69924169921875,0.4414665869265795,-0.9037117579877376,-0.2414846242647618
1761914378260297700,3.709297607421875,0.6718500445276498,-0.9204010269820689,-0.3268813726518303
1761914378270354000,3.71935400390625,0.871381267747283,-0.8208315224662422,-0.3183524676289409
1761914378280408800,3.729408935546875,0.9878659589678048,-0.6860381443560123,-0.30124585000537335
1761914378290464800,3.73946484375,0.9218424579620361,-0.5225947180837393,-0.35497495597489176
1761914378300520700,3.749520751953125,0.7997498637318611,-0.39167613558024167,-0.40124147097878154
1761914378310576600,3.75957666015625,0.7047387531727553,-0.2263186923801899,-0.3461643844664097
1761914378320631800,3.7696318359375,0.5160673621416092,-0.08525076404511928,-0.25905301418118176
1761914378330687700,3.779687744140625,0.24141689279079437,-0.034337738409638406,-0.164016988376528
1761914378340743700,3.78974365234375,0.03071194912791252,-0.052119478815793985,-0.1739776797682047
1761914378350800000,3.7997998046875,-0.24818857888281343,-0.22593144662827253,-0.35113296665921806
1761914378360855800,3.809855712890625,-0.214044901740551,-0.2625122877895832,-0.39454394610151644
1761914378370910700,3.81991064453125,-0.1351379537642002,-0.1954261259883642,-0.42965339953601356
1761914378380966700,3.829966552734375,-0.08566519006490707,-0.14929069001823664,-0.49993587316051125
1761914378391022600,3.840022705078125,-0.139817636013031,-0.07486673267483711,-0.6152943368300795
1761914378401078800,3.850078857421875,-0.1517249314278364,0.06931494376659393,-0.6864636762917041
1761914378411133700,3.8601337890625,-0.09524141218364238,0.3196399501562118,-0.6718687492281198
1761914378421190000,3.87018994140625,-0.13890519734323023,0.7383630826160311,-0.5132338922813534
1761914378431245800,3.880245849609375,-0.31317864518761634,1.1752084394827484,-0.33193814458474513
1761914378441301800,3.8903017578125,-0.45084699421226976,1.465417127971351,-0.2596989839345217
1761914378451358000,3.90035791015625,-0.3863841666519642,1.6187112084120512,-0.2095186564877629
1761914378461412600,3.91041259765625,-0.24043372697234153,1.6604457790747285,-0.09471256600394845
1761914378471468800,3.92046875,-0.14450667061209677,1.5611317106246947,0.03285480637550354
1761914378481524700,3.930524658203125,-0.006108253747224807,1.3146516892254352,0.13257862467020748
1761914378491580700,3.94058056640625,0.23425065442323684,0.9755796011075377,0.20017565860301256
1761914378501636900,3.950636962890625,0.4717062423676252,0.6248094764113425,0.21391046170592307
1761914378511691800,3.96069189453125,0.6201607738226652,0.3816068692475557,0.25915084853246806
1761914378521747700,3.970747802734375,0.5414028789281845,0.21359598892927167,0.38909722500294447
1761914378531804000,3.980803955078125,0.29835750815272327,0.09002952275425195,0.5576943807765841
1761914378541859800,3.99085986328125,0.023925649988651276,-0.0022977555483579635,0.7031506071984768
1761914378551914800,4.000914794921875,-0.2634849322140217,-0.04458645296245813,0.8790930111683904
1761914378561967900,4.0109677734375,-0.24069150112569332,-0.06937047334611415,0.7886234895616769
1761914378572023800,4.02102392578125,-0.43695115532875056,-0.002409106968343258,0.9811126853153109
1761914378582079700,4.031079833984375,-0.5357306785106659,0.08406973756700754,1.228128713287413
1761914378592135700,4.0411357421875,-0.5672118584454059,0.20591478677690028,1.4859113422065973
1761914378602190800,4.05119091796875,-0.6060106679171323,0.28157179304659363,1.6394227186597883
1761914378612246800,4.061246826171875,-0.6387631829619407,0.3248237825348973,1.7133271821737288
1761914378622302700,4.071302734375,-0.6029758302658796,0.3512918104827404,1.7134838340401648
1761914378632359000,4.08135888671875,-0.45448856558501716,0.33011399789750573,1.632175085619092
1761914378642414800,4.091414794921875,-0.14252923305928705,0.2764090034559369,1.4873435669668018
1761914378652469800,4.1014697265625,0.18522212736010552,0.17914689909964798,1.3332789405450225
1761914378662525700,4.111525634765625,0.4924462480574846,0.104904728063941,1.2071369247935713
1761914378672581600,4.12158154296875,0.7947995478481054,0.0077668346092104905,1.1203246835853904
1761914378682637600,4.131637451171875,1.0772282499849795,-0.17466215490102768,0.9827486890193075
1761914378692693800,4.14169384765625,1.262668404009938,-0.36962300146520133,0.850716957642138
1761914378702748700,4.151748779296875,1.319407943841815,-0.5144128729328513,0.7531684375599026
1761914378712804900,4.161804931640625,1.3145119884938001,-0.6150058752775192,0.6954070803996175
1761914378722860800,4.17186083984375,1.2579156565248966,-0.6985325920090079,0.6474395336315035
1761914378732916700,4.181916748046875,1.1955547696799038,-0.7556152461901307,0.5763422364927828
1761914378742971600,4.1919716796875,1.1263602374225854,-0.7516337753385305,0.4954565723219886
1761914378753027600,4.202027587890625,1.0226467649698257,-0.7359595286056398,0.36681857503633947
1761914378763083800,4.212083740234375,0.9095470400124788,-0.6593538433089852,0.3128828771114349
1761914378773139700,4.2221396484375,0.8459545655459165,-0.5378606762766838,0.3325832375552505
1761914378783195400,4.2321953125,0.7902531365901231,-0.4020782871291041,0.3651083370523527
1761914378793250600,4.24225048828125,0.7260229487419128,-0.3223930482566357,0.37508166872989385
1761914378803306500,4.252306396484375,0.7291630003333092,-0.3617877777948975,0.36892837026454506
1761914378813362700,4.26236279296875,0.7402747614562512,-0.5130968218982219,0.36760581642389295
1761914378823418600,4.272418701171875,0.705533702942729,-0.7785115531310438,0.30837705359216777
1761914378833474300,4.282474365234375,0.6665934391736984,-1.0864642803639173,0.20967729938188567
1761914378843529500,4.292529541015625,0.5788911903232336,-1.3356170281037687,0.14787236591922118
1761914378853585400,4.30258544921875,0.4628671023517847,-1.447849030315876,0.12662453857138753
1761914378863641600,4.3126416015625,0.19655834488868712,-1.4311121227875352,0.14868682410726322
1761914378873697500,4.322697509765625,-0.23107670056223867,-1.3594497391119598,0.20337953267823902
1761914378883752700,4.332752685546875,-0.44835926904976364,-1.319048170618713,0.1849440776037052
1761914378893808600,4.34280859375,-0.4110404690027237,-1.2878092750072478,0.15509628929076716
1761914378903864600,4.352864501953125,-0.3048176440775394,-1.1869666818156839,0.1851772105061449
1761914378913920500,4.36292041015625,-0.25220541330873963,-1.050589833906293,0.3033674087366089
1761914378923976400,4.3729765625,-0.3073755118668079,-0.8494988140240312,0.4722045107459649
1761914378934031400,4.38303125,-0.4026759607613086,-0.6432604943811893,0.6521415007773786
1761914378944087600,4.393087646484375,-0.5031459212481976,-0.4493216843411326,0.7399900992959737
1761914378954143500,4.4031435546875,-0.5793775125354528,-0.28208208065629004,0.7543300286851823
1761914378964199400,4.413199462890625,-0.6169429808199405,-0.2273901210039854,0.6594885025393218
1761914378974255600,4.423255615234375,-0.4140110092461109,-0.254715058042109,0.5530718720750883
1761914378984310500,4.433310546875,-0.10911620827913283,-0.31307810742259023,0.5095466551359743
1761914378994366500,4.443366455078125,-0.11328560291826724,-0.5114224589452148,0.42996798191051927
1761914379004422400,4.45342236328125,-0.367764221855998,-0.7860942633450031,0.32082473949398843
1761914379014478300,4.463478271484375,-0.6621949119538069,-1.0374360455617309,0.23423001349400727
1761914379024534500,4.473534423828125,-0.8581552909493446,-1.2334379256114363,0.20754867158904672
1761914379034589400,4.48358935546875,-0.96823654486835,-1.2673960170537233,0.27154647545348853
1761914379044645600,4.493645751953125,-1.0370452926784752,-1.0989224876597523,0.36625604578275234
1761914379054701600,4.50370166015625,-1.116864094802737,-0.7448582898542284,0.4355664595047012
1761914379064757500,4.513757568359375,-1.213792437160015,-0.2799228567957878,0.5013732855524867
1761914379074812400,4.5238125,-1.2859639394015072,0.21057605658620596,0.567011221306771
1761914379084868400,4.533868408203125,-1.2811626765996218,0.7442179461240768,0.6567211567178368
1761914379094924500,4.543924560546875,-1.2419675612866878,1.191656885458529,0.7203779285922646
1761914379104980500,4.55398046875,-1.2025438979148864,1.4847987047895788,0.6727974814455956
1761914379115036400,4.564036376953125,-1.0206237347096203,1.504488909165561,0.4879406802665442
1761914379125091600,4.574091552734375,-0.5696522373348474,1.1992357962802052,0.19792682023029773
1761914379135147500,4.5841474609375,-0.03341828547716141,0.7812336715713143,0.0076421122509986155
1761914379145203700,4.59420361328125,0.39725042858123777,0.3951721610024571,-0.09404109648317098
1761914379155260700,4.6042607421875,0.6202332545369863,0.0019935119047760964,-0.2931360837100074
1761914379165316600,4.614316650390625,0.6624176147937775,-0.22942571848481894,-0.4610890598285943
1761914379175371500,4.62437158203125,0.6318143867373466,-0.2926739095583558,-0.5790655970420688
1761914379185427500,4.634427490234375,0.5550152246952057,-0.22521453053057192,-0.6628894700892269
1761914379195483400,4.6444833984375,0.3962339450150728,-0.050019583927094935,-0.6534604013562202
1761914379205539600,4.65453955078125,0.19730770195126532,0.2496957685753703,-0.5295317142726853
1761914379215595500,4.664595458984375,0.0019406126737594603,0.5749386533051729,-0.29751740406677124
1761914379225650400,4.674650390625,-0.10831833589971065,0.8469961835533381,-0.051011042649857695
1761914379235706600,4.68470654296875,-0.160683313909173,1.105267765033245,0.1623892410442233
1761914379245762600,4.694762451171875,-0.18553660013675688,1.334693483518064,0.335604119746387
1761914379255818500,4.704818603515625,-0.17166121951937674,1.5041563162103295,0.47534123786911364
1761914379265873400,4.714873291015625,-0.04573474621474743,1.6204641895592211,0.5202912999795749
1761914379275929300,4.724929443359375,0.16222352908849716,1.6924837161093949,0.4733490776712075
1761914379285985500,4.734985595703125,0.39803836408853527,1.6488646468743682,0.3878807984178886
1761914379296041500,4.74504150390625,0.579362314966321,1.4566782334595918,0.2775661010691896
1761914379306097400,4.755097412109375,0.7466548178821801,1.0934458098143338,0.16198456923346966
1761914379316152600,4.765152587890625,0.9277128113001585,0.6923460123285651,0.06390983332004398
1761914379326208500,4.77520849609375,1.0901531980097294,0.27919161991178987,-0.025052206333167848
1761914379336264700,4.7852646484375,1.2176058579683302,-0.12789455850720405,-0.14830240963324903
1761914379346320600,4.795320556640625,1.253181029218435,-0.3950573024511337,-0.2824402464441955
1761914379356376300,4.805376220703125,1.1498691233038902,-0.4569742449209094,-0.36188513722214843
1761914379366431500,4.815431396484375,0.8845768494069576,-0.37835868110656734,-0.37351829187069086
1761914379376487400,4.8254873046875,0.608935615453124,-0.2350125787064433,-0.3031381300253793
1761914379386543600,4.835543701171875,0.3899170169532299,-0.06815057616233826,-0.20709526526574043
1761914379396599600,4.845599609375,0.2821393638014793,0.09339549205601215,-0.050485119079612194
1761914379406655500,4.855655517578125,0.20240356378555296,0.17444617406278848,0.10720778084192424
1761914379416710700,4.865710693359375,0.13052023083567618,0.2631815653532743,0.2938400124619715
1761914379426766300,4.875766357421875,0.08718786958754061,0.37157676588147875,0.5156853405540809
1761914379436822500,4.885822509765625,0.04436579594910144,0.4876739190891385,0.7201780221059918
1761914379446878500,4.89587841796875,0.014083470410108566,0.5912924067348242,0.9199440039295702
1761914379456934400,4.905934326171875,-0.013469722425937651,0.5903235617026686,1.0570775884903967
1761914379466989600,4.915989501953125,0.049105099430680275,0.5063642987728119,1.182620103978738
1761914379477045500,4.92604541015625,0.1855056204766035,0.4172475069493055,1.3318486154809592
1761914379487101400,4.936101318359375,0.18809622149169444,0.28303339003175493,1.4528250651627779
1761914379497157600,4.94615771484375,0.11118541576862334,0.11400953327864408,1.516338190782815
1761914379507212300,4.95621240234375,0.06074935999512672,-0.09735942725092173,1.5490911442190407
1761914379517268500,4.9662685546875,0.11388707594275474,-0.32110739236027,1.577124667917937
1761914379527324400,4.976324462890625,0.21889409533739088,-0.5521154116004705,1.5326687094673515
1761914379537380400,4.98638037109375,0.3519558273494243,-0.7250023735225201,1.4186154831774531
1761914379547436500,4.9964365234375,0.5509364309489727,-0.8311953878313303,1.2596044863946736
1761914379557491500,5.006491455078125,0.7704647325366735,-0.8893117689743637,1.062627039311081
1761914379567547600,5.016547607421875,0.9732476510286331,-0.934798970168829,0.8756164210990071
1761914379577603600,5.026603515625,1.169912378901243,-0.9724816350921988,0.741269033190608
1761914379587659500,5.036659423828125,1.345439626199007,-0.9625260582670568,0.6822400672473014
1761914379597715700,5.0467158203125,1.4758265860438347,-0.8915487342461943,0.6899008111335336
1761914379607770400,5.056770263671875,1.5374293479979038,-0.8222820135354996,0.6807642956063151
1761914379617826600,5.06682666015625,1.5228174697995185,-0.757979344972968,0.678300828102231
1761914379627882500,5.076882568359375,1.349645261195302,-0.6421645158380269,0.6856867005698383
1761914379637938400,5.0869384765625,0.995842344674468,-0.4604384139001369,0.7483639598876237
1761914379647994600,5.09699462890625,0.560476997232437,-0.37367841433584686,0.6417724477805197
1761914379658049500,5.107049560546875,0.24040742348730562,-0.4105927252352237,0.40279198835641145
1761914379668105700,5.117105712890625,0.16140402939915657,-0.37458003935068845,0.24895101462267338
1761914379678161700,5.12716162109375,0.037868250623345374,-0.24239567469507453,0.11001564133688807
1761914379688217300,5.13721728515625,-0.3472317214369774,-0.23351766397356985,-0.23846454579122364
1761914379698273500,5.1472734375,-0.8041711873054503,-0.3064031597033143,-0.8513945646427571
1761914379708328400,5.157328369140625,-1.2222077988058329,-0.18059271399378776,-1.1874123066913336
1761914379718384400,5.16738427734375,-1.5283283421754836,0.11288929707705973,-1.2183625215545295
1761914379728440600,5.177440673828125,-1.8519798660606144,0.2906283752053976,-1.1667363792136312
1761914379738496500,5.18749658203125,-2.324009933555126,0.2144818318530917,-1.2560618453517556
1761914379748551700,5.1975517578125,-2.7497172258138654,0.12148702955245971,-1.3630359270356596
1761914379758607600,5.207607666015625,-3.018208588013053,0.3073117989808321,-1.3171651333510874
1761914379768663300,5.217663330078125,-3.129164871200919,0.7325827456489205,-1.1121724298551678
1761914379778720300,5.22772021484375,-3.138102210894227,1.2740759332090617,-0.8348371053345501
1761914379788776200,5.237776123046875,-2.9992461133897304,1.7723156699761746,-0.6007941753778606
1761914379798831000,5.2478310546875,-2.697193842372298,2.0598983938753603,-0.4413443487863987
1761914379808887000,5.257886962890625,-2.19544726652801,2.174530150705576,-0.25132643851712344
1761914379818943000,5.26794287109375,-1.580073726981878,2.1359286173716185,-0.011353753185272215
1761914379828999200,5.277999267578125,-1.024580363380909,1.822248744663596,0.21834756737053393
1761914379839055000,5.28805517578125,-0.574315552970767,1.3235565879538655,0.42233730436898764
1761914379849110000,5.298110107421875,-0.16328794344961642,0.6551496696174144,0.5402870266407728
1761914379859166200,5.308166259765625,0.21487492282390594,-0.04644698613733053,0.6754255649268627
1761914379869222100,5.31822216796875,0.5972691430568695,-0.7245125441789627,0.8015279793202876
1761914379879277800,5.32827783203125,0.8706383404254913,-1.2226909061476587,0.9508471647806465
1761914379889334000,5.338333984375,0.9326613736182451,-1.5488637652039527,1.1669167042165993
1761914379899389000,5.348388916015625,0.8259411205649375,-1.695944962479174,1.373945151323825
1761914379909445000,5.358445068359375,0.625534283554554,-1.6338903651043772,1.578357132322341
1761914379919501000,5.3685009765625,0.4109738335072994,-1.308202951477468,1.8361900301240384
1761914379929557000,5.378556884765625,0.3193266464233398,-0.8257730705216526,2.106679872664064
1761914379939613200,5.38861328125,0.24341361956596372,-0.288840907266736,2.3604870220810175
1761914379949668000,5.398668212890625,0.17788754668831824,0.16506284416764974,2.64091344448477
1761914379959724000,5.40872412109375,0.1175660567164421,0.489073556753993,2.9021780703008173
1761914379969780000,5.418780029296875,0.10437047505676746,0.6400380252033472,3.087181878735125
1761914379979836000,5.4288359375,0.13702712851166723,0.5679755362942814,3.143699007987976
1761914379989892000,5.43889208984375,0.27980829050540923,0.3208081171527505,3.0822806626901027
1761914379999947000,5.448947021484375,0.5470271485507487,-0.024414894810318947,2.971340453854203
1761914380010003200,5.459003173828125,0.8664023102909326,-0.3882373933032155,2.783336879082024
1761914380020059100,5.46905908203125,1.1466273649036884,-0.6717237877994775,2.5944234959885475
1761914380030115000,5.479114990234375,1.4609826526552439,-0.8459139412745833,2.384424654768407
1761914380040170000,5.489169921875,1.710854070058465,-0.9440949140414595,2.124433409889042
1761914380050226000,5.499225830078125,1.9006003968447445,-0.9684177466541528,1.872926500238478
1761914380060282000,5.5092822265625,2.0240999352633953,-0.9017959874942898,1.6533580127708614
1761914380070338000,5.519338134765625,2.03121532022655,-0.8265972463861108,1.4645213481754065
1761914380080394000,5.52939404296875,1.9215788874655961,-0.6735276223510503,1.3967781837701796
1761914380090449200,5.53944921875,1.8061773153066634,-0.42609804514199495,1.4778898021839557
1761914380100505000,5.549505126953125,1.6603689144462346,-0.17120236983597278,1.6142855009242891
1761914380110561000,5.55956103515625,1.5626602353662251,0.0820779792279005,1.7069842428877948
1761914380120617200,5.5696171875,1.3965847070246935,0.27216391323208805,1.7654636121243237
1761914380130673200,5.579673095703125,1.1044669700443743,0.4441603560552001,1.8521603371940552
1761914380140728000,5.58972802734375,0.7131178744614124,0.5922758648142218,2.0180825746700166
1761914380150784000,5.599783935546875,0.2870171989709139,0.5592872029259801,2.1519111994013187
1761914380160840000,5.60983984375,-0.017155717462301254,0.4134656503230333,2.1963363243222234
1761914380170896100,5.619896240234375,-0.22757775253057477,0.21566665772348642,2.2051607051603495
1761914380180952000,5.6299521484375,-0.34362989755272866,-0.05363251372724771,2.1445821716874836
1761914380191007200,5.64000732421875,-0.3472621165752411,-0.3835509890526533,1.9695222496405242
1761914380201063200,5.650063232421875,-0.2877431751579046,-0.6681722327977418,1.7639008928522466
1761914380211118800,5.660118896484375,-0.2036526870638132,-0.8626581553265452,1.55426796233505
1761914380221175000,5.670175048828125,-0.0839729991942644,-0.9874813435643911,1.3578107397332786
1761914380231230000,5.68022998046875,-0.07018295877277851,-1.054848952655494,1.163333731163293
1761914380241286100,5.6902861328125,-0.15460311721265316,-1.0329144764840603,0.9899904037758708
1761914380251342000,5.700342041015625,-0.26816812159419057,-0.9357774598121642,0.8565130767002701
1761914380261398000,5.71039794921875,-0.33451018702983853,-0.7951832864686846,0.7635952851586043
1761914380271454200,5.7204541015625,-0.3413467550516128,-0.5744619757041335,0.6968037954550236
1761914380281509000,5.730509033203125,-0.35420799019038673,-0.30951573876589533,0.6946373381361365
1761914380291565000,5.74056494140625,-0.33684652102291585,-0.13258037823587654,0.6438053418476134
1761914380301621000,5.75062109375,-0.357404155883193,-0.09569500117003917,0.5501722416434437
1761914380311677000,5.760677001953125,-0.3422673770278692,-0.11352058071792125,0.5228662650341168
1761914380321733000,5.770733154296875,-0.28382629397511483,-0.061005672843754286,0.67873162073493
1761914380331788000,5.7807880859375,-0.36009471014142036,-0.05281096821129322,0.8990154899302869
1761914380341844000,5.790843994140625,-0.5811784244775772,-0.13913023827075957,1.044153078857064
1761914380351900200,5.800900146484375,-0.8044353911995887,-0.2308601352021098,1.1321231848634778
1761914380361956000,5.8109560546875,-0.8974117810606956,-0.2899345477223396,1.1795319287050514
1761914380372012000,5.821011962890625,-0.8691209215998649,-0.39674540166854855,1.176911005616933
1761914380382067000,5.83106689453125,-0.7312953361868858,-0.4267918726250529,1.151787670276314
1761914380392123000,5.841122802734375,-0.5491396106600761,-0.3565601062744856,1.149584534208849
1761914380402179000,5.851178955078125,-0.495138555881381,-0.14080080183148383,1.1713843511499464
1761914380412235000,5.861235107421875,-0.6196954943984747,0.22465514308214185,1.2506700693108141
1761914380422291000,5.871291015625,-0.7854653177917004,0.5893807278946042,1.301922409903258
1761914380432346000,5.88134619140625,-0.9212053291022777,0.9573854805082083,1.2993630808092653
1761914380442402000,5.891402099609375,-1.0313701696515083,1.421986567045748,1.3474781462892889
1761914380452458200,5.901458251953125,-1.0413047036886214,1.8116878954216837,1.376126148624718
1761914380462514200,5.91151416015625,-0.8546475750893354,2.056348592439294,1.257737377348542
1761914380472569000,5.921569091796875,-0.5007733468979597,2.0743390071600674,0.9856865691021084
1761914380482625000,5.931625,-0.02287058797776699,1.823606589013338,0.6290753902275115
1761914380492681000,5.941680908203125,0.47292321694195266,1.4333777296319603,0.31203659901302305
1761914380502737200,5.951737060546875,0.8200573232233523,1.0297048667877913,0.14566815213952214
1761914380512793000,5.96179296875,0.8610007435083389,0.6591387392535806,0.05253500081412494
1761914380522848300,5.97184814453125,0.6126601889342069,0.3433621865272522,-0.01095730121359229
1761914380532904200,5.981904296875,0.18820085090994834,0.08161971406638621,0.0038113384490832685
1761914380542960000,5.991960205078125,-0.2965922520458698,-0.15061726244688034,0.04734700371697545
1761914380553016000,6.00201611328125,-0.765676329216361,-0.3175096601292491,0.1605594135348685
1761914380563072000,6.012072021484375,-1.0890490361601113,-0.36339375168681143,0.3168037038169801
1761914380573127000,6.022126953125,-1.2222089678496122,-0.31295623460859057,0.4852212652400136
1761914380583183000,6.03218310546875,-1.163319556507468,-0.21673136434555051,0.6361916519735008
1761914380593239000,6.042239013671875,-0.9855518368065357,0.005059329216182231,0.7977587629798799
1761914380603295000,6.052294921875,-0.744506699937582,0.34022213493585585,0.9571190115917474
1761914380613351200,6.06235107421875,-0.5244447298645973,0.7061223164856434,1.1089339593905956
1761914380623405800,6.07240576171875,-0.4198936375439167,0.9371513785138725,1.2058262805864215
1761914380633462000,6.0824619140625,-0.4167904108315706,1.0046981435641646,1.1894582794357091
1761914380643518000,6.09251806640625,-0.4683043249696493,1.030856082649529,1.147045882576704
1761914380653574000,6.102573974609375,-0.4762818797200918,0.9732955818235873,1.1029337691277266
1761914380663630000,6.112630126953125,-0.249017430922389,0.8099193755686283,0.9531732696406543
1761914380673685000,6.12268505859375,0.16106559122502803,0.5791136009022593,0.7105155830085277
1761914380683741200,6.1327412109375,0.6086357557237148,0.38792467409223313,0.43160621410422023
1761914380693797000,6.142797119140625,0.9286474618017673,0.25062194350957867,0.1341867905192077
1761914380703853000,6.15285302734375,1.0685118595659733,0.130792910297215,-0.21537200389215722
1761914380713908000,6.162907958984375,1.1077169117510317,0.0464177600428462,-0.5487796182412654
1761914380723964000,6.1729638671875,1.1059294438123701,-0.016950842539966104,-0.8412604894455522
1761914380734020000,6.18302001953125,1.1256816075086593,-0.029878128652274606,-1.038961720759049
1761914380744076000,6.193075927734375,1.1698358065336942,-0.052094636635482305,-1.163869153214246
1761914380754132000,6.203132080078125,1.1095546485722065,-0.12296820802092552,-1.197537906321138
1761914380764187100,6.213187255859375,0.9037474138230085,-0.20467384680509565,-1.1697303003326058
1761914380774242800,6.223242919921875,0.68412149707973,-0.2381464928179979,-1.0660375784069298
1761914380784298800,6.233298828125,0.5350234070241451,-0.173253457146883,-0.9274040376119315
1761914380794354700,6.243354736328125,0.3626139994859695,0.0319391528353095,-0.6913754867959767
1761914380804410600,6.25341064453125,0.19186580315828322,0.27359073116481303,-0.4578753950117156
1761914380814465800,6.2634658203125,0.05373275923132896,0.4083493302226066,-0.2904563065741211
1761914380824521700,6.273521728515625,-0.026116438031196593,0.43887218651920556,-0.16538221231512723
1761914380834578000,6.283577880859375,-0.091454294860363,0.4299439069151878,-0.05667155262958258
1761914380844633900,6.2936337890625,-0.13911796331107615,0.3849821908995509,0.08796367626562714
1761914380854689800,6.303689697265625,-0.16678864504694937,0.3423556398332119,0.24380035386122761
1761914380864744700,6.31374462890625,-0.20564532218575476,0.25094635315835473,0.32468631029296663
1761914380874800600,6.323800537109375,-0.22725275835990905,0.08768412867188453,0.3010395868435502
1761914380884856600,6.333856689453125,-0.189628253364563,-0.10826046823263168,0.174340302535519
1761914380894912800,6.343912841796875,-0.053099137502908705,-0.2682338803067803,0.0011174962552264332
1761914380904967700,6.3539677734375,0.11077683496773243,-0.34155542936623096,-0.18120562172774224
1761914380915024000,6.36402392578125,0.325738267031312,-0.3805617441087961,-0.35008451705221083
1761914380925079800,6.374079833984375,0.4813403321534395,-0.40934097160845995,-0.5611090115256607
1761914380935135700,6.3841357421875,0.5076420636236667,-0.38186756601035593,-0.761011844536662
1761914380945192000,6.39419189453125,0.46344227189123627,-0.3302171660110354,-0.8941918691661208
1761914380955246600,6.40424658203125,0.43041678512394427,-0.2403220832914114,-0.9525487080015241
1761914380965302800,6.414302734375,0.39808863297104835,-0.08557166656255721,-0.9171430480994284
1761914380975358700,6.424358642578125,0.3238631208091974,0.08269085042923688,-0.7510525413844734
1761914380985414700,6.43441455078125,0.15040800361037254,0.19148527940809726,-0.5284620392145589
1761914380995470800,6.444470947265625,-0.06423895567655563,0.22917057467997073,-0.2937063030797057
1761914381005525800,6.45452587890625,-0.2742804669946432,0.17785948963761328,-0.1383836302876938
1761914381015582000,6.46458203125,-0.4273609046846628,-0.04106353953331709,-0.20408852119781076
1761914381025638000,6.474637939453125,-0.3798702547132969,-0.4825213586315512,-0.5044820652227848
1761914381035693600,6.484693603515625,-0.12776830177903176,-0.8635831612169742,-0.7357746735580265
1761914381045749800,6.494749755859375,0.2483785484969616,-1.1532210640802978,-0.802891522758454
1761914381055804700,6.5048046875,0.7254243983268738,-1.1739508406370878,-0.622660189422965
1761914381065860900,6.51486083984375,1.0133791704088448,-1.1742480700179934,-0.43814577194079757
1761914381075916800,6.524916748046875,0.9829425310909747,-1.265792381249368,-0.4990552909336984
1761914381085972700,6.53497265625,0.531174330380559,-1.2707856594920157,-0.5800128878295421
1761914381096029000,6.54502880859375,-0.11065700798034667,-0.9936869202062487,-0.49497675291579213
1761914381106083800,6.555083740234375,-0.7218021161764859,-0.33919133058339357,-0.11967583367833867
1761914381116139800,6.565139892578125,-1.1481681646049022,0.4339379449874162,0.36419509466495364
1761914381126195700,6.57519580078125,-1.4273609535604714,1.1605977303281425,0.7937639211900531
1761914381136251600,6.585251708984375,-1.6020032347172497,1.7644038739383219,1.0777136954143642
1761914381146307600,6.5953076171875,-1.7133073084294794,2.184185283279419,1.2090956576459109
1761914381156362800,6.60536279296875,-1.752928540199995,2.3739403778940438,1.2513486992247402
1761914381166418700,6.615418701171875,-1.6670646126925945,2.3747201300948855,1.2227037656292319
1761914381176475000,6.625474853515625,-1.4225672895431518,2.227561191408336,1.165869971642643
1761914381186530800,6.63553076171875,-1.0328156922847032,1.9713105943620204,1.1259524603392927
1761914381196585700,6.645585693359375,-0.6296984174966812,1.628887149989605,1.1290840363632888
1761914381206641700,6.6556416015625,-0.32452012341320513,1.231691081944108,1.0813749944008886
1761914381216697600,6.665697509765625,-0.13090952241420745,0.7353881584584713,1.0424321733485906
1761914381226753800,6.67575390625,0.10209668490588665,0.30555180357098577,1.0259953447453678
1761914381236809700,6.685809814453125,0.44109190839529033,0.010717793369293212,1.0625503208130598
1761914381246865000,6.695864990234375,0.7629863594800234,-0.2481160981684923,1.1354945609927176
1761914381256920800,6.7059208984375,0.9924924497246742,-0.46751901981085536,1.2623358110547065
1761914381266976800,6.715976806640625,1.1059060629367827,-0.5161980027839541,1.4949102028287946
1761914381277033000,6.726032958984375,1.0566261914610862,-0.4200342150583863,1.795569704313576
1761914381287089000,6.7360888671875,0.8638654852896929,-0.3174006467968225,2.065563287769258
1761914381297143800,6.746143798828125,0.7332113989412784,-0.23958003275245426,2.266976086951792
1761914381307199700,6.75619970703125,0.6367097575634718,-0.18458382945656776,2.4155685655727983
1761914381317255700,6.766255615234375,0.5113233824849128,-0.0965431424319744,2.5933415459707376
1761914381327312000,6.776311767578125,0.4406295515805483,-0.08275953175127505,2.6756018960282204
1761914381337366800,6.78636669921875,0.4682639929592609,-0.19451047244817019,2.56867267639935
1761914381347422700,6.796422607421875,0.6207856277227402,-0.4232373950138688,2.3118419413775206
1761914381357479000,6.80647900390625,0.8692980317324399,-0.6613985008791089,1.98901956179291
1761914381367534800,6.816534912109375,1.07629476852715,-0.802329358831048,1.7373197599187493
1761914381377590800,6.8265908203125,1.2173942610442638,-0.8787117567658423,1.5600973991408944
1761914381387645700,6.836645751953125,1.1857418161958455,-0.9278098419338464,1.42229081068933
1761914381397701600,6.84670166015625,0.9688467857211828,-0.9708128250971436,1.3404527776971458
1761914381407757800,6.8567578125,0.7587415615171194,-0.8973486526966095,1.309628454235941
1761914381417813800,6.866813720703125,0.6405237628936767,-0.7743649548456072,1.2803783943541347
1761914381427869700,6.87686962890625,0.5409440292447805,-0.6261456934511661,1.2066704763256013
1761914381437924900,6.8869248046875,0.4970955351680517,-0.4584346728622913,1.1729015507798641
1761914381447980500,6.89698046875,0.5423071342915297,-0.3789876266598701,1.1189959191996603
1761914381458036700,6.90703662109375,0.6843781021893024,-0.424089335668087,1.068520773524791
1761914381468092700,6.9170927734375,0.8234557334899902,-0.5648223329603672,1.0556829923268407
1761914381478148600,6.927148681640625,0.838952577829361,-0.7280234749093651,1.1186289855834095
1761914381488203800,6.937203857421875,0.7518687531381845,-0.8483195411115885,1.2436404629349709
1761914381498259700,6.947259765625,0.5799111810207367,-0.9484086855873465,1.355810505826771
1761914381508316000,6.95731591796875,0.4107236581385135,-1.0558894016191362,1.4130534651361406
1761914381518371800,6.967371826171875,0.24348960741162298,-1.187132101510465,1.3892254303030669
1761914381528426800,6.9774267578125,0.06110124217271804,-1.3110907818734645,1.3358160578072071
1761914381538482700,6.987482666015625,-0.0911450827807188,-1.3656538544490933,1.2897756066441535
1761914381548538600,6.99753857421875,-0.19509820920825002,-1.384988961777091,1.2162529089894145
1761914381558594800,7.0075947265625,-0.20329905132055281,-1.389671858896315,1.019057435240969
1761914381568650800,7.017650634765625,-0.17173837640881537,-1.3809645285665988,0.7219958851829171
1761914381578705700,7.02770556640625,-0.12457915034890174,-1.2962367654822766,0.47103437098804857
1761914381588761900,7.037761962890625,-0.08674947817027569,-1.1357767389349638,0.2901798459866084
1761914381598817800,7.04781787109375,-0.13719137916266919,-1.0045685258351267,0.1167447851951234
1761914381608873700,7.057873779296875,-0.25007775363028045,-0.9106858347840606,-0.06573450059709139
1761914381618930000,7.067929931640625,-0.33998248096108435,-0.8557016141869127,-0.22169178149821236
1761914381628984600,7.077984619140625,-0.3587883037179708,-0.7484943082690239,-0.33009788701292125
1761914381639040800,7.088040771484375,-0.37757542177438735,-0.6208696527443825,-0.40089163462780414
1761914381649096700,7.0980966796875,-0.43129707508981224,-0.5044359610587358,-0.4694872146112844
1761914381659152600,7.108152587890625,-0.5117839857339859,-0.3836705237790942,-0.5178758728682995
1761914381669208800,7.118208740234375,-0.5671031373739243,-0.2249124788440764,-0.5216272247584537
1761914381679263700,7.128263671875,-0.6052560501575469,-0.10339520028382539,-0.5063108880851418
1761914381689320000,7.13831982421875,-0.6512351265221834,-0.04565495897680521,-0.4890640217406675
1761914381699375900,7.1483759765625,-0.7004378411084413,-0.037954467602074146,-0.4822498116811737
1761914381709431600,7.158431640625,-0.7977905463576317,-0.1272764266088605,-0.5195607937479392
1761914381719486700,7.16848681640625,-0.8767764047890901,-0.2568181678012013,-0.5852637575624511
1761914381729542700,7.178542724609375,-0.9058242200970649,-0.4155746053010225,-0.6740911014527082
1761914381739598800,7.188598876953125,-0.888776054662466,-0.5615376122012734,-0.7477806070417166
1761914381749654800,7.19865478515625,-0.7883499333173036,-0.6881044292360544,-0.8208294766396284
1761914381759710700,7.208710693359375,-0.7724298951297998,-0.7667489268839359,-0.9030429188154637
1761914381769766000,7.218765869140625,-0.9758347449123859,-0.6656243018805981,-0.879635593612492
1761914381779822000,7.228822021484375,-1.3307739719867706,-0.35627836672365665,-0.7042133410591632
1761914381789878000,7.2388779296875,-1.6577841586500406,0.01121112984418869,-0.5153654609499498
1761914381799934000,7.248933837890625,-1.9393541981309652,0.28242227239608764,-0.4043019179953262
1761914381809990000,7.258989990234375,-2.2405782016307114,0.4757533258013427,-0.29893103372436014
1761914381820045000,7.269045166015625,-2.364072479352355,0.559078528611362,-0.2255680201433599
1761914381830101000,7.27910107421875,-2.404097615748644,0.5467756580077111,-0.1637476333832368
1761914381840157000,7.289156982421875,-2.4521441460371016,0.4290919662609696,-0.08668912628516555
1761914381850213000,7.299213134765625,-2.3866478837758303,0.20205913426205516,-0.07815353579316288
1761914381860269000,7.30926904296875,-2.182738007080555,-0.00276084301546216,-0.06437993504982441
1761914381870324000,7.319323974609375,-1.892873017463088,-0.16295403532013297,0.008823942446708678
1761914381880380000,7.3293798828125,-1.5121809249728917,-0.29224633179605003,0.11521050656624138
1761914381890435800,7.339435791015625,-0.9978127679646015,-0.35710225032716986,0.20167367860842494
1761914381900492000,7.349491943359375,-0.6491805320799351,-0.2739898134849965,0.27530140754021704
1761914381910547000,7.359546875,-0.6007903029203414,0.08693345643505454,0.4728856248779222
1761914381920603100,7.36960302734375,-0.6116448744118214,0.4799934475891292,0.6125456591764464
1761914381930659000,7.3796591796875,-0.5174018256157636,0.7605043334059417,0.5742917337037623
1761914381940715000,7.389715087890625,-0.3770774091243744,1.0326242613658307,0.4710122322214767
1761914381950771200,7.399771240234375,-0.22587620930969715,1.172772590637952,0.2888712658723816
1761914381960825900,7.409825927734375,0.08407178339362144,1.194487724970281,0.11583905026074498
1761914381970882000,7.419882080078125,0.44221477494537825,1.14849388942793,0.055132725689746434
1761914381980938000,7.42993798828125,0.6885217778652906,1.0263706077985464,0.0005992810674011707
1761914381990994000,7.439993896484375,0.8095254078149795,0.7670530243970454,-0.17109627911299466
1761914382001050000,7.450050048828125,0.8541109839946031,0.48310295791178937,-0.41638161083497105
1761914382011105000,7.46010498046875,0.8786112190008163,0.36834815922379494,-0.6371493910897523
1761914382021161000,7.470160888671875,0.8771434845358133,0.43716918199360366,-0.7868256463594734
1761914382031217200,7.480217041015625,0.7691390368908644,0.5637716548636555,-0.9311429318793117
1761914382041273000,7.490273193359375,0.6065834993690252,0.6568710865825415,-1.0532434902202337
1761914382051329000,7.5003291015625,0.5328595069885254,0.7438719091653824,-1.0366107006534933
1761914382061384000,7.510384033203125,0.6272755742639303,0.7962351336091756,-0.993177217118442
1761914382071440000,7.52043994140625,0.8156868530541658,0.7774123597174882,-1.0176415770936758
1761914382081496000,7.53049609375,1.0083727404236793,0.7761220276460051,-1.0537231634959578
1761914382091552000,7.540552001953125,1.2076420978367328,0.8707038068771362,-1.021019382963702
1761914382101607200,7.550607177734375,1.41350661573112,0.9522752978876232,-1.036048755921796
1761914382111663000,7.5606630859375,1.5773019241809845,1.0065966706618665,-1.0780485533919184
1761914382121719000,7.570718994140625,1.8035136490553616,0.9742597506806254,-1.1581228646472095
1761914382131775000,7.58077490234375,2.107346373748779,0.8423352060049771,-1.2518902587555347
1761914382141831000,7.590830810546875,2.495949970015883,0.6576902940109371,-1.286035543332994
1761914382151886000,7.600885986328125,2.8715877017259595,0.45579263392090796,-1.280949326109886
1761914382161942000,7.61094189453125,2.95433729660511,0.15310791021883488,-1.3530083078876136
1761914382171998000,7.620998046875,2.7560581192731854,-0.13685849394649266,-1.422866418620199
1761914382182054100,7.63105419921875,2.4380355411857364,-0.2752498965486884,-1.370853030527383
1761914382192110000,7.641110107421875,2.131798093438148,-0.3514376486942172,-1.373086342537403
1761914382202165200,7.651165283203125,1.8500959520101545,-0.376430927914381,-1.3831756287448107
1761914382212221000,7.661220947265625,1.6543039153188466,-0.35128625752478837,-1.3916989808097482
1761914382222276900,7.67127685546875,1.3946557847887278,-0.37948593157082794,-1.402117206710577
1761914382232333000,7.6813330078125,1.0081856934189797,-0.39572658001482486,-1.3846706896081566
1761914382242389000,7.691388916015625,0.6362105758696794,-0.3399839422658086,-1.3011572707496584
1761914382252444000,7.70144384765625,0.3657119655013084,-0.2738116804391146,-1.2313602425545453
1761914382262500000,7.7115,0.15924772814810276,-0.20046879633069037,-1.1736430898621677
1761914382272556000,7.72155615234375,0.05475099636316299,-0.1272907473951578,-1.1069706964936106
1761914382282612000,7.731612060546875,-0.09741817170083522,-0.13071984506100415,-1.0412268161468208
1761914382292667000,7.7416669921875,-0.3482400216966867,-0.14537117848694323,-0.9325237187132239
1761914382302722800,7.751722900390625,-0.5983475859433413,-0.09375409623533487,-0.7667778607174753
1761914382312779000,7.761779052734375,-0.7929717478990554,-0.03741729198545217,-0.632855274092406
1761914382322835000,7.7718349609375,-0.8812842376023531,-0.005442483314871788,-0.5571431401019915
1761914382332891000,7.781890869140625,-0.9173352096706628,0.01471329274624586,-0.49116851973924786
1761914382342946000,7.791946044921875,-0.9280798910468816,0.0228024911776185,-0.43120676645785566
1761914382353002000,7.802001953125,-1.0284989981293677,0.058356619639694685,-0.3120611123997718
1761914382363058200,7.81205810546875,-1.2830547739565372,0.1592284389257431,-0.1481589825745672
1761914382373114000,7.822114013671875,-1.6611211941182613,0.29792496195435525,0.019834617815352975
1761914382383170000,7.832170166015625,-2.0172300494939086,0.39894875693172216,0.14219203699417413
1761914382393225000,7.842224853515625,-2.3970687400251625,0.44864831512421366,0.2399023600419983
1761914382403281000,7.852281005859375,-2.7393706038445234,0.4819844752758741,0.36016825030166655
1761914382413337000,7.862337158203125,-3.035415158879757,0.4840624505937099,0.5694940145658329
1761914382423393000,7.87239306640625,-3.281417625895142,0.6418766388073563,0.8962176759053021
1761914382433448200,7.8824482421875,-3.127807026851177,0.7351695472717285,1.1437365388330072
1761914382443504000,7.892504150390625,-2.5731571283370256,0.49015258416235447,1.1045859933141617
1761914382453560000,7.90256005859375,-1.8717372904539107,0.18298253173977136,1.0702293310083448
1761914382463616000,7.912615966796875,-1.1556705030590295,-0.11035364111959933,1.102116023004055
1761914382473672000,7.922671875,-0.488603601154685,-0.4176329991355538,1.10843097830452
1761914382483727000,7.93272705078125,0.059928691262006756,-0.6262129134684801,1.1012002233333884
1761914382493783000,7.942782958984375,0.2841004347413778,-0.6654542060106993,1.097988348614797
1761914382503839000,7.9528388671875,0.10912789871692657,-0.5393552987486123,1.299812432011962
1761914382513895000,7.96289501953125,-0.2917155859202146,-0.28975509950220585,1.6037994704842566
1761914382523951000,7.972951171875,-0.6412725354343652,-0.036458091564476484,1.9470079277545214
1761914382534006000,7.983006103515625,-0.7670259902596474,0.20785656849443912,2.228825804516673
1761914382544062000,7.99306201171875,-0.65336746237576,0.40655484802126884,2.4231530293524264
1761914382554118000,8.003117919921875,-0.4030658368617296,0.5528282360449434,2.532921856321394
1761914382564173000,8.013173095703126,-0.17978724282979963,0.6290045900136232,2.520195353478193
1761914382574229000,8.02322900390625,-0.05036649766862392,0.631013591748476,2.4280776262730357
1761914382584284200,8.0332841796875,0.06519990966320037,0.61630994361341,2.209203989201784
1761914382594340000,8.043340087890625,0.26818974890410896,0.612581570740044,1.9280301094315946
1761914382604396000,8.05339599609375,0.516511598777771,0.672325260823965,1.652815576457232
1761914382614452200,8.0634521484375,0.8668272577047348,0.7175093874186277,1.423091751808673
1761914382624507000,8.0735068359375,1.27111357627213,0.6737400960579514,1.2661232206389308
1761914382634563000,8.08356298828125,1.5041203681141138,0.41348114015311,1.1447208006300031
1761914382644619000,8.093618896484376,1.438859668174386,-0.0382633874207735,1.107000287914276
1761914382654675000,8.103675048828125,1.1605892547607422,-0.4600973453775048,1.129982081181556
1761914382664731100,8.113731201171875,0.9029279141336679,-0.7595502475515008,1.2007394788414238
1761914382674786000,8.1237861328125,0.8083581176012754,-0.8813599331870674,1.2844678556248545
1761914382684842000,8.133842041015624,0.8768763580322265,-0.802765704421699,1.3883311118118464
1761914382694898200,8.143898193359375,1.0177987404167652,-0.6645823916122316,1.4580777249939738
1761914382704953900,8.153953857421875,1.1371306377619503,-0.4870508187547326,1.400770468276739
1761914382715010000,8.164010009765626,1.199439502158761,-0.24223083952218294,1.316966395908594
1761914382725065000,8.17406494140625,1.2392781760722398,0.03226502378880977,1.2385114294834434
1761914382735121000,8.184120849609375,1.2674369335860014,0.2810430929973721,1.1623740923509
1761914382745177000,8.194177001953125,1.2536077301979065,0.40875761876255273,1.0220293637238442
1761914382755233000,8.20423291015625,1.2040204002082346,0.4561676047131419,0.9204975461591035
1761914382765288200,8.2142880859375,1.1550380503743887,0.3777478557318449,0.850195052659884
1761914382775343900,8.22434375,1.183926291206479,0.2563321378499269,0.8942320550460368
1761914382785403100,8.234403076171875,1.2368284448325633,0.21774287947565316,1.0317164988711476
1761914382795459300,8.244459228515625,1.2017711599767207,0.21275720001757142,1.1114701998699457
1761914382805515300,8.254515380859376,1.0895020406246185,0.16948416774123906,1.172685569941625
1761914382815570400,8.2645703125,0.9202204097181558,0.11609510738104581,1.163215146284923
1761914382825626400,8.27462646484375,0.8460977734088897,0.011477087303996086,1.0974880709424615
1761914382835682300,8.284682373046875,0.8583359082132578,-0.04800210662484169,1.0045650187037884
1761914382845738500,8.294738525390626,0.877985196056962,-0.05564560711532831,0.9568043926846236
1761914382855794200,8.304794189453125,0.8626613701969384,-0.06280073956698179,0.9263765942603349
1761914382865849300,8.314849365234375,0.9304220702588558,-0.11545330234616995,0.9095663292348384
1761914382875905300,8.3249052734375,0.9548235210657119,-0.2659080677077174,0.8517229928795248
1761914382885961200,8.334961181640624,0.9251461756825446,-0.34531478189975023,0.8080820040736347
1761914382896017400,8.345017333984375,0.8897364241272211,-0.36867519922107456,0.7437458716329187
1761914382906072300,8.355072265625,0.9330302069306373,-0.39934623181670903,0.6865999429572374
1761914382916128500,8.36512841796875,1.0168728577435016,-0.4476277399048209,0.6429118270739913
1761914382926184400,8.375184326171874,1.106082588547468,-0.5261170469909906,0.5715497780518606
1761914382936240000,8.385240234375,1.203068798571825,-0.5840756072238087,0.5302540006652474
1761914382946296300,8.39529638671875,1.245368894162774,-0.6888546630814671,0.5281467992529273
1761914382956351200,8.405351318359376,1.2136930684387683,-0.8123246831446885,0.5004261774281039
1761914382966407400,8.415407470703125,1.1603156985163687,-0.9031827656775713,0.47013479179982093
1761914382976463400,8.42546337890625,1.0876631347596644,-0.896651902604103,0.4343427994612604
1761914382986519300,8.435519287109376,0.9026280544042586,-0.8282409219399094,0.3982801369551569
1761914382996575200,8.4455751953125,0.6581266396015882,-0.8134165700346231,0.3565982097951695
1761914383006630400,8.45563037109375,0.45924423567950723,-0.85196257378906,0.29835980970766396
1761914383016686000,8.46568603515625,0.2951420532375574,-0.9169272133916616,0.20659703342001884
1761914383026742300,8.4757421875,0.1591810926526785,-0.9114607646793127,0.11330978751145303
1761914383036798200,8.485798095703124,-0.01815057371854782,-0.7630041873976587,0.08184754973920062
1761914383046853400,8.495853271484375,-0.23066402810811995,-0.619849515916407,0.044824974426068365
1761914383056909300,8.505909423828125,-0.5161456880748272,-0.6087164197444915,-0.055667727615591134
1761914383066965200,8.51596533203125,-0.8148667688429355,-0.6963666461467742,-0.1963213943276554
1761914383077021400,8.526021484375,-1.0453975259602069,-0.7700234185099601,-0.2722407595942728
1761914383087077400,8.536077392578125,-1.1329793633013963,-0.8284121868535875,-0.28873514533732086
1761914383097132300,8.54613232421875,-1.1650830590486525,-0.8583914377927779,-0.30014373398236927
1761914383107188200,8.556188232421874,-1.1554723501384259,-0.9064064038991928,-0.38295251170285044
1761914383117244200,8.566244140625,-1.2660241441786289,-0.8862997276768088,-0.4171083907395601
1761914383127300400,8.57630029296875,-1.4672855521917343,-0.7759107229828834,-0.34481402930337934
1761914383137356300,8.586356201171874,-1.7439473613649605,-0.6399564843997358,-0.2817015934387222
1761914383147411500,8.596411376953125,-2.2316163120180366,-0.4033379318013787,-0.20385940688336268
1761914383157469200,8.60646923828125,-2.6273282789856194,-0.017747838136553763,-0.03760934395883232
1761914383167525400,8.616525390625,-2.892579636350274,0.4038347754076123,0.2302735309531912
1761914383177581300,8.626581298828125,-3.063372840863466,0.7331134915247559,0.46992421778906135
1761914383187636500,8.636636474609375,-3.1525048302561043,0.9249033068373799,0.7109652264721691
1761914383197692400,8.6466923828125,-3.0488492254704234,0.7780854366734623,0.8546449447408317
1761914383207748400,8.656748291015624,-2.8024434383511543,0.4759525016352534,0.8955585544094443
1761914383217804300,8.66680419921875,-2.507601244843006,0.21393530388623475,0.9178853178340941
1761914383227860200,8.676860107421875,-2.2630957383871078,0.13152677752971648,0.9193675192158669
1761914383237915400,8.686915283203126,-1.9294190795719623,0.16591215447336435,0.7954320005327463
1761914383247971300,8.696971435546875,-1.5629139178663491,0.15935294208824632,0.5481925756009295
1761914383258027300,8.70702734375,-1.206143968233466,0.19814035338312386,0.27744607315240427
1761914383268083500,8.71708349609375,-0.7041209135353564,0.2627422971531749,0.003590973696671426
1761914383278139400,8.727139404296874,-0.10750234334170818,0.3118517804980278,-0.26312327756108717
1761914383288194300,8.7371943359375,0.4576946681499481,0.34730069501996036,-0.47127559586539863
1761914383298250200,8.747250244140625,0.923192703527212,0.3656827394068241,-0.638571605912596
1761914383308306200,8.75730615234375,1.1925626021265983,0.2596206580013037,-0.8907406327337026
1761914383318362000,8.767362060546875,1.3424807763934135,0.19141484452039,-1.144852098859474
1761914383328417300,8.777417236328125,1.4120523252695798,0.2571305947512388,-1.3210994040600954
1761914383338473200,8.78747314453125,1.3896131144464015,0.45527153265625236,-1.3822180357590317
1761914383348529400,8.797529296875,1.309403851699829,0.7242077160134911,-1.3947269503287971
1761914383358585300,8.80758544921875,1.153825167453289,0.9990417252376675,-1.3415794436395168
1761914383368641300,8.817641357421875,1.0048451508194207,1.2172338097855449,-1.2529391832865775
1761914383378696200,8.8276962890625,0.9195096311002969,1.3854063104063272,-1.1530919578079133
1761914383388752100,8.837752197265624,0.918806451267004,1.4852864883065222,-1.0517473333783447
1761914383398808300,8.847808349609375,1.0029512998968362,1.5326111340612172,-0.963252838171646
1761914383408864300,8.8578642578125,1.1216998443961144,1.5408713051453231,-0.8862189905907958
1761914383418920200,8.867920166015624,1.2824398569285869,1.5331713982924817,-0.7973872262537479
1761914383428975400,8.877975341796875,1.4113257645606994,1.437390180143714,-0.7587872272897511
1761914383439031300,8.88803125,1.489876738706231,1.2307412338733672,-0.7788998217962682
1761914383449087500,8.89808740234375,1.5044856942951679,1.0121186489537357,-0.811025875505805
1761914383459143400,8.908143310546874,1.483379193380475,0.8140510685458778,-0.8072546133387833
1761914383469198300,8.9181982421875,1.4726391881793737,0.6616600744247436,-0.7904268857218325
1761914383479254300,8.928254150390625,1.4333920504182576,0.5608402775868773,-0.8012960702605545
1761914383489310200,8.938310302734376,1.3584849857330321,0.4960793438628316,-0.8090926424209028
1761914383499366400,8.948366455078125,1.2451397615820168,0.38393940384835,-0.7750908579673618
1761914383509422300,8.95842236328125,1.2136994981795548,0.25067981117665766,-0.7951533297218382
1761914383519477200,8.968477294921875,1.198829845827818,0.17522826435118913,-0.7718072331868112
1761914383529533400,8.978533447265624,1.1900339604318142,0.13943974261134862,-0.7506804201364516
1761914383539589400,8.98858935546875,1.1265478689491748,0.15929273633360863,-0.736008774574846
1761914383549645300,8.998645263671875,1.059666289809346,0.15682809978574513,-0.7032815401017666
1761914383559701200,9.008701171875,1.0491659385830163,0.12982085039466618,-0.6866245659418404
1761914383569756200,9.018756103515624,0.9920569809168577,0.1506535028040409,-0.6105938309889286
1761914383579812400,9.028812255859375,0.9071049075573683,0.16798428457230327,-0.4935804397191852
1761914383589868300,9.038868408203125,0.8248907347291707,0.2260650098800659,-0.4201039192937314
1761914383599924200,9.04892431640625,0.803379160144925,0.2267372100532055,-0.3824990688469261
1761914383609979400,9.0589794921875,0.7379653154700994,0.2205190661907196,-0.3693614644521847
1761914383620035300,9.069035400390625,0.6003887363821268,0.11868424709141254,-0.35529205910004674
1761914383630091300,9.07909130859375,0.4648053769379854,0.01584872651696205,-0.3888282353358343
1761914383640147200,9.089147216796874,0.3643272331446409,-0.12599807723611592,-0.3627094226844609
1761914383650203100,9.099203125,0.4448848709374666,-0.30340105527788397,-0.4230024172142148
1761914383660258300,9.10925830078125,0.6467898375511169,-0.4381280901536345,-0.578647371629998
1761914383670314200,9.119314208984376,0.7274263857990503,-0.5374354366019368,-0.6955664356797934
1761914383680370400,9.129370361328125,0.6909528044044971,-0.6247749896198511,-0.7896135235123336
1761914383690426400,9.13942626953125,0.561043983465433,-0.6770812231793999,-0.8329698501579463
1761914383700482300,9.149482421875,0.4265022420287132,-0.7352317988529801,-0.821485748591274
1761914383710537200,9.159537109375,0.2366962940096855,-0.8402700901687145,-0.8037002087928354
1761914383720593200,9.16959326171875,0.007480711144208908,-0.9150149500295519,-0.7549174001190812
1761914383730649300,9.1796494140625,-0.14564473473131656,-1.031992100942135,-0.7355515323266386
1761914383740705300,9.189705322265626,-0.33928923799991606,-1.1411685149759054,-0.6848888281904161
1761914383750760200,9.19976025390625,-0.48538113197684285,-1.1459914050877094,-0.5338997367564589
1761914383760816400,9.20981640625,-0.5702385127902031,-1.2228911048948765,-0.526247833763808
1761914383770872300,9.219872314453125,-0.5639215847283602,-1.2937222984433174,-0.5732743002895265
1761914383780924700,9.229924560546875,-0.6052361764132976,-1.3130802021250128,-0.6184604727108031
1761914383790980600,9.239980712890626,-0.7418477098613977,-1.26680506542325,-0.6340383463971316
1761914383801035500,9.250035400390624,-0.9909855522930622,-1.1487564858868717,-0.5546501177098602
1761914383811091500,9.260091552734375,-1.258047173950076,-1.0294780722945929,-0.4739292521793395
1761914383821147400,9.2701474609375,-1.5630699852108954,-0.9554694177538156,-0.41707492686137554
1761914383831203600,9.28020361328125,-1.9780413639217613,-1.0009408368572592,-0.4566906787391752
1761914383841258500,9.290258544921874,-2.235385309162736,-1.0567240988776088,-0.4185004296198487
1761914383851314400,9.300314453125,-2.330934764382243,-1.0248200173556805,-0.27314057624451815
1761914383861370600,9.31037060546875,-2.349098197582364,-1.074095797178149,-0.29596147986166177
1761914383871426600,9.320426513671874,-2.160203519189358,-1.1114107978329062,-0.4090052368480712
1761914383881482500,9.330482421875,-1.8759861800700426,-0.936292715857923,-0.38590668533332645
1761914383891537400,9.340537353515625,-1.7387866176009177,-0.6602952158123254,-0.22573935812227428
1761914383901593300,9.35059326171875,-1.7093734761118888,-0.37475422687381504,-0.0386954221624881
1761914383911649500,9.3606494140625,-1.6329571759074926,-0.06904314108788967,0.16578801663704215
1761914383921705500,9.37070556640625,-1.464113936418295,0.1704416145965457,0.37250147951096296
1761914383931761400,9.380761474609375,-1.287430504822731,0.39875352662056684,0.5615650116648525
1761914383941816600,9.390816650390626,-1.1762263843536376,0.6218909586161374,0.7055323877684772
1761914383951872500,9.40087255859375,-1.2151684016883373,0.8613762988224625,0.7786695201717316
1761914383961928700,9.4109287109375,-1.289935181120038,1.1459814682155847,0.8150858184210955
1761914383971984600,9.420984619140626,-1.231435061356425,1.3738073502883315,0.7796027093686163
1761914383982039600,9.43103955078125,-1.0019102664113044,1.5762001004189252,0.6683420364066958
1761914383992095500,9.441095458984375,-0.644376346668601,1.7428788553506136,0.5677987914878875
1761914384002151400,9.4511513671875,-0.22714520633220672,1.8597960927695034,0.43527386976629495
1761914384012207600,9.46120751953125,0.14147475557029246,1.9379644973382353,0.29074747154042124
1761914384022263600,9.471263671875,0.4512573285788297,2.011337776584923,0.16649295003600417
1761914384032318700,9.481318603515625,0.593469166252017,2.0284677750840783,0.06023322716653347
1761914384042374700,9.491374755859376,0.5736784241110086,1.986611623868346,-0.026975904404744504
1761914384052430300,9.501430419921874,0.5152683207184076,1.8677067197635768,-0.06305785613320768
1761914384062486500,9.511486572265625,0.4852174658477306,1.6691998711556195,-0.0326763080034405
1761914384072541400,9.52154150390625,0.47465515530109403,1.4506570734739304,0.04134980912879109
1761914384082597400,9.531597412109376,0.5389940642207861,1.258543140773475,0.1782882364436984
1761914384092653600,9.541653564453124,0.711460754904151,1.0503718072414399,0.36245639777146277
1761914384102709500,9.55170947265625,0.906988003179431,0.8107002968132495,0.5087152458131313
1761914384112765400,9.561765380859375,1.0624310783475637,0.6070782971486449,0.5939551231380552
1761914384122820600,9.571820556640626,1.1089449922412633,0.566965482468903,0.643857875752449
1761914384132876300,9.581876220703125,1.0206009383559227,0.6640323565140366,0.6569425443835556
1761914384142932500,9.591932373046875,0.9041688541054725,0.7234963528737426,0.5569304837319999
1761914384152988400,9.601988525390626,0.8391109832614659,0.6830559136748313,0.41310076253339645
1761914384163044400,9.61204443359375,0.8237018172055482,0.5803104094713926,0.30254290407858786
1761914384173099500,9.622099609375,0.813541657719016,0.48762891090363264,0.23247940696701405
1761914384183155500,9.632155517578125,0.8390794190794229,0.3488426637649536,0.16461524653062223
1761914384193211600,9.642211669921876,0.8367512683928012,0.1925508628129959,0.09328801309354602
1761914384203267600,9.652267578125,0.8264981699258088,0.08186433647722005,-0.020050123729556796
1761914384213322500,9.662322509765625,0.8104185572624206,0.02312105560749769,-0.12804580354616046
1761914384223378400,9.67237841796875,0.8164630981236696,0.026987667907774446,-0.25233240068927404
1761914384233434400,9.682434326171874,0.8044020734518766,0.09166939891576767,-0.33166276170946657
1761914384243490600,9.692490478515625,0.7254764207750558,0.1439586813405156,-0.4046672076437622
1761914384253546500,9.70254638671875,0.609122077935934,0.18517185847759246,-0.4622218632508069
1761914384263601700,9.7126015625,0.5229255574733018,0.245813374184072,-0.48344201714042573
1761914384273657600,9.72265771484375,0.544344777598977,0.2643494400888681,-0.4765899592885747
1761914384283713500,9.732713623046875,0.6032704292982817,0.25283582016676664,-0.46015371520724146
1761914384293769500,9.74276953125,0.6778571759879589,0.237762169675529,-0.44022283394318074
1761914384303825700,9.75282568359375,0.7960773126989602,0.16465806275904177,-0.42175862769819794
1761914384313880300,9.76288037109375,0.9166600868880748,0.04412263484299182,-0.4200085326278582
1761914384323936500,9.7729365234375,1.021194812595844,-0.06378215181976557,-0.3904469956440851
1761914384333992400,9.782992431640626,1.1564712980479002,-0.10281915396153926,-0.3650611369097605
1761914384344048400,9.79304833984375,1.2236112358629703,-0.13544716584384442,-0.325229513791576
1761914384354103600,9.803103515625,1.2247685892045497,-0.18769640851914882,-0.263495453608036
1761914384364159500,9.813159423828125,1.1814257065623999,-0.2381888706550002,-0.19809183806627986
1761914384374215700,9.823215576171876,1.0501935280650854,-0.2963850390359759,-0.11358791033308953
1761914384384271600,9.833271728515625,0.8721703722983598,-0.35556963393241164,-0.03773636787198484
1761914384394327300,9.843327392578125,0.7238917819321156,-0.4120350329980254,0.045398700927104796
1761914384404382500,9.853382568359375,0.6073007077276706,-0.5223559408918023,0.05905523289572447
1761914384414438400,9.8634384765625,0.5274561866402626,-0.6577499152436852,0.03297143675880507
1761914384424494600,9.87349462890625,0.44594636268913745,-0.7506178762942552,-0.02905395278781652
1761914384434550500,9.883550537109375,0.3700643154919147,-0.7935705905750393,-0.06968140245880931
1761914384444605700,9.893605712890626,0.3958043214261532,-0.8064654357224702,-0.07337388203488662
1761914384454661600,9.90366162109375,0.42552901308238505,-0.8479106680497527,-0.08839728190992027
1761914384464717600,9.913717529296875,0.4495873495399952,-0.9430451127275824,-0.12860365662463008
1761914384474773500,9.9237734375,0.4278700232505798,-1.037196683847904,-0.1881675331622362
1761914384484829400,9.933829345703124,0.32679508260786533,-1.0642807978674769,-0.2654077169701457
1761914384494884600,9.943884521484375,0.21812135739922522,-1.03225308996588,-0.2765810538209043
1761914384504940500,9.9539404296875,0.12126783384382724,-0.9982900300875306,-0.2699558087285608
1761914384514996500,9.96399658203125,0.061222238203883166,-0.9402975675851106,-0.25982936884853985
1761914384525052700,9.974052734375,0.09027239159941673,-0.8500140700697898,-0.26066861441796646
1761914384535108600,9.984108642578125,0.1697106699734926,-0.7903878688856959,-0.28657975740171965
1761914384545163500,9.99416357421875,0.17041911050379274,-0.8008437964484095,-0.25717297258824107
1761914384555219500,10.004219482421876,0.06913140389323234,-0.8686106339901685,-0.17365129735805093
1761914384565275400,10.014275390625,-0.11547288382947445,-0.9629869537770748,-0.0914416089087259
1761914384575331300,10.024331298828125,-0.2667395500957966,-1.0017688121140003,-0.007779262549232225
1761914384585386500,10.034386474609375,-0.3735509885638952,-0.9863578924924135,0.030489047641830982
1761914384595442400,10.0444423828125,-0.4834042789459228,-0.8962026975318789,0.05256979356629308
1761914384605498600,10.05449853515625,-0.6971738708764315,-0.8649380829572677,0.05057269689836539
1761914384615554600,10.064554443359375,-0.9851596226185559,-0.990610873761773,-0.09124727364671416
1761914384625610500,10.074610595703126,-0.9685632926046848,-1.0870394499033689,-0.10493173480187543
1761914384635665400,10.08466552734375,-0.8145733388543128,-1.0777487667277454,-0.06367215210665017
1761914384645721300,10.094721435546875,-0.8861118038892746,-1.1372671236231922,-0.20029267257880418
1761914384655777500,10.104777587890625,-1.038761448946595,-1.185496317002177,-0.41847259176485235
1761914384665833500,10.11483349609375,-1.091953525429964,-1.2435726583957671,-0.6071448961114511
1761914384675888600,10.124888671875,-0.9806851075530052,-1.2920990811556576,-0.6578541793357581
1761914384685944600,10.134944580078125,-0.905551832896471,-1.3438529415294527,-0.597130026847124
1761914384696000500,10.14500048828125,-0.997683004105091,-1.3197224166184662,-0.4844645285885781
1761914384706056700,10.155056640625,-1.201289513939619,-1.168735444076359,-0.3475215712290257
1761914384716112600,10.165112548828125,-1.4939678074121474,-0.9089850222155451,-0.2238308758861385
1761914384726167600,10.17516748046875,-1.7633640094965695,-0.5339125231727957,-0.09965392226311377
1761914384736223500,10.185223388671876,-1.992508865213394,-0.07091565696150064,0.12090311958412639
1761914384746279400,10.195279541015625,-2.160933587029576,0.39753596752434966,0.4785726210057735
1761914384756335600,10.205335693359375,-2.3968764323234555,0.9736951025351881,0.9290867300018668
1761914384766391600,10.2153916015625,-2.4642203682780264,1.4293801844283938,1.1866957559198141
1761914384776446500,10.225446533203124,-2.26952547917366,1.7452008685573934,1.168304213052243
1761914384786506000,10.235506103515625,-1.9330016142338513,1.7779899162203072,0.8453346070166676
1761914384796562000,10.24556201171875,-1.4835679939508437,1.729628620894253,0.47325314301606264
1761914384806617900,10.255617919921875,-0.8910591971635818,1.7778668743625283,0.28613924709260463
1761914384816673000,10.265673095703125,-0.33725042564868923,1.6877020347908138,0.1085266083555296
1761914384826729000,10.27572900390625,0.17780337553620337,1.5441092641532421,-0.02074654502850026
1761914384836785200,10.28578515625,0.5029664730280637,1.4599775672659276,-0.18969388421298936
1761914384846841000,10.295841064453125,0.5695031842529773,1.5344050317406654,-0.3874597965268418
1761914384856897000,10.30589697265625,0.3774982648849487,1.7196671988502144,-0.5367913300121203
1761914384866952000,10.315951904296876,0.2203928094625473,1.9058523260235785,-0.6482691893886774
1761914384877008000,10.3260078125,0.13521452613174914,1.8569836656972765,-0.7329683839656412
1761914384887064000,10.33606396484375,0.1362052907347679,1.685165502050519,-0.7370306649684906
1761914384897120000,10.3461201171875,0.3106137631356716,1.583248265364766,-0.6697754302106798
1761914384907175200,10.356175048828124,0.5233604417592287,1.5135329241037367,-0.596301028677076
1761914384917231000,10.366231201171875,0.7242512628942728,1.5151163939028978,-0.4801025339867919
1761914384927287000,10.376287109375,0.783380912733078,1.5035802698880434,-0.36592546212151644
1761914384937343200,10.38634326171875,0.8386568097531795,1.4791928476065397,-0.2736175461065024
1761914384947399000,10.39639892578125,0.7803864070922136,1.448943839815259,-0.18353662195857612
1761914384957454000,10.4064541015625,0.6106465110242366,1.382194947144389,-0.05530121412444859
1761914384967510000,10.416510009765625,0.45131811885535716,1.3723007451176643,0.0912004662297666
1761914384977566000,10.42656591796875,0.377331676146388,1.3748428308159113,0.17853625638801604
1761914384987622100,10.4366220703125,0.44156420208215713,1.37960083899796,0.19024455863200126
1761914384997677000,10.446677001953125,0.5714578254520892,1.3109504966199397,0.15339757734779266
1761914385007733000,10.45673291015625,0.6878694514364003,1.2232692905575036,0.13752864829301834
1761914385017789200,10.4667890625,0.7807435499668121,1.0703425821244716,0.16045827298164367
1761914385027844900,10.476844970703125,0.8523024732679129,0.8515373341143131,0.19407726866267622
1761914385037900800,10.48690087890625,0.9029963031947612,0.5570055217295885,0.2363816751025617
1761914385047956000,10.4969560546875,0.9715905314713716,0.2795002474695444,0.26993790774568915
1761914385058012000,10.507011962890624,1.0658107839137314,0.10074234768748283,0.2421781229542568
1761914385068068000,10.517068115234375,1.1044272225558758,0.015301614028215407,0.19416633518561718
1761914385078124000,10.5271240234375,1.113793016794324,0.04262625880539417,0.12563497954476624
1761914385088180000,10.537179931640624,1.0643272673577069,0.1797755523920059,0.09869049319159238
1761914385098235000,10.54723486328125,0.9399147057473659,0.2679839971989393,0.081737129900977
1761914385108290800,10.557290771484375,0.7896697837442159,0.29997604926526544,0.05308339194450527
1761914385118347000,10.567346923828126,0.6599316431969404,0.2947626985311508,0.003404218952916562
1761914385128403000,10.57740283203125,0.6076350542485713,0.23147943614423275,-0.015910101315379142
1761914385138458000,10.5874580078125,0.7076701304495334,0.13454758665561675,-0.05718483591396361
1761914385148514000,10.59751416015625,0.9848638545423746,0.03642448155581951,-0.11135825158488005
1761914385158570000,10.607570068359376,1.3681512242227791,-0.035166005927324294,-0.15597835108861327
1761914385168626200,10.617626220703125,1.629049062553048,-0.14141396529376507,-0.20797237689383327
1761914385178682000,10.62768212890625,1.6964976279258728,-0.29921850889623164,-0.2369063565637916
1761914385188737000,10.637737060546876,1.6674164948701857,-0.4856102645576,-0.24082827924787997
1761914385198793000,10.64779296875,1.6234458357185124,-0.6690192050158977,-0.2030477799732238
1761914385208849000,10.657848876953125,1.5504238541275261,-0.8179398926779627,-0.17389460459463296
1761914385218905000,10.667905029296875,1.2052151629507541,-0.8053305864736438,-0.11960687836166471
1761914385228960000,10.6779599609375,0.8465472707420587,-0.741681121122837,0.008697685718536376
1761914385239016000,10.688015869140624,0.5819950015574693,-0.7081687276214361,0.02268576946277171
1761914385249072000,10.698072021484375,0.4844254386872053,-0.6004694004029035,0.03551445403881371
1761914385259128000,10.708128173828126,0.43265433491766453,-0.4859244450733065,0.09441672486253082
1761914385269184000,10.71818408203125,0.3020435031890869,-0.4726131280794739,0.24391681984774766
1761914385279239000,10.728239013671875,0.1588923388391733,-0.6105336982995271,0.36122955939024687
1761914385289294800,10.738294921875,0.05176759663820266,-0.7701476294115185,0.403850265237689
1761914385299351000,10.74835107421875,0.050993689656257626,-0.756715024125576,0.5166843980614095
1761914385309407000,10.758406982421874,0.2724579277426004,-0.7102513791143894,0.4773001168519258
1761914385319462100,10.768462158203125,0.7363426827043295,-0.6927890799209475,0.23387926382757723
1761914385329518000,10.77851806640625,1.2366156788647173,-0.8522776310876011,-0.19016667109020052
1761914385339574000,10.788573974609376,1.6250181996017694,-1.0000415499299764,-0.5624477127835155
1761914385349630200,10.798630126953125,1.1982336335003376,-0.716430652271211,-0.3446576331652701
1761914385359686000,10.808685791015625,0.5768956325918436,-0.7366092246860265,-0.28046792345792054
1761914385369741000,10.818740966796875,0.11844868476986885,-0.8792880953490734,-0.3724154086627066
