time,seconds_elapsed,z,y,x
1761914374670393900,0.119393798828125,0.232768252491951,0.24649129807949066,-0.5148845314979553
1761914374680449000,0.129448974609375,0.23349662125110626,0.1884399652481079,-0.5813969969749451
1761914374690505000,0.1395048828125,0.23038798570632935,0.19548889994621277,-0.6352522373199463
1761914374700561000,0.149560791015625,0.2165890783071518,0.2342192530632019,-0.6651818752288818
1761914374710615800,0.15961572265625,0.19304977357387543,0.2743120491504669,-0.6611673831939697
1761914374720672000,0.169672119140625,0.17166085541248322,0.27179884910583496,-0.6218401789665222
1761914374730728000,0.17972802734375,0.15227055549621582,0.20048999786376953,-0.5489436388015747
1761914374740783900,0.189783935546875,0.1527930647134781,0.14769895374774933,-0.46704426407814026
1761914374750839000,0.199839111328125,0.17816880345344543,0.08000406622886658,-0.40796735882759094
1761914374760895000,0.20989501953125,0.21474198997020721,0.03687337413430214,-0.344531387090683
1761914374770950400,0.219950439453125,0.30330944061279297,0.047109734266996384,-0.2503439486026764
1761914374781006300,0.23000634765625,0.42534106969833374,0.08162882924079895,-0.13207216560840607
1761914374791061500,0.2400615234375,0.5273494124412537,0.13064956665039062,-0.019431840628385544
1761914374801117400,0.250117431640625,0.597489595413208,0.19230520725250244,0.06145714968442917
1761914374811173400,0.26017333984375,0.6338411569595337,0.2580314874649048,0.1136857196688652
1761914374821229600,0.2702294921875,0.6489359736442566,0.31206753849983215,0.14127978682518005
1761914374831284200,0.2802841796875,0.6364099383354187,0.317062646150589,0.14464077353477478
1761914374841340400,0.29034033203125,0.6008349061012268,0.28442585468292236,0.13020430505275726
1761914374851396400,0.300396240234375,0.5540525317192078,0.23532146215438843,0.09126719832420349
1761914374861451300,0.310451171875,0.5096296668052673,0.17800943553447723,0.045424338430166245
1761914374871507500,0.320507568359375,0.47874748706817627,0.13513420522212982,0.006230125203728676
1761914374881563400,0.3305634765625,0.44603773951530457,0.09539210796356201,-0.029326803982257843
1761914374891619300,0.340619384765625,0.39740750193595886,0.07919205725193024,-0.06610443443059921
1761914374901674200,0.35067431640625,0.3172551393508911,0.07666312158107758,-0.10488379001617432
1761914374911730200,0.360730224609375,0.2342081516981125,0.0862821713089943,-0.1500072181224823
1761914374921786400,0.370786376953125,0.15565554797649384,0.11049430072307587,-0.1904103010892868
1761914374931842300,0.38084228515625,0.09192489832639694,0.14554233849048615,-0.20388199388980865
1761914374941897500,0.3908974609375,0.03599505126476288,0.18644583225250244,-0.1900244951248169
1761914374951953400,0.400953369140625,-0.00804632343351841,0.24603670835494995,-0.15001505613327026
1761914374962009300,0.41100927734375,-0.05183747783303261,0.3124530017375946,-0.09487643837928772
1761914374972065500,0.4210654296875,-0.08436856418848038,0.38267409801483154,-0.030344942584633827
1761914374982120200,0.4311201171875,-0.1018998846411705,0.46053799986839294,0.0308931153267622
1761914374992176400,0.44117626953125,-0.10899169743061066,0.517680287361145,0.08554575592279434
1761914375002232300,0.451232421875,-0.10895441472530365,0.5580623149871826,0.1417381763458252
1761914375012288300,0.461288330078125,-0.10361673682928085,0.5852575898170471,0.19628319144248962
1761914375022343400,0.471343505859375,-0.1042361855506897,0.5831419825553894,0.24906492233276367
1761914375032399400,0.4813994140625,-0.10234241187572479,0.5722336769104004,0.2904491126537323
1761914375042455600,0.49145556640625,-0.10348144918680191,0.5516551733016968,0.3238651156425476
1761914375052511500,0.501511474609375,-0.09281478822231293,0.5022197365760803,0.35132211446762085
1761914375062566400,0.51156640625,-0.0800262913107872,0.42284610867500305,0.3844299912452698
1761914375072622300,0.521622314453125,-0.06941366195678711,0.3058115839958191,0.4207920730113983
1761914375082678300,0.53167822265625,-0.0666612833738327,0.1603718250989914,0.4688677191734314
1761914375092733400,0.5417333984375,-0.05817451700568199,0.05307307466864586,0.516628623008728
1761914375102789400,0.551789306640625,-0.023737981915473938,0.015514780767261982,0.5274248123168945
1761914375112845300,0.56184521484375,0.01422189362347126,0.035378359258174896,0.5156322717666626
1761914375122901500,0.571901611328125,0.04905177652835846,0.0685054212808609,0.48765233159065247
1761914375132956200,0.5819560546875,0.0855950191617012,0.09676419198513031,0.44708478450775146
1761914375143012400,0.592012451171875,0.12334106862545013,0.12938205897808075,0.39021697640419006
1761914375153068300,0.602068359375,0.15874314308166504,0.17596331238746643,0.32679128646850586
1761914375163124200,0.612124267578125,0.1897553950548172,0.24848198890686035,0.2506885230541229
1761914375173179400,0.622179443359375,0.210645392537117,0.3349580764770508,0.1732579916715622
1761914375183235300,0.6322353515625,0.2171163409948349,0.40540799498558044,0.11242631822824478
1761914375193291500,0.64229150390625,0.21139420568943024,0.4785841405391693,0.0686168521642685
1761914375203347500,0.652347412109375,0.19610953330993652,0.5487509965896606,0.03766878694295883
1761914375213402400,0.66240234375,0.18045754730701447,0.5979843139648438,0.019090944901108742
1761914375223458300,0.672458251953125,0.17738479375839233,0.6064739227294922,0.020691238343715668
1761914375233514200,0.68251416015625,0.16863633692264557,0.548507809638977,0.04228426516056061
1761914375243570400,0.6925703125,0.16150972247123718,0.3964618146419525,0.08803017437458038
1761914375253625300,0.702625244140625,0.1458592563867569,0.1738908737897873,0.1590941995382309
1761914375263681500,0.712681640625,0.13681170344352722,-0.06503089517354965,0.24241438508033752
1761914375273737500,0.722737548828125,0.14690549671649933,-0.2647238075733185,0.3178895115852356
1761914375283793400,0.73279345703125,0.14156000316143036,-0.42279601097106934,0.37763166427612305
1761914375293848300,0.742848388671875,0.129613995552063,-0.5735335946083069,0.4244600236415863
1761914375303904300,0.752904296875,0.11374130100011826,-0.7185767889022827,0.4466550648212433
1761914375313960200,0.762960205078125,0.10316312313079834,-0.8129394054412842,0.44410979747772217
1761914375324015400,0.773015380859375,0.09869246929883957,-0.8298885226249695,0.42187613248825073
1761914375334071300,0.7830712890625,0.09691638499498367,-0.7994022965431213,0.38814955949783325
1761914375344127500,0.79312744140625,0.10488136857748032,-0.7210816144943237,0.34796592593193054
1761914375354183400,0.803183349609375,0.11629441380500793,-0.5866823196411133,0.2941104769706726
1761914375364238600,0.813238525390625,0.1276397407054901,-0.4088364541530609,0.24021315574645996
1761914375374294300,0.823294189453125,0.17265263199806213,-0.24384722113609314,0.17749814689159393
1761914375384350200,0.83335009765625,0.2721664607524872,-0.09010905772447586,0.11169009655714035
1761914375394406400,0.843406494140625,0.3899211883544922,0.05187445506453514,0.044735170900821686
1761914375404461300,0.85346142578125,0.49273332953453064,0.11557620018720627,-0.009212746284902096
1761914375414517500,0.863517578125,0.5450190305709839,0.0877077579498291,-0.055321455001831055
1761914375424573400,0.873573486328125,0.5156315565109253,-0.04908470809459686,-0.08757686614990234
1761914375434629400,0.88362939453125,0.4260549545288086,-0.2523682713508606,-0.10459721833467484
1761914375444684300,0.893684326171875,0.2927698493003845,-0.4747169315814972,-0.12691637873649597
1761914375454740200,0.903740234375,0.1480114609003067,-0.6877567172050476,-0.1459905505180359
1761914375464796400,0.91379638671875,0.0006728653097525239,-0.8772448897361755,-0.16690568625926971
1761914375474852400,0.923852294921875,-0.14293403923511505,-1.0097187757492065,-0.1885339915752411
1761914375484907300,0.9339072265625,-0.2661478817462921,-1.0759071111679077,-0.21241828799247742
1761914375494963500,0.94396337890625,-0.3520795404911041,-1.1122329235076904,-0.23600877821445465
1761914375505019400,0.954019287109375,-0.4057270586490631,-1.0972851514816284,-0.2764078676700592
1761914375515075300,0.964075439453125,-0.4343530237674713,-1.0246548652648926,-0.32160648703575134
1761914375525130200,0.974130126953125,-0.42681625485420227,-0.9007158875465393,-0.36094245314598083
1761914375535186200,0.984186279296875,-0.4012925326824188,-0.761691153049469,-0.39200329780578613
1761914375545242400,0.994242431640625,-0.3746989965438843,-0.6051231622695923,-0.3979235291481018
1761914375555298300,1.00429833984375,-0.3556012809276581,-0.44116851687431335,-0.3850115239620209
1761914375565353500,1.014353515625,-0.3402841091156006,-0.27717506885528564,-0.34947991371154785
1761914375575409400,1.024409423828125,-0.3256995379924774,-0.11178500205278397,-0.2973029315471649
1761914375585465300,1.03446533203125,-0.3042544424533844,0.04197819530963898,-0.2429712563753128
1761914375595521500,1.044521484375,-0.26835453510284424,0.1860506534576416,-0.20366741716861725
1761914375605576200,1.054576171875,-0.21915103495121002,0.3264663517475128,-0.168473482131958
1761914375615632400,1.06463232421875,-0.16603581607341766,0.4595003128051758,-0.12483943998813629
1761914375625688300,1.074688232421875,-0.10451039671897888,0.5671029686927795,-0.05841328203678131
1761914375635743500,1.084743408203125,-0.05420851334929466,0.6104112863540649,0.026951543986797333
1761914375645799400,1.09479931640625,-0.01108794379979372,0.606894850730896,0.11094391345977783
1761914375655855400,1.10485546875,0.02438708022236824,0.5851407647132874,0.17165838181972504
1761914375665911600,1.11491162109375,0.057865411043167114,0.560737669467926,0.1992921382188797
1761914375675966500,1.124966552734375,0.09188494831323624,0.5409826040267944,0.19394686818122864
1761914375686022400,1.1350224609375,0.14049455523490906,0.5078723430633545,0.18889085948467255
1761914375696078300,1.145078369140625,0.19691932201385498,0.47095584869384766,0.18160510063171387
1761914375706134300,1.15513427734375,0.26263228058815,0.4264349937438965,0.17146138846874237
1761914375716189400,1.165189453125,0.33274203538894653,0.37788233160972595,0.15969127416610718
1761914375726245400,1.175245361328125,0.39797112345695496,0.294712096452713,0.14635896682739258
1761914375736301300,1.18530126953125,0.43703901767730713,0.19773706793785095,0.11811066418886185
1761914375746357500,1.195357421875,0.4825686812400818,0.13123607635498047,0.0687340646982193
1761914375756412200,1.205412109375,0.5363501310348511,0.13235220313072205,-0.013448423705995083
1761914375766468900,1.21546875,0.5838150978088379,0.14283254742622375,-0.11241281777620316
1761914375776524800,1.22552490234375,0.6175482869148254,0.14885957539081573,-0.20494979619979858
1761914375786580700,1.235580810546875,0.6489149928092957,0.1612888127565384,-0.3013503849506378
1761914375796636000,1.245635986328125,0.7040864825248718,0.18050695955753326,-0.3894025981426239
1761914375806691600,1.255691650390625,0.7747710347175598,0.1798691302537918,-0.4625553488731384
1761914375816747800,1.265747802734375,0.8342635631561279,0.17193995416164398,-0.5125924348831177
1761914375826803700,1.2758037109375,0.8782856464385986,0.1589258909225464,-0.5330641269683838
1761914375836858600,1.285858642578125,0.8984842300415039,0.14050374925136566,-0.5163107514381409
1761914375846914800,1.295914794921875,0.9159524440765381,0.12893711030483246,-0.4794198274612427
1761914375856970800,1.305970703125,0.9328562617301941,0.12086330354213715,-0.431331992149353
1761914375867026700,1.316026611328125,0.9541351795196533,0.11408555507659912,-0.37191393971443176
1761914375877081900,1.326081787109375,0.9690138101577759,0.10665545612573624,-0.3062639534473419
1761914375887137500,1.336137451171875,0.9633335471153259,0.07448367029428482,-0.23105335235595703
1761914375897193700,1.34619384765625,0.9283756613731384,0.030178437009453773,-0.14895299077033997
1761914375907249700,1.356249755859375,0.8534191250801086,-0.04409073293209076,-0.05444512516260147
1761914375917304800,1.366304931640625,0.7449726462364197,-0.15353697538375854,0.06095734238624573
1761914375927360800,1.37636083984375,0.6101674437522888,-0.2887195646762848,0.1751534342765808
1761914375937416700,1.386416748046875,0.4841730296611786,-0.4165870249271393,0.2387697696685791
1761914375947473000,1.396472900390625,0.3825066089630127,-0.4916791021823883,0.2385476678609848
1761914375957527800,1.40652783203125,0.32469817996025085,-0.5134797096252441,0.1657714992761612
1761914375967583700,1.416583740234375,0.30009403824806213,-0.4738316237926483,0.03463372215628624
1761914375977639700,1.4266396484375,0.30516862869262695,-0.3791064918041229,-0.13511791825294495
1761914375987695600,1.436695556640625,0.3461025059223175,-0.24413959681987762,-0.31513217091560364
1761914375997750800,1.446750732421875,0.41937384009361267,-0.09416604787111282,-0.4750962257385254
1761914376007806700,1.456806640625,0.4939253032207489,0.029381992295384407,-0.5753796696662903
1761914376017863000,1.46686279296875,0.5512290000915527,0.11299697309732437,-0.6091729402542114
1761914376027918800,1.4769189453125,0.582828164100647,0.15277820825576782,-0.5741865038871765
1761914376037973800,1.486973876953125,0.5921663045883179,0.15653494000434875,-0.5021420121192932
1761914376048029700,1.49702978515625,0.5833973288536072,0.12560684978961945,-0.4225153923034668
1761914376058085600,1.507085693359375,0.5668870210647583,0.08121270686388016,-0.369590699672699
1761914376068141800,1.517141845703125,0.5525062084197998,0.04638814553618431,-0.3732232451438904
1761914376078196700,1.52719677734375,0.5498403310775757,0.037574402987957,-0.42257192730903625
1761914376088252700,1.537252685546875,0.5507210493087769,0.04430527612566948,-0.500417947769165
1761914376098308900,1.547308837890625,0.5590472221374512,0.05042541027069092,-0.5805559158325195
1761914376108364800,1.55736474609375,0.5900818705558777,0.06333880871534348,-0.6350404620170593
1761914376118419700,1.567419677734375,0.6369462609291077,0.0747915729880333,-0.6481941938400269
1761914376128475600,1.5774755859375,0.6872022151947021,0.07692582905292511,-0.6311593055725098
1761914376138531600,1.587531494140625,0.7239672541618347,0.0773758813738823,-0.598935604095459
1761914376148587800,1.597587890625,0.7437971234321594,0.0681895762681961,-0.5598342418670654
1761914376158642700,1.607642578125,0.7571219801902771,0.06463374942541122,-0.5262594819068909
1761914376168699000,1.617698974609375,0.7529001235961914,0.0823882445693016,-0.5010443925857544
1761914376178754800,1.6277548828125,0.7436259388923645,0.13371482491493225,-0.4669610261917114
1761914376188810800,1.637810791015625,0.7307112216949463,0.2048656940460205,-0.4219647943973541
1761914376198865700,1.64786572265625,0.726507842540741,0.28709179162979126,-0.36309024691581726
1761914376208921600,1.657921630859375,0.7227482199668884,0.37037497758865356,-0.2988806366920471
1761914376218977800,1.667977783203125,0.7268094420433044,0.45066767930984497,-0.24042463302612305
1761914376229033700,1.67803369140625,0.7319110035896301,0.5052057504653931,-0.18021801114082336
1761914376239089000,1.6880888671875,0.7359468340873718,0.5265706777572632,-0.11514776945114136
1761914376249144800,1.698144775390625,0.7302191257476807,0.4917464256286621,-0.03617439419031143
1761914376259200800,1.70820068359375,0.7094533443450928,0.4215433597564697,0.05080481618642807
1761914376269256700,1.718256591796875,0.6755757927894592,0.3411169648170471,0.13915731012821198
1761914376279311600,1.7283115234375,0.6270805597305298,0.27122926712036133,0.2030520886182785
1761914376289367600,1.738367431640625,0.5747097134590149,0.23260411620140076,0.25177356600761414
1761914376299423700,1.748423828125,0.5061416029930115,0.22184397280216217,0.28477007150650024
1761914376309479700,1.758479736328125,0.41871848702430725,0.2136819213628769,0.3279084861278534
1761914376319534800,1.768534912109375,0.3023700416088104,0.2006082832813263,0.3912161588668823
1761914376329590800,1.7785908203125,0.15879052877426147,0.14464594423770905,0.4792101979255676
1761914376339646700,1.788646728515625,0.00188625103328377,0.09173455834388733,0.5645095705986023
1761914376349701600,1.79870166015625,-0.126978799700737,0.11154847592115402,0.6141141057014465
1761914376359757600,1.808757568359375,-0.1983858346939087,0.17482756078243256,0.6160969734191895
1761914376369813800,1.818813720703125,-0.23245619237422943,0.27010613679885864,0.5730762481689453
1761914376379869700,1.82886962890625,-0.23410485684871674,0.3775807321071625,0.514883279800415
1761914376389924900,1.8389248046875,-0.19900599122047424,0.4346775710582733,0.4611993134021759
1761914376399980800,1.848980712890625,-0.15071292221546173,0.43161946535110474,0.42209333181381226
1761914376410036700,1.85903662109375,-0.10601842403411865,0.3961714506149292,0.38238054513931274
1761914376420093000,1.869093017578125,-0.08300183713436127,0.3619979918003082,0.3244142532348633
1761914376430147600,1.879147705078125,-0.06425318121910095,0.3375706970691681,0.2425132840871811
1761914376440203800,1.889203857421875,-0.05442439019680023,0.2923218011856079,0.1659134179353714
1761914376450259700,1.899259765625,-0.05886920541524887,0.22153019905090332,0.11744095385074615
1761914376460315600,1.909315673828125,-0.09497618675231934,0.10768906772136688,0.11910483986139297
1761914376470371800,1.919371826171875,-0.14996673166751862,-0.03390135243535042,0.16408270597457886
1761914376480426800,1.9294267578125,-0.21986354887485504,-0.18462000787258148,0.23820927739143372
1761914376490482700,1.939482666015625,-0.2778717279434204,-0.31546562910079956,0.31322014331817627
1761914376500539000,1.949538818359375,-0.3385702073574066,-0.4447871446609497,0.37698447704315186
1761914376510593500,1.959593505859375,-0.3922712504863739,-0.5574401617050171,0.4135190546512604
1761914376520649700,1.969649658203125,-0.42245134711265564,-0.6119433641433716,0.4099642336368561
1761914376530705700,1.97970556640625,-0.4232114255428314,-0.6041850447654724,0.3718019425868988
1761914376540761600,1.98976171875,-0.388183057308197,-0.528584361076355,0.2999873459339142
1761914376550817800,1.99981787109375,-0.32278940081596375,-0.4148130416870117,0.21111609041690826
1761914376560872700,2.009872802734375,-0.2260650396347046,-0.2423805445432663,0.10847428441047668
1761914376570929000,2.019928955078125,-0.0785464197397232,-0.007968831807374954,-0.012024431489408016
1761914376580984800,2.02998486328125,0.10225565731525421,0.270132839679718,-0.1238257884979248
1761914376591040800,2.040040771484375,0.2741773724555969,0.4897056818008423,-0.20572809875011444
1761914376601095700,2.050095703125,0.41211608052253723,0.6195550560951233,-0.25411954522132874
1761914376611151600,2.060151611328125,0.510114848613739,0.6679409146308899,-0.27985474467277527
1761914376621207800,2.070207763671875,0.5639965534210205,0.6463366150856018,-0.29472124576568604
1761914376631263700,2.080263671875,0.5655947327613831,0.5510069131851196,-0.3006174862384796
1761914376641319000,2.09031884765625,0.5167343616485596,0.3936539888381958,-0.315910279750824
1761914376651374800,2.100374755859375,0.4309896230697632,0.21567758917808533,-0.35049140453338623
1761914376661430800,2.1104306640625,0.29251089692115784,0.06100286915898323,-0.39852383732795715
1761914376671487000,2.120487060546875,0.12437780201435089,-0.06029985472559929,-0.44361063838005066
1761914376681541600,2.130541748046875,-0.07120506465435028,-0.15319812297821045,-0.47504568099975586
1761914376691597800,2.140597900390625,-0.24598246812820435,-0.23191584646701813,-0.4794207215309143
1761914376701653800,2.15065380859375,-0.39186403155326843,-0.2982146441936493,-0.4711209237575531
1761914376711709700,2.160709716796875,-0.5014999508857727,-0.3394300043582916,-0.4543645977973938
1761914376721764900,2.170764892578125,-0.5800306797027588,-0.36096057295799255,-0.438747376203537
1761914376731820800,2.18082080078125,-0.6187930107116699,-0.3654397428035736,-0.41926872730255127
1761914376741876700,2.190876708984375,-0.6102511286735535,-0.35340413451194763,-0.4166177213191986
1761914376751933000,2.200932861328125,-0.5639427304267883,-0.31376537680625916,-0.4278559982776642
1761914376761987600,2.210987548828125,-0.4908859431743622,-0.24438343942165375,-0.46188047528266907
1761914376772043500,2.22104345703125,-0.40798890590667725,-0.1556951254606247,-0.49085408449172974
1761914376782099500,2.231099365234375,-0.3310706317424774,-0.06490369141101837,-0.5000472664833069
1761914376792155400,2.2411552734375,-0.27822980284690857,0.013218539766967297,-0.46376627683639526
1761914376802210600,2.25121044921875,-0.24827593564987183,0.09650594741106033,-0.3828689157962799
1761914376812266500,2.2612666015625,-0.22929532825946808,0.19796866178512573,-0.2593861222267151
1761914376822322700,2.27132275390625,-0.20876793563365936,0.30843448638916016,-0.11339142918586731
1761914376832378600,2.281378662109375,-0.18687914311885834,0.41416624188423157,0.05366120859980583
1761914376842433500,2.29143359375,-0.16470345854759216,0.47339969873428345,0.21523752808570862
1761914376852489500,2.301489501953125,-0.14265301823616028,0.4830664396286011,0.35796430706977844
1761914376862545400,2.31154541015625,-0.12426712363958359,0.4481052756309509,0.4677688479423523
1761914376872601600,2.3216015625,-0.10015646368265152,0.357425719499588,0.5347108840942383
1761914376882656500,2.331656494140625,-0.06807484477758408,0.23643596470355988,0.5626413822174072
1761914376892712700,2.341712646484375,-0.038529474288225174,0.11340218782424927,0.5457133054733276
1761914376902768600,2.3517685546875,-0.012141275219619274,-0.009853438474237919,0.5024153590202332
1761914376912824300,2.36182421875,0.02449689619243145,-0.13141529262065887,0.4593842327594757
1761914376922879500,2.37187939453125,0.0815025046467781,-0.2522692084312439,0.42298102378845215
1761914376932935400,2.381935302734375,0.1590079367160797,-0.35071587562561035,0.4018304646015167
1761914376942991600,2.39199169921875,0.24884168803691864,-0.4352807104587555,0.3960218131542206
1761914376953047600,2.402047607421875,0.35447198152542114,-0.5039092898368835,0.3784201741218567
1761914376963103500,2.412103515625,0.4613194763660431,-0.5407439470291138,0.3474625051021576
1761914376973158700,2.42215869140625,0.5698294639587402,-0.5496956706047058,0.3006499707698822
1761914376983214600,2.432214599609375,0.6630162000656128,-0.531913161277771,0.2430572658777237
1761914376993270300,2.442270263671875,0.7523173093795776,-0.47894954681396484,0.18421685695648193
1761914377003326500,2.452326416015625,0.8117094039916992,-0.4295335114002228,0.15158239006996155
1761914377013381400,2.46238134765625,0.8142596483230591,-0.3817068636417389,0.15005800127983093
1761914377023437600,2.4724375,0.7994831204414368,-0.31618866324424744,0.1442580372095108
1761914377033493500,2.482493408203125,0.7655930519104004,-0.23625682294368744,0.1331806182861328
1761914377043549400,2.492549560546875,0.7045958042144775,-0.16755759716033936,0.11068761348724365
1761914377053604600,2.5026044921875,0.6185528039932251,-0.10473522543907166,0.08890748769044876
1761914377063660500,2.51266064453125,0.5518544912338257,-0.060189682990312576,0.06108681112527847
1761914377073716500,2.522716552734375,0.5172733664512634,-0.0206111129373312,0.008852100931107998
1761914377083772400,2.5327724609375,0.5543648600578308,-0.014003376476466656,-0.09645135700702667
1761914377093827600,2.54282763671875,0.6463568210601807,-0.04589712619781494,-0.2579616904258728
1761914377103883500,2.552883544921875,0.7646266222000122,-0.10641591250896454,-0.46340546011924744
1761914377113939500,2.562939453125,0.8542007207870483,-0.1650584489107132,-0.6745579242706299
1761914377123995600,2.57299560546875,0.8758751749992371,-0.20743228495121002,-0.8328547477722168
1761914377134050600,2.583050537109375,0.8373810052871704,-0.21048852801322937,-0.9070578217506409
1761914377144106800,2.593106689453125,0.7199515104293823,-0.19143468141555786,-0.8808359503746033
1761914377154162400,2.603162353515625,0.5185177326202393,-0.14795085787773132,-0.769451916217804
1761914377164218400,2.61321826171875,0.26626864075660706,-0.06037118658423424,-0.6097995638847351
1761914377174273500,2.6232734375,0.008695180527865887,0.06960305571556091,-0.41622501611709595
1761914377184329500,2.63332958984375,-0.20792965590953827,0.21279911696910858,-0.21573424339294434
1761914377194385400,2.643385498046875,-0.35132062435150146,0.3635987341403961,-0.023184766992926598
1761914377204441600,2.653441650390625,-0.41799819469451904,0.4878450632095337,0.1406482309103012
1761914377214497500,2.66349755859375,-0.4244441092014313,0.583682656288147,0.24975846707820892
1761914377224552400,2.673552490234375,-0.36608609557151794,0.6792354583740234,0.2816218137741089
1761914377234608400,2.6836083984375,-0.2676183879375458,0.7406567335128784,0.23936302959918976
1761914377244664300,2.693664306640625,-0.1471361666917801,0.7618513107299805,0.14851203560829163
1761914377254720500,2.703720458984375,-0.014967748895287514,0.7677395343780518,0.044100936502218246
1761914377264775400,2.713775390625,0.11034552752971649,0.7470079064369202,-0.028471941128373146
1761914377274831600,2.72383154296875,0.21172913908958435,0.7052551507949829,-0.05145448446273804
1761914377284887600,2.733887451171875,0.27223339676856995,0.6384412050247192,-0.024864133447408676
1761914377294943500,2.743943603515625,0.28503599762916565,0.5840155482292175,0.028099749237298965
1761914377304998400,2.753998291015625,0.27922627329826355,0.551774263381958,0.10217488557100296
1761914377315054300,2.764054443359375,0.2915513813495636,0.5248196125030518,0.17311136424541473
1761914377325110500,2.774110595703125,0.3160599172115326,0.48613470792770386,0.2248344123363495
1761914377335166500,2.78416650390625,0.3260299861431122,0.43808090686798096,0.2591444253921509
1761914377345221600,2.7942216796875,0.3161601126194,0.37203696370124817,0.27736082673072815
1761914377355277600,2.804277587890625,0.27745798230171204,0.3038318157196045,0.28465309739112854
1761914377365333500,2.81433349609375,0.18976226449012756,0.2510344386100769,0.29099729657173157
1761914377375389700,2.8243896484375,0.07814465463161469,0.20790055394172668,0.2916809320449829
1761914377385445600,2.834445556640625,-0.026664933189749718,0.16364052891731262,0.28481796383857727
1761914377395500500,2.84450048828125,-0.0895320475101471,0.12318046391010284,0.2577809989452362
1761914377405556500,2.854556396484375,-0.10855581611394882,0.07774760574102402,0.21488884091377258
1761914377415612400,2.8646123046875,-0.08090315014123917,0.036466747522354126,0.1488477736711502
1761914377425668400,2.87466845703125,-0.014343677088618279,-0.0064077298156917095,0.07371629029512405
1761914377435723500,2.8847236328125,0.07996418327093124,-0.032984744757413864,-0.010702183470129967
1761914377445779500,2.894779541015625,0.18389730155467987,-0.01161965262144804,-0.10223396122455597
1761914377455835600,2.904835693359375,0.27412304282188416,0.0454055517911911,-0.17473505437374115
1761914377465891600,2.9148916015625,0.3250211179256439,0.1267320066690445,-0.2147064208984375
1761914377475946500,2.924946533203125,0.3392549157142639,0.19511665403842926,-0.23696884512901306
1761914377486002400,2.93500244140625,0.3227132558822632,0.24521318078041077,-0.2484922558069229
1761914377496058400,2.945058349609375,0.28831133246421814,0.2845856249332428,-0.25670358538627625
1761914377506114600,2.955114501953125,0.22752495110034943,0.3109952211380005,-0.25055480003356934
1761914377516169500,2.96516943359375,0.15610963106155396,0.312193900346756,-0.2261892706155777
1761914377526225700,2.9752255859375,0.08292234688997269,0.29712507128715515,-0.1844715178012848
1761914377536281600,2.985281494140625,0.018054669722914696,0.28021639585494995,-0.13909390568733215
1761914377546337500,2.995337646484375,-0.03758242353796959,0.282395601272583,-0.10134899616241455
1761914377556393700,3.005393798828125,-0.07136435061693192,0.2877008616924286,-0.07347795367240906
1761914377566448400,3.015448486328125,-0.09373480826616287,0.27632221579551697,-0.06935364753007889
1761914377576504600,3.025504638671875,-0.1047656238079071,0.2590646743774414,-0.08068247139453888
1761914377586560500,3.035560546875,-0.10701781511306763,0.24141642451286316,-0.10064955800771713
1761914377596616400,3.045616455078125,-0.09469803422689438,0.2196088582277298,-0.1309182494878769
1761914377606671600,3.055671630859375,-0.07658781856298447,0.21100789308547974,-0.1596985161304474
1761914377616727600,3.0657275390625,-0.05629106983542442,0.19202914834022522,-0.17646470665931702
1761914377626783500,3.075783447265625,-0.0314783938229084,0.13728514313697815,-0.16803108155727386
1761914377636839700,3.085839599609375,-0.037806861102581024,0.035316165536642075,-0.1377514749765396
1761914377646894300,3.095894287109375,-0.08452470600605011,-0.09447848051786423,-0.07698294520378113
1761914377656950500,3.105950439453125,-0.16139312088489532,-0.16750182211399078,-0.01839074119925499
1761914377667006500,3.11600634765625,-0.23302729427814484,-0.20611290633678436,0.02688307873904705
1761914377677062400,3.1260625,-0.2969639301300049,-0.2468946874141693,0.061203502118587494
1761914377687118600,3.13611865234375,-0.3536313474178314,-0.2787475883960724,0.06336449831724167
1761914377697173500,3.146173583984375,-0.38170719146728516,-0.24974177777767181,0.030239829793572426
1761914377707229700,3.156229736328125,-0.35739460587501526,-0.11707751452922821,-0.039044469594955444
1761914377717285400,3.166285400390625,-0.28536540269851685,0.059929754585027695,-0.09974989295005798
1761914377727341300,3.17634130859375,-0.1888495683670044,0.17755548655986786,-0.09522568434476852
1761914377737396500,3.186396484375,-0.10317540913820267,0.2271515429019928,-0.02359277568757534
1761914377747452400,3.196452392578125,-0.0386769063770771,0.22654803097248077,0.0864933580160141
1761914377757508600,3.206508544921875,-0.004453153349459171,0.18113048374652863,0.20332090556621552
1761914377767564500,3.216564453125,-0.010666289366781712,0.15102556347846985,0.2860420048236847
1761914377777620700,3.226620849609375,-0.04112113267183304,0.12236516177654266,0.32791009545326233
1761914377787676000,3.236676025390625,-0.10006221383810043,0.06796343624591827,0.3527592420578003
1761914377797731800,3.24673193359375,-0.1787746101617813,-0.021023161709308624,0.3773471415042877
1761914377807787800,3.256787841796875,-0.26987260580062866,-0.12446488440036774,0.4028656780719757
1761914377817843700,3.26684375,-0.35643625259399414,-0.2107185572385788,0.40804657340049744
1761914377827898600,3.276898681640625,-0.4193648397922516,-0.2848893404006958,0.3848690390586853
1761914377837954800,3.286954833984375,-0.45244449377059937,-0.3483247756958008,0.34209176898002625
1761914377848010800,3.2970107421875,-0.4742726981639862,-0.37130632996559143,0.28479060530662537
1761914377858066700,3.307066650390625,-0.4670392870903015,-0.36144012212753296,0.22243455052375793
1761914377868121900,3.317121826171875,-0.4294782876968384,-0.2896524667739868,0.14346101880073547
1761914377878177500,3.327177490234375,-0.3589295446872711,-0.15424112975597382,0.04222974181175232
1761914377888233700,3.337233642578125,-0.2630388140678406,0.03611796721816063,-0.06599211692810059
1761914377898289700,3.34728955078125,-0.16923348605632782,0.23297269642353058,-0.15547166764736176
1761914377908345600,3.357345703125,-0.09028175473213196,0.3904935419559479,-0.2074878215789795
1761914377918400800,3.36740087890625,-0.034905314445495605,0.4880501925945282,-0.22974331676959991
1761914377928456700,3.377456787109375,-0.005572860594838858,0.5147616863250732,-0.22724145650863647
1761914377938513000,3.387512939453125,-0.005314001347869635,0.4838612675666809,-0.21868684887886047
1761914377948568800,3.39756884765625,-0.033664852380752563,0.42563560605049133,-0.21477046608924866
1761914377958623700,3.407623779296875,-0.08056365698575974,0.36342814564704895,-0.2117467075586319
1761914377968679700,3.4176796875,-0.140777125954628,0.29099246859550476,-0.209065243601799
1761914377978735600,3.427735595703125,-0.21279804408550262,0.20128418505191803,-0.2007220983505249
1761914377988791800,3.437791748046875,-0.2874143421649933,0.09879590570926666,-0.18906834721565247
1761914377998847700,3.44784765625,-0.3736690878868103,0.01372601930052042,-0.17289817333221436
1761914378008903000,3.45790283203125,-0.4694328010082245,-0.06547185033559799,-0.14251413941383362
1761914378018958800,3.467958740234375,-0.5710747241973877,-0.1343712955713272,-0.10129586607217789
1761914378029014800,3.478014892578125,-0.6693564057350159,-0.205240398645401,-0.07015219330787659
1761914378039070700,3.48807080078125,-0.7639039754867554,-0.25407183170318604,-0.056424930691719055
1761914378049125600,3.498125732421875,-0.829413652420044,-0.27167534828186035,-0.07268431782722473
1761914378059181600,3.508181640625,-0.8437779545783997,-0.25282254815101624,-0.11456119269132614
1761914378069237800,3.51823779296875,-0.8114649057388306,-0.23329861462116241,-0.16862863302230835
1761914378079293700,3.528293701171875,-0.7400636672973633,-0.22136977314949036,-0.23283584415912628
1761914378089349600,3.538349609375,-0.6477424502372742,-0.22922325134277344,-0.29643741250038147
1761914378099404800,3.54840478515625,-0.5485647320747375,-0.2601854205131531,-0.3396706283092499
1761914378109460700,3.558460693359375,-0.4643438756465912,-0.2901128828525543,-0.3462963402271271
1761914378119517000,3.568516845703125,-0.3950364291667938,-0.31119686365127563,-0.2959948182106018
1761914378129572900,3.57857275390625,-0.336895227432251,-0.3185005187988281,-0.19796407222747803
1761914378139627800,3.588627685546875,-0.29552939534187317,-0.2982881963253021,-0.06092127412557602
1761914378149683700,3.59868359375,-0.2634320557117462,-0.25729525089263916,0.09603807330131531
1761914378159739600,3.60873974609375,-0.23541909456253052,-0.2067473977804184,0.25464504957199097
1761914378169795800,3.6187958984375,-0.20350804924964905,-0.15695878863334656,0.39679139852523804
1761914378179851800,3.628851806640625,-0.16907364130020142,-0.1328691691160202,0.5182238221168518
1761914378189907000,3.638906982421875,-0.13407057523727417,-0.15120339393615723,0.6102370023727417
1761914378199963000,3.648962890625,-0.10301119089126587,-0.21067577600479126,0.6600258350372314
1761914378210018800,3.659018798828125,-0.07026940584182739,-0.2993386387825012,0.6706647276878357
1761914378220074800,3.66907470703125,-0.029498012736439705,-0.40518197417259216,0.6438828706741333
1761914378230129700,3.679129638671875,0.019228274002671242,-0.5191612243652344,0.5908963084220886
1761914378240185900,3.689185791015625,0.07343877851963043,-0.6037315130233765,0.499010294675827
1761914378250241800,3.69924169921875,0.13013572990894318,-0.6520862579345703,0.38808390498161316
1761914378260297700,3.709297607421875,0.19168511033058167,-0.6712641716003418,0.28263604640960693
1761914378270354000,3.71935400390625,0.2506875693798065,-0.6407248377799988,0.19311754405498505
1761914378280408800,3.729408935546875,0.30581071972846985,-0.5641320943832397,0.12910793721675873
1761914378290464800,3.73946484375,0.3332432806491852,-0.4913334250450134,0.11440949887037277
1761914378300520700,3.749520751953125,0.3358960449695587,-0.42299723625183105,0.1325424313545227
1761914378310576600,3.75957666015625,0.3252357840538025,-0.3361080288887024,0.14490921795368195
1761914378320631800,3.7696318359375,0.31139880418777466,-0.27100226283073425,0.16037365794181824
1761914378330687700,3.779687744140625,0.28204089403152466,-0.248602956533432,0.17096345126628876
1761914378340743700,3.78974365234375,0.24932877719402313,-0.26395049691200256,0.18719781935214996
1761914378350800000,3.7997998046875,0.2127988636493683,-0.31736209988594055,0.18921297788619995
1761914378360855800,3.809855712890625,0.16692538559436798,-0.35052111744880676,0.16053499281406403
1761914378370910700,3.81991064453125,0.13693663477897644,-0.37009575963020325,0.08307722955942154
1761914378380966700,3.829966552734375,0.10226627439260483,-0.3824661672115326,-0.0355713851749897
1761914378391022600,3.840022705078125,0.06712512671947479,-0.3995513617992401,-0.17790625989437103
1761914378401078800,3.850078857421875,0.01909421943128109,-0.40399831533432007,-0.3555452525615692
1761914378411133700,3.8601337890625,-0.03150845319032669,-0.3681373596191406,-0.5319337248802185
1761914378421190000,3.87018994140625,-0.08447632193565369,-0.34456706047058105,-0.6687501668930054
1761914378431245800,3.880245849609375,-0.15380896627902985,-0.362985759973526,-0.7302727699279785
1761914378441301800,3.8903017578125,-0.24897968769073486,-0.4210839569568634,-0.7130452990531921
1761914378451358000,3.90035791015625,-0.36115762591362,-0.45027753710746765,-0.6582828760147095
1761914378461412600,3.91041259765625,-0.46164241433143616,-0.4449661374092102,-0.5875924825668335
1761914378471468800,3.92046875,-0.5435078740119934,-0.43128058314323425,-0.5214415788650513
1761914378481524700,3.930524658203125,-0.6117191314697266,-0.3894604444503784,-0.482146680355072
1761914378491580700,3.94058056640625,-0.6534631252288818,-0.2931928336620331,-0.4852169454097748
1761914378501636900,3.950636962890625,-0.6653677225112915,-0.1258448213338852,-0.4988541901111603
1761914378511691800,3.96069189453125,-0.6504334211349487,0.09388227015733719,-0.5065659880638123
1761914378521747700,3.970747802734375,-0.6221554279327393,0.3206341862678528,-0.5086826682090759
1761914378531804000,3.980803955078125,-0.5898967385292053,0.5209609270095825,-0.4858720004558563
1761914378541859800,3.99085986328125,-0.5419371724128723,0.6856667399406433,-0.4463120996952057
1761914378551914800,4.000914794921875,-0.49141258001327515,0.7871214151382446,-0.3818570077419281
1761914378561967900,4.0109677734375,-0.44592952728271484,0.841402530670166,-0.30043885111808777
1761914378572023800,4.02102392578125,-0.38947945833206177,0.8606690764427185,-0.21856996417045593
1761914378582079700,4.031079833984375,-0.32486051321029663,0.8534076809883118,-0.149619922041893
1761914378592135700,4.0411357421875,-0.2588275969028473,0.8120979070663452,-0.1047089695930481
1761914378602190800,4.05119091796875,-0.2148265838623047,0.7275124192237854,-0.06659886986017227
1761914378612246800,4.061246826171875,-0.1883547306060791,0.5993653535842896,-0.0330265611410141
1761914378622302700,4.071302734375,-0.16556845605373383,0.45125871896743774,-0.0038425764068961143
1761914378632359000,4.08135888671875,-0.1486840844154358,0.32091668248176575,0.005749053321778774
1761914378642414800,4.091414794921875,-0.127000629901886,0.23554480075836182,-0.0144084133207798
1761914378652469800,4.1014697265625,-0.11658142507076263,0.17018954455852509,-0.04536227881908417
1761914378662525700,4.111525634765625,-0.10538256913423538,0.14864802360534668,-0.07177204638719559
1761914378672581600,4.12158154296875,-0.07869255542755127,0.17636799812316895,-0.07450174540281296
1761914378682637600,4.131637451171875,-0.03169042244553566,0.234513059258461,-0.05375305190682411
1761914378692693800,4.14169384765625,0.020978115499019623,0.30410945415496826,-0.014971034601330757
1761914378702748700,4.151748779296875,0.07850878685712814,0.36285853385925293,0.02249804511666298
1761914378712804900,4.161804931640625,0.1379677653312683,0.40934035181999207,0.03717814013361931
1761914378722860800,4.17186083984375,0.18932123482227325,0.4366942048072815,0.0320877730846405
1761914378732916700,4.181916748046875,0.2227596789598465,0.4592588245868683,0.030131082981824875
1761914378742971600,4.1919716796875,0.24635502696037292,0.4723767638206482,0.033496785908937454
1761914378753027600,4.202027587890625,0.25404322147369385,0.45479410886764526,0.047815337777137756
1761914378763083800,4.212083740234375,0.24723219871520996,0.4300940930843353,0.05663732439279556
1761914378773139700,4.2221396484375,0.2099790871143341,0.3821849226951599,0.07324136793613434
1761914378783195400,4.2321953125,0.15779736638069153,0.3172605037689209,0.09805111587047577
1761914378793250600,4.24225048828125,0.10089180618524551,0.282148540019989,0.12813837826251984
1761914378803306500,4.252306396484375,0.062207791954278946,0.25499626994132996,0.16808339953422546
1761914378813362700,4.26236279296875,0.05442391708493233,0.23817981779575348,0.19777585566043854
1761914378823418600,4.272418701171875,0.07822591811418533,0.24453945457935333,0.19101594388484955
1761914378833474300,4.282474365234375,0.11192753911018372,0.2441430687904358,0.13946941494941711
1761914378843529500,4.292529541015625,0.13926967978477478,0.24518409371376038,0.06343084573745728
1761914378853585400,4.30258544921875,0.14805300533771515,0.21119055151939392,0.0002571986988186836
1761914378863641600,4.3126416015625,0.1357976794242859,0.1030488982796669,-0.02736750617623329
1761914378873697500,4.322697509765625,0.12484189122915268,-0.004016309976577759,-0.019391614943742752
1761914378883752700,4.332752685546875,0.11672883480787277,-0.0504104420542717,-0.002123679965734482
1761914378893808600,4.34280859375,0.11750558763742447,-0.045943863689899445,0.004974351264536381
1761914378903864600,4.352864501953125,0.12733398377895355,-0.009108085185289383,0.011216000653803349
1761914378913920500,4.36292041015625,0.1369294971227646,0.025367900729179382,0.017920151352882385
1761914378923976400,4.3729765625,0.14891372621059418,0.040066421031951904,0.04094903916120529
1761914378934031400,4.38303125,0.153843954205513,0.034410301595926285,0.09828558564186096
1761914378944087600,4.393087646484375,0.14555007219314575,-0.020165055990219116,0.18520291149616241
1761914378954143500,4.4031435546875,0.10994092375040054,-0.10345159471035004,0.29866355657577515
1761914378964199400,4.413199462890625,0.06469754874706268,-0.13909827172756195,0.39000970125198364
1761914378974255600,4.423255615234375,0.036314718425273895,-0.08675862103700638,0.4301358163356781
1761914378984310500,4.433310546875,0.033371925354003906,-0.02135351672768593,0.4358821213245392
1761914378994366500,4.443366455078125,0.04746892303228378,0.021624501794576645,0.4173838496208191
1761914379004422400,4.45342236328125,0.0664290338754654,0.04940154030919075,0.3929312527179718
1761914379014478300,4.463478271484375,0.12248647212982178,0.07285027951002121,0.3528098165988922
1761914379024534500,4.473534423828125,0.21377110481262207,0.10913345217704773,0.3004036247730255
1761914379034589400,4.48358935546875,0.31674569845199585,0.14702855050563812,0.2495977133512497
1761914379044645600,4.493645751953125,0.4005732238292694,0.17577363550662994,0.20127838850021362
1761914379054701600,4.50370166015625,0.45603513717651367,0.17950661480426788,0.17264023423194885
1761914379064757500,4.513757568359375,0.482878178358078,0.15507502853870392,0.15639282763004303
1761914379074812400,4.5238125,0.48018693923950195,0.10197803378105164,0.16585174202919006
1761914379084868400,4.533868408203125,0.4437359869480133,0.009616412222385406,0.20937657356262207
1761914379094924500,4.543924560546875,0.3647764027118683,-0.14977113902568817,0.28304293751716614
1761914379104980500,4.55398046875,0.25005167722702026,-0.34008917212486267,0.37376323342323303
1761914379115036400,4.564036376953125,0.1406366378068924,-0.47167882323265076,0.42161133885383606
1761914379125091600,4.574091552734375,0.0813797190785408,-0.4981541037559509,0.40298572182655334
1761914379135147500,4.5841474609375,0.09009621292352676,-0.4269377887248993,0.32299137115478516
1761914379145203700,4.59420361328125,0.13314780592918396,-0.29833105206489563,0.2210996299982071
1761914379155260700,4.6042607421875,0.18988411128520966,-0.15393798053264618,0.12082237750291824
1761914379165316600,4.614316650390625,0.2384207546710968,0.0015235103201121092,0.04709196463227272
1761914379175371500,4.62437158203125,0.27802616357803345,0.1521351933479309,-0.003784194588661194
1761914379185427500,4.634427490234375,0.30220526456832886,0.27781054377555847,-0.042847439646720886
1761914379195483400,4.6444833984375,0.3084123432636261,0.35253745317459106,-0.0861920490860939
1761914379205539600,4.65453955078125,0.299448162317276,0.3746214509010315,-0.1482972353696823
1761914379215595500,4.664595458984375,0.2865457534790039,0.36322134733200073,-0.22485488653182983
1761914379225650400,4.674650390625,0.2697819471359253,0.32664361596107483,-0.3154979646205902
1761914379235706600,4.68470654296875,0.24211597442626953,0.25579607486724854,-0.39457669854164124
1761914379245762600,4.694762451171875,0.19166453182697296,0.1710127592086792,-0.4517635405063629
1761914379255818500,4.704818603515625,0.11522868275642395,0.08195585757493973,-0.47558870911598206
1761914379265873400,4.714873291015625,0.013265827670693398,0.0074379462748765945,-0.46909964084625244
1761914379275929300,4.724929443359375,-0.11201111227273941,-0.044887326657772064,-0.45504099130630493
1761914379285985500,4.734985595703125,-0.23946094512939453,-0.0762292668223381,-0.42115119099617004
1761914379296041500,4.74504150390625,-0.3470471501350403,-0.08940872550010681,-0.3785262405872345
1761914379306097400,4.755097412109375,-0.413124144077301,-0.07519757002592087,-0.32191675901412964
1761914379316152600,4.765152587890625,-0.4324950873851776,-0.03883577138185501,-0.2685244381427765
1761914379326208500,4.77520849609375,-0.40332600474357605,0.03528852015733719,-0.23039329051971436
1761914379336264700,4.7852646484375,-0.3400612473487854,0.12397440522909164,-0.22006307542324066
1761914379346320600,4.795320556640625,-0.27166223526000977,0.2017323225736618,-0.23674404621124268
1761914379356376300,4.805376220703125,-0.22601458430290222,0.24225321412086487,-0.27772223949432373
1761914379366431500,4.815431396484375,-0.19262413680553436,0.22983010113239288,-0.3147662878036499
1761914379376487400,4.8254873046875,-0.1681486964225769,0.19736208021640778,-0.34234997630119324
1761914379386543600,4.835543701171875,-0.1489691436290741,0.16659031808376312,-0.356793612241745
1761914379396599600,4.845599609375,-0.11724408715963364,0.15140819549560547,-0.3466852903366089
1761914379406655500,4.855655517578125,-0.0766894742846489,0.14085860550403595,-0.32372352480888367
1761914379416710700,4.865710693359375,-0.03167835250496864,0.13777273893356323,-0.2756989598274231
1761914379426766300,4.875766357421875,0.010016897693276405,0.13323791325092316,-0.20982564985752106
1761914379436822500,4.885822509765625,0.04442400112748146,0.12666866183280945,-0.13493800163269043
1761914379446878500,4.89587841796875,0.06811068952083588,0.1091727614402771,-0.05719020962715149
1761914379456934400,4.905934326171875,0.08998187631368637,0.10591581463813782,0.015526721253991127
1761914379466989600,4.915989501953125,0.11374340206384659,0.13439299166202545,0.0805392786860466
1761914379477045500,4.92604541015625,0.14046522974967957,0.14676815271377563,0.14380544424057007
1761914379487101400,4.936101318359375,0.173679918050766,0.12998437881469727,0.2088129222393036
1761914379497157600,4.94615771484375,0.217359721660614,0.08126853406429291,0.24843254685401917
1761914379507212300,4.95621240234375,0.28640589118003845,0.02440204843878746,0.26379820704460144
1761914379517268500,4.9662685546875,0.3862513601779938,-0.0474388562142849,0.2505336403846741
1761914379527324400,4.976324462890625,0.4925559461116791,-0.12049149721860886,0.23044408857822418
1761914379537380400,4.98638037109375,0.5967544317245483,-0.18323156237602234,0.1960577666759491
1761914379547436500,4.9964365234375,0.6786453127861023,-0.21723587810993195,0.1589660346508026
1761914379557491500,5.006491455078125,0.7517790794372559,-0.2221289724111557,0.12292726337909698
1761914379567547600,5.016547607421875,0.8284749388694763,-0.19278067350387573,0.09193551540374756
1761914379577603600,5.026603515625,0.908126711845398,-0.14327196776866913,0.07275225222110748
1761914379587659500,5.036659423828125,0.9815735220909119,-0.06999748945236206,0.04667138308286667
1761914379597715700,5.0467158203125,1.0503876209259033,0.03264612331986427,0.02180897817015648
1761914379607770400,5.056770263671875,1.1166918277740479,0.1615079641342163,0.0032427525147795677
1761914379617826600,5.06682666015625,1.1806895732879639,0.28019437193870544,0.009485572576522827
1761914379627882500,5.076882568359375,1.2219798564910889,0.34659335017204285,0.07201579213142395
1761914379637938400,5.0869384765625,1.2480745315551758,0.33843010663986206,0.1777627170085907
1761914379647994600,5.09699462890625,1.2587755918502808,0.3170031011104584,0.28448358178138733
1761914379658049500,5.107049560546875,1.262162446975708,0.3400786817073822,0.3554145395755768
1761914379668105700,5.117105712890625,1.2658096551895142,0.4017260670661926,0.4004797339439392
1761914379678161700,5.12716162109375,1.2733180522918701,0.47836756706237793,0.4710726737976074
1761914379688217300,5.13721728515625,1.2445682287216187,0.5717300176620483,0.6075407862663269
1761914379698273500,5.1472734375,1.1828135251998901,0.6527734994888306,0.8061220645904541
1761914379708328400,5.157328369140625,1.115429162979126,0.6969795227050781,0.9857038259506226
1761914379718384400,5.16738427734375,1.060718297958374,0.7148818373680115,1.0603514909744263
1761914379728440600,5.177440673828125,1.0206327438354492,0.6690645813941956,0.9987059831619263
1761914379738496500,5.18749658203125,0.9866610765457153,0.5630305409431458,0.817679226398468
1761914379748551700,5.1975517578125,0.9519816637039185,0.41141465306282043,0.5659399032592773
1761914379758607600,5.207607666015625,0.8984019160270691,0.20179565250873566,0.3161117434501648
1761914379768663300,5.217663330078125,0.8094845414161682,-0.06440167129039764,0.11568412184715271
1761914379778720300,5.22772021484375,0.6737960577011108,-0.3594619631767273,-0.01599626988172531
1761914379788776200,5.237776123046875,0.49088940024375916,-0.6484149694442749,-0.07335144281387329
1761914379798831000,5.2478310546875,0.2666143774986267,-0.8894420266151428,-0.08156323432922363
1761914379808887000,5.257886962890625,0.03803605958819389,-1.0652791261672974,-0.0716799795627594
1761914379818943000,5.26794287109375,-0.17276908457279205,-1.1811156272888184,-0.04721861705183983
1761914379828999200,5.277999267578125,-0.3541034460067749,-1.251813530921936,-0.03577740862965584
1761914379839055000,5.28805517578125,-0.49796605110168457,-1.2559453248977661,-0.04943881183862686
1761914379849110000,5.298110107421875,-0.5840484499931335,-1.1792206764221191,-0.10202878713607788
1761914379859166200,5.308166259765625,-0.602698564529419,-0.9937583208084106,-0.18221397697925568
1761914379869222100,5.31822216796875,-0.5548692345619202,-0.7338670492172241,-0.2698332965373993
1761914379879277800,5.32827783203125,-0.44970908761024475,-0.4376135468482971,-0.32944855093955994
1761914379889334000,5.338333984375,-0.3082126975059509,-0.14335104823112488,-0.3392375409603119
1761914379899389000,5.348388916015625,-0.14842993021011353,0.10661723464727402,-0.29758158326148987
1761914379909445000,5.358445068359375,0.0050946553237736225,0.3104792833328247,-0.22047480940818787
1761914379919501000,5.3685009765625,0.11977533251047134,0.47338032722473145,-0.11817893385887146
1761914379929557000,5.378556884765625,0.19695241749286652,0.602138876914978,-0.0008469829335808754
1761914379939613200,5.38861328125,0.24017572402954102,0.6710591316223145,0.11168001592159271
1761914379949668000,5.398668212890625,0.256766676902771,0.6657910943031311,0.21240583062171936
1761914379959724000,5.40872412109375,0.2582673728466034,0.5897850394248962,0.29450324177742004
1761914379969780000,5.418780029296875,0.26146477460861206,0.46838298439979553,0.36570098996162415
1761914379979836000,5.4288359375,0.2857609987258911,0.3312484920024872,0.4061269164085388
1761914379989892000,5.43889208984375,0.3369986116886139,0.21186938881874084,0.4201982617378235
1761914379999947000,5.448947021484375,0.42083674669265747,0.12441506236791611,0.4095383286476135
1761914380010003200,5.459003173828125,0.5375947952270508,0.061561524868011475,0.3722125291824341
1761914380020059100,5.46905908203125,0.6709579229354858,0.04593469947576523,0.3100048899650574
1761914380030115000,5.479114990234375,0.8156208395957947,0.08769918978214264,0.22981204092502594
1761914380040170000,5.489169921875,0.9666811227798462,0.17009395360946655,0.1534111648797989
1761914380050226000,5.499225830078125,1.0980827808380127,0.29769396781921387,0.08814240247011185
1761914380060282000,5.5092822265625,1.2138078212738037,0.44728079438209534,0.0322200171649456
1761914380070338000,5.519338134765625,1.3054925203323364,0.6040041446685791,-0.010630243457853794
1761914380080394000,5.52939404296875,1.3752131462097168,0.7565537095069885,-0.02999458648264408
1761914380090449200,5.53944921875,1.4269858598709106,0.9101307392120361,-0.04233034700155258
1761914380100505000,5.549505126953125,1.4570643901824951,1.0891119241714478,-0.05069473385810852
1761914380110561000,5.55956103515625,1.4597342014312744,1.2837821245193481,-0.05454486608505249
1761914380120617200,5.5696171875,1.4326527118682861,1.4338454008102417,-0.03789958730340004
1761914380130673200,5.579673095703125,1.3689725399017334,1.5009278059005737,-0.005739255342632532
1761914380140728000,5.58972802734375,1.288583517074585,1.467673659324646,0.011131765320897102
1761914380150784000,5.599783935546875,1.206628441810608,1.3725018501281738,-0.008940747007727623
1761914380160840000,5.60983984375,1.1247798204421997,1.2236018180847168,-0.0609423965215683
1761914380170896100,5.619896240234375,1.0557297468185425,1.049697756767273,-0.13808298110961914
1761914380180952000,5.6299521484375,1.0170807838439941,0.9050653576850891,-0.21655124425888062
1761914380191007200,5.64000732421875,1.0012924671173096,0.7988545298576355,-0.27050554752349854
1761914380201063200,5.650063232421875,1.0155386924743652,0.7374681234359741,-0.2822214365005493
1761914380211118800,5.660118896484375,1.0435832738876343,0.73127281665802,-0.2638850510120392
1761914380221175000,5.670175048828125,1.079601764678955,0.7406210899353027,-0.22042298316955566
1761914380231230000,5.68022998046875,1.1231900453567505,0.735672652721405,-0.1612856239080429
1761914380241286100,5.6902861328125,1.1603693962097168,0.7040860652923584,-0.1019478365778923
1761914380251342000,5.700342041015625,1.1844595670700073,0.6734490394592285,-0.056770239025354385
1761914380261398000,5.71039794921875,1.1951197385787964,0.6400318741798401,-0.007427920121699572
1761914380271454200,5.7204541015625,1.1973190307617188,0.6096944808959961,0.04564754664897919
1761914380281509000,5.730509033203125,1.1830933094024658,0.6001303195953369,0.11747556179761887
1761914380291565000,5.74056494140625,1.1573787927627563,0.5929690599441528,0.2029649019241333
1761914380301621000,5.75062109375,1.1282254457473755,0.6080265641212463,0.2719744145870209
1761914380311677000,5.760677001953125,1.1236469745635986,0.6525383591651917,0.29683181643486023
1761914380321733000,5.770733154296875,1.1365588903427124,0.692345142364502,0.29255411028862
1761914380331788000,5.7807880859375,1.164231300354004,0.6764034032821655,0.2956992983818054
1761914380341844000,5.790843994140625,1.2043603658676147,0.6239951848983765,0.29838135838508606
1761914380351900200,5.800900146484375,1.2493538856506348,0.5536091923713684,0.3036983609199524
1761914380361956000,5.8109560546875,1.31451416015625,0.4879002571105957,0.2851310968399048
1761914380372012000,5.821011962890625,1.3841640949249268,0.4752528965473175,0.22936342656612396
1761914380382067000,5.83106689453125,1.4649189710617065,0.5272207260131836,0.13432902097702026
1761914380392123000,5.841122802734375,1.5491657257080078,0.6182052493095398,0.03463011980056763
1761914380402179000,5.851178955078125,1.6117196083068848,0.6939582824707031,-0.0385761559009552
1761914380412235000,5.861235107421875,1.6674981117248535,0.7464316487312317,-0.053112760186195374
1761914380422291000,5.871291015625,1.702726125717163,0.7629088163375854,0.001542787067592144
1761914380432346000,5.88134619140625,1.709231972694397,0.7152592539787292,0.1153939962387085
1761914380442402000,5.891402099609375,1.6886845827102661,0.5901774764060974,0.26497960090637207
1761914380452458200,5.901458251953125,1.621091365814209,0.4480227530002594,0.43858999013900757
1761914380462514200,5.91151416015625,1.5273640155792236,0.3293877840042114,0.5932245850563049
1761914380472569000,5.921569091796875,1.449392557144165,0.2942180633544922,0.690666675567627
1761914380482625000,5.931625,1.391992449760437,0.3791017532348633,0.7054386138916016
1761914380492681000,5.941680908203125,1.3618133068084717,0.5679821968078613,0.6539711356163025
1761914380502737200,5.951737060546875,1.35810124874115,0.7950002551078796,0.5571087598800659
1761914380512793000,5.96179296875,1.3610458374023438,0.9963133931159973,0.4567786753177643
1761914380522848300,5.97184814453125,1.3591903448104858,1.1373744010925293,0.3600315749645233
1761914380532904200,5.981904296875,1.3564465045928955,1.215924620628357,0.2646145224571228
1761914380542960000,5.991960205078125,1.36533784866333,1.2414354085922241,0.16566777229309082
1761914380553016000,6.00201611328125,1.3833911418914795,1.2108253240585327,0.06842750310897827
1761914380563072000,6.012072021484375,1.4048031568527222,1.1618932485580444,-0.030615821480751038
1761914380573127000,6.022126953125,1.431570053100586,1.1206104755401611,-0.12367305904626846
1761914380583183000,6.03218310546875,1.4548654556274414,1.0939878225326538,-0.2141922414302826
1761914380593239000,6.042239013671875,1.4575482606887817,1.0994998216629028,-0.30919891595840454
1761914380603295000,6.052294921875,1.4275953769683838,1.1162296533584595,-0.39553576707839966
1761914380613351200,6.06235107421875,1.3827004432678223,1.1165153980255127,-0.47481992840766907
1761914380623405800,6.07240576171875,1.3292078971862793,1.0851837396621704,-0.525399923324585
1761914380633462000,6.0824619140625,1.2594234943389893,0.9890356063842773,-0.5341020822525024
1761914380643518000,6.09251806640625,1.187975287437439,0.8424307703971863,-0.48348748683929443
1761914380653574000,6.102573974609375,1.1378968954086304,0.6850850582122803,-0.38502830266952515
1761914380663630000,6.112630126953125,1.129311442375183,0.5816085338592529,-0.2767254114151001
1761914380673685000,6.12268505859375,1.1307615041732788,0.5463163256645203,-0.17478492856025696
1761914380683741200,6.1327412109375,1.1377712488174438,0.5529947876930237,-0.09229878336191177
1761914380693797000,6.142797119140625,1.1441421508789062,0.5701034665107727,-0.029919832944869995
1761914380703853000,6.15285302734375,1.1527436971664429,0.5830886960029602,0.01599949039518833
1761914380713908000,6.162907958984375,1.1614471673965454,0.5964745879173279,0.039920270442962646
1761914380723964000,6.1729638671875,1.1609313488006592,0.6215207576751709,0.04133773222565651
1761914380734020000,6.18302001953125,1.1507784128189087,0.6770346164703369,0.021755773574113846
1761914380744076000,6.193075927734375,1.1506880521774292,0.7431949973106384,-0.006883906200528145
1761914380754132000,6.203132080078125,1.1679558753967285,0.7902258634567261,-0.03015301004052162
1761914380764187100,6.213187255859375,1.2045774459838867,0.8224976658821106,-0.037475649267435074
1761914380774242800,6.223242919921875,1.2501667737960815,0.8540973663330078,-0.029594555497169495
1761914380784298800,6.233298828125,1.2824182510375977,0.8602490425109863,-0.017332136631011963
1761914380794354700,6.243354736328125,1.2998062372207642,0.8486666679382324,0.001497478224337101
1761914380804410600,6.25341064453125,1.2967615127563477,0.8315694332122803,0.0254007987678051
1761914380814465800,6.2634658203125,1.2892024517059326,0.8127989172935486,0.04050837829709053
1761914380824521700,6.273521728515625,1.2736743688583374,0.7842003107070923,0.05370823293924332
1761914380834578000,6.283577880859375,1.2624046802520752,0.7500836253166199,0.053505294024944305
1761914380844633900,6.2936337890625,1.2567331790924072,0.7050683498382568,0.04968992620706558
1761914380854689800,6.303689697265625,1.263478398323059,0.6374589800834656,0.042677026242017746
1761914380864744700,6.31374462890625,1.2839150428771973,0.5475826859474182,0.02768705040216446
1761914380874800600,6.323800537109375,1.3081679344177246,0.4534686505794525,-0.0017571235075592995
1761914380884856600,6.333856689453125,1.32992684841156,0.3720494508743286,-0.049470558762550354
1761914380894912800,6.343912841796875,1.3485263586044312,0.3030379116535187,-0.10019232332706451
1761914380904967700,6.3539677734375,1.3650803565979004,0.2792337238788605,-0.1512138843536377
1761914380915024000,6.36402392578125,1.3746134042739868,0.27729496359825134,-0.20039261877536774
1761914380925079800,6.374079833984375,1.3628208637237549,0.27911490201950073,-0.2415478229522705
1761914380935135700,6.3841357421875,1.3381268978118896,0.27466288208961487,-0.27713459730148315
1761914380945192000,6.39419189453125,1.2991762161254883,0.26989588141441345,-0.29477959871292114
1761914380955246600,6.40424658203125,1.2510310411453247,0.2663312554359436,-0.30045291781425476
1761914380965302800,6.414302734375,1.190883994102478,0.25331926345825195,-0.2989107072353363
1761914380975358700,6.424358642578125,1.1226788759231567,0.2104247808456421,-0.2839810252189636
1761914380985414700,6.43441455078125,1.0589828491210938,0.13062669336795807,-0.25136616826057434
1761914380995470800,6.444470947265625,1.0018543004989624,0.013386624865233898,-0.18792060017585754
1761914381005525800,6.45452587890625,0.9473196864128113,-0.1397526115179062,-0.07904233783483505
1761914381015582000,6.46458203125,0.8915634751319885,-0.28437742590904236,0.03512284904718399
1761914381025638000,6.474637939453125,0.847641110420227,-0.3827710449695587,0.08682753145694733
1761914381035693600,6.484693603515625,0.825238823890686,-0.3922492563724518,0.04915232956409454
1761914381045749800,6.494749755859375,0.8576846122741699,-0.30923888087272644,-0.05695438012480736
1761914381055804700,6.5048046875,0.9465835690498352,-0.12479418516159058,-0.21683378517627716
1761914381065860900,6.51486083984375,1.0469260215759277,0.11306942254304886,-0.3698383569717407
1761914381075916800,6.524916748046875,1.1304981708526611,0.32085084915161133,-0.46657872200012207
1761914381085972700,6.53497265625,1.1921976804733276,0.4556804597377777,-0.5109254717826843
1761914381096029000,6.54502880859375,1.2254900932312012,0.5035384893417358,-0.5318251848220825
1761914381106083800,6.555083740234375,1.2318226099014282,0.4762278199195862,-0.5496108531951904
1761914381116139800,6.565139892578125,1.2020865678787231,0.40535205602645874,-0.5648334622383118
1761914381126195700,6.57519580078125,1.1375939846038818,0.2988511323928833,-0.5716932415962219
1761914381136251600,6.585251708984375,1.0295153856277466,0.16830138862133026,-0.566085696220398
1761914381146307600,6.5953076171875,0.8969553709030151,0.017659423872828484,-0.5426694750785828
1761914381156362800,6.60536279296875,0.7522751688957214,-0.12656591832637787,-0.5022493600845337
1761914381166418700,6.615418701171875,0.6057891249656677,-0.24804580211639404,-0.4401860535144806
1761914381176475000,6.625474853515625,0.47151389718055725,-0.33159345388412476,-0.36563804745674133
1761914381186530800,6.63553076171875,0.35896772146224976,-0.3553522825241089,-0.28818479180336
1761914381196585700,6.645585693359375,0.26248326897621155,-0.34138187766075134,-0.20023095607757568
1761914381206641700,6.6556416015625,0.21987208724021912,-0.3065274953842163,-0.11902814358472824
1761914381216697600,6.665697509765625,0.21692423522472382,-0.2485630065202713,-0.06561951339244843
1761914381226753800,6.67575390625,0.22329533100128174,-0.13503161072731018,-0.05789455771446228
1761914381236809700,6.685809814453125,0.26109838485717773,0.030372537672519684,-0.09773384779691696
1761914381246865000,6.695864990234375,0.31757721304893494,0.24178682267665863,-0.16206899285316467
1761914381256920800,6.7059208984375,0.38147205114364624,0.4786489009857178,-0.19978654384613037
1761914381266976800,6.715976806640625,0.46058517694473267,0.6936718821525574,-0.1865721344947815
1761914381277033000,6.726032958984375,0.5515214204788208,0.8659842610359192,-0.12681320309638977
1761914381287089000,6.7360888671875,0.6446397304534912,1.0041619539260864,-0.050170429050922394
1761914381297143800,6.746143798828125,0.7365853190422058,1.0783472061157227,0.02657495066523552
1761914381307199700,6.75619970703125,0.8313440084457397,1.0705269575119019,0.08640992641448975
1761914381317255700,6.766255615234375,0.9237021803855896,0.9752470850944519,0.1155686154961586
1761914381327312000,6.776311767578125,1.0126630067825317,0.8288748264312744,0.09804441779851913
1761914381337366800,6.78636669921875,1.1092745065689087,0.6824782490730286,0.02196723036468029
1761914381347422700,6.796422607421875,1.202731966972351,0.5955092310905457,-0.09686009585857391
1761914381357479000,6.80647900390625,1.296796441078186,0.5391508936882019,-0.2422548532485962
1761914381367534800,6.816534912109375,1.3882038593292236,0.5305749177932739,-0.3782174289226532
1761914381377590800,6.8265908203125,1.475974202156067,0.5264736413955688,-0.46793824434280396
1761914381387645700,6.836645751953125,1.560679316520691,0.5069920420646667,-0.5089789628982544
1761914381397701600,6.84670166015625,1.6359418630599976,0.47356826066970825,-0.5093643665313721
1761914381407757800,6.8567578125,1.690694808959961,0.4554513394832611,-0.479306697845459
1761914381417813800,6.866813720703125,1.72036612033844,0.44258588552474976,-0.4205128848552704
1761914381427869700,6.87686962890625,1.7203646898269653,0.4317406415939331,-0.34750038385391235
1761914381437924900,6.8869248046875,1.6885164976119995,0.44118738174438477,-0.28478747606277466
1761914381447980500,6.89698046875,1.650631308555603,0.47965171933174133,-0.23792222142219543
1761914381458036700,6.90703662109375,1.6161495447158813,0.555783748626709,-0.2272205650806427
1761914381468092700,6.9170927734375,1.5998249053955078,0.641080379486084,-0.25351211428642273
1761914381478148600,6.927148681640625,1.5867466926574707,0.7083001732826233,-0.28950366377830505
1761914381488203800,6.937203857421875,1.5827072858810425,0.7546501159667969,-0.3081184923648834
1761914381498259700,6.947259765625,1.5903234481811523,0.7908456325531006,-0.29570043087005615
1761914381508316000,6.95731591796875,1.6205658912658691,0.8073989748954773,-0.2499200850725174
1761914381518371800,6.967371826171875,1.6611018180847168,0.7889920473098755,-0.20041751861572266
1761914381528426800,6.9774267578125,1.7015900611877441,0.7529003620147705,-0.16097956895828247
1761914381538482700,6.987482666015625,1.7577061653137207,0.67889004945755,-0.13348321616649628
1761914381548538600,6.99753857421875,1.8061732053756714,0.613801896572113,-0.12720797955989838
1761914381558594800,7.0075947265625,1.8452180624008179,0.5677089691162109,-0.1346248835325241
1761914381568650800,7.017650634765625,1.877293348312378,0.5311347842216492,-0.13698823750019073
1761914381578705700,7.02770556640625,1.9027224779129028,0.511123776435852,-0.13757066428661346
1761914381588761900,7.037761962890625,1.9135273694992065,0.48460790514945984,-0.13398219645023346
1761914381598817800,7.04781787109375,1.9112846851348877,0.44577154517173767,-0.12021711468696594
1761914381608873700,7.057873779296875,1.9013489484786987,0.390453964471817,-0.09720101952552795
1761914381618930000,7.067929931640625,1.8902428150177002,0.3408163785934448,-0.07185385376214981
1761914381628984600,7.077984619140625,1.8670415878295898,0.3012320101261139,-0.041526488959789276
1761914381639040800,7.088040771484375,1.8372490406036377,0.2667677700519562,-0.004513876978307962
1761914381649096700,7.0980966796875,1.7963993549346924,0.23054826259613037,0.04789607971906662
1761914381659152600,7.108152587890625,1.7441951036453247,0.20211821794509888,0.10695726424455643
1761914381669208800,7.118208740234375,1.6810569763183594,0.17135664820671082,0.16179968416690826
1761914381679263700,7.128263671875,1.617339015007019,0.1304081380367279,0.1958274245262146
1761914381689320000,7.13831982421875,1.5474071502685547,0.07893150299787521,0.19973373413085938
1761914381699375900,7.1483759765625,1.4727702140808105,0.011288808658719063,0.18117442727088928
1761914381709431600,7.158431640625,1.3905349969863892,-0.07528868317604065,0.1577504724264145
1761914381719486700,7.16848681640625,1.3204214572906494,-0.1449284851551056,0.1290021687746048
1761914381729542700,7.178542724609375,1.2707160711288452,-0.17068155109882355,0.09545775502920151
1761914381739598800,7.188598876953125,1.2446972131729126,-0.11646413058042526,0.04639513045549393
1761914381749654800,7.19865478515625,1.2520335912704468,0.002325101988390088,-0.024490363895893097
1761914381759710700,7.208710693359375,1.2536767721176147,0.12507471442222595,-0.0920260027050972
1761914381769766000,7.218765869140625,1.2371028661727905,0.19586770236492157,-0.13330255448818207
1761914381779822000,7.228822021484375,1.2004305124282837,0.2370186150074005,-0.14397330582141876
1761914381789878000,7.2388779296875,1.1481738090515137,0.2593417763710022,-0.14399589598178864
1761914381799934000,7.248933837890625,1.0746636390686035,0.2371121197938919,-0.13456991314888
1761914381809990000,7.258989990234375,0.9879409074783325,0.21927443146705627,-0.11904152482748032
1761914381820045000,7.269045166015625,0.9037847518920898,0.18473990261554718,-0.11626357585191727
1761914381830101000,7.27910107421875,0.8280471563339233,0.12875157594680786,-0.11726053804159164
1761914381840157000,7.289156982421875,0.7629398107528687,0.06340905278921127,-0.11467354744672775
1761914381850213000,7.299213134765625,0.7103776335716248,-0.0033279310446232557,-0.10885018110275269
1761914381860269000,7.30926904296875,0.6774852275848389,-0.08517459034919739,-0.105193130671978
1761914381870324000,7.319323974609375,0.6614181995391846,-0.1428346335887909,-0.1450563371181488
1761914381880380000,7.3293798828125,0.6769732236862183,-0.11446958780288696,-0.24023158848285675
1761914381890435800,7.339435791015625,0.718690037727356,-0.006311140954494476,-0.3493044078350067
1761914381900492000,7.349491943359375,0.7567660808563232,0.08406775444746017,-0.39119672775268555
1761914381910547000,7.359546875,0.8061279654502869,0.14448019862174988,-0.35470959544181824
1761914381920603100,7.36960302734375,0.8352352380752563,0.2145618200302124,-0.25223568081855774
1761914381930659000,7.3796591796875,0.8169069290161133,0.2636193335056305,-0.08238611370325089
1761914381940715000,7.389715087890625,0.7627267837524414,0.2930336594581604,0.12645792961120605
1761914381950771200,7.399771240234375,0.6980355978012085,0.34354323148727417,0.3273801803588867
1761914381960825900,7.409825927734375,0.6399427652359009,0.4226580262184143,0.47874706983566284
1761914381970882000,7.419882080078125,0.6053139567375183,0.516230583190918,0.5846922397613525
1761914381980938000,7.42993798828125,0.6121084690093994,0.6087996959686279,0.6471694707870483
1761914381990994000,7.439993896484375,0.6448553800582886,0.6947089433670044,0.6762105822563171
1761914382001050000,7.450050048828125,0.6914236545562744,0.7578336000442505,0.6737673878669739
1761914382011105000,7.46010498046875,0.7149902582168579,0.7904754877090454,0.6444490551948547
1761914382021161000,7.470160888671875,0.7109558582305908,0.7641501426696777,0.596380889415741
1761914382031217200,7.480217041015625,0.6807533502578735,0.6823758482933044,0.5369617938995361
1761914382041273000,7.490273193359375,0.6377730965614319,0.5675858855247498,0.47142329812049866
1761914382051329000,7.5003291015625,0.5927917957305908,0.46183276176452637,0.40711426734924316
1761914382061384000,7.510384033203125,0.5589262247085571,0.39497703313827515,0.3525935113430023
1761914382071440000,7.52043994140625,0.5175223350524902,0.34761857986450195,0.31246715784072876
1761914382081496000,7.53049609375,0.46634411811828613,0.29967743158340454,0.2835676074028015
1761914382091552000,7.540552001953125,0.39448270201683044,0.2607405185699463,0.2745571732521057
1761914382101607200,7.550607177734375,0.3042667806148529,0.2116488814353943,0.2873707115650177
1761914382111663000,7.5606630859375,0.20065447688102722,0.16127169132232666,0.31995925307273865
1761914382121719000,7.570718994140625,0.09811504930257797,0.13226453959941864,0.34680044651031494
1761914382131775000,7.58077490234375,0.0052035171538591385,0.14612573385238647,0.3547816574573517
1761914382141831000,7.590830810546875,-0.05690060183405876,0.22755827009677887,0.31545528769493103
1761914382151886000,7.600885986328125,-0.09009066224098206,0.3370647728443146,0.23899060487747192
1761914382161942000,7.61094189453125,-0.10552261769771576,0.42900508642196655,0.15737774968147278
1761914382171998000,7.620998046875,-0.10852330178022385,0.47511541843414307,0.09162280708551407
1761914382182054100,7.63105419921875,-0.09636304527521133,0.4827110171318054,0.061111241579055786
1761914382192110000,7.641110107421875,-0.08625419437885284,0.4765755236148834,0.05953160673379898
1761914382202165200,7.651165283203125,-0.07348407059907913,0.46471062302589417,0.0623505562543869
1761914382212221000,7.661220947265625,-0.0543690100312233,0.4547337591648102,0.043595388531684875
1761914382222276900,7.67127685546875,-0.04432383552193642,0.41130000352859497,-0.004493046551942825
1761914382232333000,7.6813330078125,-0.04530758410692215,0.3448861539363861,-0.06820445507764816
1761914382242389000,7.691388916015625,-0.05092126131057739,0.2771422564983368,-0.126583069562912
1761914382252444000,7.70144384765625,-0.05818311497569084,0.2147040218114853,-0.1628437340259552
1761914382262500000,7.7115,-0.0645613893866539,0.1718204766511917,-0.18588194251060486
1761914382272556000,7.72155615234375,-0.07076311111450195,0.13863921165466309,-0.18435904383659363
1761914382282612000,7.731612060546875,-0.07102649658918381,0.07701259851455688,-0.17469018697738647
1761914382292667000,7.7416669921875,-0.07480636239051819,-0.006915208883583546,-0.16796143352985382
1761914382302722800,7.751722900390625,-0.08163204789161682,-0.1019543707370758,-0.1565394103527069
1761914382312779000,7.761779052734375,-0.08682752400636673,-0.1627548635005951,-0.14259587228298187
1761914382322835000,7.7718349609375,-0.07490935176610947,-0.19292740523815155,-0.1318066120147705
1761914382332891000,7.781890869140625,-0.051608774811029434,-0.15812064707279205,-0.13769295811653137
1761914382342946000,7.791946044921875,-0.02240455150604248,-0.09442050755023956,-0.1542104184627533
1761914382353002000,7.802001953125,-0.001645256532356143,-0.033156391233205795,-0.15914209187030792
1761914382363058200,7.81205810546875,-0.0010961128864437342,-0.002654407639056444,-0.1396738588809967
1761914382373114000,7.822114013671875,-0.00821478571742773,0.007543862331658602,-0.09106962382793427
1761914382383170000,7.832170166015625,-0.0376906543970108,-0.03443208336830139,-0.004273209720849991
1761914382393225000,7.842224853515625,-0.08073220402002335,-0.12265703082084656,0.11374156922101974
1761914382403281000,7.852281005859375,-0.13035860657691956,-0.29608288407325745,0.26327458024024963
1761914382413337000,7.862337158203125,-0.20688900351524353,-0.6088606715202332,0.4259178340435028
1761914382423393000,7.87239306640625,-0.28135445713996887,-0.9682987332344055,0.5338112115859985
1761914382433448200,7.8824482421875,-0.3523131012916565,-1.2631102800369263,0.5381033420562744
1761914382443504000,7.892504150390625,-0.4207286536693573,-1.4605082273483276,0.3986740708351135
1761914382453560000,7.90256005859375,-0.45982441306114197,-1.5390114784240723,0.11225069314241409
1761914382463616000,7.912615966796875,-0.4500569999217987,-1.491074800491333,-0.25766611099243164
1761914382473672000,7.922671875,-0.3928804099559784,-1.3016324043273926,-0.6127001643180847
1761914382483727000,7.93272705078125,-0.30831360816955566,-1.0277256965637207,-0.8513071537017822
1761914382493783000,7.942782958984375,-0.2204761803150177,-0.746192216873169,-0.9228512644767761
1761914382503839000,7.9528388671875,-0.13748249411582947,-0.5241937637329102,-0.8333381414413452
1761914382513895000,7.96289501953125,-0.055897437036037445,-0.3543551564216614,-0.640341579914093
1761914382523951000,7.972951171875,0.029372189193964005,-0.2235683798789978,-0.39165374636650085
1761914382534006000,7.983006103515625,0.10672537982463837,-0.1028878390789032,-0.13395078480243683
1761914382544062000,7.99306201171875,0.16294418275356293,0.016513921320438385,0.09446348994970322
1761914382554118000,8.003117919921875,0.20134346187114716,0.11951810121536255,0.2796408236026764
1761914382564173000,8.013173095703126,0.23765087127685547,0.17222364246845245,0.42014625668525696
1761914382574229000,8.02322900390625,0.2627859115600586,0.1652759611606598,0.5150941610336304
1761914382584284200,8.0332841796875,0.26121091842651367,0.1453496664762497,0.5744917392730713
1761914382594340000,8.043340087890625,0.23238325119018555,0.11640111356973648,0.5969063639640808
1761914382604396000,8.05339599609375,0.18642933666706085,0.12111357599496841,0.5913012027740479
1761914382614452200,8.0634521484375,0.11905882507562637,0.18496659398078918,0.5493737459182739
1761914382624507000,8.0735068359375,0.05572432652115822,0.29029595851898193,0.4925056993961334
1761914382634563000,8.08356298828125,0.04262257367372513,0.3822738528251648,0.44007423520088196
1761914382644619000,8.093618896484376,0.09258028119802475,0.41420862078666687,0.401771605014801
1761914382654675000,8.103675048828125,0.19090859591960907,0.3952372074127197,0.375291645526886
1761914382664731100,8.113731201171875,0.3231920301914215,0.3705877959728241,0.34898361563682556
1761914382674786000,8.1237861328125,0.4700902998447418,0.3707900047302246,0.3310008645057678
1761914382684842000,8.133842041015624,0.6222054958343506,0.39521360397338867,0.3232382833957672
1761914382694898200,8.143898193359375,0.7526870965957642,0.44479089975357056,0.32466065883636475
1761914382704953900,8.153953857421875,0.8538610935211182,0.5098452568054199,0.32663723826408386
1761914382715010000,8.164010009765626,0.920502781867981,0.5687393546104431,0.33109477162361145
1761914382725065000,8.17406494140625,0.9655256271362305,0.6169233918190002,0.3378807604312897
1761914382735121000,8.184120849609375,0.9802167415618896,0.6386482119560242,0.34615182876586914
1761914382745177000,8.194177001953125,0.959790825843811,0.6395326256752014,0.3465805947780609
1761914382755233000,8.20423291015625,0.9234746098518372,0.6168519258499146,0.3281911611557007
1761914382765288200,8.2142880859375,0.9024374485015869,0.6055364608764648,0.2830870747566223
1761914382775343900,8.22434375,0.888306200504303,0.6055867075920105,0.2020813673734665
1761914382785403100,8.234403076171875,0.8608583211898804,0.6115878820419312,0.10838444530963898
1761914382795459300,8.244459228515625,0.8309717774391174,0.5969288945198059,0.03697231411933899
1761914382805515300,8.254515380859376,0.8072600960731506,0.5484356880187988,0.0030023623257875443
1761914382815570400,8.2645703125,0.7965547442436218,0.4804514944553375,0.0017102761194109917
1761914382825626400,8.27462646484375,0.7863825559616089,0.4363098740577698,0.005509275011718273
1761914382835682300,8.284682373046875,0.769271731376648,0.3954251706600189,-0.0038759810850024223
1761914382845738500,8.294738525390626,0.7369494438171387,0.3440788984298706,-0.03608904406428337
1761914382855794200,8.304794189453125,0.6953277587890625,0.301582396030426,-0.08695080131292343
1761914382865849300,8.314849365234375,0.6686775088310242,0.26854294538497925,-0.13890880346298218
1761914382875905300,8.3249052734375,0.6371423006057739,0.21957571804523468,-0.18255236744880676
1761914382885961200,8.334961181640624,0.5976628065109253,0.16333214938640594,-0.1981145441532135
1761914382896017400,8.345017333984375,0.5571269392967224,0.12380845844745636,-0.1802455186843872
1761914382906072300,8.355072265625,0.5225527286529541,0.10101073235273361,-0.12975464761257172
1761914382916128500,8.36512841796875,0.48595088720321655,0.10668244957923889,-0.059717271476984024
1761914382926184400,8.375184326171874,0.4552595615386963,0.14221008121967316,0.011883147992193699
1761914382936240000,8.385240234375,0.4356405735015869,0.1847815215587616,0.06793789565563202
1761914382946296300,8.39529638671875,0.4249064326286316,0.22869065403938293,0.11803781241178513
1761914382956351200,8.405351318359376,0.42511892318725586,0.28025388717651367,0.15753716230392456
1761914382966407400,8.415407470703125,0.4297887682914734,0.33154287934303284,0.18997152149677277
1761914382976463400,8.42546337890625,0.42080917954444885,0.3464646637439728,0.225508451461792
1761914382986519300,8.435519287109376,0.40469998121261597,0.3238579034805298,0.2350846529006958
1761914382996575200,8.4455751953125,0.39351576566696167,0.2779111862182617,0.20889246463775635
1761914383006630400,8.45563037109375,0.38675054907798767,0.23224568367004395,0.17281381785869598
1761914383016686000,8.46568603515625,0.37533435225486755,0.19127748906612396,0.1559102088212967
1761914383026742300,8.4757421875,0.3687764108181,0.14672787487506866,0.16526073217391968
1761914383036798200,8.485798095703124,0.34778788685798645,0.07764916121959686,0.1844538152217865
1761914383046853400,8.495853271484375,0.32800567150115967,-0.026732638478279114,0.168911874294281
1761914383056909300,8.505909423828125,0.3099222779273987,-0.1800103485584259,0.09479422867298126
1761914383066965200,8.51596533203125,0.2834446132183075,-0.3372548222541809,-0.04265231266617775
1761914383077021400,8.526021484375,0.27045413851737976,-0.47593218088150024,-0.20759600400924683
1761914383087077400,8.536077392578125,0.2726150155067444,-0.5538637638092041,-0.36998623609542847
1761914383097132300,8.54613232421875,0.2863606810569763,-0.523005485534668,-0.5041597485542297
1761914383107188200,8.556188232421874,0.31283169984817505,-0.41525158286094666,-0.5965807437896729
1761914383117244200,8.566244140625,0.35311147570610046,-0.24533873796463013,-0.6468159556388855
1761914383127300400,8.57630029296875,0.3961268365383148,-0.046910058706998825,-0.6585455536842346
1761914383137356300,8.586356201171874,0.40183570981025696,0.11995638906955719,-0.6225537061691284
1761914383147411500,8.596411376953125,0.35833725333213806,0.24837134778499603,-0.5495651960372925
1761914383157469200,8.60646923828125,0.26894447207450867,0.3314971327781677,-0.44017037749290466
1761914383167525400,8.616525390625,0.15263624489307404,0.3527110815048218,-0.3083207309246063
1761914383177581300,8.626581298828125,0.008120546117424965,0.31706947088241577,-0.16669172048568726
1761914383187636500,8.636636474609375,-0.09781467914581299,0.25500422716140747,-0.05464906617999077
1761914383197692400,8.6466923828125,-0.14552880823612213,0.21489174664020538,0.010015471838414669
1761914383207748400,8.656748291015624,-0.14518499374389648,0.17772947251796722,0.03785562515258789
1761914383217804300,8.66680419921875,-0.12132075428962708,0.1217854917049408,0.08183158934116364
1761914383227860200,8.676860107421875,-0.09777121990919113,0.04748329892754555,0.17738661170005798
1761914383237915400,8.686915283203126,-0.0734771341085434,-0.04733431711792946,0.3213108777999878
1761914383247971300,8.696971435546875,-0.06592147797346115,-0.16756166517734528,0.48770731687545776
1761914383258027300,8.70702734375,-0.06567524373531342,-0.27908656001091003,0.6309779286384583
1761914383268083500,8.71708349609375,-0.054912079125642776,-0.34072408080101013,0.7126286029815674
1761914383278139400,8.727139404296874,-0.021502593532204628,-0.35034531354904175,0.7227396368980408
1761914383288194300,8.7371943359375,0.026709677651524544,-0.3049810528755188,0.6729758381843567
1761914383298250200,8.747250244140625,0.08299073576927185,-0.23219308257102966,0.5757749080657959
1761914383308306200,8.75730615234375,0.1402745395898819,-0.13475841283798218,0.4752732813358307
1761914383318362000,8.767362060546875,0.1911991685628891,-0.03914906829595566,0.393171489238739
1761914383328417300,8.777417236328125,0.230061337351799,0.05476411059498787,0.3461206257343292
1761914383338473200,8.78747314453125,0.25951918959617615,0.12141930311918259,0.3313681483268738
1761914383348529400,8.797529296875,0.2728017270565033,0.14804823696613312,0.33663642406463623
1761914383358585300,8.80758544921875,0.2738637626171112,0.13964785635471344,0.33655282855033875
1761914383368641300,8.817641357421875,0.2566469609737396,0.0968862920999527,0.33524763584136963
1761914383378696200,8.8276962890625,0.22476093471050262,0.03333331272006035,0.323861688375473
1761914383388752100,8.837752197265624,0.1934615969657898,-0.026859188452363014,0.3066757917404175
1761914383398808300,8.847808349609375,0.1621876209974289,-0.07811382412910461,0.2776089012622833
1761914383408864300,8.8578642578125,0.126484215259552,-0.11356369405984879,0.2549419403076172
1761914383418920200,8.867920166015624,0.0866059958934784,-0.127059668302536,0.23466211557388306
1761914383428975400,8.877975341796875,0.050024278461933136,-0.13461878895759583,0.19350826740264893
1761914383439031300,8.88803125,0.018001234158873558,-0.11991532891988754,0.1415242999792099
1761914383449087500,8.89808740234375,-0.0026297415606677532,-0.09308265149593353,0.08224739134311676
1761914383459143400,8.908143310546874,-0.0064818235114216805,-0.05371199920773506,0.03148376941680908
1761914383469198300,8.9181982421875,-0.00590871088206768,-0.003625130048021674,0.0028001926839351654
1761914383479254300,8.928254150390625,-0.018005555495619774,0.03295042738318443,-0.010664784349501133
1761914383489310200,8.938310302734376,-0.017899028956890106,0.05091957375407219,-0.017438268288969994
1761914383499366400,8.948366455078125,-0.024018408730626106,0.08509209752082825,-0.022022215649485588
1761914383509422300,8.95842236328125,-0.026973985135555267,0.1385318785905838,-0.021881068125367165
1761914383519477200,8.968477294921875,-0.022974561899900436,0.202853262424469,-0.0253007635474205
1761914383529533400,8.978533447265624,-0.043913133442401886,0.2516050636768341,-0.0411287322640419
1761914383539589400,8.98858935546875,-0.0630161389708519,0.28112930059432983,-0.07492716610431671
1761914383549645300,8.998645263671875,-0.08687406778335571,0.3301916718482971,-0.12874272465705872
1761914383559701200,9.008701171875,-0.10356391221284866,0.3881641626358032,-0.17820535600185394
1761914383569756200,9.018756103515624,-0.10906945914030075,0.45450082421302795,-0.19695347547531128
1761914383579812400,9.028812255859375,-0.12556909024715424,0.5132915377616882,-0.17852987349033356
1761914383589868300,9.038868408203125,-0.141221284866333,0.5737876296043396,-0.11386939883232117
1761914383599924200,9.04892431640625,-0.1578083336353302,0.6040436625480652,-0.02940455824136734
1761914383609979400,9.0589794921875,-0.1754818707704544,0.5868117213249207,0.051371511071920395
1761914383620035300,9.069035400390625,-0.21462571620941162,0.5098381042480469,0.08661085367202759
1761914383630091300,9.07909130859375,-0.243307963013649,0.3962894678115845,0.06423178315162659
1761914383640147200,9.089147216796874,-0.24864129722118378,0.3151475191116333,0.0010389173403382301
1761914383650203100,9.099203125,-0.24098683893680573,0.3031265437602997,-0.06898704171180725
1761914383660258300,9.10925830078125,-0.2212696075439453,0.322260320186615,-0.12493564188480377
1761914383670314200,9.119314208984376,-0.21704690158367157,0.3618900179862976,-0.15097469091415405
1761914383680370400,9.129370361328125,-0.22276106476783752,0.3786228597164154,-0.1422228366136551
1761914383690426400,9.13942626953125,-0.23184964060783386,0.39337435364723206,-0.12320734560489655
1761914383700482300,9.149482421875,-0.24438229203224182,0.37704232335090637,-0.09070856869220734
1761914383710537200,9.159537109375,-0.24766197800636292,0.3401431441307068,-0.050333183258771896
1761914383720593200,9.16959326171875,-0.2337404489517212,0.302165150642395,-0.007626754231750965
1761914383730649300,9.1796494140625,-0.20840659737586975,0.26278018951416016,0.008933845907449722
1761914383740705300,9.189705322265626,-0.19163592159748077,0.2133750468492508,0.008211551234126091
1761914383750760200,9.19976025390625,-0.15247920155525208,0.18508215248584747,0.012331461533904076
1761914383760816400,9.20981640625,-0.10296420753002167,0.19575418531894684,0.02531522884964943
1761914383770872300,9.219872314453125,-0.05623611435294151,0.23830164968967438,0.033476751297712326
1761914383780924700,9.229924560546875,-0.01846592128276825,0.3153086304664612,0.024940475821495056
1761914383790980600,9.239980712890626,0.006144617218524218,0.3868275284767151,0.025958333164453506
1761914383801035500,9.250035400390624,0.026342101395130157,0.4520786702632904,0.05173633247613907
1761914383811091500,9.260091552734375,0.03724348545074463,0.47194716334342957,0.11606792360544205
1761914383821147400,9.2701474609375,0.022454610094428062,0.44252750277519226,0.1925078183412552
1761914383831203600,9.28020361328125,0.0012316119391471148,0.3683027923107147,0.25039854645729065
1761914383841258500,9.290258544921874,-0.0045877499505877495,0.26809370517730713,0.25002753734588623
1761914383851314400,9.300314453125,-0.004355522338300943,0.16521579027175903,0.206353560090065
1761914383861370600,9.31037060546875,-0.00031475353171117604,0.11092714220285416,0.13381370902061462
1761914383871426600,9.320426513671874,0.004960968624800444,0.10101139545440674,0.04829641059041023
1761914383881482500,9.330482421875,0.01165182888507843,0.09213308244943619,-0.03022967278957367
1761914383891537400,9.340537353515625,0.0006529736565425992,0.05907925218343735,-0.09029939770698547
1761914383901593300,9.35059326171875,-0.02273094467818737,0.017612000927329063,-0.13886158168315887
1761914383911649500,9.3606494140625,-0.03632371872663498,0.003936136141419411,-0.15791888535022736
1761914383921705500,9.37070556640625,-0.01767457276582718,0.0234078336507082,-0.15316954255104065
1761914383931761400,9.380761474609375,0.026037488132715225,0.06411132216453552,-0.1257626861333847
1761914383941816600,9.390816650390626,0.07775312662124634,0.07391256839036942,-0.05775099992752075
1761914383951872500,9.40087255859375,0.11153506487607956,0.015764309093356133,0.03846661373972893
1761914383961928700,9.4109287109375,0.12044615298509598,-0.0918421745300293,0.1582566499710083
1761914383971984600,9.420984619140626,0.11114159971475601,-0.19921310245990753,0.2804206311702728
1761914383982039600,9.43103955078125,0.08970730751752853,-0.2718510925769806,0.37720951437950134
1761914383992095500,9.441095458984375,0.06776445358991623,-0.29417261481285095,0.45043259859085083
1761914384002151400,9.4511513671875,0.044478315860033035,-0.2550334334373474,0.48722851276397705
1761914384012207600,9.46120751953125,0.01782939024269581,-0.1607351303100586,0.4987435042858124
1761914384022263600,9.471263671875,-0.01929367333650589,-0.06223312392830849,0.501525342464447
1761914384032318700,9.481318603515625,-0.08027207106351852,0.00547375250607729,0.5126104950904846
1761914384042374700,9.491374755859376,-0.13776017725467682,0.030450770631432533,0.5203994512557983
1761914384052430300,9.501430419921874,-0.1847417950630188,0.02404640056192875,0.5171099305152893
1761914384062486500,9.511486572265625,-0.21223554015159607,-0.015346162021160126,0.4840386211872101
1761914384072541400,9.52154150390625,-0.21928732097148895,-0.06914787739515305,0.415301114320755
1761914384082597400,9.531597412109376,-0.20353539288043976,-0.10119325667619705,0.30859285593032837
1761914384092653600,9.541653564453124,-0.14188320934772491,-0.10032426565885544,0.17180782556533813
1761914384102709500,9.55170947265625,-0.04492191597819328,-0.05369926989078522,0.039682112634181976
1761914384112765400,9.561765380859375,0.05497032776474953,-0.004387646913528442,-0.060450080782175064
1761914384122820600,9.571820556640626,0.1297679841518402,0.008701503276824951,-0.10714223980903625
1761914384132876300,9.581876220703125,0.1732773780822754,-0.018481381237506866,-0.10713398456573486
1761914384142932500,9.591932373046875,0.19450201094150543,-0.04553193598985672,-0.0866902619600296
1761914384152988400,9.601988525390626,0.2060880959033966,-0.06928546726703644,-0.06687820702791214
1761914384163044400,9.61204443359375,0.22503425180912018,-0.09116820245981216,-0.06112492084503174
1761914384173099500,9.622099609375,0.24153627455234528,-0.10415643453598022,-0.06093929708003998
1761914384183155500,9.632155517578125,0.2701834440231323,-0.11233194172382355,-0.05952940136194229
1761914384193211600,9.642211669921876,0.30498456954956055,-0.11553492397069931,-0.0515015684068203
1761914384203267600,9.652267578125,0.33937665820121765,-0.12797518074512482,-0.04585897922515869
1761914384213322500,9.662322509765625,0.35775327682495117,-0.1297597587108612,-0.053225018084049225
1761914384223378400,9.67237841796875,0.3644748330116272,-0.12388794124126434,-0.0652281865477562
1761914384233434400,9.682434326171874,0.35488584637641907,-0.12973064184188843,-0.07545551657676697
1761914384243490600,9.692490478515625,0.33756813406944275,-0.1530224233865738,-0.08321349322795868
1761914384253546500,9.70254638671875,0.31519412994384766,-0.19672542810440063,-0.0896274521946907
1761914384263601700,9.7126015625,0.2854456305503845,-0.23836955428123474,-0.0923321470618248
1761914384273657600,9.72265771484375,0.25545260310173035,-0.2741083800792694,-0.09848245233297348
1761914384283713500,9.732713623046875,0.22190409898757935,-0.3098730742931366,-0.10275368392467499
1761914384293769500,9.74276953125,0.18941514194011688,-0.3298068642616272,-0.10707945376634598
1761914384303825700,9.75282568359375,0.16881811618804932,-0.3293118178844452,-0.11420266330242157
1761914384313880300,9.76288037109375,0.1538841724395752,-0.31546977162361145,-0.1201777309179306
1761914384323936500,9.7729365234375,0.13835926353931427,-0.2800709307193756,-0.13363218307495117
1761914384333992400,9.782992431640626,0.11120513826608658,-0.23164772987365723,-0.15271054208278656
1761914384344048400,9.79304833984375,0.09261871129274368,-0.18211156129837036,-0.16474956274032593
1761914384354103600,9.803103515625,0.06964095681905746,-0.13191576302051544,-0.16744309663772583
1761914384364159500,9.813159423828125,0.05774432420730591,-0.09605449438095093,-0.15634191036224365
1761914384374215700,9.823215576171876,0.05112690478563309,-0.08117248117923737,-0.1385168433189392
1761914384384271600,9.833271728515625,0.05370587483048439,-0.08014979958534241,-0.11997933685779572
1761914384394327300,9.843327392578125,0.06032116711139679,-0.09153241664171219,-0.10212524235248566
1761914384404382500,9.853382568359375,0.08081723004579544,-0.09189409762620926,-0.09400235861539841
1761914384414438400,9.8634384765625,0.09691550582647324,-0.10538353770971298,-0.08394838869571686
1761914384424494600,9.87349462890625,0.1062241867184639,-0.1278235763311386,-0.07760589569807053
1761914384434550500,9.883550537109375,0.10984928160905838,-0.15074460208415985,-0.06792370975017548
1761914384444605700,9.893605712890626,0.11288981139659882,-0.15967689454555511,-0.06996883451938629
1761914384454661600,9.90366162109375,0.12972258031368256,-0.15483899414539337,-0.07129854708909988
1761914384464717600,9.913717529296875,0.15434421598911285,-0.1398315578699112,-0.06665997952222824
1761914384474773500,9.9237734375,0.17889270186424255,-0.12344459444284439,-0.051454924046993256
1761914384484829400,9.933829345703124,0.19351495802402496,-0.11321671307086945,-0.020296338945627213
1761914384494884600,9.943884521484375,0.20061947405338287,-0.1075764074921608,0.022652193903923035
1761914384504940500,9.9539404296875,0.19996096193790436,-0.10495125502347946,0.06995002925395966
1761914384514996500,9.96399658203125,0.18057873845100403,-0.09568025916814804,0.11001516133546829
1761914384525052700,9.974052734375,0.14979207515716553,-0.06553149223327637,0.1323455274105072
1761914384535108600,9.984108642578125,0.1147608608007431,-0.0312531478703022,0.12511610984802246
1761914384545163500,9.99416357421875,0.0938010886311531,-0.02087787166237831,0.09071289002895355
1761914384555219500,10.004219482421876,0.0815042108297348,-0.039011601358652115,0.0371340811252594
1761914384565275400,10.014275390625,0.07466588914394379,-0.06889364868402481,-0.016153164207935333
1761914384575331300,10.024331298828125,0.06404867023229599,-0.08864258974790573,-0.044629283249378204
1761914384585386500,10.034386474609375,0.03638147935271263,-0.1036953404545784,-0.0377635583281517
1761914384595442400,10.0444423828125,0.0031481580808758736,-0.15043622255325317,-0.001288904808461666
1761914384605498600,10.05449853515625,-0.0411665178835392,-0.23568254709243774,0.043407849967479706
1761914384615554600,10.064554443359375,-0.06929003447294235,-0.2650042474269867,0.075531966984272
1761914384625610500,10.074610595703126,-0.05816612020134926,-0.22704839706420898,0.09593210369348526
1761914384635665400,10.08466552734375,-0.044842857867479324,-0.17784196138381958,0.12996810674667358
1761914384645721300,10.094721435546875,-0.04189690202474594,-0.14083145558834076,0.19681215286254883
1761914384655777500,10.104777587890625,-0.042149901390075684,-0.10207846015691757,0.26825064420700073
1761914384665833500,10.11483349609375,-0.024769838899374008,-0.019540861248970032,0.301379531621933
1761914384675888600,10.124888671875,0.02138460800051689,0.0955018401145935,0.27514418959617615
1761914384685944600,10.134944580078125,0.07980884611606598,0.21624377369880676,0.18842004239559174
1761914384696000500,10.14500048828125,0.12879396975040436,0.3228197693824768,0.06260298937559128
1761914384706056700,10.155056640625,0.15778177976608276,0.3776330053806305,-0.06830954551696777
1761914384716112600,10.165112548828125,0.16786770522594452,0.41689518094062805,-0.18487797677516937
1761914384726167600,10.17516748046875,0.16732122004032135,0.4454956650733948,-0.2687867283821106
1761914384736223500,10.185223388671876,0.16546472907066345,0.43987002968788147,-0.31547778844833374
1761914384746279400,10.195279541015625,0.14597390592098236,0.34257179498672485,-0.3020842969417572
1761914384756335600,10.205335693359375,0.11560481786727905,0.15435951948165894,-0.20879563689231873
1761914384766391600,10.2153916015625,0.09179169684648514,-0.09433623403310776,-0.0371505469083786
1761914384776446500,10.225446533203124,0.04675258323550224,-0.3434067964553833,0.16960689425468445
1761914384786506000,10.235506103515625,-0.00844547525048256,-0.5301808714866638,0.36791670322418213
1761914384796562000,10.24556201171875,-0.06362803280353546,-0.662936806678772,0.5205914378166199
1761914384806617900,10.255617919921875,-0.1010933369398117,-0.7184900641441345,0.5980586409568787
1761914384816673000,10.265673095703125,-0.09969597309827805,-0.6597141027450562,0.5994716882705688
1761914384826729000,10.27572900390625,-0.07343115657567978,-0.5180113911628723,0.5654444694519043
1761914384836785200,10.28578515625,-0.053156778216362,-0.3750198483467102,0.5521949529647827
1761914384846841000,10.295841064453125,-0.07842878252267838,-0.3075511157512665,0.5840187668800354
1761914384856897000,10.30589697265625,-0.14820893108844757,-0.29364141821861267,0.6642869710922241
1761914384866952000,10.315951904296876,-0.21793217957019806,-0.3177405893802643,0.7655719518661499
1761914384877008000,10.3260078125,-0.2618162930011749,-0.35071080923080444,0.8464527130126953
1761914384887064000,10.33606396484375,-0.2751722037792206,-0.3473609387874603,0.8848434090614319
1761914384897120000,10.3461201171875,-0.2692812979221344,-0.29951006174087524,0.8620867133140564
1761914384907175200,10.356175048828124,-0.256573349237442,-0.22143395245075226,0.7972452640533447
1761914384917231000,10.366231201171875,-0.2416793704032898,-0.1633855551481247,0.7040460705757141
1761914384927287000,10.376287109375,-0.23298996686935425,-0.1094939261674881,0.5945767760276794
1761914384937343200,10.38634326171875,-0.23238888382911682,-0.09750916808843613,0.4705168902873993
1761914384947399000,10.39639892578125,-0.23965781927108765,-0.14017774164676666,0.3584901690483093
1761914384957454000,10.4064541015625,-0.2585654556751251,-0.23248183727264404,0.270236998796463
1761914384967510000,10.416510009765625,-0.2850716710090637,-0.33621588349342346,0.2040373831987381
1761914384977566000,10.42656591796875,-0.3160642087459564,-0.41095057129859924,0.1534530371427536
1761914384987622100,10.4366220703125,-0.3603934049606323,-0.4484447240829468,0.11371851712465286
1761914384997677000,10.446677001953125,-0.4130222797393799,-0.47795921564102173,0.06350114941596985
1761914385007733000,10.45673291015625,-0.46842607855796814,-0.49789702892303467,-0.007877611555159092
1761914385017789200,10.4667890625,-0.5073146224021912,-0.502433717250824,-0.08494176715612411
1761914385027844900,10.476844970703125,-0.513394296169281,-0.48324155807495117,-0.14560407400131226
1761914385037900800,10.48690087890625,-0.47609561681747437,-0.4476683735847473,-0.18372641503810883
1761914385047956000,10.4969560546875,-0.414549857378006,-0.40171611309051514,-0.2063031792640686
1761914385058012000,10.507011962890624,-0.35234561562538147,-0.3356129825115204,-0.22027385234832764
1761914385068068000,10.517068115234375,-0.2993600070476532,-0.2551894783973694,-0.2266378253698349
1761914385078124000,10.5271240234375,-0.27582645416259766,-0.19705906510353088,-0.2161787897348404
1761914385088180000,10.537179931640624,-0.27200406789779663,-0.1770114302635193,-0.20010781288146973
1761914385098235000,10.54723486328125,-0.28917932510375977,-0.19768448173999786,-0.17334222793579102
1761914385108290800,10.557290771484375,-0.3201264441013336,-0.27711448073387146,-0.1430615782737732
1761914385118347000,10.567346923828126,-0.3465205132961273,-0.3943902552127838,-0.12375152856111526
1761914385128403000,10.57740283203125,-0.36457163095474243,-0.4992932081222534,-0.14414569735527039
1761914385138458000,10.5874580078125,-0.37760379910469055,-0.5505891442298889,-0.18988922238349915
1761914385148514000,10.59751416015625,-0.3821900188922882,-0.5094125270843506,-0.2462153136730194
1761914385158570000,10.607570068359376,-0.386648952960968,-0.4258398413658142,-0.2913327217102051
1761914385168626200,10.617626220703125,-0.3734232485294342,-0.3275638520717621,-0.31933891773223877
1761914385178682000,10.62768212890625,-0.3533802926540375,-0.2347303330898285,-0.335232138633728
1761914385188737000,10.637737060546876,-0.31042900681495667,-0.13392062485218048,-0.3544214069843292
1761914385198793000,10.64779296875,-0.24527718126773834,-0.03631178289651871,-0.38236305117607117
1761914385208849000,10.657848876953125,-0.19568966329097748,0.022908609360456467,-0.40674498677253723
1761914385218905000,10.667905029296875,-0.1650659739971161,0.008267348632216454,-0.4002663195133209
1761914385228960000,10.6779599609375,-0.13917391002178192,-0.029024841263890266,-0.35925132036209106
1761914385239016000,10.688015869140624,-0.12268760800361633,-0.06727715581655502,-0.29338496923446655
1761914385249072000,10.698072021484375,-0.12292486429214478,-0.10386662185192108,-0.22717347741127014
1761914385259128000,10.708128173828126,-0.12245961278676987,-0.1730126589536667,-0.19231218099594116
1761914385269184000,10.71818408203125,-0.10395202785730362,-0.25818538665771484,-0.1995643824338913
1761914385279239000,10.728239013671875,-0.06924092024564743,-0.3486260771751404,-0.23012308776378632
1761914385289294800,10.738294921875,-0.0439864881336689,-0.4544656276702881,-0.25609564781188965
1761914385299351000,10.74835107421875,-0.032097071409225464,-0.5231831669807434,-0.28955453634262085
1761914385309407000,10.758406982421874,-0.049339648336172104,-0.46992427110671997,-0.33628416061401367
1761914385319462100,10.768462158203125,-0.061860233545303345,-0.3104701638221741,-0.3141860365867615
1761914385329518000,10.77851806640625,-0.06548945605754852,0.022701378911733627,-0.3076372444629669
1761914385339574000,10.788573974609376,-0.12252078950405121,0.25461024045944214,-0.30733469128608704
1761914385349630200,10.798630126953125,-0.16147974133491516,0.3867334723472595,-0.23715683817863464
1761914385359686000,10.808685791015625,-0.13550300896167755,0.4699751138687134,-0.08806721866130829
1761914385369741000,10.818740966796875,-0.1151832565665245,0.5437116622924805,0.09333678334951401
