time,seconds_elapsed,z,y,x
1761914374620115000,0.069114990234375,0.33842891454696655,0.6872242093086243,-0.14422482252120972
1761914374630171000,0.0791708984375,0.30878978967666626,0.6562966108322144,-0.22629599273204803
1761914374640225800,0.089225830078125,0.2833121418952942,0.5925672054290771,-0.303390234708786
1761914374650282000,0.099281982421875,0.2588384747505188,0.4826633334159851,-0.3723013997077942
1761914374660338000,0.109337890625,0.23982271552085876,0.3543540835380554,-0.4375874698162079
1761914374670393900,0.119393798828125,0.23237891495227814,0.246734157204628,-0.5035092234611511
1761914374680449000,0.129448974609375,0.2331072837114334,0.18868282437324524,-0.5700216889381409
1761914374690505000,0.1395048828125,0.22999991476535797,0.19573168456554413,-0.6238787770271301
1761914374700561000,0.149560791015625,0.21620100736618042,0.23446203768253326,-0.6538084149360657
1761914374710615800,0.15961572265625,0.1926615983247757,0.2745548486709595,-0.6497937440872192
1761914374720672000,0.169672119140625,0.17127268016338348,0.2720416486263275,-0.6104665398597717
1761914374730728000,0.17972802734375,0.1518814116716385,0.20073284208774567,-0.5375686287879944
1761914374740783900,0.189783935546875,0.15240392088890076,0.14794179797172546,-0.45566925406455994
1761914374750839000,0.199839111328125,0.17777985334396362,0.08024690300226212,-0.3965926170349121
1761914374760895000,0.20989501953125,0.2143530398607254,0.03711621090769768,-0.33315664529800415
1761914374770950400,0.219950439453125,0.3029199242591858,0.04735260084271431,-0.2389683723449707
1761914374781006300,0.23000634765625,0.42495155334472656,0.08187169581651688,-0.12069658935070038
1761914374791061500,0.2400615234375,0.5269586443901062,0.13089250028133392,-0.008054464124143124
1761914374801117400,0.250117431640625,0.5970988273620605,0.19254814088344574,0.07283452898263931
1761914374811173400,0.26017333984375,0.6334501504898071,0.2582744359970093,0.12506337463855743
1761914374821229600,0.2702294921875,0.64854496717453,0.31231048703193665,0.15265744924545288
1761914374831284200,0.2802841796875,0.6360201239585876,0.3173055350780487,0.1560167670249939
1761914374841340400,0.29034033203125,0.6004450917243958,0.2846687436103821,0.14158029854297638
1761914374851396400,0.300396240234375,0.5536631941795349,0.23556432127952576,0.1026424914598465
1761914374861451300,0.310451171875,0.5092403292655945,0.17825229465961456,0.05679963156580925
1761914374871507500,0.320507568359375,0.4783591330051422,0.13537700474262238,0.017604026943445206
1761914374881563400,0.3305634765625,0.4456493854522705,0.09563491493463516,-0.017952902242541313
1761914374891619300,0.340619384765625,0.3970184624195099,0.07943490147590637,-0.054729558527469635
1761914374901674200,0.35067431640625,0.31686609983444214,0.07690596580505371,-0.09350891411304474
1761914374911730200,0.360730224609375,0.23381862044334412,0.08652503788471222,-0.1386316418647766
1761914374921786400,0.370786376953125,0.15526601672172546,0.11073716729879379,-0.17903472483158112
1761914374931842300,0.38084228515625,0.09153604507446289,0.1457851678133011,-0.19250740110874176
1761914374941897500,0.3908974609375,0.03560619801282883,0.18668866157531738,-0.17864990234375
1761914374951953400,0.400953369140625,-0.008435562252998352,0.2462795525789261,-0.138639897108078
1761914374962009300,0.41100927734375,-0.0522267185151577,0.31269586086273193,-0.08350128680467606
1761914374972065500,0.4210654296875,-0.08475936204195023,0.38291701674461365,-0.018967565149068832
1761914374982120200,0.4311201171875,-0.10229068249464035,0.46078091859817505,0.042270492762327194
1761914374992176400,0.44117626953125,-0.10937948524951935,0.5179230570793152,0.09691882133483887
1761914375002232300,0.451232421875,-0.10934220254421234,0.5583050847053528,0.15311124920845032
1761914375012288300,0.461288330078125,-0.1040065586566925,0.5855004787445068,0.20765918493270874
1761914375022343400,0.471343505859375,-0.10462600737810135,0.5833848714828491,0.2604409158229828
1761914375032399400,0.4813994140625,-0.10273223370313644,0.5724765658378601,0.3018251061439514
1761914375042455600,0.49145556640625,-0.10387127101421356,0.5518980622291565,0.3352411091327667
1761914375052511500,0.501511474609375,-0.09320344775915146,0.5024625658988953,0.36269643902778625
1761914375062566400,0.51156640625,-0.08041495084762573,0.423088937997818,0.3958043158054352
1761914375072622300,0.521622314453125,-0.06980358064174652,0.3060544729232788,0.432168185710907
1761914375082678300,0.53167822265625,-0.06705120205879211,0.1606147140264511,0.48024383187294006
1761914375092733400,0.5417333984375,-0.05856424197554588,0.05331595242023468,0.5280044674873352
1761914375102789400,0.551789306640625,-0.02412770688533783,0.01575765758752823,0.5388006567955017
1761914375112845300,0.56184521484375,0.013834589160978794,0.03562111034989357,0.5270046591758728
1761914375122901500,0.571901611328125,0.04866447299718857,0.06874816864728928,0.49902471899986267
1761914375132956200,0.5819560546875,0.08520703762769699,0.09700697660446167,0.4584581255912781
1761914375143012400,0.592012451171875,0.12295308709144592,0.1296248435974121,0.4015903174877167
1761914375153068300,0.602068359375,0.15835341811180115,0.17620618641376495,0.33816713094711304
1761914375163124200,0.612124267578125,0.1893656700849533,0.24872486293315887,0.2620643675327301
1761914375173179400,0.622179443359375,0.21025682985782623,0.3352009057998657,0.18463216722011566
1761914375183235300,0.6322353515625,0.21672777831554413,0.4056508243083954,0.12380050122737885
1761914375193291500,0.64229150390625,0.211004376411438,0.47882702946662903,0.07999283820390701
1761914375203347500,0.652347412109375,0.19571970403194427,0.5489938855171204,0.04904477298259735
1761914375213402400,0.66240234375,0.180067241191864,0.5982272028923035,0.030467627570033073
1761914375223458300,0.672458251953125,0.17699448764324188,0.6067168116569519,0.03206792101264
1761914375233514200,0.68251416015625,0.16824573278427124,0.5487507581710815,0.05366136506199837
1761914375243570400,0.6925703125,0.16111911833286285,0.3967047333717346,0.09940727800130844
1761914375253625300,0.702625244140625,0.14547011256217957,0.17413371801376343,0.17046920955181122
1761914375263681500,0.712681640625,0.1364225596189499,-0.06478805094957352,0.25378939509391785
1761914375273737500,0.722737548828125,0.14651566743850708,-0.26448091864585876,0.3292655050754547
1761914375283793400,0.73279345703125,0.1411701738834381,-0.4225531220436096,0.38900765776634216
1761914375293848300,0.742848388671875,0.12922349572181702,-0.5732907056808472,0.4358369708061218
1761914375303904300,0.752904296875,0.11335079371929169,-0.718333899974823,0.4580320119857788
1761914375313960200,0.762960205078125,0.10277591645717621,-0.812696635723114,0.45548203587532043
1761914375324015400,0.773015380859375,0.09830526262521744,-0.8296457529067993,0.433248370885849
1761914375334071300,0.7830712890625,0.09652840346097946,-0.7991595268249512,0.39952290058135986
1761914375344127500,0.79312744140625,0.1044933870434761,-0.7208388447761536,0.35933926701545715
1761914375354183400,0.803183349609375,0.11590556055307388,-0.5864394903182983,0.3054850697517395
1761914375364238600,0.813238525390625,0.12725089490413666,-0.40859362483024597,0.25158774852752686
1761914375374294300,0.823294189453125,0.17226417362689972,-0.2436044067144394,0.18887218832969666
1761914375384350200,0.83335009765625,0.2717779874801636,-0.08986624330282211,0.12306413799524307
1761914375394406400,0.843406494140625,0.38953283429145813,0.05211726203560829,0.056109074503183365
1761914375404461300,0.85346142578125,0.4923449754714966,0.11581900715827942,0.0021611552219837904
1761914375414517500,0.863517578125,0.5446295142173767,0.08795062452554703,-0.04394588619470596
1761914375424573400,0.873573486328125,0.5152420401573181,-0.04884184151887894,-0.07620129734277725
1761914375434629400,0.88362939453125,0.42566609382629395,-0.25212544202804565,-0.09322261810302734
1761914375444684300,0.893684326171875,0.2923809885978699,-0.47447410225868225,-0.11554177850484848
1761914375454740200,0.903740234375,0.14762328565120697,-0.6875139474868774,-0.1346169263124466
1761914375464796400,0.91379638671875,0.0002846919232979417,-0.8770021200180054,-0.15553206205368042
1761914375474852400,0.923852294921875,-0.1433238685131073,-1.0094759464263916,-0.17715799808502197
1761914375484907300,0.9339072265625,-0.26653769612312317,-1.0756642818450928,-0.2010422945022583
1761914375494963500,0.94396337890625,-0.3524685800075531,-1.1119900941848755,-0.22463390231132507
1761914375505019400,0.954019287109375,-0.4061160981655121,-1.0970423221588135,-0.2650330066680908
1761914375515075300,0.964075439453125,-0.43474188446998596,-1.0244120359420776,-0.31023189425468445
1761914375525130200,0.974130126953125,-0.4272051155567169,-0.9004730582237244,-0.34956786036491394
1761914375535186200,0.984186279296875,-0.40168166160583496,-0.761448323726654,-0.3806282877922058
1761914375545242400,0.994242431640625,-0.3750881254673004,-0.6048803329467773,-0.3865485191345215
1761914375555298300,1.00429833984375,-0.355989545583725,-0.4409257173538208,-0.37363776564598083
1761914375565353500,1.014353515625,-0.3406723737716675,-0.2769322693347931,-0.3381061553955078
1761914375575409400,1.024409423828125,-0.32608702778816223,-0.1115422397851944,-0.2859302759170532
1761914375585465300,1.03446533203125,-0.3046419322490692,0.042220957577228546,-0.2315986007452011
1761914375595521500,1.044521484375,-0.26874250173568726,0.18629343807697296,-0.19229407608509064
1761914375605576200,1.054576171875,-0.21953901648521423,0.32670915126800537,-0.1571001410484314
1761914375615632400,1.06463232421875,-0.16642360389232635,0.45974308252334595,-0.11346637457609177
1761914375625688300,1.074688232421875,-0.10489818453788757,0.5673457384109497,-0.04704021289944649
1761914375635743500,1.084743408203125,-0.054596398025751114,0.6106540560722351,0.0383247509598732
1761914375645799400,1.09479931640625,-0.011475827544927597,0.6071376204490662,0.1223171204328537
1761914375655855400,1.10485546875,0.023998809978365898,0.5853835940361023,0.18303214013576508
1761914375665911600,1.11491162109375,0.05747714266180992,0.560980498790741,0.21066589653491974
1761914375675966500,1.124966552734375,0.09149609506130219,0.5412254333496094,0.20532146096229553
1761914375686022400,1.1350224609375,0.1401057094335556,0.5081151723861694,0.20026545226573944
1761914375696078300,1.145078369140625,0.19653037190437317,0.4711986780166626,0.1929798424243927
1761914375706134300,1.15513427734375,0.2622433304786682,0.4266778230667114,0.1828361302614212
1761914375716189400,1.165189453125,0.3323529064655304,0.3781251907348633,0.1710662841796875
1761914375726245400,1.175245361328125,0.3975819945335388,0.29495495557785034,0.1577339768409729
1761914375736301300,1.18530126953125,0.43664976954460144,0.19797992706298828,0.1294858157634735
1761914375746357500,1.195357421875,0.4821794331073761,0.1314789354801178,0.08010921627283096
1761914375756412200,1.205412109375,0.5359609127044678,0.13259506225585938,-0.0020732709672302008
1761914375766468400,1.21546826171875,0.5834258794784546,0.1430753916501999,-0.10103766620159149
1761914375776524800,1.22552490234375,0.617159366607666,0.14910240471363068,-0.19357505440711975
1761914375786580700,1.235580810546875,0.6485260725021362,0.16153164207935333,-0.289975643157959
1761914375796636000,1.245635986328125,0.7036974430084229,0.1807498037815094,-0.3780277371406555
1761914375806691600,1.255691650390625,0.7743819952011108,0.18011197447776794,-0.45118048787117004
1761914375816747800,1.265747802734375,0.8338767290115356,0.17218267917633057,-0.5012207627296448
1761914375826803700,1.2758037109375,0.8778988122940063,0.15916861593723297,-0.5216924548149109
1761914375836858600,1.285858642578125,0.898097813129425,0.14074645936489105,-0.504939615726471
1761914375846914800,1.295914794921875,0.9155660271644592,0.12917982041835785,-0.46804869174957275
1761914375856970800,1.305970703125,0.932466447353363,0.12110618501901627,-0.4199559986591339
1761914375867026700,1.316026611328125,0.9537453651428223,0.11432843655347824,-0.36053794622421265
1761914375877081900,1.326081787109375,0.9686263203620911,0.1068982183933258,-0.2948912978172302
1761914375887137500,1.336137451171875,0.9629460573196411,0.07472643256187439,-0.21968069672584534
1761914375897193700,1.34619384765625,0.9279864430427551,0.030421288684010506,-0.1375778317451477
1761914375907249700,1.356249755859375,0.8530299067497253,-0.04384788125753403,-0.04306997358798981
1761914375917304800,1.366304931640625,0.7445852160453796,-0.15329422056674957,0.07232985645532608
1761914375927360800,1.37636083984375,0.6097800135612488,-0.2884767949581146,0.18652594089508057
1761914375937416700,1.386416748046875,0.4837847650051117,-0.41634422540664673,0.25014352798461914
1761914375947473000,1.396472900390625,0.3821183443069458,-0.49143630266189575,0.24992142617702484
1761914375957527800,1.40652783203125,0.32431069016456604,-0.513236939907074,0.1771441549062729
1761914375967583700,1.416583740234375,0.2997065484523773,-0.47358885407447815,0.046006374061107635
1761914375977639700,1.4266396484375,0.30478066205978394,-0.37886369228363037,-0.12374457716941833
1761914375987695600,1.436695556640625,0.3457145392894745,-0.24389681220054626,-0.303758829832077
1761914375997750800,1.446750732421875,0.41898661851882935,-0.09392330050468445,-0.4637239873409271
1761914376007806700,1.456806640625,0.4935380816459656,0.029624737799167633,-0.5640074610710144
1761914376017863000,1.46686279296875,0.5508413314819336,0.11323974281549454,-0.5978000164031982
1761914376027918800,1.4769189453125,0.5824404954910278,0.153020977973938,-0.5628135800361633
1761914376037973800,1.486973876953125,0.5917799472808838,0.15677763521671295,-0.4907710552215576
1761914376048029700,1.49702978515625,0.5830109715461731,0.12584954500198364,-0.4111444056034088
1761914376058085600,1.507085693359375,0.5664998888969421,0.08145544677972794,-0.35821861028671265
1761914376068141800,1.517141845703125,0.5521190762519836,0.04663088545203209,-0.36185115575790405
1761914376078196700,1.52719677734375,0.5494530200958252,0.037817154079675674,-0.41119953989982605
1761914376088252700,1.537252685546875,0.5503337383270264,0.04454802721738815,-0.4890455901622772
1761914376098308900,1.547308837890625,0.5586584806442261,0.05066823586821556,-0.5691814422607422
1761914376108364800,1.55736474609375,0.5896931290626526,0.06358163803815842,-0.623665988445282
1761914376118419700,1.567419677734375,0.6365594267845154,0.07503429800271988,-0.636822521686554
1761914376128475600,1.5774755859375,0.6868153810501099,0.0771685540676117,-0.6197876334190369
1761914376138531600,1.587531494140625,0.7235800623893738,0.07761862874031067,-0.5875633955001831
1761914376148587800,1.597587890625,0.7434099316596985,0.06843232363462448,-0.5484620332717896
1761914376158642700,1.607642578125,0.7567353248596191,0.06487646698951721,-0.5148881077766418
1761914376168699000,1.617698974609375,0.7525134682655334,0.08263096213340759,-0.48967301845550537
1761914376178754800,1.6277548828125,0.7432395219802856,0.13395753502845764,-0.4555898904800415
1761914376188810800,1.637810791015625,0.7303248047828674,0.2051084041595459,-0.4105936586856842
1761914376198865700,1.64786572265625,0.7261199355125427,0.2873345613479614,-0.3517170250415802
1761914376208921600,1.657921630859375,0.7223603129386902,0.37061774730682373,-0.28750741481781006
1761914376218977800,1.667977783203125,0.7264216542243958,0.45091044902801514,-0.22905156016349792
1761914376229033700,1.67803369140625,0.7315232157707214,0.5054485201835632,-0.16884493827819824
1761914376239089000,1.6880888671875,0.7355595231056213,0.5268134474754333,-0.10377539694309235
1761914376249144800,1.698144775390625,0.7298318147659302,0.4919891655445099,-0.02480201981961727
1761914376259200800,1.70820068359375,0.7090655565261841,0.4217861294746399,0.062177885323762894
1761914376269256700,1.718256591796875,0.6751880049705505,0.3413597345352173,0.1505303829908371
1761914376279311600,1.7283115234375,0.6266940236091614,0.2714719772338867,0.21442334353923798
1761914376289367600,1.738367431640625,0.5743231773376465,0.23284682631492615,0.2631448209285736
1761914376299423700,1.748423828125,0.505756676197052,0.2220865935087204,0.2961389720439911
1761914376309479700,1.758479736328125,0.41833359003067017,0.21392454206943512,0.33927738666534424
1761914376319534800,1.768534912109375,0.30198168754577637,0.20085108280181885,0.4025900661945343
1761914376329590800,1.7785908203125,0.15840215981006622,0.1448887437582016,0.4905841052532196
1761914376339646700,1.788646728515625,0.0014985607704147696,0.0919773280620575,0.5758824944496155
1761914376349701600,1.79870166015625,-0.12736648321151733,0.11179124563932419,0.6254870295524597
1761914376359757600,1.808757568359375,-0.1987738162279129,0.17507034540176392,0.6274703145027161
1761914376369813800,1.818813720703125,-0.23284417390823364,0.2703489363193512,0.5844495892524719
1761914376379869700,1.82886962890625,-0.23449186980724335,0.37782347202301025,0.5262552499771118
1761914376389924900,1.8389248046875,-0.19939300417900085,0.4349203109741211,0.4725712835788727
1761914376399980800,1.848980712890625,-0.1511000394821167,0.4318622052669525,0.4334654211997986
1761914376410036700,1.85903662109375,-0.10640553385019302,0.396414190530777,0.3937526345252991
1761914376420093000,1.869093017578125,-0.08338943123817444,0.3622407615184784,0.3357870578765869
1761914376430147600,1.879147705078125,-0.06464077532291412,0.33781346678733826,0.25388607382774353
1761914376440203800,1.889203857421875,-0.05481025204062462,0.2925644814968109,0.17728370428085327
1761914376450259700,1.899259765625,-0.05925506725907326,0.22177287936210632,0.12881124019622803
1761914376460315600,1.909315673828125,-0.09536300599575043,0.10793179273605347,0.13047651946544647
1761914376470371800,1.919371826171875,-0.1503535509109497,-0.033658627420663834,0.17545437812805176
1761914376480426800,1.9294267578125,-0.22025008499622345,-0.1843772977590561,0.2495805323123932
1761914376490482700,1.939482666015625,-0.2782582640647888,-0.31522291898727417,0.32459139823913574
1761914376500539000,1.949538818359375,-0.338956743478775,-0.4445444345474243,0.38835573196411133
1761914376510593500,1.959593505859375,-0.3926577866077423,-0.5571974515914917,0.42489030957221985
1761914376520649700,1.969649658203125,-0.4228380620479584,-0.6117006540298462,0.42133578658103943
1761914376530705700,1.97970556640625,-0.42359814047813416,-0.603942334651947,0.38317349553108215
1761914376540761600,1.98976171875,-0.3885703682899475,-0.5283415913581848,0.3113597333431244
1761914376550817800,1.99981787109375,-0.32317671179771423,-0.41457030177116394,0.22248846292495728
1761914376560872700,2.009872802734375,-0.2264520525932312,-0.24213780462741852,0.11984623968601227
1761914376570929000,2.019928955078125,-0.07893343269824982,-0.007726096548140049,-0.0006524744676426053
1761914376580984800,2.02998486328125,0.10186883807182312,0.2703755497932434,-0.11245410889387131
1761914376591040800,2.040040771484375,0.27379053831100464,0.4899483919143677,-0.19435642659664154
1761914376601095700,2.050095703125,0.411730021238327,0.6197977662086487,-0.24274899065494537
1761914376611151600,2.060151611328125,0.5097287893295288,0.6681836247444153,-0.2684841752052307
1761914376621207800,2.070207763671875,0.5636114478111267,0.6465792655944824,-0.2833520770072937
1761914376631263700,2.080263671875,0.5652096271514893,0.5512495636940002,-0.2892483174800873
1761914376641319000,2.09031884765625,0.5163475275039673,0.3938966989517212,-0.3045386075973511
1761914376651374800,2.100374755859375,0.4306027889251709,0.2159203141927719,-0.33911973237991333
1761914376661430800,2.1104306640625,0.2921256124973297,0.06124551221728325,-0.38715437054634094
1761914376671487000,2.120487060546875,0.12399251759052277,-0.06005721166729927,-0.43224117159843445
1761914376681541600,2.130541748046875,-0.07159082591533661,-0.15295545756816864,-0.46367552876472473
1761914376691597800,2.140597900390625,-0.24636822938919067,-0.23167318105697632,-0.4680505692958832
1761914376701653800,2.15065380859375,-0.3922490179538727,-0.29797202348709106,-0.4597518742084503
1761914376711709700,2.160709716796875,-0.501884937286377,-0.3391873836517334,-0.442995548248291
1761914376721764900,2.170764892578125,-0.5804151892662048,-0.3607179820537567,-0.4273790419101715
1761914376731820800,2.18082080078125,-0.619177520275116,-0.36519715189933777,-0.4079003930091858
1761914376741876700,2.190876708984375,-0.6106359362602234,-0.3531615138053894,-0.4052489697933197
1761914376751933000,2.200932861328125,-0.5643275380134583,-0.3135227560997009,-0.4164872467517853
1761914376761987600,2.210987548828125,-0.4912720024585724,-0.24414075911045074,-0.4505099058151245
1761914376772043500,2.22104345703125,-0.40837496519088745,-0.1554524451494217,-0.4794835150241852
1761914376782099500,2.231099365234375,-0.3314564824104309,-0.06466101855039597,-0.4886769950389862
1761914376792155400,2.2411552734375,-0.27861565351486206,0.013461213558912277,-0.4523959755897522
1761914376802210600,2.25121044921875,-0.24866227805614471,0.09674865007400513,-0.3714979290962219
1761914376812266500,2.2612666015625,-0.22968167066574097,0.19821135699748993,-0.2480151355266571
1761914376822322700,2.27132275390625,-0.2091532200574875,0.30867713689804077,-0.1020219698548317
1761914376832378600,2.281378662109375,-0.18726442754268646,0.4144088923931122,0.06503066420555115
1761914376842433500,2.29143359375,-0.16508989036083221,0.47364240884780884,0.22660864889621735
1761914376852489500,2.301489501953125,-0.14303945004940033,0.48330914974212646,0.36933544278144836
1761914376862545400,2.31154541015625,-0.12465298175811768,0.44834795594215393,0.47913914918899536
1761914376872601600,2.3216015625,-0.10054232180118561,0.357668399810791,0.5460811853408813
1761914376882656500,2.331656494140625,-0.06845974922180176,0.2366785854101181,0.5740102529525757
1761914376892712700,2.341712646484375,-0.03891437500715256,0.1136448085308075,0.5570821762084961
1761914376902768600,2.3517685546875,-0.012526177801191807,-0.009610815905034542,0.5137842297554016
1761914376912824300,2.36182421875,0.024111993610858917,-0.13117267191410065,0.47075313329696655
1761914376922879500,2.37187939453125,0.08111855387687683,-0.25202664732933044,0.43434852361679077
1761914376932935400,2.381935302734375,0.15862399339675903,-0.3504733145236969,0.41319796442985535
1761914376942991600,2.39199169921875,0.24845534563064575,-0.4350380003452301,0.40739279985427856
1761914376953047600,2.402047607421875,0.35408565402030945,-0.5036665797233582,0.3897911608219147
1761914376963103500,2.412103515625,0.460934579372406,-0.5405012965202332,0.35883140563964844
1761914376973158700,2.42215869140625,0.5694445371627808,-0.5494530200958252,0.31201887130737305
1761914376983214600,2.432214599609375,0.6626315116882324,-0.5316705703735352,0.25442588329315186
1761914376993270300,2.442270263671875,0.7519326210021973,-0.4787069261074066,0.1955854743719101
1761914377003326500,2.452326416015625,0.8113253712654114,-0.42929092049598694,0.1629500389099121
1761914377013381400,2.46238134765625,0.8138756155967712,-0.38146427273750305,0.1614256501197815
1761914377023437600,2.4724375,0.799096941947937,-0.31594598293304443,0.1556287407875061
1761914377033493500,2.482493408203125,0.7652068734169006,-0.23601412773132324,0.1445513218641281
1761914377043549400,2.492549560546875,0.704210638999939,-0.16731496155261993,0.12205693125724792
1761914377053604600,2.5026044921875,0.6181676387786865,-0.10449258983135223,0.10027680546045303
1761914377063660500,2.51266064453125,0.5514676570892334,-0.05994695797562599,0.07245849072933197
1761914377073716500,2.522716552734375,0.5168865323066711,-0.020368387922644615,0.02022377960383892
1761914377083772400,2.5327724609375,0.5539811849594116,-0.013760819099843502,-0.08508426696062088
1761914377093827600,2.54282763671875,0.6459731459617615,-0.04565456882119179,-0.2465945929288864
1761914377103883500,2.552883544921875,0.7642419934272766,-0.1061733067035675,-0.45203697681427
1761914377113939500,2.562939453125,0.8538160920143127,-0.16481584310531616,-0.6631894111633301
1761914377123995600,2.57299560546875,0.8754902482032776,-0.2071896642446518,-0.8214858770370483
1761914377134050600,2.583050537109375,0.8369960784912109,-0.21024590730667114,-0.8956889510154724
1761914377144106800,2.593106689453125,0.7195667028427124,-0.19119206070899963,-0.8694671988487244
1761914377154162400,2.603162353515625,0.5181329250335693,-0.1477082371711731,-0.758083164691925
1761914377164218400,2.61321826171875,0.265884131193161,-0.0601285845041275,-0.5984312295913696
1761914377174273500,2.6232734375,0.008310660719871521,0.06984566152095795,-0.40485668182373047
1761914377184329500,2.63332958984375,-0.20831379294395447,0.21304169297218323,-0.20436646044254303
1761914377194385400,2.643385498046875,-0.35170477628707886,0.36384132504463196,-0.011816978454589844
1761914377204441600,2.653441650390625,-0.4183826148509979,0.48808765411376953,0.15201643109321594
1761914377214497500,2.66349755859375,-0.42482852935791016,0.5839252471923828,0.26112666726112366
1761914377224552400,2.673552490234375,-0.36647146940231323,0.679478108882904,0.29299139976501465
1761914377234608400,2.6836083984375,-0.26800376176834106,0.740899384021759,0.2507326304912567
1761914377244664300,2.693664306640625,-0.14752021431922913,0.7620939016342163,0.1598796844482422
1761914377254720500,2.703720458984375,-0.015351791866123676,0.7679821252822876,0.05546858534216881
1761914377264775400,2.713775390625,0.10996139049530029,0.747250497341156,-0.017104152590036392
1761914377274831600,2.72383154296875,0.21134500205516815,0.7054977416992188,-0.04008669778704643
1761914377284887600,2.733887451171875,0.2718496322631836,0.6386837959289551,-0.013496899977326393
1761914377294943500,2.743943603515625,0.2846522331237793,0.5842581391334534,0.0394669808447361
1761914377304998400,2.753998291015625,0.278842031955719,0.5520168542861938,0.11354281008243561
1761914377315054300,2.764054443359375,0.29116714000701904,0.5250622034072876,0.18447929620742798
1761914377325110500,2.774110595703125,0.3156743347644806,0.4863773584365845,0.23620428144931793
1761914377335166500,2.78416650390625,0.3256444036960602,0.4383235573768616,0.2705143094062805
1761914377345221600,2.7942216796875,0.3157760798931122,0.372279554605484,0.2887284755706787
1761914377355277600,2.804277587890625,0.2770739495754242,0.30407440662384033,0.2960207462310791
1761914377365333500,2.81433349609375,0.18937897682189941,0.25127696990966797,0.3023638427257538
1761914377375389700,2.8243896484375,0.07776137441396713,0.20814308524131775,0.3030474781990051
1761914377385445600,2.834445556640625,-0.027050793170928955,0.16388320922851562,0.29618826508522034
1761914377395500500,2.84450048828125,-0.08991790562868118,0.12342313677072525,0.2691513001918793
1761914377405556500,2.854556396484375,-0.10893899947404861,0.07799013704061508,0.22625523805618286
1761914377415612400,2.8646123046875,-0.08128633350133896,0.03670927882194519,0.16021417081356049
1761914377425668400,2.87466845703125,-0.014726481400430202,-0.006165218073874712,0.08508213609457016
1761914377435723500,2.8847236328125,0.0795813798904419,-0.03274223208427429,0.0006636597099713981
1761914377445779500,2.894779541015625,0.18351230025291443,-0.011377024464309216,-0.09086492657661438
1761914377455835600,2.904835693359375,0.2737380564212799,0.045648179948329926,-0.16336601972579956
1761914377465891600,2.9148916015625,0.32463428378105164,0.12697473168373108,-0.2033347487449646
1761914377475946500,2.924946533203125,0.33886808156967163,0.19535937905311584,-0.22559717297554016
1761914377486002400,2.93500244140625,0.32232797145843506,0.24545583128929138,-0.2371228039264679
1761914377496058400,2.945058349609375,0.28792604804039,0.2848282754421234,-0.24533413350582123
1761914377506114600,2.955114501953125,0.22714100778102875,0.31123778223991394,-0.23918728530406952
1761914377516169500,2.96516943359375,0.15572568774223328,0.31243646144866943,-0.21482175588607788
1761914377526225700,2.9752255859375,0.08254068344831467,0.29736751317977905,-0.1731073409318924
1761914377536281600,2.985281494140625,0.017673002555966377,0.28045883774757385,-0.12772972881793976
1761914377546337500,2.995337646484375,-0.03796522691845894,0.2826381027698517,-0.08998315036296844
1761914377556393700,3.005393798828125,-0.07174715399742126,0.28794336318969727,-0.06211210787296295
1761914377566448400,3.015448486328125,-0.09411770850419998,0.27656474709510803,-0.05798766762018204
1761914377576504600,3.025504638671875,-0.10514852404594421,0.25930720567703247,-0.06931649148464203
1761914377586560500,3.035560546875,-0.1074012890458107,0.24165897071361542,-0.08928274363279343
1761914377596616400,3.045616455078125,-0.09508150815963745,0.21985140442848206,-0.11955142766237259
1761914377606671600,3.055671630859375,-0.07697147876024246,0.2112504541873932,-0.148331418633461
1761914377616727600,3.0657275390625,-0.05667473003268242,0.19227170944213867,-0.16509760916233063
1761914377626783500,3.075783447265625,-0.031863391399383545,0.13752776384353638,-0.15666204690933228
1761914377636839700,3.085839599609375,-0.03819185867905617,0.0355587936937809,-0.12638244032859802
1761914377646894300,3.095894287109375,-0.08490770310163498,-0.09423595666885376,-0.06561682373285294
1761914377656950500,3.105950439453125,-0.1617761105298996,-0.1672593057155609,-0.0070246197283267975
1761914377667006500,3.11600634765625,-0.23341114819049835,-0.2058703452348709,0.03825045004487038
1761914377677062400,3.1260625,-0.2973477840423584,-0.24665212631225586,0.07257087528705597
1761914377687118600,3.13611865234375,-0.35401347279548645,-0.2785051167011261,0.07472936809062958
1761914377697173500,3.146173583984375,-0.3820893168449402,-0.24949930608272552,0.041604701429605484
1761914377707229700,3.156229736328125,-0.35777732729911804,-0.11683500558137894,-0.02767876535654068
1761914377717285400,3.166285400390625,-0.28574812412261963,0.06017225980758667,-0.08838418871164322
1761914377727341300,3.17634130859375,-0.18923170864582062,0.17779795825481415,-0.08386081457138062
1761914377737396500,3.186396484375,-0.10355754941701889,0.2273940145969391,-0.012227904051542282
1761914377747452400,3.196452392578125,-0.03905951976776123,0.22679053246974945,0.09785892069339752
1761914377757508600,3.206508544921875,-0.004835767671465874,0.1813729852437973,0.21468646824359894
1761914377767564500,3.216564453125,-0.011049188673496246,0.15126807987689972,0.29740798473358154
1761914377777620700,3.226620849609375,-0.04150403290987015,0.12260767817497253,0.3392760753631592
1761914377787676000,3.236676025390625,-0.10044511407613754,0.06820595264434814,0.36412522196769714
1761914377797731800,3.24673193359375,-0.17915751039981842,-0.020780645310878754,0.38871312141418457
1761914377807787800,3.256787841796875,-0.270255982875824,-0.12422234565019608,0.4142323434352875
1761914377817843700,3.26684375,-0.35681962966918945,-0.21047601103782654,0.4194132387638092
1761914377827898600,3.276898681640625,-0.41974639892578125,-0.2846468985080719,0.39623308181762695
1761914377837954800,3.286954833984375,-0.45282605290412903,-0.3480823338031769,0.3534558117389679
1761914377848010800,3.2970107421875,-0.4746552109718323,-0.37106382846832275,0.29615601897239685
1761914377858066700,3.307066650390625,-0.4674217998981476,-0.3611976206302643,0.2337999790906906
1761914377868121900,3.317121826171875,-0.4298610985279083,-0.28940996527671814,0.15482686460018158
1761914377878177500,3.327177490234375,-0.35931235551834106,-0.15399861335754395,0.05359558388590813
1761914377888233700,3.337233642578125,-0.2634201943874359,0.03636040538549423,-0.05462835729122162
1761914377898289700,3.34728955078125,-0.16961486637592316,0.23321513831615448,-0.1441079080104828
1761914377908345600,3.357345703125,-0.09066465497016907,0.39073607325553894,-0.19612184166908264
1761914377918400800,3.36740087890625,-0.035288214683532715,0.48829272389411926,-0.21837733685970306
1761914377928456700,3.377456787109375,-0.00595642626285553,0.5150042176246643,-0.21587450802326202
1761914377938513000,3.387512939453125,-0.005697567015886307,0.48410382866859436,-0.20731990039348602
1761914377948568800,3.39756884765625,-0.03404718264937401,0.4258780777454376,-0.20340532064437866
1761914377958623700,3.407623779296875,-0.08094598352909088,0.36367061734199524,-0.2003815621137619
1761914377968679700,3.4176796875,-0.14116059243679047,0.2912350296974182,-0.1976984292268753
1761914377978735600,3.427735595703125,-0.2131815105676651,0.2015267312526703,-0.1893552839756012
1761914377988791800,3.437791748046875,-0.2877974212169647,0.09903842955827713,-0.17770208418369293
1761914377998847700,3.44784765625,-0.37405216693878174,0.013968545943498611,-0.16153191030025482
1761914378008903000,3.45790283203125,-0.4698157012462616,-0.06522933393716812,-0.13114815950393677
1761914378018958800,3.467958740234375,-0.5714576244354248,-0.13412877917289734,-0.08992988616228104
1761914378029014800,3.478014892578125,-0.6697391867637634,-0.20499788224697113,-0.05878635123372078
1761914378039070700,3.48807080078125,-0.7642867565155029,-0.25382933020591736,-0.04505908861756325
1761914378049125600,3.498125732421875,-0.8297962546348572,-0.2714328467845917,-0.06131875142455101
1761914378059181600,3.508181640625,-0.8441605567932129,-0.25258004665374756,-0.10319563001394272
1761914378069237800,3.51823779296875,-0.8118465542793274,-0.23305615782737732,-0.15726445615291595
1761914378079293700,3.528293701171875,-0.7404453158378601,-0.22112731635570526,-0.2214716672897339
1761914378089349600,3.538349609375,-0.6481255292892456,-0.22898072004318237,-0.28507116436958313
1761914378099404800,3.54840478515625,-0.548947811126709,-0.259942889213562,-0.32830438017845154
1761914378109460700,3.558460693359375,-0.4647253453731537,-0.2898704409599304,-0.33493244647979736
1761914378119517000,3.568516845703125,-0.3954178988933563,-0.31095442175865173,-0.2846309244632721
1761914378129572900,3.57857275390625,-0.33727577328681946,-0.318258136510849,-0.18660156428813934
1761914378139627800,3.588627685546875,-0.29590994119644165,-0.298045814037323,-0.049558766186237335
1761914378149683700,3.59868359375,-0.2638132572174072,-0.25705283880233765,0.10740155726671219
1761914378159739600,3.60873974609375,-0.23580028116703033,-0.2065049707889557,0.26600852608680725
1761914378169795800,3.6187958984375,-0.20388895273208618,-0.15671637654304504,0.4081544578075409
1761914378179851800,3.628851806640625,-0.16945454478263855,-0.1326267570257187,0.529586911201477
1761914378189907000,3.638906982421875,-0.1344510167837143,-0.1509610116481781,0.6215993762016296
1761914378199963000,3.648962890625,-0.103391632437706,-0.21043339371681213,0.6713882088661194
1761914378210018800,3.659018798828125,-0.07065126299858093,-0.29909616708755493,0.6820291876792908
1761914378220074800,3.66907470703125,-0.029879868030548096,-0.4049395024776459,0.6552473306655884
1761914378230129700,3.679129638671875,0.018847458064556122,-0.5189188122749329,0.6022592186927795
1761914378240185900,3.689185791015625,0.07305796444416046,-0.603489100933075,0.5103732347488403
1761914378250241800,3.69924169921875,0.12975426018238068,-0.6518438458442688,0.39944779872894287
1761914378260297700,3.709297607421875,0.19130364060401917,-0.6710217595100403,0.29399994015693665
1761914378270354000,3.71935400390625,0.2503073215484619,-0.640482485294342,0.2044796347618103
1761914378280408800,3.729408935546875,0.30543047189712524,-0.563889741897583,0.14047002792358398
1761914378290464800,3.73946484375,0.33285999298095703,-0.49109089374542236,0.1257760375738144
1761914378300520700,3.749520751953125,0.33551275730133057,-0.42275470495224,0.14390896260738373
1761914378310576600,3.75957666015625,0.3248547911643982,-0.3358656167984009,0.15627242624759674
1761914378320631800,3.7696318359375,0.31101781129837036,-0.27075985074043274,0.17173686623573303
1761914378330687700,3.779687744140625,0.28165990114212036,-0.2483605444431305,0.18232665956020355
1761914378340743700,3.78974365234375,0.24894776940345764,-0.26370808482170105,0.19856102764606476
1761914378350800000,3.7997998046875,0.21241691708564758,-0.31711962819099426,0.20057757198810577
1761914378360855800,3.809855712890625,0.16654343903064728,-0.3502786457538605,0.17189958691596985
1761914378370910700,3.81991064453125,0.13655704259872437,-0.3698534071445465,0.0944383516907692
1761914378380966700,3.829966552734375,0.10188668221235275,-0.38222381472587585,-0.024210264906287193
1761914378391022600,3.840022705078125,0.06674600392580032,-0.39930903911590576,-0.1665458381175995
1761914378401078800,3.850078857421875,0.01871509850025177,-0.4037559926509857,-0.3441848158836365
1761914378411133700,3.8601337890625,-0.03189002349972725,-0.3678949177265167,-0.5205696821212769
1761914378421190000,3.87018994140625,-0.08485789597034454,-0.34432461857795715,-0.6573861241340637
1761914378431245800,3.880245849609375,-0.15419062972068787,-0.3627433180809021,-0.7189086079597473
1761914378441301800,3.8903017578125,-0.24936135113239288,-0.4208415150642395,-0.7016811370849609
1761914378451358000,3.90035791015625,-0.3615395724773407,-0.45003506541252136,-0.6469182968139648
1761914378461412600,3.91041259765625,-0.46202436089515686,-0.4447236657142639,-0.5762279033660889
1761914378471468800,3.92046875,-0.5438883304595947,-0.4310382008552551,-0.5100792050361633
1761914378481524700,3.930524658203125,-0.6120995879173279,-0.3892180621623993,-0.4707843065261841
1761914378491580700,3.94058056640625,-0.65384441614151,-0.2929503917694092,-0.47385331988334656
1761914378501636900,3.950636962890625,-0.6657490134239197,-0.12560239434242249,-0.48749056458473206
1761914378511691800,3.96069189453125,-0.6508134603500366,0.09412463754415512,-0.4952041506767273
1761914378521747700,3.970747802734375,-0.6225354671478271,0.3208765685558319,-0.49732083082199097
1761914378531804000,3.980803955078125,-0.5902768969535828,0.5212032794952393,-0.4745100438594818
1761914378541859800,3.99085986328125,-0.5423173308372498,0.6859090924263,-0.4349501430988312
1761914378551914800,4.000914794921875,-0.491793692111969,0.7873638272285461,-0.37049365043640137
1761914378561967900,4.0109677734375,-0.4463106393814087,0.8416449427604675,-0.28907549381256104
1761914378572023800,4.02102392578125,-0.38986122608184814,0.8609115481376648,-0.2072056531906128
1761914378582079700,4.031079833984375,-0.325242280960083,0.8536501526832581,-0.13825561106204987
1761914378592135700,4.0411357421875,-0.25920814275741577,0.8123403191566467,-0.09334646165370941
1761914378602190800,4.05119091796875,-0.21520711481571198,0.7277548313140869,-0.05523635819554329
1761914378612246800,4.061246826171875,-0.18873582780361176,0.5996077656745911,-0.02166321687400341
1761914378622302700,4.071302734375,-0.16594955325126648,0.45150113105773926,0.007520766928792
1761914378632359000,4.08135888671875,-0.14906537532806396,0.32115912437438965,0.017112674191594124
1761914378642414800,4.091414794921875,-0.12738192081451416,0.23578722774982452,-0.0030447919853031635
1761914378652469800,4.1014697265625,-0.116961769759655,0.1704319268465042,-0.03400004655122757
1761914378662525700,4.111525634765625,-0.10576291382312775,0.1488904058933258,-0.06040981411933899
1761914378672581600,4.12158154296875,-0.07907431572675705,0.17661045491695404,-0.06313742697238922
1761914378682637600,4.131637451171875,-0.03207218274474144,0.2347555160522461,-0.042388737201690674
1761914378692693800,4.14169384765625,0.020596355199813843,0.30435189604759216,-0.0036067189648747444
1761914378702748700,4.151748779296875,0.07812702655792236,0.36310097575187683,0.03386235982179642
1761914378712804900,4.161804931640625,0.13758742809295654,0.4095827341079712,0.048540372401475906
1761914378722860800,4.17186083984375,0.1889408975839615,0.4369365870952606,0.0434500053524971
1761914378732916700,4.181916748046875,0.222378209233284,0.4595012664794922,0.041494980454444885
1761914378742971600,4.1919716796875,0.24597355723381042,0.4726192057132721,0.044860683381557465
1761914378753027600,4.202027587890625,0.2536628842353821,0.4550364911556244,0.059177570044994354
1761914378763083800,4.212083740234375,0.2468518614768982,0.43033647537231445,0.06799955666065216
1761914378773139700,4.2221396484375,0.2095993012189865,0.38242727518081665,0.08460276573896408
1761914378783195400,4.2321953125,0.15741758048534393,0.31750285625457764,0.10941251367330551
1761914378793250600,4.24225048828125,0.10051089525222778,0.2823909521102905,0.1395014375448227
1761914378803306500,4.252306396484375,0.061826881021261215,0.25523868203163147,0.17944645881652832
1761914378813362700,4.26236279296875,0.05404432490468025,0.23842215538024902,0.2091369777917862
1761914378823418600,4.272418701171875,0.07784632593393326,0.24478179216384888,0.2023770660161972
1761914378833474300,4.282474365234375,0.11154596507549286,0.2443855106830597,0.15083345770835876
1761914378843529500,4.292529541015625,0.13888810575008392,0.24542653560638428,0.07479488104581833
1761914378853585400,4.30258544921875,0.1476736068725586,0.21143288910388947,0.01161804050207138
1761914378863641600,4.3126416015625,0.13541828095912933,0.10329123586416245,-0.01600666344165802
1761914378873697500,4.322697509765625,0.1244622990489006,-0.0037739656399935484,-0.00803049560636282
1761914378883752700,4.332752685546875,0.1163492426276207,-0.05016809701919556,0.009237440302968025
1761914378893808600,4.34280859375,0.11712449043989182,-0.045701440423727036,0.016337694600224495
1761914378903864600,4.352864501953125,0.1269528865814209,-0.008865662850439548,0.022579343989491463
1761914378913920500,4.36292041015625,0.13654905557632446,0.025610288605093956,0.029282521456480026
1761914378923976400,4.3729765625,0.14853328466415405,0.04030880704522133,0.05231140926480293
1761914378934031400,4.38303125,0.15346172451972961,0.03465278446674347,0.10965059697628021
1761914378944087600,4.393087646484375,0.14516784250736237,-0.01992257498204708,0.19656792283058167
1761914378954143500,4.4031435546875,0.10956057906150818,-0.10320921242237091,0.31002578139305115
1761914378964199400,4.413199462890625,0.06431720405817032,-0.13885588943958282,0.40137192606925964
1761914378974255600,4.423255615234375,0.03593456372618675,-0.08651624619960785,0.4414977729320526
1761914378984310500,4.433310546875,0.03299177065491676,-0.02111114375293255,0.4472440779209137
1761914378994366500,4.443366455078125,0.047087352722883224,0.021866949275135994,0.42874789237976074
1761914379004422400,4.45342236328125,0.06604745984077454,0.04964398592710495,0.40429529547691345
1761914379014478300,4.463478271484375,0.12210753560066223,0.07309258729219437,0.3641699552536011
1761914379024534500,4.473534423828125,0.21339216828346252,0.10937575995922089,0.3117637634277344
1761914379034589400,4.48358935546875,0.31636515259742737,0.14727094769477844,0.2609602212905884
1761914379044645600,4.493645751953125,0.4001926779747009,0.17601603269577026,0.2126408964395523
1761914379054701600,4.50370166015625,0.45565488934516907,0.179748997092247,0.1840023249387741
1761914379064757500,4.513757568359375,0.4824979305267334,0.15531741082668304,0.1677549183368683
1761914379074812400,4.5238125,0.4798073470592499,0.10222037881612778,0.17721286416053772
1761914379084868400,4.533868408203125,0.44335639476776123,0.009858756326138973,0.22073769569396973
1761914379094924500,4.543924560546875,0.364396333694458,-0.14952877163887024,0.2944047451019287
1761914379104980500,4.55398046875,0.24967162311077118,-0.33984678983688354,0.3851250410079956
1761914379115036400,4.564036376953125,0.14025723934173584,-0.4714365005493164,0.4329721927642822
1761914379125091600,4.574091552734375,0.08100031316280365,-0.4979117810726166,0.4143465757369995
1761914379135147500,4.5841474609375,0.08971577137708664,-0.42669540643692017,0.3343537449836731
1761914379145203700,4.59420361328125,0.13276736438274384,-0.2980886697769165,0.23246200382709503
1761914379155260700,4.6042607421875,0.18950282037258148,-0.15369555354118347,0.13218599557876587
1761914379165316600,4.614316650390625,0.23803946375846863,0.0017659420846030116,0.058455586433410645
1761914379175371500,4.62437158203125,0.277646005153656,0.15237756073474884,0.007577758282423019
1761914379185427500,4.634427490234375,0.3018251061439514,0.2780529260635376,-0.03148548677563667
1761914379195483400,4.6444833984375,0.3080310523509979,0.35277989506721497,-0.07482843101024628
1761914379205539600,4.65453955078125,0.2990668714046478,0.3748638927936554,-0.1369336098432541
1761914379215595500,4.664595458984375,0.286166250705719,0.36346369981765747,-0.21349389851093292
1761914379225650400,4.674650390625,0.2694024443626404,0.32688596844673157,-0.3041369915008545
1761914379235706600,4.68470654296875,0.24173618853092194,0.2560384273529053,-0.3832153081893921
1761914379245762600,4.694762451171875,0.19128474593162537,0.17125511169433594,-0.44040215015411377
1761914379255818500,4.704818603515625,0.11484909057617188,0.08219820261001587,-0.4642275869846344
1761914379265873400,4.714873291015625,0.012886237353086472,0.007680290378630161,-0.4577385187149048
1761914379275929300,4.724929443359375,-0.11239098757505417,-0.04464496672153473,-0.44367945194244385
1761914379285985500,4.734985595703125,-0.2398408204317093,-0.07598690688610077,-0.40978965163230896
1761914379296041500,4.74504150390625,-0.34742721915245056,-0.08916635811328888,-0.3671644330024719
1761914379306097400,4.755097412109375,-0.4135042130947113,-0.07495520263910294,-0.31055495142936707
1761914379316152600,4.765152587890625,-0.43287393450737,-0.038593463599681854,-0.2571644186973572
1761914379326208500,4.77520849609375,-0.40370485186576843,0.035530827939510345,-0.21903328597545624
1761914379336264700,4.7852646484375,-0.34044092893600464,0.12421675771474838,-0.20870181918144226
1761914379346320600,4.795320556640625,-0.272041916847229,0.20197467505931854,-0.22538278996944427
1761914379356376300,4.805376220703125,-0.22639238834381104,0.24249546229839325,-0.2663637697696686
1761914379366431500,4.815431396484375,-0.19300194084644318,0.23007234930992126,-0.30340781807899475
1761914379376487400,4.8254873046875,-0.16852828860282898,0.19760441780090332,-0.3309888541698456
1761914379386543600,4.835543701171875,-0.14934873580932617,0.16683265566825867,-0.34543249011039734
1761914379396599600,4.845599609375,-0.11762329936027527,0.15165051817893982,-0.3353247344493866
1761914379406655500,4.855655517578125,-0.07706868648529053,0.1411009281873703,-0.3123629689216614
1761914379416710700,4.865710693359375,-0.03205860033631325,0.13801512122154236,-0.26433685421943665
1761914379426766300,4.875766357421875,0.009636647999286652,0.13348029553890228,-0.1984635591506958
1761914379436822500,4.885822509765625,0.04404309019446373,0.12691107392311096,-0.12357493489980698
1761914379446878500,4.89587841796875,0.06772977858781815,0.10941517353057861,-0.045827142894268036
1761914379456934400,4.905934326171875,0.08960285037755966,0.10615812987089157,0.02688700705766678
1761914379466989600,4.915989501953125,0.11336437612771988,0.1346353143453598,0.0918995663523674
1761914379477045500,4.92604541015625,0.14008572697639465,0.14701049029827118,0.1551664173603058
1761914379487101400,4.936101318359375,0.17330041527748108,0.1302267163991928,0.2201739102602005
1761914379497157600,4.94615771484375,0.21698078513145447,0.08151084184646606,0.259792685508728
1761914379507212300,4.95621240234375,0.2860269546508789,0.024644359946250916,0.2751583456993103
1761914379517268500,4.9662685546875,0.38587233424186707,-0.04719654098153114,0.2618939280509949
1761914379527324400,4.976324462890625,0.49217692017555237,-0.1202491819858551,0.24180437624454498
1761914379537380400,4.98638037109375,0.5963755249977112,-0.18298925459384918,0.20741790533065796
1761914379547436500,4.9964365234375,0.6782664060592651,-0.2169935703277588,0.17032618820667267
1761914379557491500,5.006491455078125,0.7513986229896545,-0.22188659012317657,0.13428963720798492
1761914379567547600,5.016547607421875,0.828094482421875,-0.1925382912158966,0.1032978892326355
1761914379577603600,5.026603515625,0.907746434211731,-0.14302958548069,0.08411434292793274
1761914379587659500,5.036659423828125,0.9811932444572449,-0.06975511461496353,0.058033473789691925
1761914379597715700,5.0467158203125,1.0500085353851318,0.032888442277908325,0.03316940367221832
1761914379607770400,5.056770263671875,1.1163127422332764,0.16175028681755066,0.014603177085518837
1761914379617826600,5.06682666015625,1.1803100109100342,0.2804367244243622,0.020846692845225334
1761914379627882500,5.076882568359375,1.2216002941131592,0.3468357026576996,0.0833769142627716
1761914379637938400,5.0869384765625,1.247696876525879,0.33867233991622925,0.18912091851234436
1761914379647994600,5.09699462890625,1.2583979368209839,0.31724533438682556,0.295841783285141
1761914379658049500,5.107049560546875,1.2617814540863037,0.3403210937976837,0.3667777478694916
1761914379668105700,5.117105712890625,1.2654286623001099,0.40196847915649414,0.411842942237854
1761914379678161700,5.12716162109375,1.2729371786117554,0.47860997915267944,0.4824356138706207
1761914379688217300,5.13721728515625,1.244187355041504,0.5719724297523499,0.6189036965370178
1761914379698273500,5.1472734375,1.1824331283569336,0.6530159115791321,0.817484438419342
1761914379708328400,5.157328369140625,1.1150487661361694,0.6972219347953796,0.9970661997795105
1761914379718384400,5.16738427734375,1.0603375434875488,0.715124249458313,1.0717142820358276
1761914379728440600,5.177440673828125,1.020251989364624,0.6693069934844971,1.0100687742233276
1761914379738496500,5.18749658203125,0.9862801432609558,0.5632729530334473,0.8290423154830933
1761914379748551700,5.1975517578125,0.9516007304191589,0.41165706515312195,0.5773029923439026
1761914379758607600,5.207607666015625,0.898021399974823,0.20203804969787598,0.3274742662906647
1761914379768663300,5.217663330078125,0.8091040253639221,-0.06415928155183792,0.1270466297864914
1761914379778720300,5.22772021484375,0.6734178066253662,-0.35921967029571533,-0.004637096077203751
1761914379788776200,5.237776123046875,0.49051111936569214,-0.6481726765632629,-0.06199226528406143
1761914379798831000,5.2478310546875,0.2662348747253418,-0.8891996741294861,-0.07020225375890732
1761914379808887000,5.257886962890625,0.03765656426548958,-1.0650367736816406,-0.060318998992443085
1761914379818943000,5.26794287109375,-0.17314913868904114,-1.1808732748031616,-0.03585680201649666
1761914379828999200,5.277999267578125,-0.3544835150241852,-1.2515711784362793,-0.024415593594312668
1761914379839055000,5.28805517578125,-0.4983469545841217,-1.2557028532028198,-0.03807574510574341
1761914379849110000,5.298110107421875,-0.5844293832778931,-1.1789782047271729,-0.09066572040319443
1761914379859166200,5.308166259765625,-0.6030784249305725,-0.9935159683227539,-0.1708524376153946
1761914379869222100,5.31822216796875,-0.5552490949630737,-0.7336246967315674,-0.2584717571735382
1761914379879277800,5.32827783203125,-0.45008885860443115,-0.4373711943626404,-0.3180871605873108
1761914379889334000,5.338333984375,-0.30859246850013733,-0.14310869574546814,-0.32787615060806274
1761914379899389000,5.348388916015625,-0.1488099843263626,0.10685960203409195,-0.2862197756767273
1761914379909445000,5.358445068359375,0.004714594222605228,0.31072166562080383,-0.2091130018234253
1761914379919501000,5.3685009765625,0.11939536780118942,0.4736226797103882,-0.10681726038455963
1761914379929557000,5.378556884765625,0.1965724527835846,0.6023812294006348,0.010514692403376102
1761914379939613200,5.38861328125,0.23979660868644714,0.6713014245033264,0.12304043769836426
1761914379949668000,5.398668212890625,0.2563875615596771,0.6660333871841431,0.2237662523984909
1761914379959724000,5.40872412109375,0.257888525724411,0.5900273323059082,0.30586326122283936
1761914379969780000,5.418780029296875,0.2610859274864197,0.4686252772808075,0.37706100940704346
1761914379979836000,5.4288359375,0.28538140654563904,0.3314908444881439,0.4174880385398865
1761914379989892000,5.43889208984375,0.3366190195083618,0.2121117264032364,0.43155938386917114
1761914379999947000,5.448947021484375,0.42045506834983826,0.1246575117111206,0.4209024906158447
1761914380010003200,5.459003173828125,0.537213146686554,0.06180397793650627,0.3835766911506653
1761914380020059100,5.46905908203125,0.6705775856971741,0.046177081763744354,0.3213671147823334
1761914380030115000,5.479114990234375,0.8152405023574829,0.08794157207012177,0.24117426574230194
1761914380040170000,5.489169921875,0.9663010835647583,0.17033632099628448,0.16477297246456146
1761914380050226000,5.499225830078125,1.0977027416229248,0.297936350107193,0.09950421750545502
1761914380060282000,5.5092822265625,1.2134277820587158,0.44752317667007446,0.04358183220028877
1761914380070338000,5.519338134765625,1.3051124811172485,0.6042464971542358,0.0007315703551284969
1761914380080394000,5.52939404296875,1.3748337030410767,0.7567960619926453,-0.018633605912327766
1761914380090449200,5.53944921875,1.4266064167022705,0.9103730916976929,-0.030969368293881416
1761914380100505000,5.549505126953125,1.456683874130249,1.0893542766571045,-0.039332225918769836
1761914380110561000,5.55956103515625,1.4593536853790283,1.2840244770050049,-0.043182358145713806
1761914380120617200,5.5696171875,1.432271957397461,1.4340877532958984,-0.02653680182993412
1761914380130673200,5.579673095703125,1.3685917854309082,1.5011701583862305,0.005623531062155962
1761914380140728000,5.58972802734375,1.288203239440918,1.4679160118103027,0.022493857890367508
1761914380150784000,5.599783935546875,1.206248164176941,1.3727442026138306,0.00242134602740407
1761914380160840000,5.60983984375,1.1244001388549805,1.2238441705703735,-0.0495811365544796
1761914380170896100,5.619896240234375,1.0553500652313232,1.0499401092529297,-0.12672172486782074
1761914380180952000,5.6299521484375,1.0166995525360107,0.9053077697753906,-0.20518776774406433
1761914380191007200,5.64000732421875,1.0009112358093262,0.799096941947937,-0.25914207100868225
1761914380201063200,5.650063232421875,1.0151581764221191,0.7377105355262756,-0.27085891366004944
1761914380211118800,5.660118896484375,1.0432027578353882,0.7315152287483215,-0.2525225281715393
1761914380221175000,5.670175048828125,1.079222321510315,0.7408634424209595,-0.2090621441602707
1761914380231230000,5.68022998046875,1.1228106021881104,0.7359150052070618,-0.14992478489875793
1761914380241286100,5.6902861328125,1.1599904298782349,0.7043283581733704,-0.09058769047260284
1761914380251342000,5.700342041015625,1.1840806007385254,0.6736913323402405,-0.045410092920064926
1761914380261398000,5.71039794921875,1.194739818572998,0.6402742266654968,0.003933755215257406
1761914380271454200,5.7204541015625,1.1969391107559204,0.6099368333816528,0.057009223848581314
1761914380281509000,5.730509033203125,1.1827138662338257,0.6003726720809937,0.12883654236793518
1761914380291565000,5.74056494140625,1.1569993495941162,0.5932114124298096,0.21432587504386902
1761914380301621000,5.75062109375,1.1278455257415771,0.6082689166069031,0.2833361029624939
1761914380311677000,5.760677001953125,1.1232670545578003,0.6527807116508484,0.30819350481033325
1761914380321733000,5.770733154296875,1.1361784934997559,0.6925875544548035,0.30391648411750793
1761914380331788000,5.7807880859375,1.1638509035110474,0.676645815372467,0.30706167221069336
1761914380341844000,5.790843994140625,1.2039821147918701,0.6242374777793884,0.3097405433654785
1761914380351900200,5.800900146484375,1.2489756345748901,0.5538514852523804,0.31505754590034485
1761914380361956000,5.8109560546875,1.314136028289795,0.4881425201892853,0.29648998379707336
1761914380372012000,5.821011962890625,1.3837859630584717,0.4754951596260071,0.24072232842445374
1761914380382067000,5.83106689453125,1.4645401239395142,0.5274630188941956,0.14568902552127838
1761914380392123000,5.841122802734375,1.5487868785858154,0.6184475421905518,0.04599012807011604
1761914380402179000,5.851178955078125,1.611341118812561,0.6942005753517151,-0.027216706424951553
1761914380412235000,5.861235107421875,1.6671196222305298,0.7466739416122437,-0.04175330698490143
1761914380422291000,5.871291015625,1.702345848083496,0.7631511688232422,0.01290487963706255
1761914380432346000,5.88134619140625,1.70885169506073,0.715501606464386,0.12675608694553375
1761914380442402000,5.891402099609375,1.68830406665802,0.5904198884963989,0.27634212374687195
1761914380452458200,5.901458251953125,1.620710849761963,0.4482651352882385,0.44995251297950745
1761914380462514200,5.91151416015625,1.5269849300384521,0.3296301066875458,0.6045849919319153
1761914380472569000,5.921569091796875,1.4490134716033936,0.29446038603782654,0.7020270824432373
1761914380482625000,5.931625,1.3916124105453491,0.3793441355228424,0.7168004512786865
1761914380492681000,5.941680908203125,1.3614332675933838,0.5682245492935181,0.6653329730033875
1761914380502737200,5.951737060546875,1.3577221632003784,0.7952425479888916,0.5684690475463867
1761914380512793000,5.96179296875,1.3606667518615723,0.9965556859970093,0.4681389629840851
1761914380522848300,5.97184814453125,1.358808159828186,1.1376168727874756,0.3713964521884918
1761914380532904200,5.981904296875,1.3560643196105957,1.2161670923233032,0.2759793996810913
1761914380542960000,5.991960205078125,1.3649590015411377,1.2416777610778809,0.17702777683734894
1761914380553016000,6.00201611328125,1.383012294769287,1.2110676765441895,0.07978750765323639
1761914380563072000,6.012072021484375,1.4044227600097656,1.1621356010437012,-0.01925358921289444
1761914380573127000,6.022126953125,1.4311896562576294,1.1208528280258179,-0.11231082677841187
1761914380583183000,6.03218310546875,1.4544841051101685,1.0942302942276,-0.20282848179340363
1761914380593239000,6.042239013671875,1.4571669101715088,1.0997422933578491,-0.2978351414203644
1761914380603295000,6.052294921875,1.4272148609161377,1.1164720058441162,-0.3841732442378998
1761914380613351200,6.06235107421875,1.3823199272155762,1.1167577505111694,-0.4634574055671692
1761914380623405800,6.07240576171875,1.3288263082504272,1.0854262113571167,-0.5140358805656433
1761914380633462000,6.0824619140625,1.2590419054031372,0.9892780780792236,-0.5227380394935608
1761914380643518000,6.09251806640625,1.1875938177108765,0.8426731824874878,-0.4721235930919647
1761914380653574000,6.102573974609375,1.1375154256820679,0.6853274703025818,-0.37366440892219543
1761914380663630000,6.112630126953125,1.1289318799972534,0.5818508863449097,-0.26536428928375244
1761914380673685000,6.12268505859375,1.1303819417953491,0.546558678150177,-0.1634238064289093
1761914380683741200,6.1327412109375,1.1373926401138306,0.5532370805740356,-0.08093905448913574
1761914380693797000,6.142797119140625,1.143763542175293,0.5703457593917847,-0.018560102209448814
1761914380703853000,6.15285302734375,1.1523634195327759,0.5833310484886169,0.027361582964658737
1761914380713908000,6.162907958984375,1.1610668897628784,0.5967169404029846,0.0512823611497879
1761914380723964000,6.1729638671875,1.1605509519577026,0.6217631697654724,0.05269996449351311
1761914380734020000,6.18302001953125,1.1503980159759521,0.6772770285606384,0.033118005841970444
1761914380744076000,6.193075927734375,1.1503069400787354,0.7434374094009399,0.004479437135159969
1761914380754132000,6.203132080078125,1.1675747632980347,0.7904682755470276,-0.018789665773510933
1761914380764187100,6.213187255859375,1.2041983604431152,0.8227399587631226,-0.02611522376537323
1761914380774242800,6.223242919921875,1.24978768825531,0.8543396592140198,-0.0182341318577528
1761914380784298800,6.233298828125,1.2820396423339844,0.8604913353919983,-0.0059724049642682076
1761914380794354700,6.243354736328125,1.2994276285171509,0.8489089608192444,0.012857208959758282
1761914380804410600,6.25341064453125,1.2963825464248657,0.8318117260932922,0.03676094487309456
1761914380814465800,6.2634658203125,1.2888234853744507,0.8130412101745605,0.05186852440237999
1761914380824521700,6.273521728515625,1.2732958793640137,0.7844426035881042,0.06506768614053726
1761914380834578000,6.283577880859375,1.2620261907577515,0.7503259181976318,0.06486474722623825
1761914380844633900,6.2936337890625,1.2563526630401611,0.7053107619285583,0.061052434146404266
1761914380854689800,6.303689697265625,1.263097882270813,0.6377013921737671,0.05403953418135643
1761914380864744700,6.31374462890625,1.2835350036621094,0.547825038433075,0.03904886543750763
1761914380874800600,6.323800537109375,1.3077878952026367,0.45371103286743164,0.009604690596461296
1761914380884856600,6.333856689453125,1.3295471668243408,0.37229180335998535,-0.03810930252075195
1761914380894912800,6.343912841796875,1.348146677017212,0.3032802641391754,-0.08883106708526611
1761914380904967700,6.3539677734375,1.3646998405456543,0.2794761061668396,-0.139851376414299
1761914380915024000,6.36402392578125,1.3742328882217407,0.27753734588623047,-0.18903011083602905
1761914380925079800,6.374079833984375,1.3624393939971924,0.27935734391212463,-0.2301839292049408
1761914380935135700,6.3841357421875,1.3377454280853271,0.27490532398223877,-0.26577070355415344
1761914380945192000,6.39419189453125,1.2987957000732422,0.2701382637023926,-0.28341707587242126
1761914380955246600,6.40424658203125,1.2506505250930786,0.26657363772392273,-0.2890903949737549
1761914380965302800,6.414302734375,1.1905025243759155,0.25356170535087585,-0.2875468134880066
1761914380975358700,6.424358642578125,1.1222974061965942,0.210667222738266,-0.2726171314716339
1761914380985414700,6.43441455078125,1.0586028099060059,0.130869060754776,-0.24000434577465057
1761914380995470800,6.444470947265625,1.0014742612838745,0.013628993183374405,-0.17655879259109497
1761914381005525800,6.45452587890625,0.9469394087791443,-0.13951022922992706,-0.0676802471280098
1761914381015582000,6.46458203125,0.8911831974983215,-0.28413504362106323,0.046484943479299545
1761914381025638000,6.474637939453125,0.8472620844841003,-0.38252872228622437,0.09818781912326813
1761914381035693600,6.484693603515625,0.8248597979545593,-0.39200693368911743,0.060512613505125046
1761914381045749800,6.494749755859375,0.8573037981987,-0.3089964687824249,-0.045591454952955246
1761914381055804700,6.5048046875,0.9462027549743652,-0.12455178052186966,-0.20547086000442505
1761914381065860900,6.51486083984375,1.0465437173843384,0.11331190913915634,-0.3584732115268707
1761914381075916800,6.524916748046875,1.1301158666610718,0.3210933208465576,-0.4552135765552521
1761914381085972700,6.53497265625,1.191818356513977,0.45592278242111206,-0.4995647966861725
1761914381096029000,6.54502880859375,1.2251107692718506,0.5037808418273926,-0.5204644799232483
1761914381106083800,6.555083740234375,1.2314432859420776,0.47647014260292053,-0.5382501482963562
1761914381116139800,6.565139892578125,1.2017072439193726,0.4055943787097931,-0.5534727573394775
1761914381126195700,6.57519580078125,1.1372143030166626,0.29909348487854004,-0.5603320002555847
1761914381136251600,6.585251708984375,1.0291357040405273,0.168543741106987,-0.5547244548797607
1761914381146307600,6.5953076171875,0.8965758085250854,0.017901768907904625,-0.5313083529472351
1761914381156362800,6.60536279296875,0.7518956065177917,-0.12632358074188232,-0.49088823795318604
1761914381166418700,6.615418701171875,0.6054084300994873,-0.24780340492725372,-0.4288232624530792
1761914381176475000,6.625474853515625,0.47113317251205444,-0.33135104179382324,-0.35427525639533997
1761914381186530800,6.63553076171875,0.3585871756076813,-0.35510990023612976,-0.2768222689628601
1761914381196585700,6.645585693359375,0.26210272312164307,-0.3411394953727722,-0.188868448138237
1761914381206641700,6.6556416015625,0.21949107944965363,-0.3062850832939148,-0.10766494274139404
1761914381216697600,6.665697509765625,0.21654322743415833,-0.2483205944299698,-0.05425631254911423
1761914381226753800,6.67575390625,0.22291536629199982,-0.13478924334049225,-0.04653288051486015
1761914381236809700,6.685809814453125,0.2607184052467346,0.030614901334047318,-0.08637217432260513
1761914381246865000,6.695864990234375,0.31719791889190674,0.24202914535999298,-0.15070828795433044
1761914381256920800,6.7059208984375,0.38109275698661804,0.4788912236690521,-0.18842583894729614
1761914381266976800,6.715976806640625,0.4602046310901642,0.6939142942428589,-0.1752096265554428
1761914381277033000,6.726032958984375,0.5511409044265747,0.8662266731262207,-0.11545069515705109
1761914381287089000,6.7360888671875,0.6442602276802063,1.0044043064117432,-0.03880944848060608
1761914381297143800,6.746143798828125,0.7362058162689209,1.0785895586013794,0.037935931235551834
1761914381307199700,6.75619970703125,0.8309624195098877,1.0707694292068481,0.0977739617228508
1761914381317255700,6.766255615234375,0.9233205914497375,0.9754895567893982,0.12693265080451965
1761914381327312000,6.776311767578125,1.0122848749160767,0.8291171193122864,0.10940345376729965
1761914381337366800,6.78636669921875,1.1088963747024536,0.6827205419540405,0.03332626447081566
1761914381347422700,6.796422607421875,1.202353596687317,0.5957515239715576,-0.08550078421831131
1761914381357479000,6.80647900390625,1.2964180707931519,0.5393931865692139,-0.230895534157753
1761914381367534800,6.816534912109375,1.3878240585327148,0.5308172702789307,-0.36685603857040405
1761914381377590800,6.8265908203125,1.475594401359558,0.5267159938812256,-0.4565768539905548
1761914381387645700,6.836645751953125,1.5602980852127075,0.5072344541549683,-0.49761536717414856
1761914381397701600,6.84670166015625,1.6355606317520142,0.47381070256233215,-0.49800074100494385
1761914381407757800,6.8567578125,1.6903139352798462,0.4556937515735626,-0.4679437577724457
1761914381417813800,6.866813720703125,1.7199852466583252,0.44282829761505127,-0.4091499447822571
1761914381427869700,6.87686962890625,1.7199828624725342,0.4319831132888794,-0.3361359238624573
1761914381437924900,6.8869248046875,1.6881346702575684,0.44142985343933105,-0.2734230160713196
1761914381447980500,6.89698046875,1.6502496004104614,0.47989416122436523,-0.22655804455280304
1761914381458036700,6.90703662109375,1.6157678365707397,0.5560262203216553,-0.2158563882112503
1761914381468092700,6.9170927734375,1.5994452238082886,0.6413227319717407,-0.24215084314346313
1761914381478148600,6.927148681640625,1.5863670110702515,0.70854252576828,-0.27814239263534546
1761914381488203800,6.937203857421875,1.5823274850845337,0.7548924684524536,-0.2967571020126343
1761914381498259700,6.947259765625,1.5899436473846436,0.7910879850387573,-0.284339040517807
1761914381508316000,6.95731591796875,1.6201854944229126,0.8076413869857788,-0.23855771124362946
1761914381518371800,6.967371826171875,1.6607214212417603,0.789234459400177,-0.18905514478683472
1761914381528426800,6.9774267578125,1.7012096643447876,0.753142774105072,-0.14961719512939453
1761914381538482700,6.987482666015625,1.7573257684707642,0.6791324615478516,-0.12212084978818893
1761914381548538600,6.99753857421875,1.8057931661605835,0.6140442490577698,-0.1158461719751358
1761914381558594800,7.0075947265625,1.84483802318573,0.5679513216018677,-0.12326307594776154
1761914381568650800,7.017650634765625,1.8769147396087646,0.5313770771026611,-0.1256285011768341
1761914381578705700,7.02770556640625,1.9023438692092896,0.511366069316864,-0.12621092796325684
1761914381588761900,7.037761962890625,1.9131464958190918,0.48485031723976135,-0.12261912971735
1761914381598817800,7.04781787109375,1.910903811454773,0.4460139572620392,-0.10885404795408249
1761914381608873700,7.057873779296875,1.9009678363800049,0.39069637656211853,-0.08583767712116241
1761914381618930000,7.067929931640625,1.8898617029190063,0.34105879068374634,-0.06049050763249397
1761914381628984600,7.077984619140625,1.866661787033081,0.30147436261177063,-0.030165093019604683
1761914381639040800,7.088040771484375,1.836869239807129,0.2670101225376129,0.006847519893199205
1761914381649096700,7.0980966796875,1.7960197925567627,0.23079060018062592,0.05925719812512398
1761914381659152600,7.108152587890625,1.743815541267395,0.20236055552959442,0.11831838637590408
1761914381669208800,7.118208740234375,1.6806786060333252,0.17159892618656158,0.17315900325775146
1761914381679263700,7.128263671875,1.6169606447219849,0.13065041601657867,0.2071867436170578
1761914381689320000,7.13831982421875,1.54702627658844,0.07917391508817673,0.21109679341316223
1761914381699375900,7.1483759765625,1.4723893404006958,0.011531220749020576,0.19253748655319214
1761914381709431600,7.158431640625,1.3901541233062744,-0.07504627853631973,0.1691133975982666
1761914381719486700,7.16848681640625,1.3200405836105347,-0.14468607306480408,0.1403650939464569
1761914381729542700,7.178542724609375,1.2703344821929932,-0.17043910920619965,0.10682179033756256
1761914381739598800,7.188598876953125,1.2443156242370605,-0.11622168123722076,0.05775916948914528
1761914381749654800,7.19865478515625,1.2516518831253052,0.002567553659901023,-0.013126187957823277
1761914381759710700,7.208710693359375,1.2532950639724731,0.12531717121601105,-0.0806618258357048
1761914381769766000,7.218765869140625,1.2367219924926758,0.19611011445522308,-0.12193948775529861
1761914381779822000,7.228822021484375,1.200049638748169,0.23726102709770203,-0.1326102465391159
1761914381789878000,7.2388779296875,1.1477934122085571,0.2595841586589813,-0.13263367116451263
1761914381799934000,7.248933837890625,1.074283242225647,0.23735450208187103,-0.123207688331604
1761914381809990000,7.258989990234375,0.9875589609146118,0.21951690316200256,-0.1076769307255745
1761914381820045000,7.269045166015625,0.9034028053283691,0.18498237431049347,-0.10489898175001144
1761914381830101000,7.27910107421875,0.8276672959327698,0.1289939284324646,-0.10589899867773056
1761914381840157000,7.289156982421875,0.7625599503517151,0.06365141272544861,-0.10331200808286667
1761914381850213000,7.299213134765625,0.7099971175193787,-0.003085538512095809,-0.097487673163414
1761914381860269000,7.30926904296875,0.6771047115325928,-0.08493220061063766,-0.09383062273263931
1761914381870324000,7.319323974609375,0.6610386371612549,-0.14259229600429535,-0.13369521498680115
1761914381880380000,7.3293798828125,0.6765936613082886,-0.11422724276781082,-0.2288704663515091
1761914381890435800,7.339435791015625,0.7183107137680054,-0.006068811286240816,-0.3379437029361725
1761914381900492000,7.349491943359375,0.7563867568969727,0.08431008458137512,-0.3798360228538513
1761914381910547000,7.359546875,0.805747926235199,0.1447225660085678,-0.34334778785705566
1761914381920603100,7.36960302734375,0.8348551988601685,0.21480418741703033,-0.24087385833263397
1761914381930659000,7.3796591796875,0.8165259957313538,0.263861745595932,-0.07102304697036743
1761914381940715000,7.389715087890625,0.7623458504676819,0.2932760715484619,0.1378209888935089
1761914381950771200,7.399771240234375,0.6976560354232788,0.3437855839729309,0.3387413024902344
1761914381960825900,7.409825927734375,0.6395632028579712,0.42290037870407104,0.4901081919670105
1761914381970882000,7.419882080078125,0.6049340963363647,0.5164729356765747,0.5960537791252136
1761914381980938000,7.42993798828125,0.6117286086082458,0.6090420484542847,0.6585310101509094
1761914381990994000,7.439993896484375,0.6444748640060425,0.6949513554573059,0.6875730752944946
1761914382001050000,7.450050048828125,0.6910431385040283,0.758076012134552,0.6851298809051514
1761914382011105000,7.46010498046875,0.7146099805831909,0.7907178401947021,0.6558111310005188
1761914382021161000,7.470160888671875,0.7105755805969238,0.7643924951553345,0.607742965221405
1761914382031217200,7.480217041015625,0.680372416973114,0.682618260383606,0.5483248829841614
1761914382041273000,7.490273193359375,0.6373921632766724,0.5678282976150513,0.4827863574028015
1761914382051329000,7.5003291015625,0.5924095511436462,0.46207523345947266,0.4184792637825012
1761914382061384000,7.510384033203125,0.5585439801216125,0.39521950483322144,0.3639585077762604
1761914382071440000,7.52043994140625,0.5171408653259277,0.34786102175712585,0.32383105158805847
1761914382081496000,7.53049609375,0.46596264839172363,0.29991987347602844,0.2949315011501312
1761914382091552000,7.540552001953125,0.39410310983657837,0.260982871055603,0.28591829538345337
1761914382101607200,7.550607177734375,0.30388718843460083,0.21189121901988983,0.29873183369636536
1761914382111663000,7.5606630859375,0.2002745121717453,0.1615140587091446,0.33132094144821167
1761914382121719000,7.570718994140625,0.09773508459329605,0.13250690698623657,0.35816213488578796
1761914382131775000,7.58077490234375,0.004822984803467989,0.1463681310415268,0.36614418029785156
1761914382141831000,7.590830810546875,-0.05728113278746605,0.2278006672859192,0.3268178105354309
1761914382151886000,7.600885986328125,-0.09047157317399979,0.3373071849346161,0.2503536641597748
1761914382161942000,7.61094189453125,-0.10590352863073349,0.42924749851226807,0.16874080896377563
1761914382171998000,7.620998046875,-0.10890251398086548,0.4753577411174774,0.10298337042331696
1761914382182054100,7.63105419921875,-0.09674225747585297,0.48295333981513977,0.07247180491685867
1761914382192110000,7.641110107421875,-0.0866352915763855,0.47681793570518494,0.07089494913816452
1761914382202165200,7.651165283203125,-0.07386516779661179,0.4649530351161957,0.07371389865875244
1761914382212221000,7.661220947265625,-0.05475219339132309,0.45497629046440125,0.054961785674095154
1761914382222276900,7.67127685546875,-0.04470701888203621,0.41154253482818604,0.006873352453112602
1761914382232333000,7.6813330078125,-0.04568972438573837,0.3451286256313324,-0.056839581578969955
1761914382242389000,7.691388916015625,-0.051303401589393616,0.2773847281932831,-0.11521819978952408
1761914382252444000,7.70144384765625,-0.05856317654252052,0.21494638919830322,-0.15148192644119263
1761914382262500000,7.7115,-0.06494145095348358,0.17206284403800964,-0.17452013492584229
1761914382272556000,7.72155615234375,-0.07114581763744354,0.13888171315193176,-0.17299334704875946
1761914382282612000,7.731612060546875,-0.0714092031121254,0.07725510746240616,-0.1633244752883911
1761914382292667000,7.7416669921875,-0.07518689334392548,-0.006672816351056099,-0.15659892559051514
1761914382302722800,7.751722900390625,-0.08201257884502411,-0.10171198099851608,-0.14517690241336823
1761914382312779000,7.761779052734375,-0.0872078686952591,-0.16251248121261597,-0.13123364746570587
1761914382322835000,7.7718349609375,-0.07528969645500183,-0.19268502295017242,-0.1204443871974945
1761914382332891000,7.781890869140625,-0.05198836699128151,-0.1578783094882965,-0.12633183598518372
1761914382342946000,7.791946044921875,-0.022784141823649406,-0.09417816251516342,-0.14284929633140564
1761914382353002000,7.802001953125,-0.002025600289925933,-0.03291400894522667,-0.14777986705303192
1761914382363058200,7.81205810546875,-0.0014764565275982022,-0.002412024885416031,-0.1283116340637207
1761914382373114000,7.822114013671875,-0.008595884777605534,0.007786284200847149,-0.07970628142356873
1761914382383170000,7.832170166015625,-0.03807175159454346,-0.03418966010212898,0.007090133614838123
1761914382393225000,7.842224853515625,-0.08111349493265152,-0.12241459637880325,0.12510518729686737
1761914382403281000,7.852281005859375,-0.13073989748954773,-0.29584044218063354,0.27463820576667786
1761914382413337000,7.862337158203125,-0.20726850628852844,-0.6086183190345764,0.4372788071632385
1761914382423393000,7.87239306640625,-0.2817339599132538,-0.9680563807487488,0.5451722145080566
1761914382433448200,7.8824482421875,-0.35269466042518616,-1.26286780834198,0.5494673848152161
1761914382443504000,7.892504150390625,-0.42111021280288696,-1.4602657556533813,0.4100381135940552
1761914382453560000,7.90256005859375,-0.4602040946483612,-1.5387691259384155,0.1236119493842125
1761914382463616000,7.912615966796875,-0.45043668150901794,-1.4908324480056763,-0.24630485475063324
1761914382473672000,7.922671875,-0.39326339960098267,-1.3013899326324463,-0.6013340353965759
1761914382483727000,7.93272705078125,-0.30869659781455994,-1.0274832248687744,-0.8399410247802734
1761914382493783000,7.942782958984375,-0.22085727751255035,-0.7459498047828674,-0.9114879369735718
1761914382503839000,7.9528388671875,-0.13786359131336212,-0.5239513516426086,-0.8219748139381409
1761914382513895000,7.96289501953125,-0.05627712234854698,-0.35411280393600464,-0.6289803385734558
1761914382523951000,7.972951171875,0.028992503881454468,-0.22332602739334106,-0.38029247522354126
1761914382534006000,7.983006103515625,0.10634428262710571,-0.10264541953802109,-0.12258743494749069
1761914382544062000,7.99306201171875,0.16256308555603027,0.016756342723965645,0.10582683235406876
1761914382554118000,8.003117919921875,0.20096293091773987,0.11976049095392227,0.29100334644317627
1761914382564173000,8.013173095703126,0.23727034032344818,0.17246603965759277,0.43150877952575684
1761914382574229000,8.02322900390625,0.2624047100543976,0.1655183881521225,0.526457667350769
1761914382584284200,8.0332841796875,0.26082971692085266,0.1455920934677124,0.58585524559021
1761914382594340000,8.043340087890625,0.2320023477077484,0.116643525660038,0.608269453048706
1761914382604396000,8.05339599609375,0.18604843318462372,0.12135598808526993,0.6026642918586731
1761914382614452200,8.0634521484375,0.11867791414260864,0.1852090060710907,0.5607368350028992
1761914382624507000,8.0735068359375,0.05534341558814049,0.29053837060928345,0.5038687586784363
1761914382634563000,8.08356298828125,0.04224279522895813,0.38251620531082153,0.4514356255531311
1761914382644619000,8.093618896484376,0.09220050275325775,0.4144509732723236,0.41313299536705017
1761914382654675000,8.103675048828125,0.19052654504776,0.395479679107666,0.38665637373924255
1761914382664731100,8.113731201171875,0.32280999422073364,0.3708302676677704,0.36034834384918213
1761914382674786000,8.1237861328125,0.46971023082733154,0.37103238701820374,0.3423626720905304
1761914382684842000,8.133842041015624,0.6218254566192627,0.3954559862613678,0.3346000909805298
1761914382694898200,8.143898193359375,0.7523046731948853,0.44503340125083923,0.3360259532928467
1761914382704953900,8.153953857421875,0.8534786701202393,0.5100877285003662,0.3380025327205658
1761914382715010000,8.164010009765626,0.9201232194900513,0.5689817070960999,0.3424558937549591
1761914382725065000,8.17406494140625,0.9651460647583008,0.617165744304657,0.34924188256263733
1761914382735121000,8.184120849609375,0.9798339605331421,0.6388907432556152,0.35751765966415405
1761914382745177000,8.194177001953125,0.9594080448150635,0.6397751569747925,0.3579464256763458
1761914382755233000,8.20423291015625,0.9230931997299194,0.6170943379402161,0.33955490589141846
1761914382765288200,8.2142880859375,0.9020560383796692,0.6057788729667664,0.2944508194923401
1761914382775343900,8.22434375,0.8879242539405823,0.6058291792869568,0.21344596147537231
1761914382785403100,8.234403076171875,0.8604763746261597,0.6118303537368774,0.1197490394115448
1761914382795459300,8.244459228515625,0.8305919766426086,0.5971712470054626,0.04833371192216873
1761914382805515300,8.254515380859376,0.8068802952766418,0.5486780405044556,0.014363759197294712
1761914382815570400,8.2645703125,0.7961741089820862,0.48069390654563904,0.013072924688458443
1761914382825626400,8.27462646484375,0.7860019207000732,0.4365522861480713,0.016871923580765724
1761914382835682300,8.284682373046875,0.7688887119293213,0.39566770195961,0.00749014038592577
1761914382845738500,8.294738525390626,0.736566424369812,0.34432142972946167,-0.02472292259335518
1761914382855794200,8.304794189453125,0.6949462890625,0.3018248379230499,-0.07558690011501312
1761914382865849300,8.314849365234375,0.6682960391044617,0.26878538727760315,-0.12754490971565247
1761914382875905300,8.3249052734375,0.6367617845535278,0.219818115234375,-0.17118985950946808
1761914382885961200,8.334961181640624,0.5972822904586792,0.16357454657554626,-0.18675203621387482
1761914382896017400,8.345017333984375,0.5567466020584106,0.12405084073543549,-0.1688832938671112
1761914382906072300,8.355072265625,0.5221723914146423,0.10125311464071274,-0.11839242279529572
1761914382916128500,8.36512841796875,0.48557016253471375,0.10692485421895981,-0.048354484140872955
1761914382926184400,8.375184326171874,0.4548788368701935,0.14245247840881348,0.023245934396982193
1761914382936240000,8.385240234375,0.4352598488330841,0.18502391874790192,0.07930067926645279
1761914382946296300,8.39529638671875,0.4245257079601288,0.22893305122852325,0.1294005960226059
1761914382956351200,8.405351318359376,0.4247361123561859,0.28049638867378235,0.16890300810337067
1761914382966407400,8.415407470703125,0.42940595746040344,0.3317853808403015,0.20133736729621887
1761914382976463400,8.42546337890625,0.42042818665504456,0.3467070758342743,0.2368716597557068
1761914382986519300,8.435519287109376,0.40431898832321167,0.3241003155708313,0.2464478611946106
1761914382996575200,8.4455751953125,0.3931347727775574,0.27815359830856323,0.22025567293167114
1761914383006630400,8.45563037109375,0.3863695561885834,0.23248809576034546,0.18417702615261078
1761914383016686000,8.46568603515625,0.37495335936546326,0.19151990115642548,0.1672734171152115
1761914383026742300,8.4757421875,0.3683958649635315,0.14697027206420898,0.17662324011325836
1761914383036798200,8.485798095703124,0.34740641713142395,0.07789160311222076,0.1958177089691162
1761914383046853400,8.495853271484375,0.32762420177459717,-0.026490196585655212,0.18027576804161072
1761914383056909300,8.505909423828125,0.3095408082008362,-0.179767906665802,0.10615812987089157
1761914383066965200,8.51596533203125,0.283063143491745,-0.337012380361557,-0.03128841519355774
1761914383077021400,8.526021484375,0.27007463574409485,-0.4756898283958435,-0.19623501598834991
1761914383087077400,8.536077392578125,0.2722355127334595,-0.5536214113235474,-0.35862526297569275
1761914383097132300,8.54613232421875,0.28597956895828247,-0.5227630734443665,-0.492796391248703
1761914383107188200,8.556188232421874,0.3124505877494812,-0.41500917077064514,-0.5852174162864685
1761914383117244200,8.566244140625,0.3527303636074066,-0.24509631097316742,-0.6354526281356812
1761914383127300400,8.57630029296875,0.39574572443962097,-0.046667635440826416,-0.6471822261810303
1761914383137356300,8.586356201171874,0.4014539420604706,0.12019884586334229,-0.6111893653869629
1761914383147411500,8.596411376953125,0.3579554855823517,0.24861380457878113,-0.538200855255127
1761914383157469200,8.60646923828125,0.26856300234794617,0.3317395746707916,-0.42880648374557495
1761914383167525400,8.616525390625,0.15225477516651154,0.3529535233974457,-0.2969568371772766
1761914383177581300,8.626581298828125,0.007738879881799221,0.3173119127750397,-0.15532754361629486
1761914383187636500,8.636636474609375,-0.09819634258747101,0.25524666905403137,-0.04328488931059837
1761914383197692400,8.6466923828125,-0.14590953290462494,0.2151341438293457,0.021378258243203163
1761914383207748400,8.656748291015624,-0.1455657184123993,0.17797186970710754,0.04921841248869896
1761914383217804300,8.66680419921875,-0.1217016652226448,0.12202790379524231,0.09319465607404709
1761914383227860200,8.676860107421875,-0.09815213084220886,0.04772571101784706,0.18874967098236084
1761914383237915400,8.686915283203126,-0.07385851442813873,-0.047091878950595856,0.33267462253570557
1761914383247971300,8.696971435546875,-0.06630285829305649,-0.16731922328472137,0.49907106161117554
1761914383258027300,8.70702734375,-0.0660562515258789,-0.2788441479206085,0.642341136932373
1761914383268083500,8.71708349609375,-0.05529308319091797,-0.3404816687107086,0.7239918112754822
1761914383278139400,8.727139404296874,-0.021884260699152946,-0.35010287165641785,0.734103798866272
1761914383288194300,8.7371943359375,0.026328010484576225,-0.3047386109828949,0.6843400001525879
1761914383298250200,8.747250244140625,0.08260992169380188,-0.23195067048072815,0.5871378183364868
1761914383308306200,8.75730615234375,0.13989372551441193,-0.13451600074768066,0.486636221408844
1761914383318362000,8.767362060546875,0.1908181607723236,-0.038906652480363846,0.4045346975326538
1761914383328417300,8.777417236328125,0.22968032956123352,0.05500652641057968,0.357483834028244
1761914383338473200,8.78747314453125,0.2591380774974823,0.1216617226600647,0.3427315056324005
1761914383348529400,8.797529296875,0.27242061495780945,0.14829066395759583,0.34799978137016296
1761914383358585300,8.80758544921875,0.2734832167625427,0.13989025354385376,0.3479153513908386
1761914383368641300,8.817641357421875,0.25626641511917114,0.09712868183851242,0.3466101586818695
1761914383378696200,8.8276962890625,0.22437851130962372,0.03357580304145813,0.33522698283195496
1761914383388752100,8.837752197265624,0.1930791735649109,-0.026616696268320084,0.3180410861968994
1761914383398808300,8.847808349609375,0.1618056744337082,-0.07787135988473892,0.28897348046302795
1761914383408864300,8.8578642578125,0.1261022686958313,-0.1133212298154831,0.2663065195083618
1761914383418920200,8.867920166015624,0.08622650057077408,-0.12681733071804047,0.24602308869361877
1761914383428975400,8.877975341796875,0.04964478313922882,-0.13437645137310028,0.20486925542354584
1761914383439031300,8.88803125,0.017619473859667778,-0.11967287212610245,0.15288861095905304
1761914383449087500,8.89808740234375,-0.003011502558365464,-0.09284019470214844,0.0936117097735405
1761914383459143400,8.908143310546874,-0.00686216726899147,-0.053469616919755936,0.04284600168466568
1761914383469198300,8.9181982421875,-0.00628905463963747,-0.003382747294381261,0.014162424020469189
1761914383479254300,8.928254150390625,-0.018386464565992355,0.03319283947348595,0.0006982808117754757
1761914383489310200,8.938310302734376,-0.018279938027262688,0.0511619858443737,-0.006075202953070402
1761914383499366400,8.948366455078125,-0.024401213973760605,0.08533460646867752,-0.010656372644007206
1761914383509422300,8.95842236328125,-0.027356790378689766,0.13877439498901367,-0.010515225119888783
1761914383519477200,8.968477294921875,-0.0233540590852499,0.20309560000896454,-0.013939783908426762
1761914383529533400,8.978533447265624,-0.0442926287651062,0.25184741616249084,-0.029767749831080437
1761914383539589400,8.98858935546875,-0.063397616147995,0.28137174248695374,-0.0635632649064064
1761914383549645300,8.998645263671875,-0.08725554496049881,0.330434113740921,-0.11737882345914841
1761914383559701200,9.008701171875,-0.10394557565450668,0.3884066045284271,-0.16684117913246155
1761914383569756200,9.018756103515624,-0.10945112258195877,0.45474326610565186,-0.18558929860591888
1761914383579812400,9.028812255859375,-0.12594887614250183,0.513533890247345,-0.1671684831380844
1761914383589868300,9.038868408203125,-0.1416010707616806,0.5740299820899963,-0.10250800102949142
1761914383599924200,9.04892431640625,-0.15818990767002106,0.6042861342430115,-0.018040519207715988
1761914383609979400,9.0589794921875,-0.17586344480514526,0.5870541930198669,0.06273555010557175
1761914383620035300,9.069035400390625,-0.21500737965106964,0.5100805759429932,0.09797503054141998
1761914383630091300,9.07909130859375,-0.243689626455307,0.3965319097042084,0.07559596002101898
1761914383640147200,9.089147216796874,-0.24902154505252838,0.3153899013996124,0.012401009909808636
1761914383650203100,9.099203125,-0.24136708676815033,0.3033689260482788,-0.057624947279691696
1761914383660258300,9.10925830078125,-0.22164957225322723,0.32250267267227173,-0.11357396841049194
1761914383670314200,9.119314208984376,-0.2174268662929535,0.36213237047195435,-0.13961301743984222
1761914383680370400,9.129370361328125,-0.22314253449440002,0.3788653016090393,-0.13085894286632538
1761914383690426400,9.13942626953125,-0.23223111033439636,0.39361679553985596,-0.11184344440698624
1761914383700482300,9.149482421875,-0.2447623461484909,0.3772847056388855,-0.07934675365686417
1761914383710537200,9.159537109375,-0.248042032122612,0.3403855264186859,-0.038971368223428726
1761914383720593200,9.16959326171875,-0.23412089049816132,0.30240753293037415,0.0037356161046773195
1761914383730649300,9.1796494140625,-0.20878703892230988,0.2630225718021393,0.020296216011047363
1761914383740705300,9.189705322265626,-0.1920171082019806,0.2136174738407135,0.019575033336877823
1761914383750760200,9.19976025390625,-0.1528603881597519,0.18532457947731018,0.023694943636655807
1761914383760816400,9.20981640625,-0.10334663093090057,0.19599667191505432,0.036680515855550766
1761914383770872300,9.219872314453125,-0.05661853775382042,0.23854413628578186,0.04484203830361366
1761914383780924700,9.229924560546875,-0.018846925348043442,0.3155510425567627,0.03630368039011955
1761914383790980600,9.239980712890626,0.005763613153249025,0.3870699405670166,0.037321537733078
1761914383801035500,9.250035400390624,0.025959961116313934,0.4523211419582367,0.06310120224952698
1761914383811091500,9.260091552734375,0.036861345171928406,0.47218963503837585,0.12743279337882996
1761914383821147400,9.2701474609375,0.022072279825806618,0.44276997447013855,0.20387296378612518
1761914383831203600,9.28020361328125,0.0008492820779792964,0.368545264005661,0.26176369190216064
1761914383841258500,9.290258544921874,-0.004968659486621618,0.26833611726760864,0.2613905966281891
1761914383851314400,9.300314453125,-0.004736431874334812,0.16545820236206055,0.21771661937236786
1761914383861370600,9.31037060546875,-0.0006977482116781175,0.11116966605186462,0.14517982304096222
1761914383871426600,9.320426513671874,0.004577973857522011,0.1012539193034172,0.059662532061338425
1761914383881482500,9.330482421875,0.011271297000348568,0.09237547218799591,-0.018867164850234985
1761914383891537400,9.340537353515625,0.0002724413643591106,0.05932164564728737,-0.07893688976764679
1761914383901593300,9.35059326171875,-0.02311091125011444,0.017854364588856697,-0.12749990820884705
1761914383911649500,9.3606494140625,-0.0367036871612072,0.004178499802947044,-0.14655721187591553
1761914383921705500,9.37070556640625,-0.01805463433265686,0.02365020103752613,-0.14180773496627808
1761914383931761400,9.380761474609375,0.025657426565885544,0.06435368955135345,-0.11440087854862213
1761914383941816600,9.390816650390626,0.07737334817647934,0.07415492087602615,-0.04638960212469101
1761914383951872500,9.40087255859375,0.11115528643131256,0.01600666344165802,0.04982801154255867
1761914383961928700,9.4109287109375,0.12006382644176483,-0.09159968793392181,0.1696217954158783
1761914383971984600,9.420984619140626,0.11075927317142487,-0.19897061586380005,0.2917857766151428
1761914383982039600,9.43103955078125,0.08932535350322723,-0.2716086208820343,0.38857409358024597
1761914383992095500,9.441095458984375,0.06738249957561493,-0.29393014311790466,0.46179717779159546
1761914384002151400,9.4511513671875,0.04409768804907799,-0.2547910213470459,0.4985911548137665
1761914384012207600,9.46120751953125,0.01744876429438591,-0.16049273312091827,0.5101061463356018
1761914384022263600,9.471263671875,-0.01967543363571167,-0.06199066713452339,0.5128896832466125
1761914384032318700,9.481318603515625,-0.0806538313627243,0.0057162088342010975,0.5239748358726501
1761914384042374700,9.491374755859376,-0.13814136385917664,0.03069319762289524,0.531762957572937
1761914384052430300,9.501430419921874,-0.18512298166751862,0.024288827553391457,0.528473436832428
1761914384062486500,9.511486572265625,-0.2126195877790451,-0.015103585086762905,0.49540627002716064
1761914384072541400,9.52154150390625,-0.219671368598938,-0.0689053013920784,0.42666876316070557
1761914384082597400,9.531597412109376,-0.20391611754894257,-0.10095085203647614,0.31995564699172974
1761914384092653600,9.541653564453124,-0.14226393401622772,-0.10008186101913452,0.1831706166267395
1761914384102709500,9.55170947265625,-0.04530330002307892,-0.053456831723451614,0.051045872271060944
1761914384112765400,9.561765380859375,0.05458894371986389,-0.004145210143178701,-0.0490863211452961
1761914384122820600,9.571820556640626,0.12938621640205383,0.008943960070610046,-0.09577792137861252
1761914384132876300,9.581876220703125,0.172895610332489,-0.01823892444372177,-0.09576966613531113
1761914384142932500,9.591932373046875,0.1941196769475937,-0.04528944939374924,-0.0753251165151596
1761914384152988400,9.601988525390626,0.20570576190948486,-0.06904298067092896,-0.055513061583042145
1761914384163044400,9.61204443359375,0.22465068101882935,-0.09092564880847931,-0.04975796863436699
1761914384173099500,9.622099609375,0.24115270376205444,-0.10391388088464737,-0.04957234486937523
1761914384183155500,9.632155517578125,0.269802451133728,-0.11208952218294144,-0.048166196793317795
1761914384193211600,9.642211669921876,0.30460357666015625,-0.1152925044298172,-0.0401383638381958
1761914384203267600,9.652267578125,0.33899375796318054,-0.12773266434669495,-0.03449299558997154
1761914384213322500,9.662322509765625,0.35737037658691406,-0.12951724231243134,-0.041859034448862076
1761914384223378400,9.67237841796875,0.364093542098999,-0.12364550679922104,-0.05386456474661827
1761914384233434400,9.682434326171874,0.3545045554637909,-0.12948821485042572,-0.06409189850091934
1761914384243490600,9.692490478515625,0.3371860086917877,-0.1527799516916275,-0.07184862345457077
1761914384253546500,9.70254638671875,0.3148120045661926,-0.19648295640945435,-0.0782625824213028
1761914384263601700,9.7126015625,0.2850636839866638,-0.23812708258628845,-0.08096755295991898
1761914384273657600,9.72265771484375,0.25507065653800964,-0.2738659083843231,-0.08711785823106766
1761914384283713500,9.732713623046875,0.22152119874954224,-0.30963054299354553,-0.09138770401477814
1761914384293769500,9.74276953125,0.18903224170207977,-0.32956433296203613,-0.09571347385644913
1761914384303825700,9.75282568359375,0.16843880712985992,-0.32906949520111084,-0.10284195840358734
1761914384313880300,9.76288037109375,0.1535048633813858,-0.3152274489402771,-0.10881702601909637
1761914384323936500,9.7729365234375,0.13797731697559357,-0.2798284590244293,-0.12226758897304535
1761914384333992400,9.782992431640626,0.11082318425178528,-0.23140525817871094,-0.14134594798088074
1761914384344048400,9.79304833984375,0.09223751723766327,-0.18186913430690765,-0.15338608622550964
1761914384354103600,9.803103515625,0.06925976276397705,-0.13167333602905273,-0.15607962012290955
1761914384364159500,9.813159423828125,0.057362090796232224,-0.09581201523542404,-0.1449768990278244
1761914384374215700,9.823215576171876,0.0507446713745594,-0.08093000203371048,-0.12715183198451996
1761914384384271600,9.833271728515625,0.05332420766353607,-0.07990735024213791,-0.10861515998840332
1761914384394327300,9.843327392578125,0.05993949994444847,-0.09128996729850769,-0.09076106548309326
1761914384404382500,9.853382568359375,0.08043518662452698,-0.09165162593126297,-0.08263762295246124
1761914384414438400,9.8634384765625,0.09653346240520477,-0.1051410660147667,-0.0725836530327797
1761914384424494600,9.87349462890625,0.10584280639886856,-0.1275811344385147,-0.06624213606119156
1761914384434550500,9.883550537109375,0.10946790128946304,-0.15050216019153595,-0.05655995011329651
1761914384444605700,9.893605712890626,0.11250710487365723,-0.15943439304828644,-0.05860312655568123
1761914384454661600,9.90366162109375,0.12933987379074097,-0.1545964926481247,-0.05993284285068512
1761914384464717600,9.913717529296875,0.15396159887313843,-0.13958905637264252,-0.05529441311955452
1761914384474773500,9.9237734375,0.17851008474826813,-0.12320209294557571,-0.04008936136960983
1761914384484829400,9.933829345703124,0.1931324452161789,-0.11297421902418137,-0.008930910378694534
1761914384494884600,9.943884521484375,0.2002369612455368,-0.10733391344547272,0.03401762247085571
1761914384504940500,9.9539404296875,0.19957995414733887,-0.10470883548259735,0.08131323009729385
1761914384514996500,9.96399658203125,0.18019773066043854,-0.09543783962726593,0.12137836217880249
1761914384525052700,9.974052734375,0.1494094580411911,-0.06528899073600769,0.14371109008789062
1761914384535108600,9.984108642578125,0.11437824368476868,-0.031010646373033524,0.13648167252540588
1761914384545163500,9.99416357421875,0.09342102706432343,-0.02063550427556038,0.10207470506429672
1761914384555219500,10.004219482421876,0.08112414926290512,-0.03876923397183418,0.04849589616060257
1761914384565275400,10.014275390625,0.0742848813533783,-0.0686512291431427,-0.004789961501955986
1761914384575331300,10.024331298828125,0.0636676624417305,-0.08840017020702362,-0.03326607868075371
1761914384585386500,10.034386474609375,0.03599981218576431,-0.1034528911113739,-0.026399383321404457
1761914384595442400,10.0444423828125,0.002766491612419486,-0.15019376575946808,0.010075271129608154
1761914384605498600,10.05449853515625,-0.041546110063791275,-0.2354402095079422,0.05476897209882736
1761914384615554600,10.064554443359375,-0.06966962665319443,-0.26476189494132996,0.08689308911561966
1761914384625610500,10.074610595703126,-0.05854693427681923,-0.22680598497390747,0.10729502886533737
1761914384635665400,10.08466552734375,-0.045223671942949295,-0.17759954929351807,0.1413310319185257
1761914384645721300,10.094721435546875,-0.042277149856090546,-0.14058907330036163,0.20817424356937408
1761914384655777500,10.104777587890625,-0.04253014922142029,-0.10183608531951904,0.2796127498149872
1761914384665833500,10.11483349609375,-0.02515302412211895,-0.019298329949378967,0.31274592876434326
1761914384675888600,10.124888671875,0.02100142277777195,0.09574437141418457,0.2865105867385864
1761914384685944600,10.134944580078125,0.07942718267440796,0.21648623049259186,0.19978421926498413
1761914384696000500,10.14500048828125,0.12841230630874634,0.3230622112751007,0.07396716624498367
1761914384706056700,10.155056640625,0.15740133821964264,0.3778753876686096,-0.056947171688079834
1761914384716112600,10.165112548828125,0.1674872636795044,0.4171375632286072,-0.17351560294628143
1761914384726167600,10.17516748046875,0.16694077849388123,0.4457380473613739,-0.25742435455322266
1761914384736223500,10.185223388671876,0.16508428752422333,0.4401124119758606,-0.3041154146194458
1761914384746279400,10.195279541015625,0.14558996260166168,0.3428143560886383,-0.2907167971134186
1761914384756335600,10.205335693359375,0.11522086709737778,0.15460209548473358,-0.1974281221628189
1761914384766391600,10.2153916015625,0.09140927344560623,-0.09409373998641968,-0.025785258039832115
1761914384776446500,10.225446533203124,0.04637015983462334,-0.3431642949581146,0.1809721738100052
1761914384786506000,10.235506103515625,-0.008827047422528267,-0.5299383997917175,0.3792807459831238
1761914384796562000,10.24556201171875,-0.06400960683822632,-0.6626943349838257,0.5319554805755615
1761914384806617900,10.255617919921875,-0.10147576034069061,-0.7182475924491882,0.6094239354133606
1761914384816673000,10.265673095703125,-0.10007839649915695,-0.6594716310501099,0.6108369827270508
1761914384826729000,10.27572900390625,-0.0738137736916542,-0.5177688598632812,0.5768100619316101
1761914384836785200,10.28578515625,-0.05353939160704613,-0.37477734684944153,0.5635605454444885
1761914384846841000,10.295841064453125,-0.07881225645542145,-0.307308554649353,0.5953856110572815
1761914384856897000,10.30589697265625,-0.14859239757061005,-0.2933988571166992,0.6756538152694702
1761914384866952000,10.315951904296876,-0.21831555664539337,-0.3174980580806732,0.7769386172294617
1761914384877008000,10.3260078125,-0.26219967007637024,-0.3504682779312134,0.8578193783760071
1761914384887064000,10.33606396484375,-0.27555274963378906,-0.3471185564994812,0.8962059020996094
1761914384897120000,10.3461201171875,-0.2696618437767029,-0.2992676794528961,0.8734492063522339
1761914384907175200,10.356175048828124,-0.2569548189640045,-0.22119151055812836,0.8086091876029968
1761914384917231000,10.366231201171875,-0.2420608401298523,-0.1631431132555008,0.7154099941253662
1761914384927287000,10.376287109375,-0.23337334394454956,-0.10925138741731644,0.6059434413909912
1761914384937343200,10.38634326171875,-0.23277226090431213,-0.09726662933826447,0.48188355565071106
1761914384947399000,10.39639892578125,-0.24003976583480835,-0.13993526995182037,0.36985474824905396
1761914384957454000,10.4064541015625,-0.2589474022388458,-0.23223936557769775,0.28160157799720764
1761914384967510000,10.416510009765625,-0.28545278310775757,-0.33597347140312195,0.21540072560310364
1761914384977566000,10.42656591796875,-0.31644532084465027,-0.41070815920829773,0.16481637954711914
1761914384987622100,10.4366220703125,-0.360774964094162,-0.4482022821903229,0.12508255243301392
1761914384997677000,10.446677001953125,-0.41340383887290955,-0.4777167737483978,0.0748651847243309
1761914385007733000,10.45673291015625,-0.46880850195884705,-0.497654527425766,0.0034876756835728884
1761914385017789200,10.4667890625,-0.5076970458030701,-0.5021912455558777,-0.07357648015022278
1761914385027844900,10.476844970703125,-0.5137749314308167,-0.48299914598464966,-0.13424143195152283
1761914385037900800,10.48690087890625,-0.47647625207901,-0.4474259614944458,-0.1723637729883194
1761914385047956000,10.4969560546875,-0.41493141651153564,-0.40147367119789124,-0.19493913650512695
1761914385058012000,10.507011962890624,-0.35272717475891113,-0.3353705406188965,-0.208909809589386
1761914385068068000,10.517068115234375,-0.29974091053009033,-0.25494706630706787,-0.21527476608753204
1761914385078124000,10.5271240234375,-0.2762073576450348,-0.19681665301322937,-0.20481573045253754
1761914385088180000,10.537179931640624,-0.2723870575428009,-0.17676891386508942,-0.18874168395996094
1761914385098235000,10.54723486328125,-0.28956231474876404,-0.197441965341568,-0.16197611391544342
1761914385108290800,10.557290771484375,-0.3205074369907379,-0.27687206864356995,-0.1316983699798584
1761914385118347000,10.567346923828126,-0.3469015061855316,-0.3941478431224823,-0.11238832771778107
1761914385128403000,10.57740283203125,-0.36495187878608704,-0.4990508258342743,-0.13278360664844513
1761914385138458000,10.5874580078125,-0.37798404693603516,-0.5503467917442322,-0.1785271316766739
1761914385148514000,10.59751416015625,-0.38257187604904175,-0.5091700553894043,-0.23485085368156433
1761914385158570000,10.607570068359376,-0.38703081011772156,-0.4255973696708679,-0.27996826171875
1761914385168626200,10.617626220703125,-0.3738050162792206,-0.3273214101791382,-0.30797460675239563
1761914385178682000,10.62768212890625,-0.35376206040382385,-0.2344878762960434,-0.3238678276538849
1761914385188737000,10.637737060546876,-0.3108108639717102,-0.13367816805839539,-0.34305694699287415
1761914385198793000,10.64779296875,-0.24565903842449188,-0.036069322377443314,-0.3709985911846161
1761914385208849000,10.657848876953125,-0.1960725635290146,0.023151125758886337,-0.3953790068626404
1761914385218905000,10.667905029296875,-0.1654488742351532,0.008509865030646324,-0.3889003396034241
1761914385228960000,10.6779599609375,-0.13955576717853546,-0.028782378882169724,-0.347886860370636
1761914385239016000,10.688015869140624,-0.12306946516036987,-0.06703469157218933,-0.2820205092430115
1761914385249072000,10.698072021484375,-0.12330728769302368,-0.103624127805233,-0.2158081978559494
1761914385259128000,10.708128173828126,-0.12284203618764877,-0.1727701723575592,-0.18094688653945923
1761914385269184000,10.71818408203125,-0.10433492809534073,-0.2579428553581238,-0.18819840252399445
1761914385279239000,10.728239013671875,-0.06962382048368454,-0.3483835458755493,-0.21875710785388947
1761914385289294800,10.738294921875,-0.04436853155493736,-0.4542231559753418,-0.24473091959953308
1761914385299351000,10.74835107421875,-0.03247911483049393,-0.5229406952857971,-0.2781898081302643
1761914385309407000,10.758406982421874,-0.04972254857420921,-0.4696817398071289,-0.3249181807041168
1761914385319462100,10.768462158203125,-0.062243133783340454,-0.310227632522583,-0.3028200566768646
1761914385329518000,10.77851806640625,-0.06587301939725876,0.022943930700421333,-0.2962702810764313
1761914385339574000,10.788573974609376,-0.12290435284376144,0.2548528015613556,-0.2959677278995514
1761914385349630200,10.798630126953125,-0.1618615984916687,0.3869759440422058,-0.22579237818717957
1761914385359686000,10.808685791015625,-0.1358848661184311,0.47021758556365967,-0.07670276612043381
1761914385369741000,10.818740966796875,-0.1155652105808258,0.5439541339874268,0.10470137745141983
