time,seconds_elapsed,z,y,x
1761915703161601000,0.11760107421875,0.03000040352344513,-0.1143948957324028,-0.01767556741833687
1761915703171655200,0.1276552734375,0.01007835753262043,-0.16887430846691132,-0.04332532733678818
1761915703181709000,0.137708984375,-0.009159252047538757,-0.2145179659128189,-0.053054921329021454
1761915703191763200,0.14776318359375,-0.011703530326485634,-0.24070408940315247,-0.04798249527812004
1761915703201817000,0.157817138671875,-0.006259229499846697,-0.23533222079277039,-0.025677189230918884
1761915703211871200,0.167871337890625,0.005408874712884426,-0.19524332880973816,0.00212828628718853
1761915703221925400,0.17792529296875,0.017755290493369102,-0.15223941206932068,0.0310044102370739
1761915703231979000,0.18797900390625,0.024905981495976448,-0.1145668551325798,0.05247066915035248
1761915703242034200,0.1980341796875,0.0434141531586647,-0.09959562867879868,0.05888888239860535
1761915703252088000,0.208088134765625,0.06639015674591064,-0.07502498477697372,0.04879578948020935
1761915703262142200,0.21814208984375,0.08619475364685059,-0.03359285369515419,0.028481997549533844
1761915703272196000,0.228196044921875,0.10541903227567673,0.021537523716688156,-0.0014148745685815811
1761915703282250200,0.238250244140625,0.12580525875091553,0.07940002530813217,-0.015421769581735134
1761915703292304100,0.24830419921875,0.12813206017017365,0.09109796583652496,-0.008741496130824089
1761915703302358300,0.258358154296875,0.11437231302261353,0.04756539314985275,0.014405100606381893
1761915703312412000,0.268411865234375,0.09906809777021408,0.018609575927257538,0.04459383711218834
1761915703322466000,0.278466064453125,0.09029777348041534,0.03144521266222,0.07479488104581833
1761915703332520200,0.288520263671875,0.09426364302635193,0.034361906349658966,0.09638821333646774
1761915703342574000,0.298573974609375,0.07237406075000763,0.041336193680763245,0.11873266100883484
1761915703352628200,0.308628173828125,0.0754595473408699,0.013158673420548439,0.14427223801612854
1761915703362682000,0.31868212890625,0.07415326684713364,-0.022471493110060692,0.1749156415462494
1761915703372736300,0.328736328125,0.07761367410421371,-0.06152581050992012,0.20537370443344116
1761915703382790100,0.3387900390625,0.07263515889644623,-0.08652037382125854,0.23546558618545532
1761915703392845000,0.348844970703125,0.06814751774072647,-0.10661724954843521,0.27034011483192444
1761915703402899000,0.35889892578125,0.053249262273311615,-0.13105228543281555,0.30682408809661865
1761915703412953000,0.368953125,0.027000777423381805,-0.1621977686882019,0.3600451946258545
1761915703423007200,0.37900732421875,-0.0017962489509955049,-0.22255271673202515,0.4312991499900818
1761915703433061000,0.38906103515625,-0.029130198061466217,-0.25280243158340454,0.5101845264434814
1761915703443115300,0.399115234375,-0.03935140743851662,-0.26299914717674255,0.567972719669342
1761915703453169200,0.409169189453125,-0.017632199451327324,-0.20816613733768463,0.5700709223747253
1761915703463223300,0.419223388671875,0.024301933124661446,-0.08258770406246185,0.5223947763442993
1761915703473277200,0.429277099609375,0.07015511393547058,0.02913617715239525,0.4500909447669983
1761915703483331300,0.439331298828125,0.09928423911333084,0.06647555530071259,0.3572973608970642
1761915703493385000,0.449385009765625,0.09156613051891327,0.07992292195558548,0.2477138638496399
1761915703503439000,0.459439208984375,0.09029469639062881,0.1046207919716835,0.10837322473526001
1761915703513493000,0.469492919921875,0.09197700768709183,0.12351234257221222,-0.0541769303381443
1761915703523547100,0.479547119140625,0.0824602022767067,0.10376393795013428,-0.2148238718509674
1761915703533602300,0.489602294921875,0.06935995817184448,0.06453082710504532,-0.3676477372646332
1761915703543656200,0.49965625,0.06274306774139404,0.06465413421392441,-0.49074408411979675
1761915703553710300,0.50971044921875,0.0460229367017746,0.07040013372898102,-0.5696249604225159
1761915703563764000,0.519763916015625,0.014711351133883,0.09085773676633835,-0.5836132168769836
1761915703573818000,0.529818115234375,-0.016672076657414436,0.08018050342798233,-0.5481390357017517
1761915703583872000,0.5398720703125,-0.03731370344758034,0.05428658425807953,-0.47392791509628296
1761915703593926100,0.549926025390625,-0.05350002646446228,0.04499395191669464,-0.37221789360046387
1761915703603980000,0.55997998046875,-0.061588313430547714,0.03850116208195686,-0.25867828726768494
1761915703614034200,0.5700341796875,-0.08065757900476456,0.03887983039021492,-0.13976158201694489
1761915703624088000,0.580088134765625,-0.10613363981246948,0.0013329859357327223,-0.028739728033542633
1761915703634142200,0.59014208984375,-0.1342448890209198,-0.058085665106773376,0.04787174612283707
1761915703644196000,0.600196044921875,-0.17481522262096405,-0.11264877766370773,0.0753885954618454
1761915703654250200,0.610250244140625,-0.21760395169258118,-0.1567508578300476,0.05454520881175995
1761915703664304400,0.620304443359375,-0.26122334599494934,-0.1843031346797943,0.01542204525321722
1761915703674359000,0.630359130859375,-0.29330357909202576,-0.17521682381629944,-0.04057643190026283
1761915703684413200,0.6404130859375,-0.3100639283657074,-0.1399829387664795,-0.08234597742557526
1761915703694467000,0.650467041015625,-0.31653138995170593,-0.09257856011390686,-0.11368408054113388
1761915703704521200,0.660521240234375,-0.31800439953804016,-0.042952947318553925,-0.11258126050233841
1761915703714575000,0.6705751953125,-0.31855976581573486,-0.00550309382379055,-0.08232644945383072
1761915703724629200,0.680629150390625,-0.31447818875312805,0.013465271331369877,-0.031193487346172333
1761915703734683100,0.69068310546875,-0.31022897362709045,0.04400506243109703,0.01691240817308426
1761915703744737000,0.700737060546875,-0.2961520254611969,0.08399935811758041,0.052092235535383224
1761915703754791200,0.710791259765625,-0.260272741317749,0.11909335851669312,0.07019444555044174
1761915703764845000,0.720844970703125,-0.23128104209899902,0.12564365565776825,0.09352240711450577
1761915703774899200,0.730899169921875,-0.2154834121465683,0.09512659162282944,0.11829939484596252
1761915703784953000,0.740953125,-0.20393700897693634,0.06942868232727051,0.12601004540920258
1761915703795007200,0.75100732421875,-0.19601090252399445,0.0711236372590065,0.11794798821210861
1761915703805061000,0.76106103515625,-0.18468181788921356,0.07231966406106949,0.09287378937005997
1761915703815115300,0.771115234375,-0.16792355477809906,0.06255093961954117,0.06297402083873749
1761915703825170000,0.781169921875,-0.14697326719760895,0.0650697574019432,0.026905767619609833
1761915703835224000,0.79122412109375,-0.12433522939682007,0.0595848374068737,-0.0029160846024751663
1761915703845278000,0.80127783203125,-0.09203986823558807,0.048772137612104416,-0.018350966274738312
1761915703855332000,0.81133203125,-0.07073196768760681,0.035421114414930344,-0.022115325555205345
1761915703865386200,0.82138623046875,-0.05409226939082146,0.044118732213974,-0.025841355323791504
1761915703875440000,0.831440185546875,-0.056275419890880585,0.0398113876581192,-0.010708719491958618
1761915703885494300,0.841494384765625,-0.06722899526357651,0.04012617468833923,0.020920846611261368
1761915703895548200,0.851548095703125,-0.06922200322151184,0.025819607079029083,0.06798839569091797
1761915703905602300,0.861602294921875,-0.06168711930513382,0.017029045149683952,0.09689833968877792
1761915703915656200,0.87165625,-0.04291322082281113,0.006868490483611822,0.09933062642812729
1761915703925710000,0.8817099609375,-0.02308305725455284,-0.002900250954553485,0.08336816728115082
1761915703935764000,0.891763916015625,-0.011232945136725903,0.002083713421598077,0.06019037589430809
1761915703945818000,0.901818115234375,-0.01368305366486311,0.005365526769310236,0.052337247878313065
1761915703955873300,0.911873291015625,-0.025703715160489082,-0.015287344343960285,0.061616625636816025
1761915703965927200,0.92192724609375,-0.04632243886590004,-0.05789446085691452,0.08437147736549377
1761915703975981300,0.931981201171875,-0.060965780168771744,-0.10578195005655289,0.10604473203420639
1761915703986035200,0.94203515625,-0.055930543690919876,-0.1595706194639206,0.11224564164876938
1761915703996089300,0.95208935546875,-0.037784453481435776,-0.19654947519302368,0.09082866460084915
1761915704006143000,0.96214306640625,-0.01819317601621151,-0.20761917531490326,0.05580330640077591
1761915704016197000,0.972197021484375,-0.0009454210521653295,-0.022874899208545685,0.0881490409374237
1761915704026251000,0.9822509765625,0.14901186525821686,0.08377112448215485,0.08531756699085236
1761915704036305200,0.99230517578125,0.3262960910797119,0.24918542802333832,0.02864295244216919
1761915704046359000,1.002359130859375,0.3551914095878601,0.2876065969467163,-0.00944451428949833
1761915704056413200,1.0124130859375,0.26469817757606506,0.09711064398288727,-0.004768379498273134
1761915704066467000,1.022467041015625,0.14106836915016174,-0.13184131681919098,0.006636874750256538
1761915704076521200,1.032521240234375,0.08030495047569275,-0.20350438356399536,0.0069823721423745155
1761915704086575000,1.0425751953125,0.06008223816752434,-0.16119714081287384,-0.005104118026793003
1761915704096629200,1.052629150390625,0.04435792192816734,-0.11342521756887436,-0.000050312839448451996
1761915704106684200,1.06268408203125,0.028843941166996956,-0.0884716659784317,0.020477334037423134
1761915704116738000,1.072738037109375,0.022318610921502113,-0.08918333053588867,0.05239933729171753
1761915704126792200,1.082792236328125,0.015384004451334476,-0.1018863394856453,0.0743243396282196
1761915704136846600,1.0928466796875,0.004475338850170374,-0.1105717346072197,0.08019193261861801
1761915704146900500,1.102900390625,-0.01246795803308487,-0.1265603005886078,0.07415881007909775
1761915704156954600,1.11295458984375,-0.01604176126420498,-0.13964512944221497,0.04708121344447136
1761915704167008500,1.123008544921875,-0.009179061278700829,-0.10988457500934601,0.008433952927589417
1761915704177062400,1.1330625,-0.008150502108037472,-0.05455471947789192,-0.020211204886436462
1761915704187116300,1.1431162109375,-0.016845721751451492,-0.01705102063715458,-0.02850402146577835
1761915704197170400,1.15317041015625,-0.03672745078802109,-0.01241658441722393,-0.024886801838874817
1761915704207224300,1.163224365234375,-0.05182917043566704,-0.025193100795149803,-0.015527654439210892
1761915704217278500,1.173278564453125,-0.06392519176006317,-0.036347951740026474,-0.007491583935916424
1761915704227332600,1.18333251953125,-0.06156669557094574,-0.044833578169345856,0.0003445008769631386
1761915704237386500,1.193386474609375,-0.06601199507713318,-0.04568546265363693,0.008752347901463509
1761915704247441400,1.20344140625,-0.07383396476507187,-0.05493621900677681,0.01693357713520527
1761915704257495300,1.213495361328125,-0.08962443470954895,0.07039055228233337,0.05800986662507057
1761915704267549400,1.223549560546875,-0.016127048060297966,0.126848503947258,0.07953140884637833
1761915704277603300,1.233603271484375,0.07329779118299484,0.1274886578321457,0.06404537707567215
1761915704287657500,1.243657470703125,0.07830746471881866,0.09105927497148514,0.019970063120126724
1761915704297711400,1.25371142578125,0.027124818414449692,0.004177972674369812,-0.025706065818667412
1761915704307765500,1.263765625,-0.010818833485245705,-0.024884304031729698,-0.071896992623806
1761915704317819400,1.2738193359375,-0.008944017812609673,-0.008254134096205235,-0.10414108633995056
1761915704327873500,1.28387353515625,0.0039683193899691105,0.013027984648942947,-0.10935289412736893
1761915704337927700,1.293927734375,0.0022962691728025675,0.015550537034869194,-0.08250243961811066
1761915704347981600,1.303981689453125,0.002892817370593548,0.012989642098546028,-0.031651776283979416
1761915704358035500,1.314035400390625,0.002326862420886755,0.006581776775419712,0.01678115874528885
1761915704368089300,1.32408935546875,-0.0022628293372690678,0.014006136916577816,0.04707621783018112
1761915704378143500,1.3341435546875,-0.002517053857445717,0.012913638725876808,0.05144796147942543
1761915704388198400,1.344198486328125,0.0037669409066438675,0.009629162028431892,0.026804137974977493
1761915704398252500,1.35425244140625,0.0055878362618386745,-0.010277931578457355,-0.006655675359070301
1761915704408306400,1.364306396484375,-0.0028711622580885887,-0.02484036237001419,-0.02985420450568199
1761915704418360600,1.374360595703125,-0.019737163558602333,-0.02027958631515503,-0.04295733571052551
1761915704428414500,1.38441455078125,-0.03663971647620201,-0.012149489484727383,-0.04763464257121086
1761915704438468400,1.39446826171875,-0.05629513040184975,-0.02920089289546013,-0.05744592472910881
1761915704448522500,1.4045224609375,-0.06739784777164459,-0.07072623074054718,-0.06846635043621063
1761915704458576400,1.414576416015625,-0.07458103448152542,-0.10190831869840622,-0.08383721858263016
1761915704468630500,1.424630615234375,-0.07481805235147476,-0.11272687464952469,-0.09193109720945358
1761915704478684400,1.434684326171875,-0.0729590579867363,-0.08156576007604599,-0.07573630660772324
1761915704488738600,1.444738525390625,-0.0621492937207222,-0.01578727923333645,-0.03860890865325928
1761915704498792400,1.45479248046875,-0.05885634571313858,0.053164489567279816,0.016457879915833473
1761915704508846600,1.4648466796875,-0.053045060485601425,0.10755103081464767,0.06402672827243805
1761915704518900500,1.474900390625,-0.05405183136463165,0.14097462594509125,0.095242440700531
1761915704528955400,1.484955322265625,-0.05675840377807617,0.13755857944488525,0.0923723578453064
1761915704539009500,1.495009521484375,-0.05616287142038345,0.11168184876441956,0.05674823746085167
1761915704549063400,1.5050634765625,-0.05985347926616669,0.07869913429021835,0.015643678605556488
1761915704559117600,1.51511767578125,-0.06172296777367592,0.04176289215683937,-0.025374997407197952
1761915704569171500,1.52517138671875,-0.06627218425273895,-0.007609717082232237,-0.04673168435692787
1761915704579225600,1.5352255859375,-0.07563526928424835,-0.0486944355070591,-0.056812357157468796
1761915704589279500,1.545279541015625,-0.08809353411197662,-0.07051903754472733,-0.051217589527368546
1761915704599333600,1.555333740234375,-0.11432796716690063,0.04199385643005371,0.0213321503251791
1761915704609387500,1.565387451171875,-0.01583707705140114,0.08741486817598343,0.0500495508313179
1761915704619441400,1.57544140625,0.12142714858055115,0.1979762613773346,-0.0044540599919855595
1761915704629495300,1.585495361328125,0.1574392020702362,0.23527675867080688,-0.07619322836399078
1761915704639549400,1.595549560546875,0.0924375131726265,0.0921190157532692,-0.1198008731007576
1761915704649603300,1.605603271484375,0.026062218472361565,-0.010293644852936268,-0.1377074271440506
1761915704659657500,1.615657470703125,-0.0020081237889826298,-0.03146687150001526,-0.13105127215385437
1761915704669712600,1.625712646484375,-0.027720943093299866,-0.04536750912666321,-0.10382045805454254
1761915704679766500,1.6357666015625,-0.04023776575922966,-0.07522876560688019,-0.06693150848150253
1761915704689820400,1.6458203125,-0.04813270643353462,-0.10334908217191696,-0.03154635801911354
1761915704699874300,1.655874267578125,-0.056070420891046524,-0.11355964094400406,-0.010354137048125267
1761915704709928400,1.665928466796875,-0.05650238320231438,-0.096304751932621,-0.0015976643189787865
1761915704719982300,1.675982421875,-0.0544651560485363,-0.07901713997125626,-0.0021221917122602463
1761915704730036500,1.686036376953125,-0.042270541191101074,-0.06938235461711884,-0.009115918539464474
1761915704740090400,1.69609033203125,-0.011645202524960041,-0.06251472234725952,-0.022050702944397926
1761915704750144500,1.70614453125,-0.019456787034869194,-0.09706177562475204,-0.057183124125003815
1761915704760198700,1.71619873046875,-0.017927657812833786,-0.1260737180709839,-0.07553660869598389
1761915704770252500,1.72625244140625,0.009202496148645878,-0.08804669976234436,-0.09326021373271942
1761915704780306700,1.736306640625,0.02633568085730076,-0.007685355842113495,-0.09848900139331818
1761915704790360600,1.746360595703125,0.03229103982448578,0.024069909006357193,-0.07988415658473969
1761915704800414500,1.75641455078125,0.04014166072010994,0.006942729000002146,-0.0468531996011734
1761915704810468400,1.76646826171875,0.048896271735429764,-0.030762039124965668,-0.027156194671988487
1761915704820523500,1.7765234375,0.05491539090871811,-0.0625634416937828,-0.021649671718478203
1761915704830577400,1.786577392578125,0.05261708050966263,-0.0685289204120636,-0.028477484360337257
1761915704840631600,1.796631591796875,0.040220651775598526,-0.04857992008328438,-0.041568804532289505
1761915704850685400,1.806685546875,0.027819911018013954,-0.006395184434950352,-0.051193200051784515
1761915704860739600,1.816739501953125,0.029524065554142,0.03366762027144432,-0.04944329336285591
1761915704870793500,1.82679345703125,0.04155596345663071,0.05689171701669693,-0.035938140004873276
1761915704880847400,1.836847412109375,0.052848126739263535,0.0660800188779831,-0.018294427543878555
1761915704890901500,1.846901611328125,0.05992041900753975,0.05513230338692665,-0.00017907284200191498
1761915704900955400,1.856955322265625,0.05813365802168846,0.03735490143299103,0.00614745169878006
1761915704911009500,1.867009521484375,0.0610511489212513,0.022941337898373604,0.0008632075041532516
1761915704921063400,1.8770634765625,0.053652841597795486,0.017391830682754517,-0.007626756560057402
1761915704931117600,1.88711767578125,0.04968286678195,0.013796561397612095,-0.02460520714521408
1761915704941171500,1.89717138671875,0.04666700214147568,0.01176882442086935,-0.038386378437280655
1761915704951225600,1.9072255859375,0.05389508605003357,0.01836467534303665,-0.04779426008462906
1761915704961280500,1.917280517578125,0.06485084444284439,0.011983759701251984,-0.04514780640602112
1761915704971334400,1.92733447265625,0.07304619252681732,0.005415871273726225,-0.029546476900577545
1761915704981388500,1.937388427734375,0.07520633190870285,-0.01640726625919342,-0.00912010669708252
1761915704991442400,1.9474423828125,0.0745682343840599,-0.02837764285504818,0.010630694217979908
1761915705001496600,1.95749658203125,0.06531541049480438,-0.04585951566696167,0.01194053702056408
1761915705011550500,1.967550537109375,0.04996095597743988,-0.05980649217963219,-0.0036876918748021126
1761915705021604600,1.9776044921875,0.04152027890086174,-0.06932921707630157,-0.029851367697119713
1761915705031658500,1.987658447265625,0.044992510229349136,-0.06231125444173813,-0.059954676777124405
1761915705041712600,1.997712646484375,0.05038828402757645,-0.05013081803917885,-0.06770046055316925
1761915705051766300,2.007766357421875,0.0537760928273201,-0.028396228328347206,-0.059371959418058395
1761915705061820400,2.0178203125,0.05629606172442436,-0.013984722085297108,-0.026507912203669548
1761915705071874300,2.027874267578125,0.0586785264313221,-0.00858489703387022,0.010757699608802795
1761915705081928400,2.037928466796875,0.04499926045536995,-0.024356132373213768,0.03722688928246498
1761915705091982300,2.047982421875,0.029908189550042152,-0.05735669285058975,0.05088730901479721
1761915705102037500,2.05803759765625,0.01495242677628994,-0.09913644194602966,0.04635622352361679
1761915705112091600,2.068091552734375,0.004408172331750393,-0.1307321935892105,0.023468749597668648
1761915705122145500,2.0781455078125,0.0009600577759556472,-0.13102611899375916,-0.014584493823349476
1761915705132203500,2.08820361328125,0.0094816405326128,-0.11134162545204163,-0.04995580017566681
1761915705142257700,2.098257568359375,0.023424308747053146,-0.08131449669599533,-0.07616644352674484
1761915705152311600,2.1083115234375,0.03109927289187908,-0.06542154401540756,-0.07870550453662872
1761915705162365700,2.11836572265625,0.024135956540703773,-0.07103482633829117,-0.056326765567064285
1761915705172419600,2.128419677734375,0.01647324301302433,-0.08671631664037704,-0.022806093096733093
1761915705182473700,2.1384736328125,0.014298454858362675,-0.09869082272052765,0.008302900940179825
1761915705192527600,2.148527587890625,0.023655204102396965,-0.09878722578287125,0.03538484871387482
1761915705202581800,2.158581787109375,0.041579507291316986,-0.10702013224363327,0.04782037064433098
1761915705212635600,2.1686357421875,0.060882098972797394,-0.10558974742889404,0.035516832023859024
1761915705222689500,2.178689453125,0.0736529603600502,-0.109229676425457,-0.0022807102650403976
1761915705232743700,2.18874365234375,0.03643900901079178,-0.14342279732227325,-0.03822566196322441
1761915705242798600,2.198798583984375,0.02843535877764225,-0.1897541582584381,-0.08766775578260422
1761915705252852700,2.208852783203125,0.050061024725437164,-0.15843084454536438,-0.15003126859664917
1761915705262906600,2.21890673828125,0.044370487332344055,-0.0992940291762352,-0.20678763091564178
1761915705272960800,2.228960693359375,0.055194105952978134,-0.04939863458275795,-0.24391768872737885
1761915705283014700,2.2390146484375,0.0872747004032135,0.032176386564970016,-0.2595505714416504
1761915705293068500,2.249068603515625,0.11250335723161697,0.12507648766040802,-0.2544940412044525
1761915705303122700,2.259122802734375,0.1402493715286255,0.1640583574771881,-0.22028979659080505
1761915705313176600,2.269176513671875,0.16020283102989197,0.17531579732894897,-0.15917398035526276
1761915705323230700,2.279230712890625,0.15725740790367126,0.20359987020492554,-0.08045022934675217
1761915705333284600,2.28928466796875,0.15214893221855164,0.22670572996139526,-0.0062316590920090675
1761915705343338800,2.2993388671875,0.14594443142414093,0.2180708795785904,0.04600398242473602
1761915705353392600,2.309392578125,0.14281068742275238,0.1663498878479004,0.06169426068663597
1761915705363446800,2.31944677734375,0.14095857739448547,0.10486383736133575,0.041205525398254395
1761915705373500700,2.329500732421875,0.1438387930393219,0.05616633594036102,-0.005502857267856598
1761915705383555600,2.3395556640625,0.13044685125350952,-0.001008414663374424,-0.04951019585132599
1761915705393609500,2.349609375,0.11165345460176468,-0.05578963831067085,-0.07632556557655334
1761915705403663600,2.35966357421875,0.09499333798885345,-0.08491715043783188,-0.08777140825986862
1761915705413717800,2.3697177734375,0.08127486705780029,-0.09801777452230453,-0.0909632071852684
1761915705423771600,2.379771728515625,0.06223098188638687,-0.11484135687351227,-0.08709047734737396
1761915705433825800,2.38982568359375,0.03935842216014862,-0.12957130372524261,-0.07456909865140915
1761915705443879700,2.399879638671875,0.015638550743460655,-0.13300099968910217,-0.0664508119225502
1761915705453933800,2.409933837890625,0.014556242153048515,-0.11280197650194168,-0.06765242666006088
1761915705463987700,2.41998779296875,0.01924719847738743,-0.07616235315799713,-0.07006456702947617
1761915705474041600,2.43004150390625,0.02467978000640869,-0.03345590457320213,-0.07176978886127472
1761915705484095500,2.440095458984375,0.033399488776922226,-0.008009582757949829,-0.0660858228802681
1761915705494149600,2.450149658203125,0.026941588148474693,-0.02136879786849022,-0.05064588040113449
1761915705504203500,2.46020361328125,0.00811219122260809,-0.03900258615612984,-0.02997429296374321
1761915705514258700,2.4702587890625,-0.01705814152956009,-0.019383877515792847,-0.013924486935138702
1761915705524312800,2.480312744140625,-0.03782328963279724,0.02267981879413128,0.009048931300640106
1761915705534366700,2.49036669921875,-0.0486421138048172,0.07077198475599289,0.03798018395900726
1761915705544420600,2.500420654296875,-0.05458814650774002,0.09239724278450012,0.0675259381532669
1761915705554474500,2.510474609375,-0.06343011558055878,0.08922462165355682,0.08379358798265457
1761915705564528600,2.520528564453125,-0.07708706706762314,0.06008077785372734,0.09972600638866425
1761915705574582500,2.53058251953125,-0.08803585171699524,0.03553282469511032,0.09935902059078217
1761915705584636700,2.54063671875,-0.09612125903367996,0.021672531962394714,0.08618763834238052
1761915705594690600,2.550690673828125,-0.10054690390825272,0.008583894930779934,0.06438354402780533
1761915705604744700,2.56074462890625,-0.09949708729982376,0.008151204325258732,0.04511044919490814
1761915705614798600,2.570798583984375,-0.09877324104309082,0.022881146520376205,0.030731776729226112
1761915705624852700,2.580852783203125,-0.09651509672403336,0.024157274514436722,0.0144701162353158
1761915705634906600,2.59090673828125,-0.10513707995414734,0.014930485747754574,0.002172437496483326
1761915705644960800,2.600960693359375,-0.10419847071170807,0.00043582782382145524,-0.01771741919219494
1761915705655015700,2.611015625,-0.107025146484375,-0.012665326707065105,-0.039177969098091125
1761915705665069600,2.621069580078125,-0.11252760142087936,-0.028315359726548195,-0.06609154492616653
1761915705675123700,2.631123779296875,-0.1196848452091217,-0.0391368493437767,-0.08014503866434097
1761915705685177600,2.641177490234375,-0.12604540586471558,-0.05207504704594612,-0.08748096972703934
1761915705695231700,2.651231689453125,-0.12332498282194138,-0.06497379392385483,-0.08725673705339432
1761915705705285600,2.66128564453125,-0.11309932917356491,-0.06299623847007751,-0.08035364747047424
1761915705715339800,2.67133984375,-0.10080351680517197,-0.051088444888591766,-0.07511680573225021
1761915705725393400,2.681393310546875,-0.07254862040281296,-0.030023271217942238,-0.062148988246917725
1761915705735447600,2.691447509765625,-0.04326903074979782,0.02352544106543064,-0.04529144614934921
1761915705745501700,2.701501708984375,-0.012701110914349556,0.10282251983880997,-0.021806050091981888
1761915705755555600,2.7115556640625,0.0143837695941329,0.16885533928871155,0.019200239330530167
1761915705765609700,2.721609619140625,0.032261576503515244,0.17394210398197174,0.06751488149166107
1761915705775663600,2.73166357421875,0.029095876961946487,0.14670409262180328,0.10965035110712051
1761915705785717800,2.7417177734375,0.027581337839365005,0.10282985121011734,0.14794714748859406
1761915705795772700,2.751772705078125,0.025997554883360863,0.017220936715602875,0.16168959438800812
1761915705805826600,2.76182666015625,0.0033305473625659943,-0.06735201179981232,0.15205419063568115
1761915705815880400,2.77188037109375,-0.009108545258641243,-0.09887398779392242,0.11784961819648743
1761915705825934600,2.7819345703125,0.015316744334995747,-0.09661462903022766,0.06468483805656433
1761915705835988700,2.79198876953125,0.04190867394208908,-0.08003192394971848,0.0072724102064967155
1761915705846042600,2.802042724609375,0.06004796922206879,-0.06060396134853363,-0.03903927281498909
1761915705856096800,2.8120966796875,0.07462292164564133,-0.03545679897069931,-0.06532920151948929
1761915705866150700,2.822150634765625,0.08697265386581421,0.00021965110499877483,-0.06107921525835991
1761915705876204800,2.832204833984375,0.09525641053915024,0.040676265954971313,-0.033014822751283646
1761915705886258700,2.8422587890625,0.09259910136461258,0.06320194154977798,0.011867322027683258
1761915705896312800,2.852312744140625,0.09101265668869019,0.07021511346101761,0.05622227489948273
1761915705906366500,2.862366455078125,0.09678325057029724,0.06969133019447327,0.0824597105383873
1761915705916420600,2.872420654296875,0.1040203869342804,0.06382705271244049,0.08104663342237473
1761915705926475500,2.8824755859375,0.11217799037694931,0.0342194139957428,0.06238421052694321
1761915705936529700,2.89252978515625,0.10897207260131836,-0.01459179911762476,0.028535697609186172
1761915705946583800,2.902583740234375,0.09825583547353745,-0.05447356775403023,-0.011278370395302773
1761915705956637700,2.9126376953125,0.084932841360569,-0.07905134558677673,-0.03839707374572754
1761915705966691800,2.92269189453125,0.06754051893949509,-0.07720763236284256,-0.04761556535959244
1761915705976745700,2.932745849609375,0.05506094917654991,-0.06434323638677597,-0.03571602702140808
1761915705986799600,2.942799560546875,0.048896580934524536,-0.04275710880756378,-0.01011540088802576
1761915705996853500,2.952853515625,0.05037197098135948,-0.035257380455732346,0.030863724648952484
1761915706006907600,2.96290771484375,0.05014342814683914,-0.046035461127758026,0.07193997502326965
1761915706016961500,2.97296142578125,0.05802079290151596,-0.05639782175421715,0.09004813432693481
1761915706027015700,2.983015625,0.06658988445997238,-0.0553852878510952,0.08673954010009766
1761915706037069600,2.993069580078125,0.06278635561466217,-0.06272735446691513,0.060322314500808716
1761915706047123700,3.003123779296875,0.04710151255130768,-0.05956312268972397,0.030440272763371468
1761915706057177600,3.013177490234375,0.030409617349505424,-0.04201289266347885,-0.004220234230160713
1761915706067232500,3.023232421875,0.012130099348723888,-0.028039883822202682,-0.029847580939531326
1761915706077286700,3.03328662109375,0.0022423143964260817,-0.018668752163648605,-0.03864267095923424
1761915706087340500,3.043340576171875,-0.0057338569313287735,-0.007455713581293821,-0.03149799257516861
1761915706097394700,3.053394775390625,-0.019093072041869164,0.005106683354824781,-0.01119245681911707
1761915706107448600,3.063448486328125,-0.021879738196730614,0.01521484088152647,0.015434504486620426
1761915706117502700,3.073502685546875,-0.02240224927663803,0.03461144492030144,0.03156473860144615
1761915706127556600,3.083556640625,-0.019317615777254105,0.04947354644536972,0.04746869578957558
1761915706137607000,3.09360693359375,-0.005408193450421095,0.04112507030367851,0.05994774028658867
1761915706147661000,3.1036611328125,0.015789879485964775,0.04407864436507225,0.06872627884149551
1761915706157715200,3.113715087890625,0.05227332189679146,0.04090282320976257,0.06224574148654938
1761915706167768800,3.123768798828125,0.08224830776453018,0.047460462898015976,0.04881858825683594
1761915706177823000,3.133822998046875,0.08969796448945999,0.056504026055336,0.028502928093075752
1761915706187876900,3.143876953125,0.08426257222890854,0.059555403888225555,0.012440463528037071
1761915706197932000,3.15393212890625,0.07351619005203247,0.0472625195980072,0.0017771674320101738
1761915706207986000,3.16398583984375,0.06468700617551804,0.024298951029777527,0.0021275822073221207
1761915706218040000,3.1740400390625,0.054801616817712784,-0.007578820455819368,0.007317018695175648
1761915706228094000,3.184093994140625,0.04835464805364609,-0.027119796723127365,0.014157051220536232
1761915706238148000,3.194148193359375,0.05445302277803421,-0.025667576119303703,0.026401199400424957
1761915706248202000,3.204201904296875,0.06593627482652664,-0.008421914651989937,0.028267305344343185
1761915706258256000,3.214255859375,0.07151133567094803,0.01875670813024044,0.024468038231134415
1761915706268310000,3.22431005859375,0.07172104716300964,0.029724346473813057,0.017014235258102417
1761915706278364000,3.234364013671875,0.0660405233502388,0.019368911162018776,0.0012592393904924393
1761915706288418000,3.24441796875,0.07058590650558472,-0.013933319598436356,-0.034922368824481964
1761915706298472000,3.254471923828125,0.07488797605037689,-0.04673787206411362,-0.0712718516588211
1761915706308526000,3.264526123046875,0.06996111571788788,-0.06529804319143295,-0.1028887927532196
1761915706318580000,3.274580078125,0.05606713891029358,-0.07188696414232254,-0.11376380920410156
1761915706328634000,3.284634033203125,0.04019155353307724,-0.0593508705496788,-0.10348616540431976
1761915706338689000,3.29468896484375,0.015442801639437675,-0.0440632589161396,-0.07210880517959595
1761915706348743000,3.304742919921875,0.00020835461327806115,-0.03753671422600746,-0.04072484374046326
1761915706358797000,3.314797119140625,-0.002918729092925787,-0.0373002253472805,-0.01908506453037262
1761915706368851000,3.324850830078125,0.00850767083466053,-0.04016425460577011,-0.018943745642900467
1761915706378905000,3.334905029296875,0.021585389971733093,-0.05345822498202324,-0.041377950459718704
1761915706388959000,3.344958984375,0.02369094267487526,-0.07272513210773468,-0.06531254202127457
1761915706399013000,3.35501318359375,0.015586944296956062,-0.09937112033367157,-0.08667615056037903
1761915706409067000,3.36506689453125,0.01143356692045927,-0.09951360523700714,-0.1052563264966011
1761915706419121200,3.37512109375,0.00585158122703433,-0.07709884643554688,-0.11316964775323868
1761915706429174800,3.3851748046875,0.003825829830020666,-0.042553845793008804,-0.11199678480625153
1761915706439229000,3.39522900390625,0.012099206447601318,0.0035052597522735596,-0.0919913798570633
1761915706449282800,3.40528271484375,0.033186547458171844,0.05095100402832031,-0.061456166207790375
1761915706459338000,3.415337890625,0.040961116552352905,0.08505544811487198,-0.02863217517733574
1761915706469392100,3.42539208984375,0.04262106120586395,0.0842275395989418,0.00612255372107029
1761915706479446000,3.435446044921875,0.03916454315185547,0.07248113304376602,0.03125986456871033
1761915706489500200,3.445500244140625,0.02770085819065571,0.062436819076538086,0.0462503582239151
1761915706499553800,3.4555537109375,0.016871647909283638,0.038128286600112915,0.043583206832408905
1761915706509608000,3.46560791015625,0.0026886563282459974,0.021864358335733414,0.02450987882912159
1761915706519661800,3.475661865234375,-0.004235296044498682,-0.005680184345692396,-0.009289095178246498
1761915706529716000,3.485716064453125,-0.014903053641319275,-0.029029851779341698,-0.04045912250876427
1761915706539769900,3.495769775390625,-0.016155539080500603,-0.03877568617463112,-0.06875414401292801
1761915706549824000,3.505823974609375,-0.008726125583052635,-0.033243630081415176,-0.08602245897054672
1761915706559878000,3.5158779296875,0.00018640951020643115,-0.02810027077794075,-0.08786243200302124
1761915706569932000,3.52593212890625,0.007532997988164425,-0.014428003691136837,-0.07593290507793427
1761915706579986000,3.53598583984375,0.015762964263558388,0.011041936464607716,-0.04697582870721817
1761915706590040800,3.546040771484375,0.025175370275974274,0.03399578481912613,-0.01640785112977028
1761915706600095000,3.556094970703125,0.038116469979286194,0.05390637740492821,0.010994477197527885
1761915706610148900,3.56614892578125,0.041722021996974945,0.05330151319503784,0.03499269112944603
1761915706620203000,3.576203125,0.03828148543834686,0.03486631438136101,0.04936656728386879
1761915706630257000,3.5862568359375,0.029663829132914543,0.008114186115562916,0.05109590291976929
1761915706640311000,3.59631103515625,0.02410341426730156,-0.012691493146121502,0.05220457911491394
1761915706650365000,3.606364990234375,0.017770197242498398,-0.03395123407244682,0.04229450225830078
1761915706660419000,3.616419189453125,0.01983041875064373,-0.040592093020677567,0.029383761808276176
1761915706670473000,3.626472900390625,0.025012601166963577,-0.03782767429947853,0.01081558782607317
1761915706680526800,3.63652685546875,0.034738197922706604,-0.02607780508697033,-0.0006637023761868477
1761915706690581000,3.6465810546875,0.046554114669561386,-0.0002526619646232575,0.0009203990921378136
1761915706700635000,3.656634765625,0.04938958212733269,0.021816687658429146,0.014394128695130348
1761915706710689000,3.66668896484375,0.05173055827617645,0.047798555344343185,0.0305432491004467
1761915706720744000,3.676743896484375,0.062328074127435684,0.06609047204256058,0.048319049179553986
1761915706730798000,3.686798095703125,0.0701252743601799,0.05351017042994499,0.06023328751325607
1761915706740852000,3.69685205078125,0.076542429625988,0.03501105681061745,0.0520230308175087
1761915706750906000,3.706906005859375,0.07520392537117004,0.020019588991999626,0.03234519809484482
1761915706760959700,3.716959716796875,0.06329826265573502,-0.002280657412484288,0.0072560906410217285
1761915706771014000,3.727013916015625,0.050353121012449265,-0.024927513673901558,-0.013963102363049984
1761915706781068000,3.737068115234375,0.04344727843999863,-0.04623866081237793,-0.030738621950149536
1761915706791122000,3.747121826171875,0.04396232217550278,-0.04920389875769615,-0.04710843414068222
1761915706801176000,3.757176025390625,0.051356323063373566,-0.0413489043712616,-0.043765898793935776
1761915706811230000,3.76722998046875,0.05268476903438568,-0.024843422695994377,-0.038152992725372314
1761915706821284000,3.7772841796875,0.04925861209630966,-0.014255761168897152,-0.019319647923111916
1761915706831338000,3.787337890625,0.04891134425997734,-0.00594203919172287,-0.0008348040282726288
1761915706841393000,3.797392822265625,0.04926953837275505,0.01268331054598093,0.01690371334552765
1761915706851446800,3.80744677734375,0.04719780385494232,0.03556785359978676,0.028833042830228806
1761915706861501000,3.8175009765625,0.0467008575797081,0.054015569388866425,0.04150276631116867
1761915706871555000,3.82755517578125,0.04483034834265709,0.04532819986343384,0.055390097200870514
1761915706881609000,3.83760888671875,0.039628397673368454,0.01868060603737831,0.05707508325576782
1761915706891663000,3.8476630859375,0.036769140511751175,-0.00487511558458209,0.037486620247364044
1761915706901717000,3.857717041015625,0.02927527390420437,-0.021585918962955475,0.008056025952100754
1761915706911771100,3.867771240234375,0.01804395392537117,-0.025160687044262886,-0.03122279793024063
1761915706921825000,3.877824951171875,0.007604895159602165,-0.015143206343054771,-0.06246141344308853
1761915706931879200,3.887879150390625,0.006669334601610899,-0.004635028075426817,-0.0768439769744873
1761915706941932800,3.897932861328125,0.006483712233603001,-0.0008461487013846636,-0.07108622789382935
1761915706951987000,3.907987060546875,0.006133665796369314,-0.009332246147096157,-0.04386809095740318
1761915706962040800,3.918040771484375,0.0022574348840862513,-0.03074246272444725,-0.004990465007722378
1761915706972096000,3.928095947265625,0.0006812248029746115,-0.03880937024950981,0.031846918165683746
1761915706982150100,3.938150146484375,0.012813787907361984,-0.018989063799381256,0.059478551149368286
1761915706992204000,3.9482041015625,0.015101701952517033,0.007948408834636211,0.06764848530292511
1761915707002258200,3.958258056640625,0.01667962595820427,0.012849690392613411,0.05463521555066109
1761915707012311800,3.968311767578125,0.011076763272285461,0.0165869053453207,0.02801574021577835
1761915707022366000,3.978365966796875,0.0028766237664967775,-0.002545243129134178,0.001238187775015831
1761915707032419800,3.988419921875,-0.002755149034783244,-0.028833048418164253,-0.02588854916393757
1761915707042474000,3.998473876953125,-0.004526417702436447,-0.04302503168582916,-0.04230374097824097
1761915707052527900,4.00852783203125,-0.006636457517743111,-0.049238383769989014,-0.04332107678055763
1761915707062582000,4.01858203125,-0.00729798711836338,-0.05547257512807846,-0.027490980923175812
1761915707072636000,4.028635986328125,-0.0008557926630601287,-0.05470917746424675,-0.00982666015625
1761915707082690000,4.03868994140625,0.00032425401150248945,-0.042112693190574646,0.004190088249742985
1761915707092745000,4.048744873046875,0.007771702483296394,-0.027003224939107895,0.01601318269968033
1761915707102798800,4.058798828125,0.012726513668894768,-0.010019980370998383,0.019499527290463448
1761915707112853000,4.06885302734375,0.01883300580084324,0.01516704075038433,0.02240731380879879
1761915707122907000,4.078906982421875,0.03236905112862587,0.021687258034944534,0.02468910999596119
1761915707132961300,4.088961181640625,0.03886786475777626,0.02106328122317791,0.025698330253362656
1761915707143015400,4.099015380859375,0.043830662965774536,0.004684041254222393,0.021775495260953903
1761915707153069300,4.1090693359375,0.03757685795426369,-0.02646922878921032,0.016478748992085457
1761915707163123500,4.11912353515625,0.027877092361450195,-0.06192522495985031,0.007421072572469711
1761915707173177300,4.12917724609375,0.011882206425070763,-0.07736968249082565,-0.0015950314700603485
1761915707183231200,4.139231201171875,-0.0028184428811073303,-0.06867765635251999,-0.010407697409391403
1761915707193285000,4.14928515625,-0.007885666564106941,-0.050124142318964005,-0.012877801433205605
1761915707203339300,4.15933935546875,-0.0060534123331308365,-0.03036561608314514,-0.004826532676815987
1761915707213393200,4.16939306640625,-0.001722130924463272,-0.01963036134839058,0.004255712032318115
1761915707223448300,4.1794482421875,-0.005431381519883871,-0.00814175046980381,0.016728093847632408
1761915707233502200,4.189502197265625,-0.0024410171899944544,0.0037657159846276045,0.03404070436954498
1761915707243556400,4.199556396484375,-0.000813026912510395,0.01466976199299097,0.040383823215961456
1761915707253610500,4.209610595703125,0.000762173265684396,0.0059721386060118675,0.036502499133348465
1761915707263664000,4.2196640625,-0.0021356125362217426,0.004568386357277632,0.019284632056951523
1761915707273718300,4.22971826171875,-0.004399784840643406,0.00291581847704947,-0.007956432178616524
1761915707283772200,4.239772216796875,-0.014643101021647453,0.0066423797979950905,-0.027117609977722168
1761915707293826300,4.249826416015625,-0.01795223355293274,-0.004221844021230936,-0.029316894710063934
1761915707303880200,4.259880126953125,-0.02366737648844719,-0.03016715869307518,-0.02122035250067711
1761915707313934300,4.269934326171875,-0.021538497880101204,-0.044424254447221756,-0.011563923209905624
1761915707323988200,4.27998828125,-0.018365873023867607,-0.04547327384352684,-0.005325468257069588
1761915707334042400,4.29004248046875,-0.005527568981051445,-0.024351807311177254,-0.0039592161774635315
1761915707344097300,4.30009716796875,0.0023330170661211014,-0.010285522788763046,-0.004989593289792538
1761915707354151200,4.310151123046875,0.005561180412769318,-0.015750616788864136,-0.0006545530632138252
1761915707364205300,4.320205322265625,0.008206498809158802,-0.02221996709704399,0.00445951521396637
1761915707374259200,4.33025927734375,0.007578001357614994,-0.007127418182790279,0.010201655328273773
1761915707384313300,4.340313232421875,0.0074163475073874,0.01380715798586607,0.01480785757303238
1761915707394367200,4.3503671875,0.007044346071779728,0.023399578407406807,0.01583726704120636
1761915707404421400,4.36042138671875,0.010961590334773064,0.019346781075000763,0.007121540606021881
1761915707414475300,4.370475341796875,0.010840966366231441,0.002697255462408066,-0.003516790457069874
1761915707424529400,4.380529296875,0.006101338192820549,-0.016319844871759415,-0.0161628108471632
1761915707434583300,4.390583251953125,0.0036062225699424744,-0.02669179067015648,-0.014897809363901615
1761915707444637200,4.40063720703125,0.0024669221602380276,-0.034376077353954315,-0.007815931923687458
1761915707454691000,4.410691162109375,0.004761648364365101,-0.02362837642431259,0.004081152379512787
1761915707464746200,4.420746337890625,0.0021131346002221107,-0.008518665097653866,0.02281302772462368
1761915707474800400,4.43080029296875,0.0022108727134764194,0.009375646710395813,0.03347073495388031
1761915707484854300,4.440854248046875,0.002857221756130457,0.026906702667474747,0.035483285784721375
1761915707494908400,4.450908447265625,0.00567889679223299,0.029183777049183846,0.036328282207250595
1761915707504962300,4.46096240234375,0.003256751922890544,0.020346077159047127,0.029350001364946365
1761915707515016200,4.47101611328125,0.004965491592884064,0.006480666343122721,0.021222010254859924
1761915707525070000,4.481070068359375,0.0012447894550859928,-0.004814598709344864,0.006169555708765984
1761915707535124200,4.491124267578125,-0.0026576006785035133,-0.01390557736158371,-0.0000982191413640976
1761915707545178000,4.50117822265625,-0.008148771710693836,-0.021960308775305748,-0.004362472798675299
1761915707555232300,4.511232177734375,-0.011580979451537132,-0.008692418225109577,-0.0035707447677850723
1761915707565286100,4.5212861328125,-0.007451214361935854,0.007773107849061489,0.006662983447313309
1761915707575341300,4.53134130859375,-0.002081905025988817,0.018561169505119324,0.022597171366214752
1761915707585395500,4.5413955078125,0.00781759712845087,0.01399518083781004,0.040973514318466187
1761915707595449000,4.551448974609375,0.011633682064712048,0.007238543592393398,0.04293922334909439
1761915707605503200,4.561503173828125,0.011024351231753826,0.01055577676743269,0.030087338760495186
1761915707615557000,4.57155712890625,0.015835655853152275,0.011882343329489231,0.004358047619462013
1761915707625611300,4.581611328125,0.008775349706411362,0.011950787156820297,-0.01852729357779026
1761915707635665200,4.5916650390625,0.003128928365185857,0.00735212629660964,-0.0272963996976614
1761915707645719300,4.60171923828125,-0.006878165528178215,0.0008273817365989089,-0.022375943139195442
1761915707655773200,4.611773193359375,-0.011207403615117073,-0.00242400960996747,-0.005988500081002712
1761915707665827300,4.621827392578125,-0.011705415323376656,-0.0041891527362167835,0.01600894331932068
1761915707675881500,4.631881591796875,-0.00257750041782856,-0.00440210523083806,0.030913203954696655
1761915707685935400,4.641935302734375,0.0015429423656314611,-0.0007836684235371649,0.031223729252815247
1761915707695990300,4.651990234375,-0.001264772261492908,0.0029168676119297743,0.015162179246544838
1761915707706044200,4.662044189453125,-0.008246781304478645,0.011956169269979,-0.003369692713022232
1761915707716098300,4.672098388671875,-0.01743585243821144,0.018698178231716156,-0.019986025989055634
1761915707726152200,4.682152099609375,-0.021131787449121475,0.0036483891308307648,-0.024625521153211594
1761915707736206300,4.692206298828125,-0.026104651391506195,-0.015413114801049232,-0.01750877872109413
1761915707746260200,4.70226025390625,-0.02594698965549469,-0.022479280829429626,-0.005021482240408659
1761915707756314400,4.712314453125,-0.02103782631456852,-0.013324598781764507,0.006955383345484734
1761915707766368300,4.7223681640625,-0.018611954525113106,-0.007873641327023506,0.019047465175390244
1761915707776422100,4.732422119140625,-0.0175838153809309,0.0027050324715673923,0.028828289359807968
1761915707786476300,4.742476318359375,-0.013788544572889805,0.010215412825345993,0.03384701535105705
1761915707796530200,4.7525302734375,0.002765973564237356,0.027001557871699333,0.030126407742500305
1761915707806584300,4.762584228515625,0.014765111729502678,0.043450307101011276,0.019657522439956665
1761915707816639200,4.77263916015625,0.02139965258538723,0.047007329761981964,0.012167556211352348
1761915707826693400,4.782693359375,0.016140175983309746,0.03320736065506935,0.0051637087017297745
1761915707836747300,4.792747314453125,0.00972482655197382,0.014598513953387737,-0.0012076664716005325
1761915707846801400,4.802801513671875,0.00946037471294403,-0.009731858968734741,-0.017906751483678818
1761915707856855000,4.81285498046875,0.008063113316893578,-0.02499757893383503,-0.03537914529442787
1761915707866909200,4.8229091796875,0.0092836394906044,-0.024986127391457558,-0.04637666791677475
1761915707876963300,4.83296337890625,0.015624313615262508,-0.015395206399261951,-0.037389710545539856
1761915707887017200,4.843017333984375,0.02584179677069187,0.010162883438169956,-0.02448030561208725
1761915707897071400,4.8530712890625,0.037677083164453506,0.037133023142814636,0.0050343722105026245
1761915707907125200,4.863125244140625,0.04118127003312111,0.047532930970191956,0.041079457849264145
1761915707917179400,4.873179443359375,0.0343899168074131,0.04247995838522911,0.06396006047725677
1761915707927233300,4.8832333984375,0.01976703107357025,0.02279573492705822,0.0689268559217453
1761915707937288200,4.8932880859375,0.006802755407989025,-0.00015552896365989,0.05099888890981674
1761915707947342000,4.903342041015625,-0.00872427225112915,-0.018343055620789528,0.014910656958818436
1761915707957396200,4.913396240234375,-0.019593534991145134,-0.030363228172063828,-0.021916184574365616
1761915707967450400,4.923450439453125,-0.019770635291934013,-0.04519224166870117,-0.04735443368554115
1761915707977504300,4.933504150390625,-0.018785811960697174,-0.05152905359864235,-0.05640879645943642
1761915707987558400,4.943558349609375,-0.01421449612826109,-0.03715064749121666,-0.053231380879879
1761915707997612300,4.9536123046875,-0.010537837632000446,-0.016392897814512253,-0.03704773634672165
1761915708007666400,4.96366650390625,-0.017894022166728973,0.004374964628368616,-0.008819828741252422
1761915708017720300,4.97372021484375,-0.02741631492972374,0.023638607934117317,0.01375595759600401
1761915708027774200,4.983774169921875,-0.031892821192741394,0.042524948716163635,0.033388249576091766
1761915708037828000,4.993828125,-0.030308086425065994,0.05354869365692139,0.046795714646577835
1761915708047883300,5.00388330078125,-0.024060843512415886,0.033556342124938965,0.05017979443073273
1761915708057937400,5.0139375,-0.014623870141804218,0.008555399253964424,0.04250724986195564
1761915708067991300,5.0239912109375,-0.009490094147622585,-0.01346627902239561,0.021032053977251053
1761915708078045400,5.03404541015625,-0.012357882224023342,-0.041570473462343216,-0.0004570102319121361
1761915708088099300,5.044099365234375,-0.02301984652876854,-0.05767806991934776,-0.018761448562145233
1761915708098153500,5.054153564453125,-0.03288005664944649,-0.04997562989592552,-0.026514548808336258
1761915708108207000,5.06420703125,-0.039958737790584564,-0.027694296091794968,-0.018327191472053528
1761915708118261200,5.07426123046875,-0.0395495742559433,-0.013868560083210468,-0.0036093303933739662
1761915708128315100,5.084315185546875,-0.03330446034669876,-0.008742773905396461,0.015165688470005989
1761915708138368500,5.094368408203125,-0.018565144389867783,-0.0059966593980789185,0.03034723550081253
1761915708148422700,5.104422607421875,-0.0009448705241084099,0.002432245761156082,0.038193706423044205
1761915708158477800,5.114477783203125,0.022639499977231026,0.006194097921252251,0.032962262630462646
1761915708168531700,5.12453173828125,0.028241991996765137,0.008211708627641201,0.016698870807886124
1761915708178585900,5.1345859375,0.02400277927517891,0.020899688825011253,-0.0041218907572329044
1761915708188639700,5.1446396484375,0.008797196671366692,0.02413196675479412,-0.014469070360064507
1761915708198693600,5.154693603515625,-0.013289154507219791,0.0018287734128534794,-0.011986641213297844
1761915708208747500,5.16474755859375,-0.02708858996629715,-0.018685024231672287,0.0009800242260098457
1761915708218801700,5.1748017578125,-0.03299771621823311,-0.029310762882232666,0.00596507266163826
1761915708228855600,5.18485546875,-0.026664184406399727,-0.025505637750029564,0.008588286116719246
1761915708238909700,5.19490966796875,-0.011951710097491741,-0.022913381457328796,0.008372207172214985
1761915708248963800,5.2049638671875,-0.006514334585517645,-0.015848282724618912,0.007843569852411747
1761915708259017700,5.215017822265625,-0.004916340112686157,-0.012952844612300396,0.012145182117819786
1761915708269072000,5.22507177734375,-0.008516401052474976,-0.011909685097634792,0.01721024699509144
1761915708279126500,5.23512646484375,-0.018050137907266617,-0.0034822316374629736,0.016175292432308197
1761915708289180700,5.2451806640625,-0.026540029793977737,0.007857508026063442,0.018143368884921074
1761915708299234600,5.255234619140625,-0.0317499153316021,0.017947232350707054,0.016869820654392242
1761915708309288700,5.265288818359375,-0.022486908361315727,0.016938159242272377,0.01358215045183897
1761915708319342600,5.275342529296875,-0.0078055341728031635,0.001917610876262188,0.004863421432673931
1761915708329396700,5.285396728515625,0.003881216049194336,-0.018173541873693466,-0.01132939662784338
1761915708339451000,5.295450927734375,0.014542372897267342,-0.027197277173399925,-0.02574545331299305
1761915708349504800,5.3055048828125,0.02054646983742714,-0.019932974129915237,-0.03307287395000458
1761915708359559000,5.315558837890625,0.019494809210300446,-0.0024530973751097918,-0.034346405416727066
1761915708369612800,5.32561279296875,0.015995148569345474,0.020028509199619293,-0.01704864203929901
1761915708379666700,5.335666748046875,0.0006233991007320583,0.028026320040225983,0.010941244661808014
1761915708389721600,5.3457216796875,-0.006691772025078535,0.021433401852846146,0.04040353000164032
1761915708399775700,5.355775634765625,-0.0030774015467613935,0.019932037219405174,0.060900237411260605
1761915708409829600,5.36582958984375,-0.0005399417132139206,0.017759963870048523,0.06793604791164398
1761915708419883800,5.3758837890625,0.003252640599384904,0.028543464839458466,0.06168051064014435
1761915708429938000,5.38593798828125,0.007601582445204258,0.03927414119243622,0.053904347121715546
1761915708439991800,5.39599169921875,0.00007693312363699079,0.03934619203209877,0.0492168664932251
1761915708450046000,5.4060458984375,-0.01980729214847088,0.027802718803286552,0.04319892078638077
1761915708460099600,5.416099609375,-0.03144100680947304,-0.006590118166059256,0.039183199405670166
1761915708470153700,5.42615380859375,-0.046896129846572876,-0.03780210018157959,0.03350480645895004
1761915708480207600,5.43620751953125,-0.06861183792352676,-0.04362749680876732,0.01766127347946167
1761915708490261800,5.44626171875,-0.07909856736660004,-0.04382137581706047,0.007404107600450516
1761915708500316700,5.456316650390625,-0.05751211568713188,-0.019877523183822632,0.0018232762813568115
1761915708510370800,5.466370849609375,-0.039534978568553925,0.0036962463054805994,0.001569477841258049
1761915708520425000,5.476425048828125,-0.03031373769044876,0.013946403749287128,0.013200981542468071
1761915708530478600,5.486478515625,-0.014149416238069534,0.004561157431453466,0.027724528685212135
1761915708540532700,5.49653271484375,-0.009570419788360596,-0.009275002405047417,0.044098079204559326
1761915708550586600,5.506586669921875,-0.018117569386959076,-0.018429618328809738,0.043490342795848846
1761915708560640800,5.516640869140625,-0.029834402725100517,-0.01591784507036209,0.03185828775167465
1761915708570694700,5.526694580078125,-0.03672986105084419,-0.009928661398589611,0.015251615084707737
1761915708580748800,5.536748779296875,-0.030001938343048096,-0.005157324951142073,-0.003925514407455921
1761915708590802700,5.546802734375,-0.018195878714323044,-0.007454833947122097,-0.014195196330547333
1761915708600856800,5.55685693359375,-0.008138180710375309,-0.009691941551864147,-0.008974023163318634
1761915708610911500,5.566911376953125,0.002223646268248558,-0.009904728271067142,0.00582542922347784
1761915708620965600,5.576965576171875,0.007271801121532917,0.006689801346510649,0.022774789482355118
1761915708631019800,5.587019775390625,0.014094820246100426,0.018970437347888947,0.029915254563093185
1761915708641073700,5.59707373046875,0.025137003511190414,0.030245216563344002,0.02684382162988186
1761915708651127800,5.6071279296875,0.030002597719430923,0.03595796227455139,0.014001527801156044
1761915708661181700,5.617181640625,0.027248740196228027,0.03285813331604004,0.002887621521949768
1761915708671235800,5.62723583984375,0.01840890944004059,0.023934414610266685,-0.004804653115570545
1761915708681289700,5.637289794921875,0.01168149895966053,0.012088140472769737,-0.007267012260854244
1761915708691344000,5.64734375,0.010729418136179447,-0.006397392600774765,-0.009144540876150131
1761915708701397800,5.657397705078125,0.011037013493478298,-0.015734435990452766,-0.012378683313727379
1761915708711451600,5.66745166015625,0.01624615676701069,-0.018848203122615814,-0.00599029241129756
1761915708721506800,5.6775068359375,0.019353901967406273,-0.017547789961099625,0.0013673435896635056
1761915708731560700,5.687560791015625,0.018631920218467712,-0.0225667841732502,0.007971716113388538
1761915708741614800,5.69761474609375,0.014792850241065025,-0.035354528576135635,0.012042853981256485
1761915708751668700,5.707668701171875,0.016006452962756157,-0.029945382848381996,0.015123331919312477
1761915708761723000,5.717722900390625,0.01741800457239151,-0.01690775342285633,0.024347350001335144
1761915708771776800,5.72777685546875,0.024769924581050873,0.005904885474592447,0.021952103823423386
1761915708781831000,5.737830810546875,0.03496735543012619,0.015751846134662628,0.013849233277142048
1761915708791884500,5.747884521484375,0.041856154799461365,0.008583683520555496,-0.002957710064947605
1761915708801938700,5.757938720703125,0.04788704589009285,-0.00449109124019742,-0.02276216633617878
1761915708811992600,5.76799267578125,0.04751473665237427,-0.011205985210835934,-0.039882294833660126
1761915708822046700,5.778046630859375,0.04075661301612854,-0.006048921495676041,-0.04158990457653999
1761915708832102000,5.788101806640625,0.027078349143266678,-0.009715561755001545,-0.03363450989127159
1761915708842155800,5.79815576171875,0.006718328222632408,-0.01982611045241356,-0.014476843178272247
1761915708852210000,5.8082099609375,-0.0004101546946913004,-0.010642464272677898,-0.005978961940854788
1761915708862263600,5.818263671875,0.005312744528055191,0.007799739949405193,-0.0034183235839009285
1761915708872317700,5.828317626953125,0.013025258667767048,0.018201781436800957,-0.013036062940955162
1761915708882371600,5.83837158203125,0.023907266557216644,0.01688907854259014,-0.025430884212255478
1761915708892425700,5.84842578125,0.029641319066286087,0.02170434035360813,-0.030877847224473953
1761915708902479600,5.858479736328125,0.024675967171788216,0.028349071741104126,-0.028193963691592216
1761915708912533800,5.86853369140625,0.012099988758563995,0.009371652267873287,-0.019472377374768257
1761915708922587600,5.878587646484375,-0.00733969546854496,-0.016444487497210503,-0.012830959632992744
1761915708932642800,5.888642822265625,-0.021257642656564713,-0.034742265939712524,-0.009901216253638268
1761915708942696700,5.89869677734375,-0.02457190677523613,-0.02656925842165947,-0.010370949283242226
1761915708952750600,5.90875048828125,-0.01621517352759838,-0.0032578089740127325,-0.010496650822460651
1761915708962804700,5.9188046875,-0.004738389048725367,0.01962333545088768,-0.01226009801030159
1761915708972858600,5.928858642578125,0.010111129842698574,0.026996297761797905,-0.01470061857253313
1761915708982912800,5.938912841796875,0.022373072803020477,0.02641133964061737,-0.005491336341947317
1761915708992966700,5.948966552734375,0.031803324818611145,0.03439656272530556,0.0035948362201452255
1761915709003020800,5.959020751953125,0.03821824863553047,0.029024118557572365,0.014071105979382992
1761915709013074700,5.96907470703125,0.03523737192153931,0.010925541631877422,0.01642560586333275
1761915709023128800,5.97912890625,0.02713303081691265,-0.0027864016592502594,0.019158652052283287
1761915709033182700,5.9891826171875,0.02471568062901497,-0.013660620898008347,0.009082315489649773
1761915709043237600,5.999237548828125,0.026590468361973763,-0.010225141420960426,-0.005276008043438196
1761915709053291800,6.009291748046875,0.03894913196563721,-0.0056868488900363445,-0.0158785842359066
1761915709063345700,6.019345703125,0.0505610890686512,-0.0004316533450037241,-0.017118189483880997
1761915709073399800,6.02939990234375,0.06315943598747253,-0.001826617168262601,-0.011046182364225388
1761915709083453700,6.03945361328125,0.07041284441947937,0.0038237019907683134,-0.0019278479740023613
1761915709093507800,6.0495078125,0.0718219205737114,0.0011576113756746054,0.01459919661283493
1761915709103561700,6.059561767578125,0.06479788571596146,-0.0063871219754219055,0.02668507769703865
1761915709113616000,6.069615966796875,0.05417799949645996,-0.01260720007121563,0.026691734790802002
1761915709123669500,6.07966943359375,0.044303227216005325,-0.013734342530369759,0.024092113599181175
1761915709133723600,6.0897236328125,0.027129562571644783,-0.014389480464160442,0.020317884162068367
1761915709143781000,6.099781005859375,0.014256663620471954,-0.0006621544016525149,0.01511956937611103
1761915709153836300,6.109836181640625,0.010511193424463272,0.022908685728907585,0.013597039505839348
1761915709163890200,6.11989013671875,0.011183949187397957,0.03224995359778404,0.016134340316057205
1761915709173944300,6.1299443359375,0.012626317329704762,0.0012496955459937453,0.016899731010198593
1761915709183998200,6.139998291015625,0.010911587625741959,-0.040627386420965195,0.007909642532467842
1761915709194052000,6.150052001953125,0.005505104083567858,-0.05576159805059433,-0.0042956238612532616
1761915709204106000,6.16010595703125,-0.0058510578237473965,-0.054282046854496,-0.018609341233968735
1761915709214160100,6.17016015625,-0.029262641444802284,-0.03701278194785118,-0.024701321497559547
1761915709224214000,6.180214111328125,-0.043047115206718445,-0.006927933543920517,-0.020703766494989395
1761915709234268200,6.19026806640625,-0.046056751161813736,0.015889763832092285,-0.0020160991698503494
1761915709244322000,6.200322021484375,-0.03261584788560867,0.03261976316571236,0.01559106633067131
1761915709254377200,6.210377197265625,-0.018257148563861847,0.03955543041229248,0.02811138518154621
1761915709264433200,6.22043310546875,-0.005117418244481087,0.031150007620453835,0.029146980494260788
1761915709274487300,6.2304873046875,-0.0008486374281346798,0.015275702811777592,0.017145708203315735
1761915709284541200,6.240541259765625,-0.0019688045140355825,-0.006643412169069052,-0.007784511893987656
1761915709294595300,6.25059521484375,-0.008591819554567337,-0.022385623306035995,-0.038828447461128235
1761915709304649200,6.260649169921875,-0.013523442670702934,-0.029441513121128082,-0.05671855807304382
1761915709314703000,6.270703125,-0.021480966359376907,-0.02876613661646843,-0.05328281223773956
1761915709324757000,6.280757080078125,-0.02412896230816841,-0.025348179042339325,-0.03874930366873741
1761915709334812200,6.290812255859375,-0.021015461534261703,-0.013575943186879158,-0.01521441712975502
1761915709344866000,6.300865966796875,-0.011741667985916138,0.008646063506603241,0.007292628288269043
1761915709354920200,6.310920166015625,-0.00916585884988308,0.020034274086356163,0.029874904081225395
1761915709364974300,6.320974365234375,-0.004665848799049854,0.018133552744984627,0.04008765146136284
1761915709375028200,6.3310283203125,-0.0035302769392728806,0.018117040395736694,0.03695124760270119
1761915709385082400,6.341082275390625,-0.000689790933392942,0.012945476919412613,0.02190534956753254
1761915709395136000,6.351135986328125,-0.001980092376470566,-0.003019374329596758,0.010987455025315285
1761915709405190100,6.361190185546875,0.002050069160759449,-0.034394074231386185,-0.0033408841118216515
1761915709415244000,6.371244140625,-0.0012205588864162564,-0.05483197420835495,-0.015606338158249855
1761915709425298200,6.381298095703125,-0.009289157576858997,-0.05418753996491432,-0.02354593575000763
1761915709435353000,6.39135302734375,-0.018345238640904427,-0.040242429822683334,-0.03034897893667221
1761915709445407200,6.4014072265625,-0.030964627861976624,-0.029128527268767357,-0.035261981189250946
1761915709455461000,6.411461181640625,-0.03232017531991005,-0.0157858245074749,-0.031031813472509384
1761915709465515300,6.421515380859375,-0.024133440107107162,-0.009919560514390469,-0.029674656689167023
1761915709475569200,6.431569091796875,-0.010088194161653519,0.0021906322799623013,-0.021566394716501236
1761915709485623000,6.441623046875,0.010097174905240536,0.005542201921343803,-0.005947776138782501
1761915709495677200,6.45167724609375,0.02351684495806694,0.01090287882834673,0.0085587278008461
1761915709505731000,6.46173095703125,0.03002752922475338,0.015366677194833755,0.024601053446531296
1761915709515785200,6.47178515625,0.023199452087283134,0.02816130220890045,0.03423610329627991
1761915709525839000,6.481839111328125,0.011537397280335426,0.03609706833958626,0.031854331493377686
1761915709535894300,6.491894287109375,-0.0009488341165706515,0.031933482736349106,0.02356923744082451
1761915709545948000,6.501947998046875,-0.00020895153284072876,0.01680334098637104,0.009957527741789818
1761915709556002000,6.512001953125,0.008893200196325779,-0.01087595708668232,-0.008596450090408325
1761915709566056200,6.52205615234375,0.012883812189102173,-0.04529818147420883,-0.02123408019542694
1761915709576110000,6.532110107421875,0.01865461654961109,-0.06289874017238617,-0.028495188802480698
1761915709586164200,6.542164306640625,0.018040738999843597,-0.05501796677708626,-0.022009247913956642
1761915709596218000,6.552218017578125,0.017379209399223328,-0.03763391450047493,-0.016962558031082153
1761915709606272300,6.562272216796875,0.017620185390114784,-0.005622420459985733,0.0018184827640652657
1761915709616326100,6.572326171875,0.014653423801064491,0.025412991642951965,0.024470265954732895
1761915709626380300,6.58238037109375,0.010234864428639412,0.04703420028090477,0.040830694139003754
1761915709636434200,6.59243408203125,0.00902259349822998,0.05405668914318085,0.050464946776628494
1761915709646489000,6.602489013671875,0.013869860209524632,0.03238672763109207,0.03568748012185097
1761915709656543200,6.612543212890625,0.011539061553776264,-0.015027393586933613,0.008518976159393787
1761915709666597000,6.62259716796875,0.005533110350370407,-0.043438371270895004,-0.025777120143175125
1761915709676651300,6.6326513671875,-0.0014923089183866978,-0.04647330939769745,-0.052963465452194214
1761915709686705200,6.642705078125,-0.010872125625610352,-0.04284582659602165,-0.058446526527404785
1761915709696759300,6.65275927734375,-0.016077807173132896,-0.03212606906890869,-0.05035850778222084
1761915709706813200,6.662813232421875,-0.016383331269025803,-0.010727059096097946,-0.027512600645422935
1761915709716867300,6.672867431640625,-0.011544901877641678,0.009898856282234192,-0.004641904961317778
1761915709726921000,6.6829208984375,-0.0064903851598501205,0.028552157804369926,0.01861640438437462
1761915709736975000,6.69297509765625,-0.0012948245275765657,0.046282149851322174,0.032736752182245255
1761915709747030300,6.7030302734375,-0.0029016633052378893,0.03339952602982521,0.035188138484954834
1761915709757084200,6.713084228515625,-0.003121906891465187,0.0172160305082798,0.02651156112551689
1761915709767138300,6.72313818359375,-0.002958563156425953,0.015463756397366524,0.005783148109912872
1761915709777192200,6.733192138671875,-0.0012410905910655856,0.003799110883846879,-0.018916871398687363
1761915709787246300,6.743246337890625,-0.0019013658165931702,-0.0167735293507576,-0.04081248119473457
1761915709797300200,6.75330029296875,0.0012158642057329416,-0.02327723428606987,-0.052606821060180664
1761915709807354000,6.76335400390625,-0.0008400696096941829,-0.018412576988339424,-0.056838616728782654
1761915709817408000,6.773407958984375,0.001396719366312027,-0.005914095789194107,-0.045232560485601425
1761915709827462100,6.783462158203125,0.005570691544562578,0.006535916123539209,-0.019710421562194824
1761915709837516000,6.79351611328125,0.0038372401613742113,0.022160416468977928,0.007365936413407326
1761915709847570200,6.803570068359375,0.0026202471926808357,0.02456650324165821,0.022502385079860687
1761915709857625300,6.813625244140625,0.005730819422751665,0.026105545461177826,0.026625491678714752
1761915709867679200,6.82367919921875,0.012322204187512398,0.02122265286743641,0.015431181527674198
1761915709877733000,6.833733154296875,0.017341462895274162,0.010929269716143608,-0.0016796272248029709
1761915709887787000,6.843787109375,0.011631365865468979,0.012506026774644852,-0.02103988453745842
1761915709897841200,6.853841064453125,0.00771305663511157,0.009008497931063175,-0.027127603068947792
1761915709907895000,6.86389501953125,-0.00411819526925683,0.008746379055082798,-0.022582218050956726
1761915709917949200,6.87394921875,-0.011130564846098423,0.012744849547743797,-0.006498322822153568
1761915709928003000,6.884003173828125,-0.013897482305765152,0.02126184105873108,0.009060831740498543
1761915709938057200,6.89405712890625,-0.007403629366308451,0.02012866549193859,0.0169919915497303
1761915709948111000,6.904111083984375,-0.002021698746830225,0.0262460857629776,0.01819021999835968
1761915709958166000,6.914166015625,0.010110597126185894,0.03285178914666176,0.019007544964551926
1761915709968220200,6.92422021484375,0.01866152137517929,0.04034423828125,0.010726060718297958
1761915709978274000,6.934274169921875,0.022894082590937614,0.039229441434144974,0.008786747232079506
1761915709988328200,6.944328125,0.024293754249811172,0.02370891533792019,0.005905224941670895
1761915709998382000,6.954382080078125,0.018339723348617554,0.0012816378148272634,-0.0034408727660775185
1761915710008436200,6.964436279296875,0.007909808307886124,-0.01686898246407509,-0.011714532971382141
1761915710018490000,6.974489990234375,0.008295167237520218,-0.026069138199090958,-0.017677616328001022
1761915710028544300,6.984544189453125,0.003944688476622105,-0.015402888879179955,-0.009980795904994011
1761915710038598100,6.99459814453125,0.005508763249963522,-0.0006242091185413301,-0.0021503036841750145
1761915710048652300,7.00465234375,0.0074131847359240055,0.0139752933755517,0.007506007328629494
1761915710058707200,7.014707275390625,0.011053992435336113,0.016989724710583687,0.010922843590378761
1761915710068761000,7.024760986328125,0.013480879366397858,0.011300019919872284,0.011458475142717361
1761915710078815200,7.034815185546875,0.017309173941612244,-0.005308517720550299,0.006299398839473724
1761915710088869000,7.044869140625,0.016731757670640945,-0.022521300241351128,0.0014952225610613823
1761915710098923300,7.05492333984375,0.011880810372531414,-0.030128618702292442,-0.0003785770386457443
1761915710108977200,7.06497705078125,0.003907972946763039,-0.018917450681328773,-0.0004980145022273064
1761915710119031300,7.07503125,-0.00459629949182272,-0.00478032510727644,0.0055814506486058235
1761915710129085200,7.085085205078125,-0.009535588324069977,-0.006234011147171259,0.012078383006155491
1761915710139138800,7.095138916015625,-0.014892803505063057,-0.011482835747301579,0.013969494961202145
1761915710149192700,7.105192626953125,-0.014886267483234406,-0.011590469628572464,0.012919104658067226
1761915710159246600,7.11524658203125,-0.01148381270468235,-0.0004446075181476772,0.012433609925210476
1761915710169301800,7.1253017578125,-0.010508332401514053,0.015210762619972229,0.009624183177947998
1761915710179356000,7.13535595703125,-0.012243116274476051,0.01634952984750271,0.008897939696907997
1761915710189409800,7.145409912109375,-0.01293555274605751,0.013319547288119793,0.005583230406045914
1761915710199464000,7.1554638671875,-0.00394072663038969,-0.0007512641604989767,-0.002108244225382805
1761915710209517800,7.165517822265625,-0.00029862415976822376,-0.003612855914980173,-0.010621627792716026
1761915710219571700,7.17557177734375,-0.0027724343817681074,-0.0059042396023869514,-0.012642700225114822
1761915710229625600,7.18562548828125,-0.0017170329811051488,-0.00710840942338109,-0.009606258012354374
1761915710239679700,7.1956796875,-0.003619329072535038,-0.004026066977530718,-0.011390842497348785
1761915710249733600,7.205733642578125,0.0023111617192626,0.0010672381613403559,-0.018963929265737534
1761915710259787800,7.215787841796875,0.0069599756971001625,0.007086248602718115,-0.026376837864518166
1761915710269843000,7.225843017578125,0.014153127558529377,-0.001502365805208683,-0.02646886371076107
1761915710279896800,7.235896728515625,0.007287763990461826,-0.007587422151118517,-0.021915124729275703
1761915710289950700,7.24595068359375,0.0007133064791560173,0.0033647145610302687,-0.004482354503124952
1761915710300004600,7.256004638671875,-0.005027935840189457,0.01709996908903122,0.012107807211577892
1761915710310058800,7.266058837890625,-0.006349274422973394,0.022060943767428398,0.02058601938188076
1761915710320112600,7.276112548828125,-0.0033838446252048016,0.009860738180577755,0.02486305870115757
1761915710330166800,7.286166748046875,-0.005477749276906252,-0.001611085725016892,0.02085811272263527
1761915710340220700,7.296220703125,-0.004950177390128374,-0.010751853697001934,0.004096442833542824
1761915710350274800,7.30627490234375,-0.010158633813261986,-0.013856456615030766,-0.01414242573082447
1761915710360328700,7.31632861328125,-0.010659574531018734,-0.022968197241425514,-0.020970238372683525
1761915710370382800,7.3263828125,-0.011302230879664421,-0.02368352934718132,-0.018070921301841736
1761915710380437800,7.336437744140625,-0.009637756273150444,-0.009478229098021984,-0.009746145457029343
1761915710390491600,7.34649169921875,-0.004487739875912666,0.001137183397077024,0.004289999604225159
1761915710400545800,7.3565458984375,0.0033046696335077286,0.010143195278942585,0.018331516534090042
1761915710410599700,7.366599609375,0.009701171889901161,0.007388194557279348,0.021099649369716644
1761915710420653800,7.37665380859375,0.01426929235458374,-0.0020638969726860523,0.02191537618637085
1761915710430707700,7.386707763671875,0.009485553950071335,0.0007175554637797177,0.023811351507902145
1761915710440761900,7.396761962890625,0.009423235431313515,0.005715243984013796,0.03276916220784187
1761915710450815700,7.406815673828125,0.016920074820518494,0.005100549664348364,0.046768173575401306
1761915710460870000,7.416869873046875,0.023851750418543816,0.018059490248560905,0.052360016852617264
1761915710470923800,7.426923828125,0.03206786513328552,0.018650760874152184,0.04225274175405502
1761915710480978700,7.436978759765625,0.038511116057634354,-0.002221763599663973,0.029098058119416237
1761915710491032800,7.44703271484375,0.04126512259244919,-0.015549604780972004,0.009962187148630619
1761915710501086700,7.457086669921875,0.04042968899011612,-0.009053622372448444,-0.0074519566260278225
1761915710511140900,7.467140869140625,0.03264094516634941,0.003133520483970642,-0.012182286940515041
1761915710521194800,7.47719482421875,0.020833289250731468,0.00793519988656044,-0.0011493433266878128
1761915710531249000,7.487248779296875,0.015003782697021961,0.022760070860385895,0.024822385981678963
1761915710541302800,7.497302734375,0.00816691480576992,0.02134726382791996,0.056965939700603485
1761915710551356700,7.507356689453125,0.007723171263933182,0.019925113767385483,0.08270377665758133
1761915710561410600,7.51741064453125,0.014908912591636181,0.01918129250407219,0.09066662937402725
1761915710571464700,7.527464599609375,0.020777396857738495,0.0107776103541255,0.08342152833938599
1761915710581518600,7.5375185546875,0.02032066509127617,0.01640753261744976,0.05925626680254936
1761915710591573800,7.54757373046875,0.013891608454287052,0.017032109200954437,0.03330663591623306
1761915710601628000,7.5576279296875,0.0031034094281494617,0.00193411810323596,0.012964345514774323
1761915710611681800,7.567681884765625,-0.0021301456727087498,-0.01097565982490778,0.004294137470424175
1761915710621736000,7.57773583984375,-0.013789731077849865,-0.021638691425323486,0.006479793228209019
1761915710631789600,7.58778955078125,-0.01766057498753071,-0.018880968913435936,0.0149063216522336
1761915710641843700,7.59784375,-0.021003108471632004,-0.0032122598495334387,0.025381069630384445
1761915710651897600,7.607897705078125,-0.020976707339286804,0.006348240654915571,0.02506794035434723
1761915710661951700,7.61795166015625,-0.019546588882803917,0.015511645935475826,0.018004970625042915
1761915710672005600,7.628005615234375,-0.011941948905587196,0.0028897314332425594,0.01478002592921257
1761915710682059800,7.638059814453125,-0.006494719535112381,-0.006137585733085871,0.015817061066627502
1761915710692115000,7.648114990234375,-0.0056700147688388824,-0.0007300007855519652,0.012804580852389336
1761915710702168600,7.65816845703125,-0.005631132051348686,0.007522602565586567,0.013355322182178497
1761915710712222700,7.66822265625,-0.009583903476595879,0.0016559894429519773,0.013917345553636551
1761915710722276600,7.678276611328125,-0.016005849465727806,-0.0034780525602400303,0.015183679759502411
1761915710732330800,7.688330810546875,-0.019856104627251625,-0.0017933864146471024,0.00932069681584835
1761915710742384600,7.698384521484375,-0.019130127504467964,-0.0003592742723412812,0.00043186359107494354
1761915710752438800,7.708438720703125,-0.011316271498799324,-0.0010247151367366314,-0.0056154136545956135
1761915710762492700,7.71849267578125,-0.005306848790496588,-0.0024122220929712057,-0.011855999007821083
1761915710772546800,7.728546875,-0.003371692728251219,0.0012046127812936902,-0.0159949641674757
1761915710782601000,7.73860107421875,0.004032161086797714,-0.00010379820014350116,-0.012175725772976875
1761915710792655600,7.748655517578125,0.004376417025923729,-0.0036457721143960953,-0.00588696263730526
1761915710802709800,7.758709716796875,-0.004419205244630575,-0.00588602339848876,0.004898041486740112
1761915710812763600,7.768763671875,-0.009089181199669838,-0.007602329831570387,0.007960628718137741
1761915710822817800,7.77881787109375,-0.01030598022043705,-0.006823888048529625,0.003778667189180851
1761915710832871700,7.78887158203125,-0.015224853530526161,-0.015508019365370274,-0.003768608905375004
1761915710842925800,7.79892578125,-0.024757372215390205,-0.024104436859488487,-0.010688832961022854
1761915710852979700,7.808979736328125,-0.029560329392552376,-0.030640505254268646,-0.01234459225088358
1761915710863033900,7.819033935546875,-0.03169592097401619,-0.02289310283958912,-0.007321870420128107
1761915710873088000,7.829087890625,-0.025489432737231255,0.0035412688739597797,0.00539436936378479
1761915710883141600,7.8391416015625,-0.026407690718770027,0.01928481087088585,0.027683697640895844
1761915710893196800,7.84919677734375,-0.02917437255382538,0.025280779227614403,0.04165905714035034
1761915710903250700,7.859250732421875,-0.030658554285764694,0.030576208606362343,0.046561673283576965
1761915710913304800,7.869304931640625,-0.027964938431978226,0.02659195475280285,0.045479390770196915
1761915710923358700,7.879358642578125,-0.022725701332092285,0.016507362946867943,0.03419877216219902
1761915710933412900,7.889412841796875,-0.019389811903238297,0.0009242416126653552,0.026449650526046753
1761915710943466800,7.899466796875,-0.017572205513715744,-0.012196353636682034,0.014041713438928127
1761915710953521000,7.90952099609375,-0.021090935915708542,-0.02625039592385292,0.008270232006907463
1761915710963574800,7.91957470703125,-0.02883807197213173,-0.048722416162490845,0.006678193807601929
1761915710973628700,7.929628662109375,-0.039777547121047974,-0.06045832112431526,0.007750289514660835
1761915710983682800,7.939682861328125,-0.047970231622457504,-0.045073240995407104,0.009837942197918892
1761915710993736700,7.94973681640625,-0.04903389513492584,-0.019550835713744164,0.01156793162226677
1761915711003792000,7.9597919921875,-0.03933253511786461,0.009282941929996014,0.019780321046710014
1761915711013845800,7.969845703125,-0.020989634096622467,0.03254606947302818,0.03239273652434349
1761915711023900000,7.97989990234375,-0.009648029692471027,0.03590191900730133,0.04886731505393982
1761915711033953800,7.989953857421875,-0.008476126939058304,0.014237513765692711,0.05688231438398361
1761915711044007700,8.000007568359376,-0.013644522987306118,-0.0021513132378458977,0.05231180042028427
1761915711054061600,8.0100615234375,-0.02029760181903839,-0.009055482223629951,0.036593034863471985
1761915711064115700,8.02011572265625,-0.026809828355908394,-0.009886388666927814,0.0165916308760643
1761915711074169900,8.030169921875,-0.03532462567090988,0.0010448110988363624,-0.0007803505286574364
1761915711084223700,8.0402236328125,-0.039444804191589355,0.006435847841203213,-0.011140313930809498
1761915711094278000,8.05027783203125,-0.042013019323349,-0.00557574862614274,-0.012666964903473854
1761915711104332800,8.060332763671875,-0.03274548426270485,-0.019953889772295952,-0.009902603924274445
1761915711114386700,8.07038671875,-0.015278714708983898,-0.030231811106204987,-0.010179964825510979
1761915711124440600,8.080440673828125,-0.002556794323027134,-0.028913546353578568,-0.009475825354456902
1761915711134491100,8.0904912109375,-0.0020948746241629124,-0.01442196499556303,-0.006593668833374977
1761915711144545000,8.100544921875,-0.007078181486576796,-0.0026212316006422043,0.0012565311044454575
1761915711154599200,8.11059912109375,-0.018462834879755974,0.009107428602874279,0.010418369434773922
1761915711164653000,8.120653076171875,-0.020629582926630974,0.01485452987253666,0.017075739800930023
1761915711174707200,8.130707275390625,-0.01115852314978838,0.0073518939316272736,0.013891948387026787
1761915711184761000,8.140760986328125,-0.011018441058695316,-0.011072386987507343,0.008402375504374504
1761915711194815200,8.150815185546875,-0.004655411466956139,-0.01926642283797264,-0.0012481408193707466
1761915711204870000,8.160869873046876,0.004710659850388765,-0.02774752676486969,-0.005582702346146107
1761915711214924000,8.170924072265626,0.006655160337686539,-0.019922912120819092,-0.011133969761431217
1761915711224978200,8.180978271484374,0.008391275070607662,0.0002390812587691471,-0.011918003670871258
1761915711235032000,8.191031982421874,0.008758188225328922,0.025230014696717262,-0.0038295695558190346
1761915711245086200,8.201086181640624,0.008782955817878246,0.04202444106340408,0.007176476530730724
1761915711255140000,8.21114013671875,0.00926217157393694,0.04065226390957832,0.022174283862113953
1761915711265194200,8.2211943359375,0.008531400002539158,0.02949468418955803,0.03585920110344887
1761915711275248000,8.231248046875,0.009494725614786148,0.023499656468629837,0.041741617023944855
1761915711285302300,8.24130224609375,0.011973862536251545,0.024688225239515305,0.03901347517967224
1761915711295356200,8.251356201171875,0.009608081541955471,0.0172035600990057,0.022148454561829567
1761915711305410000,8.26141015625,0.00981500931084156,0.013764087110757828,-0.00022289622575044632
1761915711315465200,8.27146533203125,0.013452225364744663,0.016862766817212105,-0.021787725389003754
1761915711325519000,8.28151904296875,0.004442485049366951,0.006735564675182104,-0.033721618354320526
1761915711335573200,8.2915732421875,-0.006886817514896393,0.005019551143050194,-0.026422761380672455
1761915711345627100,8.301627197265624,-0.01914055459201336,0.010677970014512539,-0.0012098178267478943
1761915711355681300,8.311681396484374,-0.0228764358907938,0.014877242036163807,0.01969200372695923
1761915711365735200,8.321735107421874,-0.02497447468340397,0.01847703754901886,0.0337391123175621
1761915711375789000,8.3317890625,-0.015511786565184593,0.010732755996286869,0.0301651731133461
1761915711385843000,8.341843017578125,-0.0071065849624574184,0.014815648086369038,0.016497034579515457
1761915711395897000,8.35189697265625,-0.004008781164884567,0.02498476579785347,-0.0031226007267832756
1761915711405951000,8.361950927734375,-0.0017533500213176012,0.03773358464241028,-0.015962764620780945
1761915711416006100,8.372006103515625,0.0032446603290736675,0.05791615694761276,-0.018251776695251465
1761915711426060300,8.382060302734375,0.00977180153131485,0.06767503917217255,-0.010412229225039482
1761915711436114200,8.3921142578125,0.01547878235578537,0.05273108556866646,-0.0019215121865272522
1761915711446168000,8.40216796875,0.015925394371151924,0.024250173941254616,0.00287697184830904
1761915711456222000,8.412221923828126,0.0142323337495327,-0.008452008478343487,0.004740674048662186
1761915711466276000,8.422276123046874,0.005849768873304129,-0.018956050276756287,0.005923116579651833
1761915711476330000,8.432330078125,0.00038275180850178003,-0.011305384337902069,0.006711738184094429
1761915711486384000,8.442384033203124,-0.008046419359743595,0.012841230258345604,0.012841003015637398
1761915711496438000,8.45243798828125,-0.00618304219096899,0.027065154165029526,0.015972554683685303
1761915711506492200,8.4624921875,-0.009779906831681728,0.025236094370484352,0.017895091325044632
1761915711516547300,8.47254736328125,-0.01390227023512125,0.004254307132214308,0.01234801672399044
1761915711526601000,8.48260107421875,-0.018249614164233208,-0.017511973157525063,-0.0004154480993747711
1761915711536655000,8.492655029296875,-0.02319062128663063,-0.031382493674755096,-0.014849345199763775
1761915711546709000,8.502708984375,-0.026874836534261703,-0.02924104779958725,-0.03507472202181816
1761915711556763100,8.51276318359375,-0.03792644664645195,-0.011154180392622948,-0.05109813064336777
1761915711566817000,8.522817138671876,-0.038262270390987396,-0.010255630128085613,-0.05694456771016121
1761915711576871200,8.53287109375,-0.034856557846069336,-0.014621325768530369,-0.0447416827082634
1761915711586925000,8.542925048828126,-0.026653489097952843,-0.025101395323872566,-0.015347039327025414
1761915711596979200,8.552979248046874,-0.021393105387687683,-0.01915648765861988,0.016831306740641594
1761915711607033000,8.563033203125,-0.024285834282636642,0.0013668981846421957,0.031207317486405373
1761915711617087200,8.573087158203125,-0.029787082225084305,0.02299891971051693,0.029068637639284134
1761915711627142100,8.58314208984375,-0.03673021122813225,0.02752069942653179,0.019100159406661987
1761915711637196000,8.593196044921875,-0.04541349411010742,0.006488209590315819,-0.001943225972354412
1761915711647250200,8.603250244140625,-0.0460481271147728,-0.015793927013874054,-0.023789934813976288
1761915711657304000,8.613303955078125,-0.030030645430088043,-0.02410004660487175,-0.041716329753398895
1761915711667358200,8.623358154296875,-0.010046551004052162,-0.014470856636762619,-0.056745342910289764
1761915711677412000,8.633412109375,0.00714521948248148,-0.010794096626341343,-0.056939490139484406
1761915711687466200,8.64346630859375,0.01548038050532341,-0.01771431975066662,-0.05556236952543259
1761915711697520000,8.65352001953125,0.012296674773097038,-0.00930193904787302,-0.04710244759917259
1761915711707574000,8.663573974609376,0.005285902414470911,-0.011247644200921059,-0.041161201894283295
1761915711717628000,8.6736279296875,-0.002184885088354349,-0.007048794999718666,-0.03459995239973068
1761915711727682000,8.68368212890625,-0.007360738702118397,0.0011082009878009558,-0.025965187698602676
1761915711737737200,8.6937373046875,-0.0069653806276619434,0.016867157071828842,-0.022762514650821686
1761915711747791000,8.703791015625,0.0016914905281737447,0.023700028657913208,-0.019688427448272705
1761915711757845200,8.71384521484375,0.010984165593981743,0.015878794714808464,-0.011021533980965614
1761915711767899100,8.723899169921875,0.025448592379689217,0.01566494256258011,-0.005421970970928669
1761915711777953000,8.733953125,0.02866893820464611,0.019076311960816383,-0.0013514002785086632
1761915711788007000,8.7440068359375,0.027239885181188583,0.029441867023706436,-0.005224168766289949
1761915711798061000,8.75406103515625,0.02257942408323288,0.036722324788570404,-0.013287304900586605
1761915711808115000,8.764114990234376,0.017872819676995277,0.036250412464141846,-0.01563568040728569
1761915711818169000,8.774169189453126,0.010481996461749077,0.0189462099224329,-0.007020010147243738
1761915711828223000,8.784222900390626,0.0003593210713006556,-0.006909887306392193,-0.001473977230489254
1761915711838278100,8.794278076171874,-0.00649191252887249,-0.02796659991145134,-0.0012344196438789368
1761915711848332300,8.804332275390625,-0.016827639192342758,-0.04046827554702759,-0.007706433534622192
1761915711858386000,8.814385986328125,-0.01985166408121586,-0.04202643409371376,-0.011774726212024689
1761915711868440000,8.824440185546875,-0.015608184039592743,-0.0327671580016613,-0.015945501625537872
1761915711878494000,8.834493896484375,-0.010203523561358452,-0.013991639018058777,-0.0091452831402421
1761915711888548000,8.844548095703125,0.0010139773366972804,0.0038129244931042194,0.009062749333679676
1761915711898602000,8.85460205078125,0.01190599799156189,0.019877145066857338,0.02126125618815422
1761915711908656000,8.86465625,0.011352593079209328,0.03740127757191658,0.028501056134700775
1761915711918710000,8.8747099609375,0.007203457877039909,0.03285648673772812,0.025017499923706055
1761915711928764200,8.88476416015625,0.00031625680276192725,0.015042335726320744,0.01199411042034626
1761915711938819000,8.894819091796874,-0.0029586036689579487,-0.00598130701109767,-0.007711198180913925
1761915711948873000,8.904873046875,-0.0022510020062327385,-0.02518269792199135,-0.027852952480316162
1761915711958927000,8.914927001953124,0.009168067947030067,-0.0269780233502388,-0.04763837903738022
1761915711968981000,8.92498095703125,0.01705794967710972,-0.02083837240934372,-0.050985705107450485
1761915711979035100,8.93503515625,0.0227833054959774,-0.008819683454930782,-0.04343721643090248
1761915711989089000,8.945089111328125,0.015083574689924717,-0.0019945339299738407,-0.02561694011092186
1761915711999143200,8.95514306640625,0.008297307416796684,-0.0004075561882928014,-0.010891258716583252
1761915712009197000,8.965197021484375,0.007277849595993757,-0.0014283458003774285,-0.00532738259062171
1761915712019251200,8.975251220703125,0.006109057459980249,0.0016552237793803215,-0.009426663629710674
1761915712029305300,8.985305419921875,-0.0040703434497118,-0.006227733101695776,-0.021923813968896866
1761915712039359000,8.99535888671875,-0.009938188828527927,-0.012551140040159225,-0.04444175958633423
1761915712049414100,9.0054140625,-0.020981518551707268,-0.016649745404720306,-0.07159002125263214
1761915712059468000,9.015468017578126,-0.03551436960697174,-0.036158472299575806,-0.10361360013484955
1761915712069522200,9.025522216796874,-0.025735776871442795,-0.0841454342007637,-0.1344122588634491
1761915712079576000,9.035576171875,-0.019998101517558098,-0.11159617453813553,-0.15598030388355255
1761915712089630200,9.045630126953125,-0.015017458237707615,-0.11411260068416595,-0.15264789760112762
1761915712099684000,9.05568408203125,-0.009291329421103,-0.0743497684597969,-0.12037618458271027
1761915712109738000,9.065738037109375,0.00027394614880904555,-0.010994493961334229,-0.06982485949993134
1761915712119791900,9.0757919921875,0.006235586013644934,0.026318639516830444,-0.004922504536807537
1761915712129846000,9.085845947265625,0.005682181101292372,0.03777582198381424,0.048493050038814545
1761915712139899600,9.095899658203125,0.008489918895065784,0.031887490302324295,0.0663394182920456
1761915712149954600,9.10595458984375,0.008070205338299274,0.02378642000257969,0.051252879202365875
1761915712160008700,9.1160087890625,0.008225636556744576,0.0028311419300734997,0.013828478753566742
1761915712170062600,9.1260625,0.0029525775462388992,-0.009685448370873928,-0.030567748472094536
1761915712180116700,9.13611669921875,0.0031519681215286255,-0.017463386058807373,-0.060068871825933456
1761915712190170600,9.146170654296874,0.01003650575876236,-0.011506960727274418,-0.07992807030677795
1761915712200224500,9.156224609375,0.010292865335941315,0.0015207008691504598,-0.07585834711790085
1761915712210278700,9.166278564453124,0.012326455675065517,0.011008478701114655,-0.05491498112678528
1761915712220332500,9.17633251953125,0.021357337012887,0.011883582919836044,-0.025472547858953476
1761915712230386700,9.18638671875,0.026863155886530876,0.010672643780708313,0.013319057412445545
1761915712240440600,9.196440673828125,0.037434060126543045,0.014392852783203125,0.039930883795022964
1761915712250495700,9.206495849609375,0.03945859521627426,0.01742139831185341,0.05519532412290573
1761915712260549600,9.216549560546875,0.036720748990774155,0.007717288564890623,0.052342817187309265
1761915712270603800,9.226603759765625,0.03036830946803093,-0.0007747329655103385,0.03441974148154259
1761915712280657400,9.236657470703125,0.022235805168747902,-0.016551723703742027,0.00366279948502779
1761915712290711600,9.246711669921876,0.011649474501609802,-0.025095144286751747,-0.02074667066335678
1761915712300765700,9.256765625,0.0028250855393707752,-0.041079651564359665,-0.03750864788889885
1761915712310819600,9.266819580078124,-0.0003147812094539404,-0.04155023396015167,-0.04288636893033981
1761915712320873700,9.276873779296874,-0.002533501945436001,-0.026784567162394524,-0.03189800679683685
1761915712330927600,9.286927734375,0.006849613040685654,-0.008258821442723274,-0.01725674606859684
1761915712340981800,9.296981689453125,0.009249603375792503,0.011475073173642159,0.0024877358227968216
1761915712351035600,9.30703564453125,0.02102982997894287,0.029561398550868034,0.025541391223669052
1761915712361090600,9.317090576171875,0.025729510933160782,0.05503959581255913,0.03995681554079056
1761915712371144400,9.32714453125,0.02795511484146118,0.07098314166069031,0.04109877720475197
1761915712381198600,9.337198486328125,0.02974831312894821,0.06770701706409454,0.03733230009675026
1761915712391252700,9.347252685546875,0.024829987436532974,0.041836004704236984,0.02537604048848152
1761915712401306600,9.357306640625,0.017831584438681602,0.005914319772273302,0.010340623557567596
1761915712411360800,9.36736083984375,0.00749532226473093,-0.021645668894052505,-0.015503223985433578
1761915712421414700,9.37741455078125,-0.007764493115246296,-0.0404755100607872,-0.040072936564683914
1761915712431468800,9.38746875,-0.021557005122303963,-0.049825068563222885,-0.05431711673736572
1761915712441522700,9.397522705078124,-0.020958058536052704,-0.04956221207976341,-0.05260603874921799
1761915712451576800,9.407576904296874,-0.012302253395318985,-0.02192579209804535,-0.03128077834844589
1761915712461631500,9.417631591796875,0.004318329971283674,0.007180716842412949,0.0023696133866906166
1761915712471685600,9.427685546875,0.022874437272548676,0.04557391256093979,0.03756674751639366
1761915712481739800,9.43773974609375,0.033002715557813644,0.08393343538045883,0.06488049030303955
1761915712491793700,9.447793701171875,0.041065700352191925,0.0793224424123764,0.07144118845462799
1761915712501847800,9.457847900390625,0.04505271837115288,0.04776318371295929,0.05545902997255325
1761915712511901700,9.467901611328125,0.043957360088825226,-0.0023756164591759443,0.020243782550096512
1761915712521955800,9.477955810546876,0.025307172909379005,-0.034532397985458374,-0.024926474317908287
1761915712532009700,9.488009765625,0.0027723037637770176,-0.05153455212712288,-0.06656233221292496
1761915712542063600,9.498063720703126,-0.00791164394468069,-0.060490455478429794,-0.08321983367204666
1761915712552117500,9.508117431640626,-0.0003376136301085353,-0.08071450144052505,-0.09170173108577728
1761915712562171600,9.518171630859374,-0.00807916559278965,-0.0792350023984909,-0.08838433027267456
1761915712572226600,9.5282265625,-0.005675663240253925,-0.08425053209066391,-0.06900797039270401
1761915712582280700,9.53828076171875,0.004772174172103405,-0.06234486773610115,-0.03305777907371521
1761915712592334800,9.5483349609375,0.00015585048822686076,-0.03181758522987366,0.004153238609433174
1761915712602388700,9.558388671875,-0.0046348487958312035,-0.02563822641968727,0.04144257307052612
1761915712612442600,9.568442626953125,0.007676145993173122,0.0030323006212711334,0.06996076554059982
1761915712622496500,9.57849658203125,0.010475026443600655,0.016919896006584167,0.09258019924163818
1761915712632550700,9.588550537109375,0.007142612710595131,0.0005864639533683658,0.10643129795789719
1761915712642604500,9.5986044921875,0.016069360077381134,-0.006783526856452227,0.09494809806346893
1761915712652658700,9.60865869140625,0.025276705622673035,0.006979689467698336,0.06591884046792984
1761915712662712600,9.618712646484376,0.03054662048816681,0.018694795668125153,0.025403566658496857
1761915712672764400,9.628764404296875,0.022202404215931892,0.02560356818139553,-0.016069572418928146
1761915712682818600,9.638818603515626,0.016066454350948334,0.017031246796250343,-0.04702345281839371
1761915712692872400,9.64887255859375,0.008244216442108154,-0.004417053889483213,-0.06636865437030792
1761915712702927600,9.658927734375,0.0061032455414533615,-0.0346011258661747,-0.07054953277111053
1761915712712981800,9.668981689453124,0.0014666824135929346,-0.0443059504032135,-0.05244855582714081
1761915712723035600,9.67903564453125,0.0005400984082370996,-0.044269103556871414,-0.020474493503570557
1761915712733089800,9.68908984375,0.00851360335946083,-0.026363873854279518,0.01862150803208351
1761915712743143700,9.699143798828125,0.01941622421145439,-0.0067239608615636826,0.05538242310285568
1761915712753197600,9.709197509765625,0.017040152102708817,0.002484983764588833,0.07619209587574005
1761915712763251500,9.71925146484375,0.012858345173299313,0.014595297165215015,0.0783357247710228
1761915712773305600,9.7293056640625,0.009234847500920296,0.01851387321949005,0.07155079394578934
1761915712783359500,9.739359375,-0.003567224834114313,0.009817205369472504,0.06958308070898056
1761915712793413600,9.74941357421875,-0.009449880570173264,0.005350551567971706,0.0769864022731781
1761915712803468800,9.75946875,-0.022288840264081955,-0.003250907175242901,0.09449819475412369
1761915712813522700,9.769522705078124,-0.023870492354035378,-0.045548297464847565,0.13252413272857666
1761915712823576600,9.77957666015625,-0.023577816784381866,-0.06943972408771515,0.1475784033536911
1761915712833630500,9.78963037109375,-0.03411860764026642,-0.07799539715051651,0.15459875762462616
1761915712843684600,9.7996845703125,-0.052018988877534866,-0.09366696327924728,0.16244734823703766
1761915712853738500,9.809738525390625,-0.05445125326514244,-0.11366836726665497,0.1810585856437683
1761915712863792600,9.819792724609375,-0.047505129128694534,-0.131049245595932,0.1978117823600769
1761915712873846500,9.829846435546875,-0.03971591591835022,-0.1691737323999405,0.21903985738754272
1761915712883900700,9.839900634765625,-0.027991201728582382,-0.21434956789016724,0.23186323046684265
1761915712893954800,9.849954833984375,-0.026276925578713417,-0.2491203248500824,0.23032765090465546
1761915712904008700,9.8600087890625,-0.04281144216656685,-0.28528377413749695,0.2255713939666748
1761915712914063600,9.870063720703126,-0.04961981624364853,-0.3279132544994354,0.21847806870937347
1761915712924117500,9.880117431640626,-0.06837133318185806,-0.3863251507282257,0.1999049186706543
1761915712934171600,9.890171630859374,-0.08146050572395325,-0.3592357337474823,0.1816161870956421
1761915712944225500,9.9002255859375,-0.09076707810163498,-0.2869054675102234,0.16683587431907654
1761915712954279700,9.91027978515625,-0.09295672923326492,-0.2586216330528259,0.16006983816623688
1761915712964333600,9.92033349609375,-0.08742818236351013,-0.2633078694343567,0.1658955067396164
1761915712974387700,9.9303876953125,-0.07884934544563293,-0.25968411564826965,0.16570694744586945
1761915712984441900,9.94044189453125,-0.06352107226848602,-0.27763399481773376,0.16990679502487183
1761915712994495700,9.950495849609375,-0.04407519847154617,-0.3172793984413147,0.16459059715270996
1761915713004550700,9.960550537109375,-0.02633095160126686,-0.3135802745819092,0.14720487594604492
1761915713014604500,9.9706044921875,-0.011305397376418114,-0.2583657503128052,0.1288735419511795
1761915713024658700,9.98065869140625,0.003755786921828985,-0.18967892229557037,0.11295479536056519
1761915713034712600,9.990712646484376,0.0007115275948308408,-0.16176766157150269,0.10890546441078186
1761915713044766700,10.0007666015625,-0.023615820333361626,-0.1803772747516632,0.12172654271125793
1761915713054820600,10.010820556640626,-0.05920497328042984,-0.23946750164031982,0.15038640797138214
1761915713064874800,10.020874755859374,-0.08464609831571579,-0.3575364649295807,0.1765521615743637
1761915713074928600,10.0309287109375,-0.10486854612827301,-0.5220407247543335,0.20097175240516663
1761915713084982500,10.040982421875,-0.11710561811923981,-0.6731483936309814,0.2076568901538849
1761915713095037700,10.05103759765625,-0.1441284567117691,-0.7427881956100464,0.16847433149814606
1761915713105091600,10.061091552734375,-0.18733321130275726,-0.7278302311897278,0.10152900218963623
1761915713115145700,10.071145751953125,-0.22604438662528992,-0.6977231502532959,0.021332163363695145
1761915713125199600,10.08119970703125,-0.22294946014881134,-0.7510548830032349,0.007331217639148235
1761915713135253800,10.091253662109375,-0.11435959488153458,-0.5068257451057434,0.0712827667593956
1761915713145308400,10.101308349609376,-0.008177957497537136,-0.13799028098583221,0.06939402967691422
1761915713155362300,10.1113623046875,0.02601276896893978,0.0678694099187851,0.09699396789073944
1761915713165416400,10.12141650390625,0.0335211344063282,0.19333428144454956,0.08442271500825882
1761915713175470300,10.13147021484375,0.03814491257071495,0.19572687149047852,0.03678462281823158
1761915713185525500,10.141525390625,0.08805503696203232,0.2281237691640854,-0.005274386610835791
1761915713195579400,10.151579345703125,0.12659309804439545,0.31721875071525574,0.0021670181304216385
