time,seconds_elapsed,z,y,x
1761914532439954700,0.08195458984375,-0.7468109130859375,-0.670745849609375,0.125701904296875
1761914532450011000,0.092010986328125,-0.7504119873046875,-0.676727294921875,0.1265106201171875
1761914532460065800,0.102065673828125,-0.747955322265625,-0.7111663818359375,0.124847412109375
1761914532470121700,0.112121826171875,-0.743255615234375,-0.73974609375,0.1299591064453125
1761914532480177700,0.122177734375,-0.75262451171875,-0.746429443359375,0.1319122314453125
1761914532490232800,0.13223291015625,-0.7674102783203125,-0.7668914794921875,0.1236114501953125
1761914532500288800,0.142288818359375,-0.7685699462890625,-0.80963134765625,0.1134796142578125
1761914532510344700,0.1523447265625,-0.7540283203125,-0.8460845947265625,0.11163330078125
1761914532520400000,0.16239990234375,-0.7514801025390625,-0.84246826171875,0.1053619384765625
1761914532530455800,0.172455810546875,-0.7703857421875,-0.8093719482421875,0.0953216552734375
1761914532540511700,0.18251171875,-0.7889556884765625,-0.7731781005859375,0.088653564453125
1761914532550566700,0.192566650390625,-0.8054351806640625,-0.7403717041015625,0.0837554931640625
1761914532560622600,0.20262255859375,-0.8346710205078125,-0.704498291015625,0.078765869140625
1761914532570678800,0.2126787109375,-0.867523193359375,-0.668701171875,0.078369140625
1761914532580733700,0.222733642578125,-0.8874969482421875,-0.6233978271484375,0.0754547119140625
1761914532590790000,0.232789794921875,-0.9022369384765625,-0.5748443603515625,0.07208251953125
1761914532600845800,0.242845703125,-0.912261962890625,-0.5364227294921875,0.0693359375
1761914532610901800,0.25290185546875,-0.916534423828125,-0.50640869140625,0.0653839111328125
1761914532620956700,0.262956787109375,-0.9131011962890625,-0.482574462890625,0.057281494140625
1761914532631012600,0.2730126953125,-0.8974609375,-0.4676971435546875,0.0376434326171875
1761914532641068800,0.28306884765625,-0.8712615966796875,-0.46392822265625,0.009185791015625
1761914532651123700,0.293123779296875,-0.8384246826171875,-0.4841156005859375,-0.0220489501953125
1761914532661180000,0.303179931640625,-0.798980712890625,-0.5250396728515625,-0.0468597412109375
1761914532671235800,0.31323583984375,-0.7662353515625,-0.5627899169921875,-0.059478759765625
1761914532681290800,0.323290771484375,-0.7534942626953125,-0.580291748046875,-0.0760345458984375
1761914532691346700,0.3333466796875,-0.7465362548828125,-0.594268798828125,-0.0926971435546875
1761914532701402600,0.343402587890625,-0.7212371826171875,-0.6174163818359375,-0.1027984619140625
1761914532711457800,0.353457763671875,-0.686187744140625,-0.64739990234375,-0.1129608154296875
1761914532721513700,0.363513671875,-0.6700897216796875,-0.681365966796875,-0.116241455078125
1761914532731569700,0.373569580078125,-0.6693878173828125,-0.7053375244140625,-0.110137939453125
1761914532741624800,0.383624755859375,-0.6734619140625,-0.7019805908203125,-0.1075439453125
1761914532751680800,0.3936806640625,-0.6995086669921875,-0.681854248046875,-0.114532470703125
1761914532761736700,0.40373681640625,-0.7340545654296875,-0.6568145751953125,-0.12750244140625
1761914532771792600,0.413792724609375,-0.763916015625,-0.62322998046875,-0.1370086669921875
1761914532781847800,0.423847900390625,-0.78485107421875,-0.591888427734375,-0.1421661376953125
1761914532791903700,0.43390380859375,-0.7976837158203125,-0.5654449462890625,-0.1394195556640625
1761914532801959700,0.443959716796875,-0.8057861328125,-0.54071044921875,-0.1287384033203125
1761914532812014800,0.454014892578125,-0.81787109375,-0.517974853515625,-0.11328125
1761914532822070800,0.46407080078125,-0.82220458984375,-0.4979400634765625,-0.095245361328125
1761914532832127000,0.474126953125,-0.815032958984375,-0.4893341064453125,-0.081817626953125
1761914532842181600,0.484181640625,-0.812164306640625,-0.4963836669921875,-0.0706634521484375
1761914532852237800,0.49423779296875,-0.8116455078125,-0.514068603515625,-0.056793212890625
1761914532862293800,0.504293701171875,-0.8038482666015625,-0.537628173828125,-0.040069580078125
1761914532872348700,0.5143486328125,-0.78173828125,-0.5673675537109375,-0.024627685546875
1761914532882404900,0.52440478515625,-0.7581634521484375,-0.5931854248046875,-0.0111236572265625
1761914532892460800,0.534460693359375,-0.7354278564453125,-0.61053466796875,-0.0053253173828125
1761914532902515700,0.544515625,-0.7072906494140625,-0.623748779296875,-0.006683349609375
1761914532912571600,0.554571533203125,-0.684326171875,-0.638519287109375,-0.0124053955078125
1761914532922627600,0.564627685546875,-0.677978515625,-0.6531219482421875,-0.0184173583984375
1761914532932678700,0.5746787109375,-0.67852783203125,-0.6620941162109375,-0.02587890625
1761914532942734600,0.584734619140625,-0.678466796875,-0.662567138671875,-0.0350799560546875
1761914532952790800,0.594790771484375,-0.68463134765625,-0.6586151123046875,-0.04083251953125
1761914532962846700,0.6048466796875,-0.6930084228515625,-0.65765380859375,-0.0424346923828125
1761914532972902000,0.61490185546875,-0.689208984375,-0.6592559814453125,-0.0420074462890625
1761914532982957800,0.624957763671875,-0.6850433349609375,-0.658203125,-0.038116455078125
1761914532993013500,0.635013427734375,-0.6810302734375,-0.6516265869140625,-0.0354766845703125
1761914533003068700,0.645068603515625,-0.675750732421875,-0.6461029052734375,-0.034088134765625
1761914533013124600,0.65512451171875,-0.6701202392578125,-0.6513824462890625,-0.024658203125
1761914533023180800,0.665180908203125,-0.6657257080078125,-0.6633148193359375,-0.006011962890625
1761914533033235700,0.675235595703125,-0.6714935302734375,-0.68267822265625,0.0097198486328125
1761914533043292000,0.6852919921875,-0.688568115234375,-0.69598388671875,0.01971435546875
1761914533053347800,0.695347900390625,-0.7093353271484375,-0.70220947265625,0.0296783447265625
1761914533063402800,0.70540283203125,-0.7357940673828125,-0.702423095703125,0.0397186279296875
1761914533073458700,0.715458740234375,-0.765838623046875,-0.7041015625,0.0460357666015625
1761914533083514600,0.7255146484375,-0.783111572265625,-0.705657958984375,0.0532684326171875
1761914533093569800,0.73556982421875,-0.78863525390625,-0.7088165283203125,0.05780029296875
1761914533103625700,0.745625732421875,-0.800140380859375,-0.7065582275390625,0.05596923828125
1761914533113682000,0.755681884765625,-0.816375732421875,-0.70745849609375,0.0509796142578125
1761914533123736600,0.765736572265625,-0.8283538818359375,-0.7044677734375,0.04193115234375
1761914533133792500,0.77579248046875,-0.8430938720703125,-0.69873046875,0.02716064453125
1761914533143848700,0.7858486328125,-0.8500213623046875,-0.7084197998046875,0.000244140625
1761914533153904600,0.795904541015625,-0.841278076171875,-0.74481201171875,-0.022796630859375
1761914533163959800,0.805959716796875,-0.8326873779296875,-0.7796783447265625,-0.0281524658203125
1761914533174015700,0.816015625,-0.8450164794921875,-0.7928314208984375,-0.0244903564453125
1761914533184071700,0.82607177734375,-0.866455078125,-0.8080596923828125,-0.0173187255859375
1761914533194126800,0.836126953125,-0.8787994384765625,-0.8143463134765625,0.006439208984375
1761914533204182500,0.8461826171875,-0.8892669677734375,-0.8006591796875,0.0340728759765625
1761914533214238700,0.85623876953125,-0.9042816162109375,-0.7625579833984375,0.0551910400390625
1761914533224293600,0.866293701171875,-0.91522216796875,-0.713348388671875,0.065948486328125
1761914533234349800,0.876349853515625,-0.9228057861328125,-0.66253662109375,0.073089599609375
1761914533244405800,0.88640576171875,-0.930450439453125,-0.605712890625,0.080810546875
1761914533254461000,0.8964609375,-0.93994140625,-0.532318115234375,0.08197021484375
1761914533264516900,0.906516845703125,-0.9448394775390625,-0.4550933837890625,0.0754241943359375
1761914533274572800,0.91657275390625,-0.92633056640625,-0.39715576171875,0.0740966796875
1761914533284627700,0.926627685546875,-0.8964385986328125,-0.3771209716796875,0.076507568359375
1761914533294683600,0.93668359375,-0.863037109375,-0.388580322265625,0.0697021484375
1761914533304739800,0.94673974609375,-0.8165283203125,-0.4129791259765625,0.0596160888671875
1761914533314794800,0.956794677734375,-0.7634735107421875,-0.444915771484375,0.0647735595703125
1761914533324850700,0.9668505859375,-0.7294464111328125,-0.4970245361328125,0.0779571533203125
1761914533334907000,0.976906982421875,-0.705963134765625,-0.5538177490234375,0.0856781005859375
1761914533344962800,0.986962890625,-0.677764892578125,-0.5981292724609375,0.087188720703125
1761914533355017700,0.997017822265625,-0.6649322509765625,-0.6488189697265625,0.0934600830078125
1761914533365073700,1.00707373046875,-0.6510162353515625,-0.6970672607421875,0.093505859375
1761914533375129600,1.017129638671875,-0.6311187744140625,-0.722930908203125,0.0911865234375
1761914533385184800,1.027184814453125,-0.6188812255859375,-0.72265625,0.0889129638671875
1761914533395240700,1.03724072265625,-0.6243133544921875,-0.6968231201171875,0.08984375
1761914533405297000,1.047296875,-0.648406982421875,-0.6572265625,0.092864990234375
1761914533415351600,1.0573515625,-0.6844329833984375,-0.607696533203125,0.092254638671875
1761914533425407700,1.06740771484375,-0.7214508056640625,-0.5608978271484375,0.087127685546875
1761914533435463700,1.077463623046875,-0.7633514404296875,-0.52496337890625,0.078948974609375
1761914533445518800,1.087518798828125,-0.80352783203125,-0.5025177001953125,0.067291259765625
1761914533455574800,1.09757470703125,-0.82745361328125,-0.479339599609375,0.0597991943359375
1761914533465630700,1.107630615234375,-0.8390655517578125,-0.4580078125,0.051727294921875
1761914533475686000,1.117685791015625,-0.83660888671875,-0.4427337646484375,0.0497589111328125
1761914533485741800,1.127741943359375,-0.8228302001953125,-0.4485321044921875,0.0622406005859375
1761914533495797800,1.1377978515625,-0.7955780029296875,-0.4673919677734375,0.07513427734375
1761914533505853700,1.147853759765625,-0.76605224609375,-0.4942169189453125,0.0860137939453125
1761914533515908600,1.15790869140625,-0.7493438720703125,-0.5235137939453125,0.0974273681640625
1761914533525964800,1.16796484375,-0.7461700439453125,-0.5561981201171875,0.1053924560546875
1761914533536020700,1.178020751953125,-0.7446746826171875,-0.5797882080078125,0.1016845703125
1761914533546076000,1.188075927734375,-0.7233734130859375,-0.5953369140625,0.089599609375
1761914533556131800,1.1981318359375,-0.6964263916015625,-0.611175537109375,0.0786895751953125
1761914533566187500,1.2081875,-0.688568115234375,-0.623291015625,0.067230224609375
1761914533576242700,1.21824267578125,-0.691619873046875,-0.631072998046875,0.0510406494140625
1761914533586298600,1.228298583984375,-0.697296142578125,-0.6291351318359375,0.0323028564453125
1761914533596354800,1.238354736328125,-0.6965179443359375,-0.6107330322265625,0.010498046875
1761914533606409700,1.24840966796875,-0.6865386962890625,-0.59088134765625,-0.012908935546875
1761914533616466000,1.2584658203125,-0.68829345703125,-0.5800933837890625,-0.0307464599609375
1761914533626521900,1.26852197265625,-0.7034912109375,-0.57550048828125,-0.042755126953125
1761914533636576800,1.27857666015625,-0.73065185546875,-0.576141357421875,-0.048828125
1761914533646632700,1.2886328125,-0.7674102783203125,-0.57745361328125,-0.0515289306640625
1761914533656688600,1.298688720703125,-0.7816162109375,-0.5823822021484375,-0.0538330078125
1761914533666743800,1.308743896484375,-0.772247314453125,-0.5779571533203125,-0.0561370849609375
1761914533676799700,1.3187998046875,-0.7657623291015625,-0.5741424560546875,-0.05584716796875
1761914533686855700,1.328855712890625,-0.753692626953125,-0.594207763671875,-0.0585784912109375
1761914533696910600,1.33891064453125,-0.7424163818359375,-0.623687744140625,-0.058013916015625
1761914533706966500,1.348966552734375,-0.7388153076171875,-0.642608642578125,-0.0536651611328125
1761914533717022700,1.359022705078125,-0.7324371337890625,-0.6538848876953125,-0.052459716796875
1761914533727078700,1.36907861328125,-0.71966552734375,-0.6719512939453125,-0.0516815185546875
1761914533737133800,1.3791337890625,-0.72442626953125,-0.6913299560546875,-0.0468902587890625
1761914533747189800,1.389189697265625,-0.7460784912109375,-0.716522216796875,-0.0445404052734375
1761914533757245700,1.39924560546875,-0.763397216796875,-0.7389678955078125,-0.040863037109375
1761914533767300900,1.40930078125,-0.7665863037109375,-0.7518157958984375,-0.04522705078125
1761914533777356500,1.4193564453125,-0.7361602783203125,-0.7808074951171875,-0.0898284912109375
1761914533787412700,1.429412841796875,-0.7827911376953125,-0.70062255859375,-0.049530029296875
1761914533797467600,1.439467529296875,-0.8558349609375,-0.6671295166015625,-0.0900421142578125
1761914533807523800,1.44952392578125,-0.79974365234375,-0.66302490234375,-0.0759735107421875
1761914533817579800,1.459579833984375,-0.794403076171875,-0.6502685546875,-0.0662078857421875
1761914533827634700,1.469634765625,-0.8157196044921875,-0.64556884765625,-0.063995361328125
1761914533837691000,1.47969091796875,-0.855133056640625,-0.66790771484375,-0.09039306640625
1761914533847746800,1.489746826171875,-0.884063720703125,-0.68939208984375,-0.1313629150390625
1761914533857801700,1.4998017578125,-0.86572265625,-0.6993560791015625,-0.1619873046875
1761914533867857700,1.509857666015625,-0.8350982666015625,-0.702178955078125,-0.1707305908203125
1761914533877913600,1.51991357421875,-0.822265625,-0.735321044921875,-0.1790924072265625
1761914533887968800,1.52996875,-0.8422088623046875,-0.7707366943359375,-0.188934326171875
1761914533898024700,1.540024658203125,-0.889068603515625,-0.7666168212890625,-0.197845458984375
1761914533908081000,1.550080810546875,-0.9175872802734375,-0.732666015625,-0.199249267578125
1761914533918135600,1.560135498046875,-0.927398681640625,-0.70477294921875,-0.201446533203125
1761914533928191700,1.570191650390625,-0.9242706298828125,-0.68487548828125,-0.2092437744140625
1761914533938247400,1.580247314453125,-0.9133758544921875,-0.65338134765625,-0.2213287353515625
1761914533948302600,1.590302490234375,-0.9095916748046875,-0.599334716796875,-0.2385406494140625
1761914533958358500,1.600358642578125,-0.8971099853515625,-0.5311737060546875,-0.257965087890625
1761914533968414500,1.61041455078125,-0.9106903076171875,-0.4799957275390625,-0.2725677490234375
1761914533978470700,1.620470703125,-0.856353759765625,-0.4709014892578125,-0.2954864501953125
1761914533988525300,1.630525390625,-0.8031463623046875,-0.4916534423828125,-0.2674560546875
1761914533998581500,1.64058154296875,-0.83660888671875,-0.4715118408203125,-0.2498321533203125
1761914534008637400,1.650637451171875,-0.8701629638671875,-0.47100830078125,-0.2366485595703125
1761914534018692600,1.660692626953125,-0.8690948486328125,-0.49835205078125,-0.2060089111328125
1761914534028748500,1.67074853515625,-0.860076904296875,-0.52691650390625,-0.16717529296875
1761914534038804500,1.680804443359375,-0.8438720703125,-0.5506744384765625,-0.1319732666015625
1761914534048859600,1.690859619140625,-0.8184356689453125,-0.573486328125,-0.0977020263671875
1761914534058915300,1.700915283203125,-0.8020172119140625,-0.593505859375,-0.06597900390625
1761914534068971500,1.710971435546875,-0.807159423828125,-0.6120147705078125,-0.038299560546875
1761914534079026400,1.7210263671875,-0.8303375244140625,-0.623016357421875,-0.0169830322265625
1761914534089082400,1.731082275390625,-0.84954833984375,-0.6202392578125,0.0066375732421875
1761914534099138600,1.741138671875,-0.8405609130859375,-0.605621337890625,0.0258941650390625
1761914534109193500,1.751193359375,-0.8123626708984375,-0.5829010009765625,0.03448486328125
1761914534119249700,1.761249755859375,-0.7786865234375,-0.55810546875,0.0350189208984375
1761914534129305600,1.7713056640625,-0.744964599609375,-0.5411529541015625,0.0315399169921875
1761914534139360500,1.781360595703125,-0.714324951171875,-0.536407470703125,0.0352630615234375
1761914534149416400,1.79141650390625,-0.6903228759765625,-0.5401153564453125,0.045562744140625
1761914534159472400,1.801472412109375,-0.6783294677734375,-0.5468902587890625,0.06011962890625
1761914534169528600,1.811528564453125,-0.6769561767578125,-0.5555419921875,0.0775299072265625
1761914534179583500,1.82158349609375,-0.6730499267578125,-0.5672607421875,0.0955047607421875
1761914534189639700,1.8316396484375,-0.660186767578125,-0.57989501953125,0.1146087646484375
1761914534199695600,1.841695556640625,-0.6566314697265625,-0.5897064208984375,0.13739013671875
1761914534209750500,1.85175048828125,-0.6622467041015625,-0.599090576171875,0.1643829345703125
1761914534219806500,1.861806396484375,-0.6628265380859375,-0.6016693115234375,0.1909637451171875
1761914534229862400,1.8718623046875,-0.6666259765625,-0.6002197265625,0.218109130859375
1761914534239917600,1.88191748046875,-0.6758575439453125,-0.59820556640625,0.246826171875
1761914534249973500,1.891973388671875,-0.677337646484375,-0.596038818359375,0.27288818359375
1761914534260029400,1.902029541015625,-0.6713714599609375,-0.593597412109375,0.2898101806640625
1761914534270084400,1.91208447265625,-0.6739959716796875,-0.595916748046875,0.300537109375
1761914534280140300,1.922140380859375,-0.6749267578125,-0.5959625244140625,0.303863525390625
1761914534290196500,1.932196533203125,-0.66552734375,-0.5933074951171875,0.3087921142578125
1761914534300251400,1.94225146484375,-0.6673431396484375,-0.5923919677734375,0.3180694580078125
1761914534310307600,1.9523076171875,-0.673370361328125,-0.592803955078125,0.3319854736328125
1761914534320363500,1.962363525390625,-0.6783599853515625,-0.594024658203125,0.3424224853515625
1761914534330419500,1.97241943359375,-0.6967010498046875,-0.59893798828125,0.3459625244140625
1761914534340474600,1.982474609375,-0.7106781005859375,-0.60504150390625,0.3422088623046875
1761914534350530300,1.9925302734375,-0.7042388916015625,-0.6026611328125,0.33343505859375
1761914534360586500,2.00258642578125,-0.6999969482421875,-0.597412109375,0.3251495361328125
1761914534370641400,2.012641357421875,-0.7071075439453125,-0.5968170166015625,0.3198089599609375
1761914534380697600,2.022697509765625,-0.7253875732421875,-0.602020263671875,0.3211822509765625
1761914534390753500,2.03275341796875,-0.7375030517578125,-0.608154296875,0.3233184814453125
1761914534400808400,2.042808349609375,-0.7419586181640625,-0.620086669921875,0.3264312744140625
1761914534410864600,2.05286474609375,-0.7403564453125,-0.64190673828125,0.335540771484375
1761914534420920300,2.06292041015625,-0.74310302734375,-0.662078857421875,0.341217041015625
1761914534430975500,2.0729755859375,-0.7413787841796875,-0.6743316650390625,0.3325042724609375
1761914534441031400,2.083031494140625,-0.74542236328125,-0.675262451171875,0.3111572265625
1761914534451087400,2.09308740234375,-0.764862060546875,-0.675323486328125,0.2863616943359375
1761914534461142500,2.103142578125,-0.7859649658203125,-0.66192626953125,0.2645416259765625
1761914534471198500,2.113198486328125,-0.7919464111328125,-0.6434783935546875,0.2504119873046875
1761914534481254700,2.123254638671875,-0.769073486328125,-0.65997314453125,0.2548980712890625
1761914534491309300,2.133309326171875,-0.7522430419921875,-0.7057952880859375,0.2540435791015625
1761914534501365500,2.143365478515625,-0.771484375,-0.7313385009765625,0.2404327392578125
1761914534511421400,2.15342138671875,-0.8067779541015625,-0.746337890625,0.2421875
1761914534521477400,2.163477294921875,-0.839630126953125,-0.770111083984375,0.2491455078125
1761914534531532500,2.173532470703125,-0.8822021484375,-0.767303466796875,0.2436676025390625
1761914534541588500,2.18358837890625,-0.9053802490234375,-0.740570068359375,0.2385101318359375
1761914534551644700,2.193644775390625,-0.897674560546875,-0.7248687744140625,0.236419677734375
1761914534561699300,2.20369921875,-0.8909149169921875,-0.7096405029296875,0.2257080078125
1761914534571755500,2.213755615234375,-0.8966827392578125,-0.6777191162109375,0.20172119140625
1761914534581811500,2.2238115234375,-0.882781982421875,-0.639404296875,0.1700286865234375
1761914534591866400,2.233866455078125,-0.8369140625,-0.6062774658203125,0.1428985595703125
1761914534601922600,2.243922607421875,-0.7854766845703125,-0.5935821533203125,0.1283416748046875
1761914534611978500,2.253978515625,-0.7536163330078125,-0.606170654296875,0.130279541015625
1761914534622033700,2.26403369140625,-0.7549591064453125,-0.6327972412109375,0.1476593017578125
1761914534632089300,2.27408935546875,-0.78192138671875,-0.65643310546875,0.1786956787109375
1761914534642145300,2.284145263671875,-0.8045196533203125,-0.6734161376953125,0.211090087890625
1761914534652200400,2.294200439453125,-0.8081207275390625,-0.695220947265625,0.2344970703125
1761914534662256400,2.30425634765625,-0.8138275146484375,-0.7120208740234375,0.254119873046875
1761914534672312600,2.3143125,-0.823455810546875,-0.71380615234375,0.2639617919921875
1761914534682368500,2.324368408203125,-0.8263397216796875,-0.7040252685546875,0.2608489990234375
1761914534692423700,2.334423583984375,-0.822235107421875,-0.675506591796875,0.24652099609375
1761914534702479600,2.344479736328125,-0.8109588623046875,-0.639923095703125,0.2237701416015625
1761914534712535300,2.354535400390625,-0.774139404296875,-0.6104888916015625,0.1981201171875
1761914534722590500,2.364590576171875,-0.714996337890625,-0.5847015380859375,0.1712188720703125
1761914534732646400,2.374646484375,-0.65411376953125,-0.560089111328125,0.1457061767578125
1761914534742702600,2.38470263671875,-0.600341796875,-0.54193115234375,0.1284027099609375
1761914534752757500,2.394757568359375,-0.55517578125,-0.5377655029296875,0.12066650390625
1761914534762813700,2.404813720703125,-0.528778076171875,-0.5397491455078125,0.120574951171875
1761914534772869600,2.41486962890625,-0.5179595947265625,-0.5394439697265625,0.1273345947265625
1761914534782924300,2.42492431640625,-0.5004730224609375,-0.549560546875,0.144622802734375
1761914534792980500,2.43498046875,-0.491668701171875,-0.578399658203125,0.1706390380859375
1761914534803036400,2.445036376953125,-0.498046875,-0.6193389892578125,0.1955718994140625
1761914534813092400,2.45509228515625,-0.516815185546875,-0.6661376953125,0.2177734375
1761914534823147500,2.4651474609375,-0.5362548828125,-0.703216552734375,0.235137939453125
1761914534833203500,2.475203369140625,-0.5496368408203125,-0.7256927490234375,0.24737548828125
1761914534843259600,2.485259765625,-0.5640411376953125,-0.73333740234375,0.2485809326171875
1761914534853314300,2.495314208984375,-0.58599853515625,-0.72015380859375,0.247039794921875
1761914534863370500,2.50537060546875,-0.6138153076171875,-0.6963043212890625,0.244171142578125
1761914534873426400,2.515426513671875,-0.636322021484375,-0.6723480224609375,0.239227294921875
1761914534883481600,2.525481689453125,-0.65362548828125,-0.6517791748046875,0.230743408203125
1761914534893537500,2.53553759765625,-0.6660308837890625,-0.6301422119140625,0.2215423583984375
1761914534903593500,2.545593505859375,-0.6865997314453125,-0.602294921875,0.2109375
1761914534913648600,2.555648681640625,-0.71551513671875,-0.5706787109375,0.20013427734375
1761914534923704300,2.565704345703125,-0.7400970458984375,-0.5431671142578125,0.1922607421875
1761914534933764000,2.57576416015625,-0.7518157958984375,-0.523406982421875,0.1828460693359375
1761914534943818800,2.58581884765625,-0.763092041015625,-0.5146026611328125,0.1710205078125
1761914534953875000,2.595875,-0.7772979736328125,-0.52154541015625,0.16717529296875
1761914534963931000,2.605930908203125,-0.7851409912109375,-0.54205322265625,0.164703369140625
1761914534973985800,2.61598583984375,-0.7942962646484375,-0.5544281005859375,0.1518707275390625
1761914534984042000,2.6260419921875,-0.7975616455078125,-0.5613861083984375,0.1354827880859375
1761914534994098000,2.636097900390625,-0.779998779296875,-0.56884765625,0.1183013916015625
1761914535004153900,2.64615380859375,-0.754974365234375,-0.5832366943359375,0.1038360595703125
1761914535014208800,2.656208740234375,-0.7501678466796875,-0.6112518310546875,0.0930328369140625
1761914535024264700,2.6662646484375,-0.7473602294921875,-0.6379241943359375,0.0842132568359375
1761914535034321000,2.67632080078125,-0.7362518310546875,-0.6511688232421875,0.077392578125
1761914535044375800,2.686375732421875,-0.7156524658203125,-0.65509033203125,0.0728912353515625
1761914535054432000,2.696431884765625,-0.698822021484375,-0.655426025390625,0.072357177734375
1761914535064488000,2.706488037109375,-0.6982421875,-0.657958984375,0.073333740234375
1761914535074543000,2.716543212890625,-0.6952362060546875,-0.6626129150390625,0.07464599609375
1761914535084599000,2.72659912109375,-0.691314697265625,-0.6641082763671875,0.0796661376953125
1761914535094654700,2.73665478515625,-0.6859130859375,-0.670867919921875,0.085357666015625
1761914535104710000,2.7467099609375,-0.6593780517578125,-0.697265625,0.1012420654296875
1761914535114765800,2.756765869140625,-0.623016357421875,-0.7388916015625,0.1175689697265625
1761914535124822000,2.766822021484375,-0.609832763671875,-0.7653656005859375,0.125885009765625
1761914535134877000,2.776876953125,-0.6180572509765625,-0.7907562255859375,0.14068603515625
1761914535144932900,2.786932861328125,-0.6236114501953125,-0.8455810546875,0.17327880859375
1761914535154989000,2.796989013671875,-0.615386962890625,-0.9207916259765625,0.2185211181640625
1761914535165045000,2.807044921875,-0.5984954833984375,-0.9859466552734375,0.257080078125
1761914535175100000,2.817099853515625,-0.60498046875,-1.0182952880859375,0.275146484375
1761914535185155800,2.82715576171875,-0.662872314453125,-1.02386474609375,0.27996826171875
1761914535195211800,2.837211669921875,-0.740325927734375,-1.0115966796875,0.2686767578125
1761914535205267000,2.847266845703125,-0.803985595703125,-0.9717254638671875,0.2383270263671875
1761914535215323000,2.857322998046875,-0.8492889404296875,-0.8934173583984375,0.18267822265625
1761914535225379000,2.867379150390625,-0.87017822265625,-0.7955780029296875,0.120147705078125
1761914535235433700,2.877433837890625,-0.8655242919921875,-0.6842498779296875,0.0607757568359375
1761914535245490000,2.887489990234375,-0.832794189453125,-0.586822509765625,0.0108642578125
1761914535255545900,2.8975458984375,-0.80108642578125,-0.5338592529296875,-0.0215911865234375
1761914535265601000,2.90760107421875,-0.8083038330078125,-0.5193328857421875,-0.03326416015625
1761914535275657000,2.917656982421875,-0.829559326171875,-0.520538330078125,-0.035614013671875
1761914535285713000,2.927712890625,-0.850982666015625,-0.522674560546875,-0.0230712890625
1761914535295768000,2.93776806640625,-0.858306884765625,-0.53857421875,0.0113983154296875
1761914535305823700,2.94782373046875,-0.841552734375,-0.5647735595703125,0.04852294921875
1761914535315880000,2.9578798828125,-0.8280487060546875,-0.596038818359375,0.0754852294921875
1761914535325934800,2.967934814453125,-0.8441162109375,-0.6366119384765625,0.0993194580078125
1761914535335990800,2.97799072265625,-0.8736724853515625,-0.670074462890625,0.1216888427734375
1761914535346047000,2.988046875,-0.8928375244140625,-0.6797943115234375,0.1315460205078125
1761914535356103000,2.99810302734375,-0.892486572265625,-0.663299560546875,0.1224517822265625
1761914535366158000,3.008157958984375,-0.860107421875,-0.6321258544921875,0.100921630859375
1761914535376213800,3.0182138671875,-0.814056396484375,-0.6042633056640625,0.0754852294921875
1761914535386269700,3.028269775390625,-0.7785797119140625,-0.5787811279296875,0.0478363037109375
1761914535396324900,3.038324951171875,-0.7537078857421875,-0.5515594482421875,0.0263671875
1761914535406380800,3.048380859375,-0.7278289794921875,-0.53564453125,0.0125579833984375
1761914535416437000,3.05843701171875,-0.69781494140625,-0.5302581787109375,0.0036468505859375
1761914535426492000,3.068491943359375,-0.6756134033203125,-0.5274810791015625,0.0033111572265625
1761914535436548000,3.078548095703125,-0.6583709716796875,-0.5241851806640625,0.0089569091796875
1761914535446604000,3.08860400390625,-0.641632080078125,-0.5245208740234375,0.016845703125
1761914535456659000,3.098658935546875,-0.62286376953125,-0.532379150390625,0.025238037109375
1761914535466715000,3.10871484375,-0.5981903076171875,-0.5495147705078125,0.0366973876953125
1761914535476770800,3.118770751953125,-0.577423095703125,-0.576690673828125,0.053253173828125
1761914535486826000,3.128825927734375,-0.568572998046875,-0.6052703857421875,0.0719451904296875
1761914535496882000,3.1388818359375,-0.5765838623046875,-0.62945556640625,0.0944671630859375
1761914535506937900,3.148937744140625,-0.5941162109375,-0.65283203125,0.115509033203125
1761914535516994000,3.158994140625,-0.6139678955078125,-0.663818359375,0.13671875
1761914535527048700,3.169048583984375,-0.6281280517578125,-0.661590576171875,0.1488189697265625
1761914535537105000,3.17910498046875,-0.6400604248046875,-0.6519622802734375,0.15277099609375
1761914535547160800,3.189160888671875,-0.64678955078125,-0.6401824951171875,0.15679931640625
1761914535557216000,3.199216064453125,-0.647430419921875,-0.629364013671875,0.1608734130859375
1761914535567272000,3.20927197265625,-0.648406982421875,-0.6234283447265625,0.162689208984375
1761914535577327900,3.219327880859375,-0.6549530029296875,-0.6231842041015625,0.16790771484375
1761914535587382800,3.2293828125,-0.67156982421875,-0.6257171630859375,0.1768951416015625
1761914535597438700,3.239438720703125,-0.682281494140625,-0.6298828125,0.18133544921875
1761914535607495000,3.249494873046875,-0.6870269775390625,-0.6332855224609375,0.1854248046875
1761914535617549800,3.2595498046875,-0.706634521484375,-0.6368255615234375,0.1924896240234375
1761914535627606000,3.26960595703125,-0.7389984130859375,-0.6434326171875,0.2032470703125
1761914535637662000,3.279661865234375,-0.7585601806640625,-0.653350830078125,0.21441650390625
1761914535647717000,3.289717041015625,-0.770904541015625,-0.66961669921875,0.2264251708984375
1761914535657773000,3.29977294921875,-0.7884368896484375,-0.693939208984375,0.2380828857421875
1761914535667828700,3.309828857421875,-0.7976531982421875,-0.7164306640625,0.2422332763671875
1761914535677885000,3.319885009765625,-0.8115234375,-0.726776123046875,0.2370452880859375
1761914535687939800,3.32993994140625,-0.835784912109375,-0.726959228515625,0.22308349609375
1761914535697995800,3.339995849609375,-0.8626556396484375,-0.7200775146484375,0.2011260986328125
1761914535708052000,3.350052001953125,-0.872833251953125,-0.7133636474609375,0.175506591796875
1761914535718107000,3.36010693359375,-0.867645263671875,-0.7226715087890625,0.158935546875
1761914535728163000,3.3701630859375,-0.8635101318359375,-0.739990234375,0.148834228515625
1761914535738219000,3.380218994140625,-0.8944091796875,-0.734344482421875,0.127960205078125
1761914535748274000,3.39027392578125,-0.930572509765625,-0.71624755859375,0.1095733642578125
1761914535758329900,3.400329833984375,-0.9267578125,-0.7159881591796875,0.103424072265625
1761914535768385800,3.4103857421875,-0.9108734130859375,-0.73529052734375,0.10009765625
1761914535778441000,3.42044091796875,-0.920806884765625,-0.7394866943359375,0.0938262939453125
1761914535788497000,3.430496826171875,-0.922760009765625,-0.71319580078125,0.090545654296875
1761914535798553000,3.440552978515625,-0.891448974609375,-0.67327880859375,0.08709716796875
1761914535808609000,3.450609130859375,-0.85504150390625,-0.6367034912109375,0.0837554931640625
1761914535818664000,3.460663818359375,-0.821502685546875,-0.60467529296875,0.083953857421875
1761914535828719900,3.470719970703125,-0.7890472412109375,-0.579010009765625,0.086029052734375
1761914535838775800,3.48077587890625,-0.7533721923828125,-0.566131591796875,0.095123291015625
1761914535848831000,3.4908310546875,-0.713897705078125,-0.5713958740234375,0.11065673828125
1761914535858887000,3.500886962890625,-0.6924285888671875,-0.5900115966796875,0.132476806640625
1761914535868942800,3.51094287109375,-0.6967010498046875,-0.6037139892578125,0.1508026123046875
1761914535878997800,3.520997802734375,-0.711273193359375,-0.6082763671875,0.167633056640625
1761914535889053700,3.5310537109375,-0.722320556640625,-0.6237945556640625,0.1888885498046875
1761914535899110000,3.54110986328125,-0.721038818359375,-0.6548919677734375,0.20977783203125
1761914535909164800,3.551164794921875,-0.7294464111328125,-0.6881103515625,0.2331390380859375
1761914535919221000,3.561220947265625,-0.7456817626953125,-0.7055511474609375,0.249481201171875
1761914535929277000,3.57127685546875,-0.7568817138671875,-0.698089599609375,0.2535247802734375
1761914535939332900,3.581332763671875,-0.7602081298828125,-0.6733551025390625,0.24462890625
1761914535949389000,3.59138916015625,-0.75927734375,-0.6438751220703125,0.2285003662109375
1761914535959445000,3.601445068359375,-0.7629852294921875,-0.6229400634765625,0.2154541015625
1761914535969501000,3.6115009765625,-0.774810791015625,-0.607666015625,0.2045135498046875
1761914535979556000,3.62155615234375,-0.7789306640625,-0.5868682861328125,0.195037841796875
1761914535989612000,3.631612060546875,-0.765350341796875,-0.5623321533203125,0.18524169921875
1761914535999668000,3.64166796875,-0.74322509765625,-0.5475311279296875,0.17449951171875
1761914536009723000,3.651722900390625,-0.7225189208984375,-0.547607421875,0.15826416015625
1761914536019779000,3.661779052734375,-0.710906982421875,-0.55462646484375,0.1457061767578125
1761914536029835000,3.6718349609375,-0.71014404296875,-0.5664825439453125,0.1333160400390625
1761914536039890200,3.68189013671875,-0.71539306640625,-0.580596923828125,0.1239013671875
1761914536049946000,3.691946044921875,-0.71075439453125,-0.5904998779296875,0.122589111328125
1761914536060002000,3.702001953125,-0.699951171875,-0.5899505615234375,0.1294708251953125
1761914536070057000,3.712056884765625,-0.6961669921875,-0.5848846435546875,0.134613037109375
1761914536080113000,3.72211279296875,-0.6876373291015625,-0.5810394287109375,0.1389923095703125
1761914536090168800,3.7321689453125,-0.673095703125,-0.58380126953125,0.14923095703125
1761914536100225000,3.74222509765625,-0.6649169921875,-0.5897064208984375,0.1607513427734375
1761914536110280000,3.752280029296875,-0.6665496826171875,-0.60009765625,0.1755828857421875
1761914536120336100,3.762336181640625,-0.676849365234375,-0.61260986328125,0.191619873046875
1761914536130392000,3.77239208984375,-0.6848297119140625,-0.6136627197265625,0.2038421630859375
1761914536140447000,3.782447021484375,-0.693572998046875,-0.60498046875,0.207794189453125
1761914536150503000,3.7925029296875,-0.7068634033203125,-0.5880584716796875,0.201141357421875
1761914536160558800,3.802558837890625,-0.71533203125,-0.57025146484375,0.1868743896484375
1761914536170614000,3.812614013671875,-0.7263641357421875,-0.5543060302734375,0.172821044921875
1761914536180670000,3.822669921875,-0.74993896484375,-0.544769287109375,0.1630706787109375
1761914536190726100,3.83272607421875,-0.783599853515625,-0.5430908203125,0.1517791748046875
1761914536200780800,3.84278076171875,-0.8103179931640625,-0.540679931640625,0.1351165771484375
1761914536210837000,3.8528369140625,-0.8198699951171875,-0.533538818359375,0.113677978515625
1761914536220893000,3.862892822265625,-0.82275390625,-0.535552978515625,0.094757080078125
1761914536230948000,3.872947998046875,-0.8201141357421875,-0.54437255859375,0.0798492431640625
1761914536241004000,3.883004150390625,-0.828338623046875,-0.5629119873046875,0.0701904296875
1761914536251060000,3.89306005859375,-0.83978271484375,-0.58538818359375,0.07110595703125
1761914536261116000,3.903115966796875,-0.836090087890625,-0.61395263671875,0.0842742919921875
1761914536271171000,3.913171142578125,-0.824005126953125,-0.644256591796875,0.10699462890625
1761914536281226800,3.923226806640625,-0.81201171875,-0.669097900390625,0.130035400390625
1761914536291283000,3.933282958984375,-0.80120849609375,-0.6787567138671875,0.1489715576171875
1761914536301337900,3.943337890625,-0.796875,-0.67803955078125,0.160430908203125
1761914536311394000,3.95339404296875,-0.7965850830078125,-0.674957275390625,0.1717071533203125
1761914536321450000,3.963449951171875,-0.7930755615234375,-0.6697845458984375,0.1773223876953125
1761914536331505200,3.973505126953125,-0.7852935791015625,-0.65655517578125,0.168914794921875
1761914536341561000,3.98356103515625,-0.7585296630859375,-0.6486663818359375,0.158355712890625
1761914536351617000,3.993616943359375,-0.718170166015625,-0.66705322265625,0.1582794189453125
1761914536361672000,4.003671875,-0.697021484375,-0.698486328125,0.1643829345703125
1761914536371725000,4.01372509765625,-0.69964599609375,-0.7113494873046875,0.16534423828125
1761914536381781000,4.023781005859375,-0.6912689208984375,-0.721435546875,0.1749420166015625
1761914536391837000,4.0338369140625,-0.6608428955078125,-0.7597198486328125,0.199859619140625
1761914536401891800,4.043891845703125,-0.6409912109375,-0.82452392578125,0.2300567626953125
1761914536411948000,4.053947998046875,-0.651519775390625,-0.8701324462890625,0.2421417236328125
1761914536422004000,4.06400390625,-0.685577392578125,-0.8589630126953125,0.2231903076171875
1761914536432059100,4.07405908203125,-0.711700439453125,-0.81634521484375,0.1872406005859375
1761914536442115000,4.084114990234375,-0.7194976806640625,-0.7745361328125,0.1503143310546875
1761914536452171000,4.0941708984375,-0.7154693603515625,-0.7352294921875,0.124481201171875
1761914536462226000,4.104225830078125,-0.69781494140625,-0.6873016357421875,0.10693359375
1761914536472281900,4.11428173828125,-0.6697845458984375,-0.649505615234375,0.0950469970703125
1761914536482338000,4.124338134765625,-0.65435791015625,-0.6493988037109375,0.094940185546875
1761914536492393000,4.13439306640625,-0.6574249267578125,-0.6782073974609375,0.1011962890625
1761914536502449200,4.14444921875,-0.6815948486328125,-0.69073486328125,0.0977783203125
1761914536512505000,4.154505126953125,-0.7183074951171875,-0.6712493896484375,0.081573486328125
1761914536522561000,4.16456103515625,-0.73876953125,-0.6700439453125,0.077117919921875
1761914536532616000,4.174615966796875,-0.733245849609375,-0.713958740234375,0.0875244140625
1761914536542672000,4.184671875,-0.73095703125,-0.76800537109375,0.1037139892578125
1761914536552728000,4.19472802734375,-0.747344970703125,-0.7901763916015625,0.1103668212890625
1761914536562783000,4.204782958984375,-0.76678466796875,-0.781890869140625,0.1010894775390625
1761914536572839000,4.2148388671875,-0.77581787109375,-0.7696075439453125,0.0804290771484375
1761914536582895000,4.22489501953125,-0.7791748046875,-0.7601776123046875,0.05572509765625
1761914536592950000,4.234949951171875,-0.7743377685546875,-0.7481231689453125,0.0302886962890625
1761914536603006000,4.245005859375,-0.7641143798828125,-0.723724365234375,0.003692626953125
1761914536613062000,4.255061767578125,-0.7477264404296875,-0.6850128173828125,-0.02154541015625
1761914536623117000,4.265116943359375,-0.7318115234375,-0.6532745361328125,-0.04180908203125
1761914536633173000,4.275173095703125,-0.7189483642578125,-0.646331787109375,-0.0460052490234375
1761914536643229000,4.28522900390625,-0.7089691162109375,-0.6622314453125,-0.0312652587890625
1761914536653284000,4.2952841796875,-0.7081146240234375,-0.6696319580078125,-0.02069091796875
1761914536663340000,4.305340087890625,-0.7097320556640625,-0.66748046875,-0.011016845703125
1761914536673396000,4.31539599609375,-0.71075439453125,-0.6658477783203125,0.006683349609375
1761914536683452000,4.325451904296875,-0.706024169921875,-0.6702880859375,0.029266357421875
1761914536693507000,4.335507080078125,-0.695465087890625,-0.689697265625,0.045501708984375
1761914536703563000,4.34556298828125,-0.6839752197265625,-0.715728759765625,0.0464935302734375
1761914536713619000,4.355618896484375,-0.680084228515625,-0.7298126220703125,0.0595550537109375
1761914536723674000,4.365674072265625,-0.691741943359375,-0.724151611328125,0.0807647705078125
1761914536733730000,4.37572998046875,-0.692626953125,-0.7247772216796875,0.07537841796875
1761914536743786000,4.385785888671875,-0.685211181640625,-0.72857666015625,0.0698394775390625
1761914536753841000,4.3958408203125,-0.684906005859375,-0.714813232421875,0.0695343017578125
1761914536763896800,4.405896728515625,-0.67205810546875,-0.6879730224609375,0.06695556640625
1761914536773953000,4.415953125,-0.64874267578125,-0.662109375,0.0664825439453125
1761914536784008000,4.426008056640625,-0.628570556640625,-0.641876220703125,0.06256103515625
1761914536794064100,4.436064208984375,-0.613067626953125,-0.6280975341796875,0.062530517578125
1761914536804120000,4.4461201171875,-0.597198486328125,-0.6170501708984375,0.06781005859375
1761914536814175000,4.456175048828125,-0.5757904052734375,-0.60894775390625,0.070037841796875
1761914536824231000,4.46623095703125,-0.5573577880859375,-0.6012115478515625,0.0770263671875
1761914536834286800,4.476286865234375,-0.536163330078125,-0.6030120849609375,0.08721923828125
1761914536844343000,4.486343017578125,-0.5236358642578125,-0.6114501953125,0.09722900390625
1761914536854398000,4.49639794921875,-0.5280303955078125,-0.625946044921875,0.107696533203125
1761914536864454100,4.5064541015625,-0.53497314453125,-0.6529083251953125,0.1216888427734375
1761914536874510000,4.516510009765625,-0.5366363525390625,-0.6865234375,0.1392822265625
1761914536884565000,4.52656494140625,-0.5335693359375,-0.7145233154296875,0.1523284912109375
1761914536894621000,4.536620849609375,-0.5369110107421875,-0.7345123291015625,0.1573638916015625
1761914536904676900,4.5466767578125,-0.548583984375,-0.746185302734375,0.153656005859375
1761914536914732000,4.55673193359375,-0.565338134765625,-0.7537689208984375,0.14581298828125
1761914536924788000,4.5667880859375,-0.5853271484375,-0.7617950439453125,0.1365509033203125
1761914536934844000,4.576843994140625,-0.5966339111328125,-0.76361083984375,0.1278076171875
1761914536944895200,4.586895263671875,-0.607147216796875,-0.7586822509765625,0.1162109375
1761914536954954200,4.596954345703125,-0.622802734375,-0.7496490478515625,0.10772705078125
1761914536965010200,4.60701025390625,-0.638397216796875,-0.735198974609375,0.0982666015625
1761914536975065300,4.6170654296875,-0.641510009765625,-0.722259521484375,0.0960235595703125
1761914536985121300,4.627121337890625,-0.6385345458984375,-0.731964111328125,0.1043548583984375
1761914536995177200,4.63717724609375,-0.6613006591796875,-0.7392425537109375,0.1112823486328125
1761914537005233200,4.647233154296875,-0.7005462646484375,-0.7304229736328125,0.111602783203125
1761914537015288000,4.6572880859375,-0.7295989990234375,-0.7330169677734375,0.1167755126953125
1761914537025344300,4.66734423828125,-0.762481689453125,-0.758453369140625,0.121917724609375
1761914537035400200,4.677400146484375,-0.8096466064453125,-0.7684478759765625,0.1166839599609375
1761914537045455000,4.687455078125,-0.8405609130859375,-0.7519378662109375,0.1063690185546875
1761914537055511300,4.69751123046875,-0.832794189453125,-0.733154296875,0.0987091064453125
1761914537065567200,4.707567138671875,-0.8189849853515625,-0.7201385498046875,0.0996856689453125
1761914537075622100,4.7176220703125,-0.837799072265625,-0.6976776123046875,0.0977020263671875
1761914537085678000,4.727677978515625,-0.8520965576171875,-0.6612091064453125,0.0831298828125
1761914537095734000,4.737734130859375,-0.8383636474609375,-0.6331634521484375,0.0666046142578125
1761914537105789200,4.7477890625,-0.8014984130859375,-0.6193389892578125,0.050994873046875
1761914537115845000,4.75784521484375,-0.7701873779296875,-0.619293212890625,0.0447845458984375
1761914537125901300,4.7679013671875,-0.771087646484375,-0.63787841796875,0.045013427734375
1761914537135956000,4.7779560546875,-0.798614501953125,-0.6772003173828125,0.05694580078125
1761914537146012200,4.78801220703125,-0.8201751708984375,-0.7285003662109375,0.0825653076171875
1761914537156068000,4.798068115234375,-0.8199310302734375,-0.784637451171875,0.1103973388671875
1761914537166124000,4.8081240234375,-0.812652587890625,-0.8312835693359375,0.1373748779296875
1761914537176179200,4.81817919921875,-0.8121185302734375,-0.864837646484375,0.1611328125
1761914537186235100,4.828235107421875,-0.81732177734375,-0.8799896240234375,0.172882080078125
1761914537196291300,4.838291259765625,-0.8266754150390625,-0.8719329833984375,0.1729888916015625
1761914537206346200,4.84834619140625,-0.8199310302734375,-0.850372314453125,0.1688232421875
1761914537216402200,4.858402099609375,-0.801727294921875,-0.8241729736328125,0.168731689453125
1761914537226458000,4.8684580078125,-0.7881622314453125,-0.7899627685546875,0.1759490966796875
1761914537236513000,4.878512939453125,-0.78460693359375,-0.760498046875,0.18719482421875
1761914537246569200,4.8885693359375,-0.7747039794921875,-0.7350006103515625,0.19207763671875
1761914537256625200,4.898625244140625,-0.739227294921875,-0.7166900634765625,0.1917724609375
1761914537266680300,4.908680419921875,-0.70269775390625,-0.709930419921875,0.18634033203125
1761914537276736300,4.918736328125,-0.6738128662109375,-0.708892822265625,0.17913818359375
1761914537286792000,4.9287919921875,-0.65167236328125,-0.707611083984375,0.1712188720703125
1761914537296848100,4.93884814453125,-0.63916015625,-0.70623779296875,0.1706695556640625
1761914537306903000,4.948903076171875,-0.6263885498046875,-0.7101593017578125,0.1755523681640625
1761914537316959200,4.958959228515625,-0.622161865234375,-0.7174072265625,0.1810455322265625
1761914537327015200,4.96901513671875,-0.6089324951171875,-0.717864990234375,0.18328857421875
1761914537337070300,4.9790703125,-0.589569091796875,-0.716278076171875,0.1889495849609375
1761914537347126300,4.989126220703125,-0.576202392578125,-0.71527099609375,0.19781494140625
1761914537357182200,4.99918212890625,-0.5676422119140625,-0.7109527587890625,0.2056121826171875
1761914537367237000,5.009237060546875,-0.567901611328125,-0.7025146484375,0.21514892578125
1761914537377293000,5.01929296875,-0.570526123046875,-0.6974029541015625,0.2304840087890625
1761914537387349200,5.029349365234375,-0.575042724609375,-0.700775146484375,0.2457122802734375
1761914537397404200,5.039404052734375,-0.58258056640625,-0.699615478515625,0.260833740234375
1761914537407460000,5.049460205078125,-0.5815887451171875,-0.690338134765625,0.27117919921875
1761914537417516300,5.059516357421875,-0.5795440673828125,-0.6751556396484375,0.2706451416015625
1761914537427571000,5.069571044921875,-0.58642578125,-0.6551513671875,0.259063720703125
1761914537437627100,5.079627197265625,-0.5948944091796875,-0.634735107421875,0.2436065673828125
1761914537447683000,5.08968310546875,-0.598236083984375,-0.6113128662109375,0.2268218994140625
1761914537457739000,5.099739013671875,-0.59942626953125,-0.5906219482421875,0.211578369140625
1761914537467794200,5.109794189453125,-0.611480712890625,-0.5766754150390625,0.1990203857421875
1761914537477850000,5.11985009765625,-0.6144866943359375,-0.572021484375,0.1885986328125
1761914537487906300,5.12990625,-0.611480712890625,-0.5732879638671875,0.1797637939453125
1761914537497961000,5.1399609375,-0.6158599853515625,-0.5769195556640625,0.1670379638671875
1761914537508017200,5.15001708984375,-0.6213836669921875,-0.5850982666015625,0.1529388427734375
1761914537518073000,5.160072998046875,-0.617889404296875,-0.59564208984375,0.1392822265625
1761914537528128300,5.170128173828125,-0.6123504638671875,-0.6037445068359375,0.129119873046875
1761914537538184200,5.18018408203125,-0.620147705078125,-0.61328125,0.1230010986328125
1761914537548240100,5.190240234375,-0.628814697265625,-0.6260833740234375,0.1191253662109375
1761914537558295300,5.20029541015625,-0.6308746337890625,-0.6365203857421875,0.1176910400390625
1761914537568351200,5.210351318359375,-0.6407623291015625,-0.6485137939453125,0.1228179931640625
1761914537578407200,5.2204072265625,-0.6466217041015625,-0.6822052001953125,0.14056396484375
1761914537588463000,5.230463134765625,-0.6477813720703125,-0.7381134033203125,0.163970947265625
1761914537598518000,5.24051806640625,-0.6652069091796875,-0.7742767333984375,0.1768646240234375
1761914537608574200,5.25057421875,-0.6823883056640625,-0.7761077880859375,0.17816162109375
1761914537618630100,5.260630126953125,-0.6819305419921875,-0.775665283203125,0.1795806884765625
1761914537628685300,5.270685302734375,-0.670867919921875,-0.78790283203125,0.188568115234375
1761914537638741200,5.2807412109375,-0.66693115234375,-0.79412841796875,0.197967529296875
1761914537648797000,5.290796875,-0.66888427734375,-0.782806396484375,0.2036590576171875
1761914537658852000,5.30085205078125,-0.6762847900390625,-0.767364501953125,0.21063232421875
1761914537668908000,5.310907958984375,-0.6964874267578125,-0.748077392578125,0.2107086181640625
1761914537678964200,5.320964111328125,-0.71551513671875,-0.7162322998046875,0.1950225830078125
1761914537689019100,5.33101904296875,-0.7347564697265625,-0.670196533203125,0.16241455078125
1761914537699075300,5.341075439453125,-0.7591400146484375,-0.616607666015625,0.1193695068359375
1761914537709131300,5.35113134765625,-0.7900238037109375,-0.5694732666015625,0.07586669921875
1761914537719186200,5.361186279296875,-0.8077392578125,-0.5325469970703125,0.0345916748046875
1761914537729242000,5.3712421875,-0.8100433349609375,-0.5165557861328125,0.0087432861328125
1761914537739298000,5.381298095703125,-0.811737060546875,-0.529296875,0.004119873046875
1761914537749354200,5.391354248046875,-0.8144073486328125,-0.546783447265625,0.0174560546875
1761914537759409200,5.4014091796875,-0.8161163330078125,-0.5542755126953125,0.0392608642578125
1761914537769465000,5.411465087890625,-0.8287200927734375,-0.5645751953125,0.059112548828125
1761914537779521300,5.421521240234375,-0.8511199951171875,-0.5998382568359375,0.0816497802734375
1761914537789576000,5.431575927734375,-0.862091064453125,-0.6552886962890625,0.10430908203125
1761914537799632100,5.441632080078125,-0.85711669921875,-0.717437744140625,0.12420654296875
1761914537809688000,5.45168798828125,-0.8438720703125,-0.7717742919921875,0.1497344970703125
1761914537819743200,5.4617431640625,-0.8487091064453125,-0.7932586669921875,0.164459228515625
1761914537829799200,5.471799072265625,-0.868865966796875,-0.780975341796875,0.166229248046875
1761914537839855000,5.481855224609375,-0.8773193359375,-0.7526702880859375,0.152313232421875
1761914537849910300,5.49191015625,-0.866790771484375,-0.7224273681640625,0.1233978271484375
1761914537859966000,5.501966064453125,-0.85198974609375,-0.689483642578125,0.0859832763671875
1761914537870022100,5.512022216796875,-0.8516845703125,-0.6564483642578125,0.061004638671875
1761914537880078000,5.522078125,-0.853363037109375,-0.6234130859375,0.046142578125
1761914537890133200,5.53213330078125,-0.8441162109375,-0.5912628173828125,0.0261383056640625
1761914537900189200,5.542189208984375,-0.835662841796875,-0.5656280517578125,0.0088043212890625
1761914537910245000,5.5522451171875,-0.81451416015625,-0.5580902099609375,-0.0006561279296875
1761914537920300300,5.56230029296875,-0.7913665771484375,-0.562164306640625,-0.001861572265625
1761914537930356200,5.572356201171875,-0.7778472900390625,-0.577117919921875,0.009063720703125
1761914537940411600,5.58241162109375,-0.7762298583984375,-0.5899810791015625,0.033447265625
1761914537950466600,5.592466552734375,-0.7765045166015625,-0.591217041015625,0.056854248046875
1761914537960522800,5.602522705078125,-0.7734375,-0.5898284912109375,0.0718994140625
1761914537970578700,5.61257861328125,-0.761260986328125,-0.5911865234375,0.082733154296875
1761914537980633900,5.6226337890625,-0.747039794921875,-0.5894927978515625,0.0973052978515625
1761914537990689800,5.632689697265625,-0.741455078125,-0.5805511474609375,0.1139068603515625
1761914538000745700,5.642745849609375,-0.73504638671875,-0.572021484375,0.1307220458984375
1761914538010801700,5.6528017578125,-0.723297119140625,-0.5684967041015625,0.1476593017578125
1761914538020856600,5.662856689453125,-0.7095947265625,-0.572265625,0.1631317138671875
1761914538030912500,5.67291259765625,-0.6969451904296875,-0.5800933837890625,0.176300048828125
1761914538040968700,5.68296875,-0.6838226318359375,-0.5838775634765625,0.184783935546875
1761914538051023600,5.693023681640625,-0.6720123291015625,-0.581298828125,0.1912078857421875
1761914538061079800,5.703079833984375,-0.66302490234375,-0.57861328125,0.198028564453125
1761914538071135700,5.7131357421875,-0.656524658203125,-0.5724029541015625,0.2028961181640625
1761914538081190700,5.723190673828125,-0.6510772705078125,-0.568023681640625,0.208648681640625
1761914538091246600,5.73324658203125,-0.6579437255859375,-0.565460205078125,0.21405029296875
1761914538101302500,5.743302490234375,-0.67425537109375,-0.5652008056640625,0.2156829833984375
1761914538111358700,5.753358642578125,-0.699066162109375,-0.5643157958984375,0.2150115966796875
1761914538121413600,5.76341357421875,-0.7234649658203125,-0.5634918212890625,0.2134857177734375
1761914538131469800,5.7734697265625,-0.726409912109375,-0.5575103759765625,0.2109222412109375
1761914538141525800,5.78352587890625,-0.726806640625,-0.5469970703125,0.2098846435546875
1761914538151580700,5.79358056640625,-0.7398834228515625,-0.5312347412109375,0.2058563232421875
1761914538161636600,5.80363671875,-0.75946044921875,-0.512542724609375,0.1968536376953125
1761914538171692500,5.813692626953125,-0.7776336669921875,-0.49609375,0.1856231689453125
1761914538181747700,5.823747802734375,-0.8000335693359375,-0.498382568359375,0.1845550537109375
1761914538191803600,5.8338037109375,-0.8033599853515625,-0.5443572998046875,0.2080078125
1761914538201859800,5.84385986328125,-0.78204345703125,-0.6507110595703125,0.2644805908203125
1761914538211914500,5.85391455078125,-0.7882232666015625,-0.774444580078125,0.319091796875
1761914538221970400,5.863970458984375,-0.8827667236328125,-0.8123016357421875,0.33111572265625
1761914538232026600,5.874026611328125,-1.004547119140625,-0.8075408935546875,0.3296356201171875
1761914538242082600,5.88408251953125,-1.0259246826171875,-0.8270111083984375,0.3274383544921875
1761914538252137700,5.8941376953125,-0.967926025390625,-0.825103759765625,0.3174896240234375
1761914538262193700,5.904193603515625,-0.9249420166015625,-0.77301025390625,0.2910919189453125
1761914538272249600,5.91424951171875,-0.9165191650390625,-0.688079833984375,0.2619171142578125
1761914538282304800,5.9243046875,-0.9045867919921875,-0.595184326171875,0.2260284423828125
1761914538292360400,5.9343603515625,-0.868621826171875,-0.5256805419921875,0.1929168701171875
1761914538302416600,5.944416748046875,-0.818756103515625,-0.5052490234375,0.1749725341796875
1761914538312471600,5.954471435546875,-0.773468017578125,-0.524017333984375,0.18658447265625
1761914538322527700,5.96452783203125,-0.79095458984375,-0.5629119873046875,0.2255859375
1761914538332583700,5.974583740234375,-0.8575439453125,-0.588165283203125,0.26885986328125
1761914538342638800,5.984638916015625,-0.9074554443359375,-0.605712890625,0.30029296875
1761914538352694800,5.99469482421875,-0.9254913330078125,-0.6377105712890625,0.32464599609375
1761914538362750700,6.004750732421875,-0.9371185302734375,-0.663116455078125,0.34039306640625
1761914538372806700,6.014806640625,-0.9459381103515625,-0.6671600341796875,0.3462982177734375
1761914538382861600,6.024861572265625,-0.94476318359375,-0.6668701171875,0.35205078125
1761914538392917800,6.034917724609375,-0.939910888671875,-0.6585540771484375,0.35546875
1761914538402973700,6.0449736328125,-0.9265289306640625,-0.6245880126953125,0.35321044921875
1761914538413028600,6.055028564453125,-0.9150238037109375,-0.57391357421875,0.342681884765625
1761914538423084800,6.065084716796875,-0.900360107421875,-0.5374298095703125,0.3302459716796875
1761914538433140700,6.075140625,-0.867706298828125,-0.520233154296875,0.3231658935546875
1761914538443195600,6.085195556640625,-0.839141845703125,-0.5068206787109375,0.3172607421875
1761914538453251600,6.09525146484375,-0.8040313720703125,-0.4960784912109375,0.311676025390625
1761914538463307500,6.1053076171875,-0.7646331787109375,-0.4914093017578125,0.3076629638671875
1761914538473362700,6.11536279296875,-0.7332611083984375,-0.4946746826171875,0.3047027587890625
1761914538483418600,6.125418701171875,-0.7085113525390625,-0.50250244140625,0.3000030517578125
1761914538493474800,6.135474853515625,-0.6859130859375,-0.519744873046875,0.298553466796875
1761914538503530800,6.14553076171875,-0.6739501953125,-0.539398193359375,0.301971435546875
1761914538513585700,6.155585693359375,-0.6654205322265625,-0.5620574951171875,0.3065185546875
1761914538523641600,6.1656416015625,-0.6484832763671875,-0.5769500732421875,0.3098297119140625
1761914538533697500,6.175697509765625,-0.63055419921875,-0.5841827392578125,0.3138580322265625
1761914538543752700,6.185752685546875,-0.6313629150390625,-0.588409423828125,0.3145294189453125
1761914538553808600,6.19580859375,-0.655029296875,-0.5950927734375,0.3104400634765625
1761914538563864800,6.20586474609375,-0.67822265625,-0.598876953125,0.3072052001953125
1761914538573919700,6.215919677734375,-0.7012481689453125,-0.5928192138671875,0.30206298828125
1761914538583975700,6.2259755859375,-0.715179443359375,-0.582763671875,0.291839599609375
1761914538594031600,6.236031494140625,-0.7177276611328125,-0.5711822509765625,0.2811431884765625
1761914538604087600,6.246087646484375,-0.725860595703125,-0.55889892578125,0.2716522216796875
1761914538614142700,6.256142822265625,-0.74432373046875,-0.5556488037109375,0.2599029541015625
1761914538624198700,6.26619873046875,-0.7724456787109375,-0.548828125,0.241668701171875
1761914538634254600,6.276254638671875,-0.8112030029296875,-0.5386505126953125,0.22015380859375
1761914538644309800,6.286309814453125,-0.8467254638671875,-0.531036376953125,0.191436767578125
1761914538654365400,6.296365478515625,-0.8717803955078125,-0.5201263427734375,0.1600494384765625
1761914538664421600,6.306421630859375,-0.88323974609375,-0.5042877197265625,0.1336669921875
1761914538674476500,6.3164765625,-0.8928375244140625,-0.5011138916015625,0.1185302734375
1761914538684532700,6.32653271484375,-0.893890380859375,-0.5109405517578125,0.114593505859375
1761914538694588700,6.336588623046875,-0.899993896484375,-0.525634765625,0.11541748046875
1761914538704643800,6.346643798828125,-0.91497802734375,-0.546905517578125,0.115386962890625
1761914538714699800,6.35669970703125,-0.9235992431640625,-0.558929443359375,0.112518310546875
1761914538724755700,6.366755615234375,-0.912353515625,-0.5716400146484375,0.1109771728515625
1761914538734811600,6.376811767578125,-0.874267578125,-0.618011474609375,0.1289825439453125
1761914538744866600,6.386866455078125,-0.8242950439453125,-0.685546875,0.160369873046875
1761914538754922800,6.3969228515625,-0.7805023193359375,-0.7369842529296875,0.183929443359375
1761914538764978700,6.406978759765625,-0.75079345703125,-0.74700927734375,0.1983795166015625
1761914538775033600,6.41703369140625,-0.7205047607421875,-0.7346038818359375,0.20281982421875
1761914538785089800,6.42708984375,-0.6943817138671875,-0.7323455810546875,0.2130889892578125
1761914538795145700,6.437145751953125,-0.68377685546875,-0.7461090087890625,0.2281646728515625
1761914538805200600,6.44720068359375,-0.7026214599609375,-0.7508087158203125,0.23974609375
1761914538815256600,6.457256591796875,-0.7449493408203125,-0.7335968017578125,0.240966796875
1761914538825312500,6.4673125,-0.77734375,-0.7019195556640625,0.2265167236328125
1761914538835367700,6.47736767578125,-0.7872467041015625,-0.668426513671875,0.19549560546875
1761914538845423600,6.487423583984375,-0.7953338623046875,-0.6386871337890625,0.16009521484375
1761914538855479800,6.497479736328125,-0.8069610595703125,-0.60418701171875,0.13592529296875
1761914538865535700,6.50753564453125,-0.8213653564453125,-0.56988525390625,0.10784912109375
1761914538875590700,6.517590576171875,-0.83636474609375,-0.5465545654296875,0.0853118896484375
1761914538885646600,6.527646484375,-0.8282012939453125,-0.5306549072265625,0.07598876953125
1761914538895702500,6.53770263671875,-0.809326171875,-0.5191497802734375,0.0845947265625
1761914538905757700,6.5477578125,-0.8076324462890625,-0.5122528076171875,0.109039306640625
1761914538915813600,6.557813720703125,-0.8185882568359375,-0.52301025390625,0.13836669921875
1761914538925869800,6.567869873046875,-0.8121490478515625,-0.5473785400390625,0.1717071533203125
1761914538935928000,6.577927978515625,-0.8009796142578125,-0.583770751953125,0.212371826171875
1761914538945984000,6.58798388671875,-0.8009490966796875,-0.6257476806640625,0.2569580078125
1761914538956040200,6.598040283203125,-0.806182861328125,-0.66632080078125,0.302459716796875
1761914538966095000,6.60809521484375,-0.8144378662109375,-0.692779541015625,0.3380889892578125
1761914538976151300,6.6181513671875,-0.8274383544921875,-0.69000244140625,0.3470458984375
1761914538986207000,6.62820703125,-0.8260345458984375,-0.6523895263671875,0.3264617919921875
1761914538996263000,6.638262939453125,-0.8005523681640625,-0.5949249267578125,0.2816009521484375
1761914539006318000,6.648318115234375,-0.7703704833984375,-0.53802490234375,0.23370361328125
1761914539016374000,6.6583740234375,-0.73760986328125,-0.49835205078125,0.2020721435546875
1761914539026430200,6.66843017578125,-0.696441650390625,-0.4712982177734375,0.182464599609375
1761914539036485000,6.678485107421875,-0.6577606201171875,-0.459259033203125,0.17144775390625
1761914539046541300,6.688541259765625,-0.6417236328125,-0.460174560546875,0.1696014404296875
1761914539056597000,6.698596923828125,-0.6379241943359375,-0.470977783203125,0.175262451171875
1761914539066652200,6.708652099609375,-0.619415283203125,-0.4789276123046875,0.1774749755859375
1761914539076708000,6.7187080078125,-0.5933837890625,-0.4899139404296875,0.1866607666015625
1761914539086764000,6.728763916015625,-0.5752105712890625,-0.5130462646484375,0.204254150390625
1761914539096819200,6.738819091796875,-0.562103271484375,-0.544830322265625,0.2206573486328125
1761914539106875100,6.748875244140625,-0.55572509765625,-0.5717010498046875,0.2296905517578125
1761914539116931300,6.758931396484375,-0.5648651123046875,-0.5826873779296875,0.228363037109375
1761914539126987300,6.7689873046875,-0.5752410888671875,-0.58599853515625,0.2152252197265625
1761914539137042000,6.7790419921875,-0.571502685546875,-0.5833282470703125,0.2076568603515625
1761914539147098000,6.78909814453125,-0.562957763671875,-0.570831298828125,0.210662841796875
1761914539157154000,6.799154052734375,-0.547210693359375,-0.55841064453125,0.22265625
1761914539167209200,6.809209228515625,-0.5309906005859375,-0.559051513671875,0.244720458984375
1761914539177265200,6.81926513671875,-0.5238494873046875,-0.5734405517578125,0.268463134765625
1761914539187321000,6.829321044921875,-0.5198211669921875,-0.592193603515625,0.2899169921875
1761914539197376000,6.8393759765625,-0.52313232421875,-0.6085205078125,0.3119354248046875
1761914539207432000,6.849431884765625,-0.54010009765625,-0.631683349609375,0.33343505859375
1761914539217488100,6.859488037109375,-0.55029296875,-0.653656005859375,0.3579254150390625
1761914539227543000,6.86954296875,-0.5485687255859375,-0.666656494140625,0.3763580322265625
1761914539237599200,6.87959912109375,-0.56005859375,-0.673187255859375,0.3896636962890625
1761914539247655200,6.8896552734375,-0.589569091796875,-0.6849517822265625,0.406829833984375
1761914539257711000,6.899711181640625,-0.6272735595703125,-0.69732666015625,0.4225006103515625
1761914539267766000,6.90976611328125,-0.67474365234375,-0.703399658203125,0.4308624267578125
1761914539277822000,6.919822021484375,-0.73504638671875,-0.7039794921875,0.4287872314453125
1761914539287878100,6.929878173828125,-0.79852294921875,-0.705291748046875,0.4163665771484375
1761914539297933000,6.93993310546875,-0.8531494140625,-0.7079010009765625,0.3927764892578125
1761914539307989200,6.9499892578125,-0.88623046875,-0.7047271728515625,0.3584442138671875
1761914539318045200,6.960045166015625,-0.9048614501953125,-0.6895904541015625,0.3131103515625
1761914539328100000,6.97010009765625,-0.9334869384765625,-0.6678619384765625,0.268096923828125
1761914539338156300,6.98015625,-0.973419189453125,-0.660247802734375,0.2269134521484375
1761914539348212000,6.9902119140625,-1.011016845703125,-0.6651763916015625,0.1982421875
1761914539358267100,7.00026708984375,-1.022674560546875,-0.6684722900390625,0.1858978271484375
1761914539368323000,7.010322998046875,-1.0182342529296875,-0.6631317138671875,0.1853790283203125
1761914539378379000,7.02037890625,-1.032623291015625,-0.649932861328125,0.2026824951171875
1761914539388435200,7.030435302734375,-1.0413055419921875,-0.6477508544921875,0.22027587890625
1761914539398490000,7.040489990234375,-1.0023345947265625,-0.673126220703125,0.2397003173828125
1761914539408546300,7.05054638671875,-0.9582672119140625,-0.6904144287109375,0.255767822265625
1761914539418602200,7.060602294921875,-0.920074462890625,-0.684417724609375,0.27484130859375
1761914539428657200,7.0706572265625,-0.8841552734375,-0.688232421875,0.3201141357421875
1761914539438713000,7.080713134765625,-0.885162353515625,-0.7164459228515625,0.3883056640625
1761914539448769000,7.09076904296875,-0.9251251220703125,-0.7477264404296875,0.4544525146484375
1761914539458824200,7.10082421875,-0.9756317138671875,-0.7589263916015625,0.480010986328125
1761914539468880100,7.110880126953125,-0.99078369140625,-0.7384033203125,0.4629058837890625
1761914539478936300,7.120936279296875,-0.9542694091796875,-0.68499755859375,0.4098052978515625
1761914539488991000,7.130990966796875,-0.9264678955078125,-0.6370391845703125,0.3480072021484375
1761914539499047200,7.141047119140625,-0.9144134521484375,-0.5830841064453125,0.2847747802734375
1761914539509103000,7.15110302734375,-0.8843536376953125,-0.52362060546875,0.2261962890625
1761914539519159000,7.161158935546875,-0.8243255615234375,-0.4832611083984375,0.185638427734375
1761914539529214200,7.171214111328125,-0.765472412109375,-0.4699249267578125,0.171539306640625
1761914539539270100,7.181270263671875,-0.755645751953125,-0.47021484375,0.1880645751953125
1761914539549326000,7.191326171875,-0.8101348876953125,-0.4697265625,0.212890625
1761914539559381000,7.201381103515625,-0.8285064697265625,-0.4600372314453125,0.234100341796875
1761914539569437000,7.21143701171875,-0.7942657470703125,-0.4493560791015625,0.246246337890625
1761914539579493000,7.2214931640625,-0.778106689453125,-0.460662841796875,0.2509613037109375
1761914539589548000,7.231548095703125,-0.7796173095703125,-0.49200439453125,0.2557220458984375
1761914539599604200,7.241604248046875,-0.7712554931640625,-0.51812744140625,0.265350341796875
1761914539609660200,7.25166015625,-0.7565155029296875,-0.53399658203125,0.2738037109375
1761914539619716000,7.261716064453125,-0.7407379150390625,-0.5442352294921875,0.2691497802734375
1761914539629771000,7.27177099609375,-0.737091064453125,-0.5391082763671875,0.2454071044921875
1761914539639827000,7.281826904296875,-0.7408905029296875,-0.52398681640625,0.2122802734375
1761914539649883100,7.291883056640625,-0.73834228515625,-0.5043182373046875,0.179595947265625
1761914539659938000,7.30193798828125,-0.73138427734375,-0.48602294921875,0.151336669921875
1761914539669994200,7.311994140625,-0.716217041015625,-0.4737396240234375,0.1309967041015625
1761914539680050200,7.32205029296875,-0.7008819580078125,-0.467529296875,0.1201324462890625
1761914539690105000,7.33210498046875,-0.69268798828125,-0.4729156494140625,0.11553955078125
1761914539700161300,7.342161376953125,-0.6910858154296875,-0.48956298828125,0.1141357421875
1761914539710217000,7.352217041015625,-0.697723388671875,-0.5074005126953125,0.1111907958984375
1761914539720272100,7.362272216796875,-0.705474853515625,-0.5076751708984375,0.104156494140625
1761914539730328000,7.372328125,-0.7006683349609375,-0.49951171875,0.0919952392578125
1761914539740384000,7.382384033203125,-0.690277099609375,-0.4977874755859375,0.085906982421875
1761914539750439200,7.392439208984375,-0.67010498046875,-0.5074310302734375,0.0903167724609375
1761914539760495000,7.4024951171875,-0.6498260498046875,-0.52764892578125,0.101531982421875
1761914539770551300,7.41255126953125,-0.6378173828125,-0.5563201904296875,0.1147918701171875
1761914539780607200,7.422607177734375,-0.638824462890625,-0.5815887451171875,0.1260223388671875
1761914539790662100,7.432662109375,-0.654205322265625,-0.5966339111328125,0.1302642822265625
1761914539800718000,7.442718017578125,-0.6691436767578125,-0.6018829345703125,0.12750244140625
1761914539810774000,7.45277392578125,-0.674072265625,-0.5972442626953125,0.1239776611328125
1761914539820829200,7.4628291015625,-0.6698150634765625,-0.583953857421875,0.1195220947265625
1761914539830885000,7.472885009765625,-0.670074462890625,-0.57623291015625,0.1180877685546875
1761914539840941300,7.48294140625,-0.6810455322265625,-0.5782012939453125,0.1235809326171875
1761914539850996000,7.492995849609375,-0.6979217529296875,-0.584228515625,0.1277618408203125
1761914539861052200,7.50305224609375,-0.7069244384765625,-0.592041015625,0.1293487548828125
1761914539871108000,7.513108154296875,-0.7171783447265625,-0.601165771484375,0.132476806640625
1761914539881163000,7.5231630859375,-0.7408599853515625,-0.60626220703125,0.1317138671875
1761914539891219200,7.53321923828125,-0.7789306640625,-0.6092376708984375,0.12786865234375
1761914539901275100,7.543275146484375,-0.80169677734375,-0.613067626953125,0.1191864013671875
1761914539911331000,7.5533310546875,-0.80322265625,-0.6189422607421875,0.11102294921875
1761914539921386000,7.563385986328125,-0.8105621337890625,-0.624420166015625,0.101776123046875
1761914539931442000,7.57344189453125,-0.839019775390625,-0.6263580322265625,0.0884552001953125
1761914539941495000,7.5834951171875,-0.8678436279296875,-0.6275482177734375,0.0731658935546875
1761914539951549700,7.5935498046875,-0.89447021484375,-0.627349853515625,0.0587310791015625
1761914539961606000,7.60360595703125,-0.9168853759765625,-0.626434326171875,0.042816162109375
1761914539971661800,7.613661865234375,-0.9241180419921875,-0.6278533935546875,0.02520751953125
1761914539981717000,7.623717041015625,-0.9168701171875,-0.6325836181640625,0.0102386474609375
1761914539991773000,7.63377294921875,-0.8895111083984375,-0.6342010498046875,0.0008087158203125
1761914540001828900,7.643828857421875,-0.8547210693359375,-0.642486572265625,0.004913330078125
1761914540011884000,7.653884033203125,-0.8399505615234375,-0.6701812744140625,0.025299072265625
1761914540021939700,7.663939697265625,-0.84259033203125,-0.7075042724609375,0.0470428466796875
1761914540031995600,7.67399560546875,-0.8497161865234375,-0.736602783203125,0.0619964599609375
1761914540042051800,7.6840517578125,-0.8592376708984375,-0.752685546875,0.069488525390625
1761914540052106800,7.694106689453125,-0.8827667236328125,-0.74908447265625,0.0613250732421875
1761914540062163000,7.704162841796875,-0.90740966796875,-0.7284393310546875,0.037078857421875
1761914540072219000,7.714218994140625,-0.904296875,-0.7036895751953125,0.0030364990234375
1761914540082274000,7.724274169921875,-0.898895263671875,-0.67498779296875,-0.030120849609375
1761914540092330000,7.734330078125,-0.9159088134765625,-0.6460113525390625,-0.0546112060546875
1761914540102385700,7.7443857421875,-0.932861328125,-0.610748291015625,-0.0765533447265625
1761914540112440800,7.75444091796875,-0.9416961669921875,-0.57379150390625,-0.0989837646484375
1761914540122496800,7.764496826171875,-0.9290771484375,-0.541595458984375,-0.1192779541015625
1761914540132553000,7.774552978515625,-0.897369384765625,-0.5135498046875,-0.132354736328125
1761914540142608000,7.78460791015625,-0.8565826416015625,-0.49456787109375,-0.132293701171875
1761914540152664000,7.7946640625,-0.83856201171875,-0.494964599609375,-0.108978271484375
1761914540162720000,7.804719970703125,-0.843292236328125,-0.5079193115234375,-0.0661163330078125
1761914540172775700,7.814775634765625,-0.83782958984375,-0.5213470458984375,-0.0326690673828125
1761914540182830800,7.824830810546875,-0.819244384765625,-0.540771484375,-0.00799560546875
1761914540192886800,7.83488671875,-0.7906036376953125,-0.5695037841796875,0.0101470947265625
1761914540202943000,7.84494287109375,-0.76171875,-0.597137451171875,0.0213775634765625
1761914540212998000,7.854997802734375,-0.7472381591796875,-0.6161651611328125,0.024993896484375
1761914540223053800,7.8650537109375,-0.7504730224609375,-0.6254425048828125,0.0185546875
1761914540233110000,7.875110107421875,-0.7568511962890625,-0.6255340576171875,0.0041046142578125
1761914540243164700,7.88516455078125,-0.7490692138671875,-0.61822509765625,-0.01763916015625
1761914540253220900,7.895220947265625,-0.729705810546875,-0.603271484375,-0.042572021484375
1761914540263276800,7.90527685546875,-0.7185211181640625,-0.5823211669921875,-0.06585693359375
1761914540273332000,7.91533203125,-0.7147369384765625,-0.566253662109375,-0.0835723876953125
1761914540283388000,7.925387939453125,-0.7011566162109375,-0.5577239990234375,-0.0977935791015625
1761914540293443800,7.93544384765625,-0.6855010986328125,-0.5494537353515625,-0.1125030517578125
1761914540303500000,7.9455,-0.680755615234375,-0.5415191650390625,-0.126953125
1761914540313554700,7.9555546875,-0.682037353515625,-0.5372161865234375,-0.14013671875
1761914540323611000,7.96561083984375,-0.677703857421875,-0.5408935546875,-0.1476287841796875
1761914540333666800,7.975666748046875,-0.6627960205078125,-0.5530242919921875,-0.1419219970703125
1761914540343722000,7.985721923828125,-0.6429901123046875,-0.57476806640625,-0.124664306640625
1761914540353778000,7.99577783203125,-0.6352996826171875,-0.5957183837890625,-0.1020965576171875
1761914540363833900,8.005833740234374,-0.6406402587890625,-0.6139678955078125,-0.081390380859375
1761914540373886000,8.015885986328126,-0.6439361572265625,-0.6340789794921875,-0.0587310791015625
1761914540383942000,8.02594189453125,-0.64483642578125,-0.651275634765625,-0.0366363525390625
1761914540393997800,8.035997802734375,-0.6529693603515625,-0.6617431640625,-0.01666259765625
1761914540404054000,8.046053955078126,-0.6612396240234375,-0.6658935546875,-0.000885009765625
1761914540414108700,8.056108642578126,-0.6493988037109375,-0.66790771484375,0.0104217529296875
1761914540424164900,8.066164794921875,-0.632171630859375,-0.6745758056640625,0.024566650390625
1761914540434220800,8.076220703125,-0.627197265625,-0.680328369140625,0.0395660400390625
1761914540444276000,8.08627587890625,-0.63482666015625,-0.682891845703125,0.0561370849609375
1761914540454332000,8.096331787109374,-0.6465911865234375,-0.6889495849609375,0.0733489990234375
1761914540464387800,8.106387939453125,-0.6580810546875,-0.6937255859375,0.087249755859375
1761914540474443000,8.116443115234375,-0.6710205078125,-0.6979522705078125,0.096710205078125
1761914540484499000,8.1264990234375,-0.6847076416015625,-0.700347900390625,0.1051177978515625
1761914540494555000,8.136554931640624,-0.701995849609375,-0.7031097412109375,0.1141204833984375
1761914540504609800,8.14660986328125,-0.7336578369140625,-0.700775146484375,0.1223602294921875
1761914540514665700,8.156665771484375,-0.7845611572265625,-0.69378662109375,0.128875732421875
1761914540524722000,8.166721923828124,-0.819244384765625,-0.69110107421875,0.1280975341796875
1761914540534777900,8.17677783203125,-0.8415069580078125,-0.691162109375,0.12445068359375
1761914540544833000,8.1868330078125,-0.8674163818359375,-0.7003326416015625,0.12353515625
1761914540554889000,8.196888916015626,-0.8744049072265625,-0.71783447265625,0.124114990234375
1761914540564944600,8.206944580078124,-0.879608154296875,-0.731292724609375,0.1280517578125
1761914540574999800,8.216999755859375,-0.927520751953125,-0.740478515625,0.142578125
1761914540585055700,8.2270556640625,-0.9910888671875,-0.760162353515625,0.1711578369140625
1761914540595112000,8.23711181640625,-1.0256805419921875,-0.7924041748046875,0.20697021484375
1761914540605166800,8.247166748046874,-1.0298614501953125,-0.813018798828125,0.2366943359375
1761914540615223000,8.25722314453125,-1.0233612060546875,-0.807342529296875,0.2464447021484375
1761914540625279000,8.267279052734375,-1.0125885009765625,-0.7738189697265625,0.2245330810546875
1761914540635334000,8.277333984375,-0.9765167236328125,-0.7332611083984375,0.1758575439453125
1761914540645389800,8.287389892578124,-0.9315338134765625,-0.686004638671875,0.1212615966796875
1761914540655445800,8.29744580078125,-0.8961029052734375,-0.6259918212890625,0.08135986328125
1761914540665501000,8.3075009765625,-0.8511199951171875,-0.5679779052734375,0.049652099609375
1761914540675556900,8.317556884765626,-0.8076171875,-0.5333404541015625,0.0296783447265625
1761914540685612800,8.32761279296875,-0.7784423828125,-0.5240936279296875,0.0307769775390625
1761914540695669000,8.3376689453125,-0.755401611328125,-0.5388946533203125,0.0510711669921875
1761914540705723600,8.3477236328125,-0.7463226318359375,-0.5642547607421875,0.0933837890625
1761914540715779800,8.35777978515625,-0.7541656494140625,-0.58056640625,0.132659912109375
1761914540725835800,8.367835693359375,-0.7554931640625,-0.595672607421875,0.157196044921875
1761914540735891000,8.377890869140625,-0.7423095703125,-0.6195831298828125,0.1735076904296875
1761914540745947000,8.38794677734375,-0.72784423828125,-0.634674072265625,0.1814117431640625
1761914540756002800,8.3980029296875,-0.719207763671875,-0.6341094970703125,0.1807861328125
1761914540766058000,8.40805810546875,-0.713470458984375,-0.6307220458984375,0.17889404296875
1761914540776113700,8.41811376953125,-0.6985931396484375,-0.627532958984375,0.1827392578125
1761914540786169900,8.428169921875,-0.6815948486328125,-0.6084136962890625,0.1833953857421875
1761914540796224800,8.438224853515624,-0.6739501953125,-0.5816192626953125,0.17938232421875
1761914540806281000,8.448281005859375,-0.663848876953125,-0.5654754638671875,0.1763153076171875
1761914540816337000,8.4583369140625,-0.6511688232421875,-0.5561065673828125,0.175933837890625
1761914540826392800,8.468392822265624,-0.6400909423828125,-0.5480804443359375,0.174224853515625
1761914540836448000,8.478447998046875,-0.631744384765625,-0.5438385009765625,0.1723175048828125
1761914540846504000,8.48850390625,-0.6240081787109375,-0.5392303466796875,0.165252685546875
1761914540856559900,8.498559814453126,-0.6063232421875,-0.5367279052734375,0.15045166015625
1761914540866614800,8.50861474609375,-0.58233642578125,-0.541412353515625,0.1359710693359375
1761914540876670700,8.518670654296875,-0.5631866455078125,-0.549652099609375,0.12774658203125
1761914540886727000,8.528726806640625,-0.5487060546875,-0.5625152587890625,0.1282501220703125
1761914540896781800,8.53878173828125,-0.549713134765625,-0.5743408203125,0.1320648193359375
1761914540906838000,8.548838134765624,-0.5550079345703125,-0.5799102783203125,0.1343231201171875
1761914540916894000,8.55889404296875,-0.548919677734375,-0.5893707275390625,0.134552001953125
1761914540926948900,8.568948974609375,-0.5463104248046875,-0.6029510498046875,0.134185791015625
1761914540937004800,8.5790048828125,-0.5525360107421875,-0.6174468994140625,0.1349334716796875
1761914540947060500,8.589060546875,-0.566436767578125,-0.6273345947265625,0.1381683349609375
1761914540957117400,8.599117431640625,-0.5877227783203125,-0.637786865234375,0.1390533447265625
1761914540967173600,8.609173583984376,-0.6177825927734375,-0.6454315185546875,0.1417236328125
1761914540977229600,8.6192294921875,-0.6475677490234375,-0.6466064453125,0.14288330078125
1761914540987285200,8.62928515625,-0.665069580078125,-0.6396942138671875,0.1451873779296875
1761914540997340400,8.63934033203125,-0.67926025390625,-0.630889892578125,0.1439208984375
1761914541007396400,8.649396240234376,-0.690948486328125,-0.6254730224609375,0.1374664306640625
1761914541017452500,8.65945263671875,-0.6980438232421875,-0.6248321533203125,0.1262359619140625
1761914541027507500,8.669507568359375,-0.719635009765625,-0.62994384765625,0.1162109375
1761914541037563600,8.679563720703126,-0.7499847412109375,-0.641204833984375,0.1088714599609375
1761914541047619600,8.68961962890625,-0.7650909423828125,-0.6479949951171875,0.1026611328125
1761914541057674500,8.699674560546875,-0.7645263671875,-0.646270751953125,0.0986175537109375
1761914541067730400,8.70973046875,-0.76336669921875,-0.6456756591796875,0.096649169921875
1761914541077786400,8.719786376953126,-0.77020263671875,-0.6533660888671875,0.09539794921875
1761914541087841500,8.729841552734374,-0.7962188720703125,-0.6659393310546875,0.090606689453125
1761914541097897500,8.7398974609375,-0.8210906982421875,-0.6788787841796875,0.08197021484375
1761914541107953700,8.74995361328125,-0.8294525146484375,-0.6887054443359375,0.0707550048828125
1761914541118009600,8.760009521484376,-0.8413848876953125,-0.6921234130859375,0.0604705810546875
1761914541128064500,8.770064453125,-0.862060546875,-0.6928863525390625,0.053436279296875
1761914541138120400,8.780120361328125,-0.887115478515625,-0.694061279296875,0.0534210205078125
1761914541148176400,8.79017626953125,-0.910552978515625,-0.69677734375,0.05657958984375
1761914541158231600,8.8002314453125,-0.9326934814453125,-0.6943206787109375,0.05657958984375
1761914541168287500,8.81028759765625,-0.937225341796875,-0.6934661865234375,0.054534912109375
1761914541178343400,8.820343505859375,-0.928985595703125,-0.6952667236328125,0.0513153076171875
1761914541188398600,8.830398681640625,-0.9075469970703125,-0.70062255859375,0.0484161376953125
1761914541198454300,8.840454345703124,-0.8936614990234375,-0.7016754150390625,0.0500946044921875
1761914541208510500,8.850510498046875,-0.9074249267578125,-0.704681396484375,0.06640625
1761914541218565400,8.8605654296875,-0.9129486083984375,-0.7104949951171875,0.089324951171875
1761914541228621600,8.87062158203125,-0.909393310546875,-0.709716796875,0.10308837890625
1761914541238677500,8.880677490234374,-0.8958740234375,-0.6994476318359375,0.111785888671875
1761914541248733400,8.8907333984375,-0.87615966796875,-0.6883087158203125,0.1204071044921875
1761914541258788600,8.90078857421875,-0.8737335205078125,-0.68548583984375,0.1236572265625
1761914541268844500,8.910844482421876,-0.894134521484375,-0.685272216796875,0.118072509765625
1761914541278900500,8.920900390625,-0.918975830078125,-0.676910400390625,0.0965423583984375
1761914541288955400,8.930955322265625,-0.9504241943359375,-0.6492462158203125,0.06298828125
1761914541299011600,8.941011474609375,-0.9847259521484375,-0.6060943603515625,0.0207366943359375
1761914541309067500,8.951067626953124,-1.011383056640625,-0.5536956787109375,-0.02734375
1761914541319122400,8.961122314453124,-1.04412841796875,-0.5041046142578125,-0.0650634765625
1761914541329178600,8.9711787109375,-1.0394439697265625,-0.46099853515625,-0.10137939453125
1761914541339234600,8.981234619140626,-0.9976959228515625,-0.4224395751953125,-0.1355133056640625
1761914541349289500,8.99128955078125,-0.9444122314453125,-0.4086761474609375,-0.1547698974609375
1761914541359345400,9.001345458984375,-0.9155120849609375,-0.4074249267578125,-0.1705780029296875
1761914541369401300,9.0114013671875,-0.8913421630859375,-0.409637451171875,-0.167327880859375
1761914541379456500,9.02145654296875,-0.8809661865234375,-0.415283203125,-0.1514739990234375
1761914541389512400,9.031512451171874,-0.88775634765625,-0.4230804443359375,-0.1251678466796875
1761914541399568600,9.041568603515625,-0.8632354736328125,-0.45355224609375,-0.100372314453125
1761914541409624600,9.05162451171875,-0.82666015625,-0.4965667724609375,-0.078826904296875
1761914541419679500,9.061679443359376,-0.8040618896484375,-0.5286712646484375,-0.056243896484375
1761914541429735400,9.0717353515625,-0.7859344482421875,-0.54412841796875,-0.0403900146484375
1761914541439791400,9.081791259765625,-0.7601165771484375,-0.5470428466796875,-0.0341949462890625
1761914541449846500,9.091846435546875,-0.7370147705078125,-0.545684814453125,-0.0359039306640625
1761914541459902500,9.10190234375,-0.716522216796875,-0.5392303466796875,-0.0405731201171875
1761914541469958700,9.111958740234375,-0.7079925537109375,-0.52813720703125,-0.0443115234375
1761914541480013300,9.122013427734375,-0.6971435546875,-0.5134124755859375,-0.0441436767578125
1761914541490069500,9.132069580078126,-0.6838531494140625,-0.503265380859375,-0.041259765625
1761914541500125400,9.14212548828125,-0.6732330322265625,-0.50042724609375,-0.0364990234375
1761914541510180400,9.152180419921875,-0.6691741943359375,-0.50885009765625,-0.031036376953125
1761914541520236500,9.162236572265625,-0.667144775390625,-0.5208740234375,-0.0273590087890625
1761914541530292500,9.17229248046875,-0.6617279052734375,-0.5290985107421875,-0.02392578125
1761914541540347600,9.18234765625,-0.6557159423828125,-0.535186767578125,-0.0193939208984375
1761914541550403600,9.192403564453125,-0.653411865234375,-0.5455474853515625,-0.016143798828125
1761914541560459300,9.202459228515625,-0.6555328369140625,-0.5623931884765625,-0.011444091796875
1761914541570515500,9.212515380859376,-0.6579742431640625,-0.576904296875,-0.0041656494140625
1761914541580570400,9.2225703125,-0.6609039306640625,-0.59014892578125,0.0010223388671875
1761914541590626600,9.23262646484375,-0.661224365234375,-0.597625732421875,0.0066375732421875
1761914541600682500,9.2426826171875,-0.6550445556640625,-0.598541259765625,0.010955810546875
1761914541610737700,9.252737548828126,-0.6566619873046875,-0.6036224365234375,0.0186920166015625
1761914541620793600,9.262793701171875,-0.6612091064453125,-0.6136016845703125,0.0288543701171875
1761914541630849500,9.272849609375,-0.656768798828125,-0.623199462890625,0.0369110107421875
1761914541640904400,9.282904541015625,-0.652008056640625,-0.6272430419921875,0.0404205322265625
1761914541650960400,9.29296044921875,-0.637237548828125,-0.6277008056640625,0.040313720703125
1761914541661016600,9.3030166015625,-0.6324920654296875,-0.6355133056640625,0.04388427734375
1761914541671071500,9.313071533203125,-0.630218505859375,-0.64739990234375,0.0451202392578125
1761914541681127400,9.32312744140625,-0.6310272216796875,-0.66253662109375,0.042877197265625
1761914541691183600,9.33318359375,-0.65283203125,-0.6784820556640625,0.0457305908203125
1761914541701239600,9.343239501953125,-0.677215576171875,-0.692169189453125,0.0491943359375
1761914541711294500,9.35329443359375,-0.6922607421875,-0.700897216796875,0.0522613525390625
1761914541721350400,9.363350341796876,-0.7073974609375,-0.70220947265625,0.05853271484375
1761914541731406300,9.37340625,-0.73468017578125,-0.704010009765625,0.0587158203125
1761914541741461500,9.38346142578125,-0.75830078125,-0.708343505859375,0.0532379150390625
1761914541751517400,9.393517333984375,-0.797027587890625,-0.7110137939453125,0.0472259521484375
1761914541761573600,9.40357373046875,-0.8488922119140625,-0.7111053466796875,0.034027099609375
1761914541771628300,9.413628173828124,-0.8877105712890625,-0.7122344970703125,0.01788330078125
1761914541781684500,9.4236845703125,-0.9120330810546875,-0.7091827392578125,-0.0009918212890625
1761914541791740400,9.433740478515626,-0.9334259033203125,-0.7024688720703125,-0.0155792236328125
1761914541801795600,9.443795654296874,-0.958404541015625,-0.706085205078125,-0.0257415771484375
1761914541811851500,9.4538515625,-0.975921630859375,-0.720916748046875,-0.028900146484375
1761914541821907500,9.463907470703125,-0.974365234375,-0.74267578125,-0.0239715576171875
1761914541831962600,9.473962646484376,-0.95928955078125,-0.7624359130859375,-0.019805908203125
1761914541842018600,9.4840185546875,-0.9462890625,-0.75927734375,-0.0240325927734375
1761914541852074500,9.494074462890625,-0.9384613037109375,-0.742523193359375,-0.0154876708984375
1761914541862130400,9.50413037109375,-0.93597412109375,-0.749603271484375,0.01605224609375
1761914541872185300,9.514185302734376,-0.9332275390625,-0.7746124267578125,0.0526580810546875
1761914541882241500,9.524241455078124,-0.929534912109375,-0.783599853515625,0.0775299072265625
1761914541892297500,9.53429736328125,-0.93402099609375,-0.770477294921875,0.097503662109375
1761914541902352600,9.5443525390625,-0.9210052490234375,-0.7462921142578125,0.112548828125
1761914541912408600,9.55440869140625,-0.892333984375,-0.7076873779296875,0.1124267578125
1761914541922464300,9.56446435546875,-0.876190185546875,-0.649200439453125,0.1000823974609375
1761914541932519400,9.57451953125,-0.8620758056640625,-0.5851898193359375,0.087310791015625
1761914541942575600,9.58457568359375,-0.8468475341796875,-0.5337371826171875,0.071685791015625
1761914541952631800,9.5946318359375,-0.82025146484375,-0.519134521484375,0.0723114013671875
1761914541962686500,9.6046865234375,-0.8010101318359375,-0.5259857177734375,0.0729217529296875
1761914541972742700,9.61474267578125,-0.777587890625,-0.5372467041015625,0.08172607421875
1761914541982798600,9.624798583984376,-0.7486572265625,-0.5570526123046875,0.0897369384765625
1761914541992853800,9.634853759765624,-0.738525390625,-0.5662841796875,0.094085693359375
1761914542002909700,9.64490966796875,-0.7353057861328125,-0.5842132568359375,0.1147003173828125
1761914542012965600,9.654965576171875,-0.7398681640625,-0.611846923828125,0.136260986328125
1761914542023020500,9.6650205078125,-0.74951171875,-0.63543701171875,0.1500091552734375
1761914542033076500,9.675076416015624,-0.74798583984375,-0.6518402099609375,0.1586761474609375
1761914542043132400,9.68513232421875,-0.7448883056640625,-0.654052734375,0.1634979248046875
1761914542053188600,9.695188720703126,-0.7516937255859375,-0.6455841064453125,0.161834716796875
1761914542063243500,9.705243408203126,-0.764892578125,-0.630218505859375,0.149505615234375
1761914542073299700,9.7152998046875,-0.7755279541015625,-0.609405517578125,0.125396728515625
1761914542083355600,9.725355712890625,-0.764434814453125,-0.5841522216796875,0.0984039306640625
1761914542093410800,9.735410888671876,-0.7388763427734375,-0.5519256591796875,0.074432373046875
1761914542103466500,9.745466552734374,-0.7147369384765625,-0.5306396484375,0.054595947265625
1761914542113522400,9.7555224609375,-0.694854736328125,-0.510955810546875,0.0449371337890625
1761914542123577600,9.76557763671875,-0.683074951171875,-0.5001373291015625,0.0479278564453125
1761914542133633500,9.775633544921876,-0.6749420166015625,-0.50213623046875,0.0572662353515625
1761914542143689700,9.785689697265624,-0.6678924560546875,-0.508056640625,0.0679168701171875
1761914542153744600,9.79574462890625,-0.659759521484375,-0.5166778564453125,0.083770751953125
1761914542163800800,9.80580078125,-0.640655517578125,-0.527679443359375,0.0975494384765625
1761914542173856500,9.8158564453125,-0.62445068359375,-0.5394439697265625,0.111328125
1761914542183911700,9.82591162109375,-0.6167755126953125,-0.5557708740234375,0.120574951171875
1761914542193967600,9.835967529296875,-0.620635986328125,-0.5775299072265625,0.1267547607421875
1761914542204023600,9.8460234375,-0.6280975341796875,-0.60211181640625,0.131378173828125
1761914542214079700,9.856079833984374,-0.63702392578125,-0.619537353515625,0.130401611328125
1761914542224134700,9.866134765625,-0.639312744140625,-0.6269378662109375,0.123992919921875
1761914542234190600,9.876190673828125,-0.638519287109375,-0.6296844482421875,0.11761474609375
1761914542244246800,9.886246826171876,-0.648956298828125,-0.6350555419921875,0.115631103515625
1761914542254301400,9.896301513671874,-0.670440673828125,-0.6362457275390625,0.11431884765625
1761914542264357600,9.906357666015625,-0.6932373046875,-0.630126953125,0.108306884765625
1761914542274413600,9.91641357421875,-0.706695556640625,-0.6203460693359375,0.098114013671875
1761914542284468700,9.92646875,-0.7091827392578125,-0.61248779296875,0.0893096923828125
1761914542294524700,9.936524658203124,-0.7082366943359375,-0.6123199462890625,0.0818023681640625
1761914542304580600,9.94658056640625,-0.7086334228515625,-0.614593505859375,0.073577880859375
1761914542314635500,9.956635498046875,-0.706634521484375,-0.6170196533203125,0.07012939453125
1761914542324691500,9.96669140625,-0.713958740234375,-0.614837646484375,0.0710296630859375
1761914542334747600,9.97674755859375,-0.7247314453125,-0.6174774169921875,0.0712127685546875
1761914542344802600,9.986802490234375,-0.728515625,-0.6270294189453125,0.0761260986328125
1761914542354858800,9.996858642578125,-0.7305755615234375,-0.6337738037109375,0.0820159912109375
1761914542364914700,10.006914794921874,-0.732513427734375,-0.640289306640625,0.0865020751953125
1761914542374970600,10.016970703125,-0.7334442138671875,-0.650604248046875,0.0873565673828125
1761914542385025500,10.027025634765625,-0.7422027587890625,-0.6569366455078125,0.0861358642578125
1761914542395081500,10.03708154296875,-0.7567138671875,-0.65753173828125,0.0825347900390625
1761914542405137700,10.0471376953125,-0.7643280029296875,-0.6592254638671875,0.0813446044921875
1761914542415192600,10.057192626953125,-0.7770538330078125,-0.6631622314453125,0.0852203369140625
1761914542425248500,10.06724853515625,-0.7886505126953125,-0.67095947265625,0.08660888671875
1761914542435304700,10.0773046875,-0.798614501953125,-0.6786041259765625,0.0855712890625
1761914542445359600,10.087359619140624,-0.81524658203125,-0.685150146484375,0.082122802734375
1761914542455415800,10.097415771484375,-0.8446807861328125,-0.692596435546875,0.0758209228515625
1761914542465471500,10.107471435546875,-0.8733673095703125,-0.6964874267578125,0.06842041015625
1761914542475526700,10.117526611328126,-0.901641845703125,-0.6920623779296875,0.058624267578125
1761914542485582600,10.12758251953125,-0.93878173828125,-0.686767578125,0.054962158203125
1761914542495638500,10.137638427734375,-0.9636383056640625,-0.6952972412109375,0.059814453125
1761914542505693700,10.147693603515625,-0.96661376953125,-0.71771240234375,0.06597900390625
1761914542515749600,10.15774951171875,-0.96484375,-0.7282867431640625,0.063262939453125
1761914542525805800,10.167805908203125,-0.9485015869140625,-0.71905517578125,0.05682373046875
1761914542535860500,10.177860595703125,-0.907470703125,-0.71630859375,0.057769775390625
1761914542545916700,10.187916748046876,-0.86187744140625,-0.73419189453125,0.0655059814453125
1761914542555972600,10.19797265625,-0.830963134765625,-0.7530517578125,0.07635498046875
1761914542566028500,10.208028564453125,-0.820465087890625,-0.7452850341796875,0.0781402587890625
1761914542576083700,10.218083740234375,-0.8056182861328125,-0.7168731689453125,0.07342529296875
1761914542586139600,10.2281396484375,-0.7947845458984375,-0.6968994140625,0.064483642578125
1761914542596195600,10.238195556640624,-0.810699462890625,-0.6786651611328125,0.0504302978515625
1761914542606250500,10.24825048828125,-0.8377838134765625,-0.640289306640625,0.0243072509765625
1761914542616306400,10.258306396484375,-0.868621826171875,-0.588043212890625,-0.007904052734375
1761914542626362600,10.268362548828126,-0.888214111328125,-0.5421905517578125,-0.034271240234375
1761914542636417500,10.27841748046875,-0.8826141357421875,-0.5072021484375,-0.0578460693359375
1761914542646473700,10.2884736328125,-0.857086181640625,-0.483367919921875,-0.07958984375
1761914542656529700,10.29852978515625,-0.8218536376953125,-0.46923828125,-0.1014556884765625
1761914542666584800,10.308584716796876,-0.8025360107421875,-0.4505462646484375,-0.1208953857421875
1761914542676640500,10.318640625,-0.7993927001953125,-0.4319000244140625,-0.1307830810546875
1761914542686696400,10.328696533203125,-0.7821807861328125,-0.4452972412109375,-0.118408203125
1761914542696751600,10.338751708984375,-0.7587890625,-0.48919677734375,-0.085601806640625
1761914542706807600,10.3488076171875,-0.7476348876953125,-0.5304107666015625,-0.04815673828125
1761914542716863700,10.35886376953125,-0.7393646240234375,-0.5532379150390625,-0.022064208984375
1761914542726918700,10.368918701171875,-0.73858642578125,-0.561614990234375,-0.0097503662109375
1761914542736974600,10.378974609375,-0.75091552734375,-0.564208984375,-0.0017852783203125
1761914542747030500,10.389030517578124,-0.7719879150390625,-0.56146240234375,0.0084381103515625
1761914542757086500,10.39908642578125,-0.771148681640625,-0.5543212890625,0.016387939453125
1761914542767141600,10.4091416015625,-0.7523651123046875,-0.5458831787109375,0.0202789306640625
1761914542777197600,10.419197509765626,-0.74017333984375,-0.53955078125,0.0171966552734375
1761914542787253500,10.42925341796875,-0.7365264892578125,-0.533050537109375,0.008087158203125
1761914542797308700,10.43930859375,-0.7440032958984375,-0.521331787109375,0.0088043212890625
1761914542807364600,10.449364501953125,-0.74200439453125,-0.515350341796875,0.0149078369140625
1761914542817420800,10.4594208984375,-0.724945068359375,-0.51898193359375,0.0265960693359375
1761914542827475500,10.469475341796874,-0.7073211669921875,-0.5335540771484375,0.0424346923828125
1761914542837531600,10.47953173828125,-0.6955413818359375,-0.553497314453125,0.0565643310546875
1761914542847587600,10.489587646484376,-0.685882568359375,-0.5726165771484375,0.064178466796875
1761914542857642800,10.499642822265624,-0.6859588623046875,-0.5905303955078125,0.06488037109375
1761914542867698700,10.50969873046875,-0.6885833740234375,-0.6141357421875,0.0626373291015625
1761914542877754600,10.519754638671875,-0.68853759765625,-0.6369171142578125,0.0602264404296875
1761914542887809500,10.5298095703125,-0.6811370849609375,-0.6526947021484375,0.0588531494140625
1761914542897865500,10.539865478515624,-0.676116943359375,-0.6603546142578125,0.059783935546875
1761914542907921700,10.549921630859375,-0.67803955078125,-0.6636505126953125,0.056243896484375
1761914542917976600,10.5599765625,-0.6761474609375,-0.675750732421875,0.0435638427734375
1761914542928032500,10.570032470703126,-0.6501922607421875,-0.6891021728515625,0.0403289794921875
1761914542938088700,10.580088623046874,-0.6361846923828125,-0.68853759765625,0.0497283935546875
1761914542948144600,10.59014453125,-0.64117431640625,-0.6867828369140625,0.065093994140625
1761914542958199600,10.600199462890625,-0.65594482421875,-0.701171875,0.0882568359375
1761914542968255500,10.61025537109375,-0.6696929931640625,-0.7230224609375,0.106201171875
1761914542978311400,10.6203115234375,-0.672515869140625,-0.737060546875,0.1187591552734375
1761914542988366600,10.63036669921875,-0.6623992919921875,-0.7379913330078125,0.127410888671875
1761914542998422500,10.640422607421876,-0.6533660888671875,-0.73992919921875,0.1273193359375
1761914543008478700,10.650478759765624,-0.6442413330078125,-0.749542236328125,0.124298095703125
1761914543018533600,10.66053369140625,-0.635650634765625,-0.7603302001953125,0.12030029296875
1761914543028589800,10.67058984375,-0.6180877685546875,-0.7732696533203125,0.1114959716796875
1761914543038645500,10.6806455078125,-0.594451904296875,-0.7876739501953125,0.1017608642578125
1761914543048700700,10.69070068359375,-0.5884246826171875,-0.796234130859375,0.0912322998046875
1761914543058756600,10.700756591796875,-0.5941619873046875,-0.797576904296875,0.0753021240234375
1761914543068812500,10.7108125,-0.593597412109375,-0.7850341796875,0.06781005859375
1761914543078867700,10.72086767578125,-0.6018218994140625,-0.7743988037109375,0.0769805908203125
1761914543088923600,10.730923583984374,-0.632415771484375,-0.783721923828125,0.091766357421875
1761914543098979600,10.7409794921875,-0.6596832275390625,-0.7933502197265625,0.095184326171875
1761914543109034500,10.751034423828125,-0.6745758056640625,-0.790435791015625,0.0980224609375
1761914543119090400,10.76109033203125,-0.6810760498046875,-0.755126953125,0.1434478759765625
1761914543129146600,10.771146728515625,-0.82855224609375,-0.7790679931640625,0.210968017578125
1761914543139202600,10.78120263671875,-0.8974151611328125,-0.843017578125,0.185546875
1761914543149257700,10.7912578125,-0.852630615234375,-0.8484039306640625,0.1478424072265625
1761914543159313700,10.801313720703124,-0.8318023681640625,-0.8523712158203125,0.119354248046875
1761914543169369600,10.81136962890625,-0.7482757568359375,-0.8626556396484375,0.074981689453125
1761914543179424500,10.821424560546875,-0.7617645263671875,-0.787384033203125,0.1150665283203125
